Model Number: SPM-002-B   
Serial Number: 70087108
Firmware Version: 004.15.4
Exposure Time: 100000.000000us
Data Taken on: 11-12-2020 19:27:43.330
Wavelength	Amplitude
221.570786	0.000000
221.663406	0.000000
221.756027	0.000000
221.848648	0.000000
221.941269	0.000000
222.033905	0.000000
222.126526	0.000000
222.219162	0.000000
222.311798	0.000000
222.404419	0.000000
222.497055	0.000000
222.589676	0.000000
222.682312	0.000000
222.774933	0.000000
222.867569	0.000000
222.960205	0.000000
223.052841	0.000000
223.145462	0.000000
223.238098	0.000000
223.330734	0.000000
223.423386	0.000000
223.516022	0.000000
223.608658	0.000000
223.701309	0.000000
223.793945	0.000000
223.886581	0.000000
223.979218	0.000000
224.071869	0.000000
224.164505	0.000000
224.257156	0.000000
224.349792	0.000000
224.442444	0.000000
224.535095	0.000000
224.627747	0.000000
224.720398	0.000000
224.813034	0.000000
224.905685	0.000000
224.998337	146.520000
225.090988	146.280000
225.183640	146.400000
225.276291	146.100000
225.368942	146.340000
225.461594	146.540000
225.554245	146.800000
225.646912	146.460000
225.739578	147.260000
225.832230	147.400000
225.924896	146.860000
226.017548	147.000000
226.110199	147.720000
226.202866	146.720000
226.295532	146.480000
226.388184	146.320000
226.480850	145.720000
226.573517	144.840000
226.666168	145.200000
226.758835	145.660000
226.851501	146.500000
226.944183	146.820000
227.036850	146.760000
227.129517	146.840000
227.222183	146.900000
227.314850	146.600000
227.407516	147.180000
227.500198	148.000000
227.592865	147.820000
227.685532	147.100000
227.778214	146.620000
227.870880	146.620000
227.963562	146.780000
228.056229	147.220000
228.148926	147.460000
228.241592	148.460000
228.334274	148.060000
228.426956	147.500000
228.519638	147.520000
228.612305	147.120000
228.704987	146.980000
228.797668	147.260000
228.890350	147.160000
228.983032	146.340000
229.075714	147.080000
229.168396	146.540000
229.261108	145.920000
229.353790	146.100000
229.446472	146.640000
229.539169	146.300000
229.631851	145.800000
229.724533	146.080000
229.817230	146.200000
229.909912	147.140000
230.002609	147.380000
230.095306	147.740000
230.187988	147.780000
230.280685	147.580000
230.373383	146.140000
230.466095	145.860000
230.558792	146.260000
230.651474	146.060000
230.744171	145.920000
230.836868	146.060000
230.929581	146.100000
231.022278	146.100000
231.114975	146.380000
231.207672	146.260000
231.300369	146.740000
231.393082	146.820000
231.485779	146.500000
231.578506	146.340000
231.671204	146.800000
231.763916	146.680000
231.856613	146.860000
231.949326	146.840000
232.042023	146.800000
232.134735	146.320000
232.227448	145.780000
232.320160	146.080000
232.412872	146.340000
232.505585	147.060000
232.598297	147.500000
232.691010	147.460000
232.783722	146.800000
232.876450	147.320000
232.969162	146.640000
233.061874	146.300000
233.154587	146.080000
233.247314	146.300000
233.340027	145.420000
233.432739	145.700000
233.525467	145.420000
233.618179	146.260000
233.710907	145.740000
233.803635	146.140000
233.896347	145.880000
233.989090	146.580000
234.081818	146.360000
234.174545	146.740000
234.267258	146.200000
234.359985	146.640000
234.452713	146.220000
234.545441	145.740000
234.638168	145.680000
234.730896	146.600000
234.823639	146.360000
234.916367	146.960000
235.009094	147.480000
235.101822	147.360000
235.194580	146.840000
235.287308	146.960000
235.380051	146.400000
235.472778	146.800000
235.565521	147.020000
235.658249	146.820000
235.750992	146.840000
235.843719	146.900000
235.936462	146.780000
236.029205	146.560000
236.121948	146.380000
236.214691	146.440000
236.307449	147.060000
236.400192	146.560000
236.492935	146.580000
236.585678	146.700000
236.678421	146.800000
236.771164	146.200000
236.863907	146.920000
236.956665	147.200000
237.049408	148.900000
237.142151	148.620000
237.234909	149.760000
237.327652	149.560000
237.420410	149.340000
237.513153	148.000000
237.605927	147.960000
237.698669	147.020000
237.791428	146.280000
237.884186	146.920000
237.976944	146.400000
238.069702	146.660000
238.162445	146.040000
238.255203	146.380000
238.347961	146.380000
238.440720	146.660000
238.533478	146.380000
238.626266	146.600000
238.719025	147.020000
238.811783	146.600000
238.904541	146.540000
238.997314	146.360000
239.090073	146.140000
239.182831	146.120000
239.275604	146.800000
239.368362	146.720000
239.461136	147.100000
239.553909	147.260000
239.646667	146.820000
239.739441	146.380000
239.832214	146.620000
239.925003	146.700000
240.017761	147.400000
240.110535	148.140000
240.203308	147.400000
240.296082	147.540000
240.388855	147.160000
240.481628	146.940000
240.574417	146.740000
240.667191	147.240000
240.759964	146.940000
240.852737	147.100000
240.945526	146.700000
241.038315	146.140000
241.131088	146.460000
241.223877	146.660000
241.316650	146.140000
241.409439	146.480000
241.502228	146.120000
241.595001	146.080000
241.687790	145.960000
241.780579	146.240000
241.873367	146.400000
241.966141	147.180000
242.058929	146.780000
242.151718	147.040000
242.244507	147.480000
242.337311	146.740000
242.430099	147.340000
242.522903	147.420000
242.615692	146.800000
242.708481	146.620000
242.801270	147.480000
242.894073	146.940000
242.986862	147.240000
243.079651	148.060000
243.172455	147.760000
243.265244	147.560000
243.358063	146.820000
243.450867	147.040000
243.543655	146.600000
243.636459	146.880000
243.729263	147.000000
243.822067	147.600000
243.914856	147.560000
244.007660	148.000000
244.100464	147.800000
244.193268	147.260000
244.286072	147.200000
244.378876	146.760000
244.471680	146.300000
244.564499	146.940000
244.657318	147.760000
244.750122	147.760000
244.842926	147.100000
244.935745	147.380000
245.028549	146.700000
245.121368	145.980000
245.214172	145.900000
245.306992	146.860000
245.399796	146.680000
245.492615	147.120000
245.585434	147.240000
245.678253	147.340000
245.771072	147.140000
245.863892	147.380000
245.956711	147.500000
246.049530	147.540000
246.142349	147.320000
246.235168	147.140000
246.327988	147.660000
246.420807	147.160000
246.513626	147.160000
246.606445	147.080000
246.699280	147.340000
246.792099	146.640000
246.884918	146.480000
246.977753	146.120000
247.070587	146.440000
247.163422	146.400000
247.256241	146.860000
247.349075	147.160000
247.441895	147.460000
247.534729	147.440000
247.627563	147.060000
247.720383	146.920000
247.813217	147.020000
247.906052	147.040000
247.998886	146.840000
248.091736	146.940000
248.184570	146.420000
248.277405	146.340000
248.370239	146.900000
248.463074	147.620000
248.555908	148.080000
248.648743	148.260000
248.741592	148.360000
248.834427	147.620000
248.927261	146.660000
249.020111	146.660000
249.112946	147.220000
249.205795	146.620000
249.298630	146.800000
249.391495	147.040000
249.484344	147.060000
249.577179	146.820000
249.670029	147.340000
249.762878	148.040000
249.855728	147.880000
249.948563	147.600000
250.041412	147.200000
250.134262	147.160000
250.227112	146.720000
250.319962	146.880000
250.412827	146.840000
250.505692	146.560000
250.598541	146.480000
250.691391	145.980000
250.784241	146.000000
250.877106	146.160000
250.969955	146.060000
251.062805	146.840000
251.155670	147.780000
251.248520	147.680000
251.341385	147.860000
251.434235	147.980000
251.527100	147.100000
251.619965	146.120000
251.712814	146.680000
251.805695	146.480000
251.898560	146.900000
251.991425	147.480000
252.084290	147.780000
252.177155	147.180000
252.270020	146.860000
252.362885	146.540000
252.455750	146.320000
252.548615	146.020000
252.641479	145.860000
252.734360	145.780000
252.827240	145.800000
252.920105	145.660000
253.012970	145.820000
253.105850	146.380000
253.198715	146.160000
253.291595	146.140000
253.384460	146.000000
253.477341	145.800000
253.570221	145.740000
253.663086	145.880000
253.755966	146.360000
253.848846	146.560000
253.941727	147.340000
254.034592	147.300000
254.127472	147.060000
254.220367	146.880000
254.313248	147.060000
254.406128	146.120000
254.499008	146.160000
254.591904	147.280000
254.684784	147.560000
254.777664	147.420000
254.870544	147.400000
254.963440	147.220000
255.056335	147.100000
255.149216	146.620000
255.242111	146.960000
255.334991	147.720000
255.427887	147.860000
255.520767	147.740000
255.613663	148.040000
255.706558	147.240000
255.799438	146.900000
255.892334	146.580000
255.985229	146.240000
256.078125	146.360000
256.171021	146.520000
256.263916	146.940000
256.356812	147.380000
256.449707	147.720000
256.542603	147.320000
256.635498	147.840000
256.728394	147.280000
256.821289	146.640000
256.914215	146.460000
257.007080	146.840000
257.100006	146.900000
257.192932	147.420000
257.285828	147.960000
257.378723	148.000000
257.471619	147.620000
257.564545	147.120000
257.657440	146.960000
257.750336	147.240000
257.843262	146.720000
257.936157	147.820000
258.029053	148.260000
258.121979	148.160000
258.214874	147.660000
258.307800	147.480000
258.400696	146.340000
258.493622	146.260000
258.586517	145.780000
258.679443	146.220000
258.772339	146.240000
258.865265	146.400000
258.958160	145.880000
259.051086	146.440000
259.144012	145.820000
259.236938	146.600000
259.329834	146.560000
259.422791	146.560000
259.515717	146.040000
259.608612	146.060000
259.701538	145.940000
259.794464	145.760000
259.887390	145.660000
259.980316	145.960000
260.073212	145.940000
260.166138	144.780000
260.259064	145.340000
260.351990	146.440000
260.444916	146.160000
260.537842	146.740000
260.630768	148.100000
260.723694	147.860000
260.816620	147.300000
260.909546	147.460000
261.002472	146.780000
261.095398	145.860000
261.188354	145.640000
261.281281	145.220000
261.374207	145.340000
261.467133	146.400000
261.560089	146.920000
261.653015	146.980000
261.745972	147.780000
261.838867	148.300000
261.931824	148.100000
262.024780	147.640000
262.117706	147.880000
262.210663	147.780000
262.303589	147.480000
262.396515	147.320000
262.489471	148.340000
262.582397	148.100000
262.675354	147.320000
262.768280	147.460000
262.861237	147.280000
262.954163	146.900000
263.047119	147.020000
263.140045	146.920000
263.233002	146.560000
263.325958	146.660000
263.418884	146.220000
263.511841	146.000000
263.604797	146.420000
263.697723	146.460000
263.790680	146.120000
263.883636	146.680000
263.976593	146.640000
264.069550	146.500000
264.162476	146.360000
264.255463	146.580000
264.348419	146.100000
264.441376	146.440000
264.534332	146.140000
264.627289	146.500000
264.720245	146.600000
264.813202	146.220000
264.906158	146.340000
264.999115	147.080000
265.092072	146.860000
265.185028	147.520000
265.277985	147.840000
265.370941	147.620000
265.463898	147.200000
265.556854	146.800000
265.649811	145.560000
265.742798	145.780000
265.835754	145.960000
265.928711	146.460000
266.021667	146.640000
266.114655	147.020000
266.207611	147.280000
266.300568	146.780000
266.393585	146.160000
266.486511	146.580000
266.579498	146.160000
266.672485	145.840000
266.765442	145.860000
266.858429	146.320000
266.951385	146.000000
267.044342	146.220000
267.137329	146.260000
267.230316	146.780000
267.323273	146.220000
267.416260	146.800000
267.509216	146.740000
267.602203	146.140000
267.695160	146.260000
267.788147	146.520000
267.881134	145.580000
267.974091	145.960000
268.067078	146.280000
268.160065	146.000000
268.253052	145.800000
268.346008	146.240000
268.438995	145.800000
268.531982	146.240000
268.624969	145.980000
268.717987	146.480000
268.810944	146.480000
268.903961	146.620000
268.996948	146.260000
269.089905	146.480000
269.182892	146.440000
269.275879	146.860000
269.368866	146.520000
269.461853	146.660000
269.554871	146.620000
269.647858	146.580000
269.740845	146.580000
269.833832	147.080000
269.926819	146.760000
270.019806	147.100000
270.112793	146.760000
270.205811	146.720000
270.298798	146.480000
270.391785	147.100000
270.484772	146.460000
270.577789	146.560000
270.670776	146.040000
270.763763	146.000000
270.856750	145.640000
270.949768	145.760000
271.042786	145.960000
271.135773	146.160000
271.228790	146.420000
271.321808	146.280000
271.414795	145.980000
271.507782	145.800000
271.600800	145.520000
271.693817	145.700000
271.786804	146.160000
271.879822	146.580000
271.972809	146.620000
272.065826	147.380000
272.158844	146.760000
272.251831	147.080000
272.344849	147.240000
272.437866	146.960000
272.530853	146.800000
272.623871	147.300000
272.716888	146.280000
272.809906	146.580000
272.902893	146.760000
272.995911	146.300000
273.088928	146.280000
273.181946	146.700000
273.274963	145.900000
273.367981	146.000000
273.460999	146.220000
273.554047	146.760000
273.647003	147.460000
273.740051	147.940000
273.833069	148.100000
273.926086	148.100000
274.019135	147.600000
274.112152	146.960000
274.205170	146.860000
274.298187	146.940000
274.391205	146.600000
274.484222	146.360000
274.577240	146.580000
274.670258	146.520000
274.763306	146.120000
274.856323	146.660000
274.949341	147.000000
275.042358	147.620000
275.135406	147.320000
275.228424	147.340000
275.321442	147.060000
275.414490	146.720000
275.507507	146.480000
275.600525	147.020000
275.693573	146.980000
275.786591	146.680000
275.879669	146.920000
275.972656	146.300000
276.065735	146.000000
276.158752	146.460000
276.251801	147.400000
276.344818	147.540000
276.437866	147.760000
276.530884	147.760000
276.623932	146.840000
276.716980	146.520000
276.809998	146.360000
276.903046	146.360000
276.996094	147.400000
277.089111	148.540000
277.182159	148.840000
277.275208	148.860000
277.368256	148.720000
277.461304	148.080000
277.554321	147.020000
277.647369	146.920000
277.740417	146.720000
277.833466	146.660000
277.926514	146.240000
278.019562	147.120000
278.112610	146.320000
278.205688	146.580000
278.298706	146.680000
278.391785	146.540000
278.484833	145.820000
278.577881	145.840000
278.670929	146.100000
278.763977	146.520000
278.857025	147.320000
278.950073	147.720000
279.043121	147.940000
279.136169	147.440000
279.229248	146.840000
279.322296	146.300000
279.415344	146.060000
279.508392	146.040000
279.601440	146.200000
279.694519	146.180000
279.787567	146.060000
279.880615	146.040000
279.973694	146.180000
280.066742	146.180000
280.159790	146.620000
280.252869	146.560000
280.345917	146.780000
280.438995	146.520000
280.532074	146.380000
280.625122	146.260000
280.718201	147.100000
280.811279	147.080000
280.904327	147.120000
280.997406	147.240000
281.090454	147.020000
281.183533	146.440000
281.276581	146.640000
281.369659	146.260000
281.462738	146.420000
281.555786	146.880000
281.648865	146.660000
281.741943	146.580000
281.835022	147.560000
281.928070	147.680000
282.021149	147.320000
282.114227	147.720000
282.207306	147.420000
282.300385	147.260000
282.393433	147.260000
282.486511	147.180000
282.579590	147.420000
282.672668	147.760000
282.765747	147.160000
282.858856	146.760000
282.951904	147.080000
283.045013	146.880000
283.138062	147.020000
283.231171	147.720000
283.324249	148.000000
283.417328	147.620000
283.510406	147.180000
283.603485	147.020000
283.696564	146.580000
283.789642	146.840000
283.882751	146.960000
283.975830	147.540000
284.068909	147.040000
284.161987	147.740000
284.255066	147.040000
284.348175	147.040000
284.441254	146.900000
284.534332	147.600000
284.627441	147.060000
284.720520	147.160000
284.813599	147.480000
284.906708	147.660000
284.999786	146.840000
285.092896	146.480000
285.185974	147.460000
285.279053	146.700000
285.372192	146.180000
285.465240	147.320000
285.558380	147.420000
285.651459	146.880000
285.744568	148.000000
285.837677	147.700000
285.930756	147.080000
286.023865	146.980000
286.116943	146.260000
286.210052	146.080000
286.303162	146.680000
286.396240	146.880000
286.489349	146.680000
286.582458	147.240000
286.675568	146.760000
286.768646	146.700000
286.861755	146.820000
286.954865	147.860000
287.047974	147.120000
287.141083	147.120000
287.234161	146.760000
287.327271	146.480000
287.420380	146.480000
287.513519	146.840000
287.606598	146.940000
287.699738	147.380000
287.792816	147.180000
287.885956	146.700000
287.979034	146.800000
288.072174	146.800000
288.165283	146.860000
288.258392	147.300000
288.351501	147.140000
288.444611	147.500000
288.537720	147.860000
288.630859	147.580000
288.723969	147.540000
288.817078	147.620000
288.910187	147.360000
289.003296	147.080000
289.096436	146.820000
289.189545	146.580000
289.282654	146.420000
289.375763	146.940000
289.468903	147.160000
289.562012	147.400000
289.655121	147.380000
289.748260	147.460000
289.841400	147.360000
289.934509	147.320000
290.027649	147.580000
290.120728	147.540000
290.213898	147.840000
290.306976	147.360000
290.400146	147.320000
290.493256	146.660000
290.586395	146.620000
290.679535	146.460000
290.772644	146.520000
290.865784	145.700000
290.958893	145.920000
291.052032	146.080000
291.145172	146.080000
291.238281	145.900000
291.331421	146.320000
291.424561	146.780000
291.517670	146.180000
291.610809	146.180000
291.703949	146.100000
291.797089	146.240000
291.890228	145.820000
291.983337	146.080000
292.076477	145.940000
292.169617	146.400000
292.262756	146.520000
292.355927	146.380000
292.449036	146.400000
292.542206	146.500000
292.635315	146.720000
292.728485	146.980000
292.821625	147.000000
292.914764	147.860000
293.007904	148.080000
293.101044	147.800000
293.194183	147.560000
293.287323	147.540000
293.380463	147.040000
293.473602	146.560000
293.566742	146.760000
293.659882	146.880000
293.753021	147.300000
293.846191	147.200000
293.939331	146.900000
294.032471	146.620000
294.125610	146.140000
294.218781	146.320000
294.311920	146.220000
294.405060	146.760000
294.498230	146.800000
294.591370	147.180000
294.684540	146.340000
294.777679	146.420000
294.870850	146.780000
294.963959	146.680000
295.057159	146.440000
295.150299	146.960000
295.243469	146.760000
295.336609	146.100000
295.429779	146.260000
295.522919	146.720000
295.616089	146.800000
295.709229	147.720000
295.802399	148.080000
295.895569	147.700000
295.988708	147.160000
296.081879	146.980000
296.175018	145.840000
296.268188	145.600000
296.361359	146.160000
296.454529	146.560000
296.547668	146.620000
296.640839	147.300000
296.734009	147.200000
296.827179	147.360000
296.920319	147.280000
297.013519	147.180000
297.106659	147.220000
297.199860	147.540000
297.292999	147.260000
297.386200	147.060000
297.479309	146.940000
297.572510	146.740000
297.665680	146.220000
297.758850	146.280000
297.852020	146.200000
297.945190	145.860000
298.038361	145.640000
298.131531	146.820000
298.224701	146.500000
298.317871	146.260000
298.411072	146.260000
298.504242	146.440000
298.597412	145.780000
298.690582	145.920000
298.783752	146.100000
298.876923	146.600000
298.970093	146.560000
299.063293	147.020000
299.156464	147.320000
299.249634	147.680000
299.342834	147.840000
299.436005	148.080000
299.529205	147.520000
299.622345	147.760000
299.715576	147.200000
299.808716	146.940000
299.901917	146.780000
299.995117	147.120000
300.088287	147.200000
300.181488	147.320000
300.274658	147.300000
300.367828	147.400000
300.461029	147.340000
300.554199	147.000000
300.647400	147.080000
300.740601	147.600000
300.833771	147.380000
300.926971	147.500000
301.020142	147.320000
301.113342	147.300000
301.206512	146.680000
301.299713	147.000000
301.392914	147.080000
301.486084	147.320000
301.579285	147.220000
301.672516	147.780000
301.765686	147.440000
301.858887	147.080000
301.952057	146.500000
302.045288	146.840000
302.138458	146.620000
302.231659	146.300000
302.324860	146.180000
302.418060	146.160000
302.511261	146.020000
302.604462	146.220000
302.697662	146.120000
302.790863	145.980000
302.884064	146.080000
302.977264	145.920000
303.070465	146.080000
303.163666	147.080000
303.256866	147.580000
303.350067	147.560000
303.443268	147.680000
303.536469	147.460000
303.629669	146.760000
303.722870	146.660000
303.816071	146.520000
303.909271	146.460000
304.002472	145.940000
304.095673	145.700000
304.188934	144.980000
304.282104	145.780000
304.375336	145.800000
304.468506	146.080000
304.561768	146.160000
304.654968	147.000000
304.748169	146.580000
304.841370	146.280000
304.934601	146.460000
305.027802	146.540000
305.121002	146.160000
305.214233	146.200000
305.307434	146.680000
305.400665	147.200000
305.493866	146.700000
305.587097	146.980000
305.680298	146.740000
305.773499	146.720000
305.866730	146.120000
305.959930	147.060000
306.053162	146.900000
306.146393	146.740000
306.239594	145.820000
306.332825	145.560000
306.426025	145.660000
306.519287	145.300000
306.612488	145.400000
306.705719	145.940000
306.798920	146.460000
306.892181	145.940000
306.985352	145.980000
307.078613	145.600000
307.171844	146.180000
307.265045	145.440000
307.358276	145.180000
307.451508	145.560000
307.544739	146.240000
307.637970	145.700000
307.731201	146.080000
307.824402	146.940000
307.917633	147.080000
308.010864	147.380000
308.104095	147.720000
308.197327	147.760000
308.290558	147.360000
308.383789	146.680000
308.477020	146.120000
308.570251	145.740000
308.663483	145.280000
308.756714	145.160000
308.849976	145.680000
308.943176	146.360000
309.036438	146.360000
309.129639	146.340000
309.222900	146.360000
309.316101	145.940000
309.409393	145.240000
309.502625	145.040000
309.595856	145.320000
309.689087	145.640000
309.782318	145.820000
309.875580	146.080000
309.968811	146.360000
310.062042	146.060000
310.155273	145.580000
310.248535	146.100000
310.341766	145.840000
310.434998	145.680000
310.528259	145.880000
310.621490	146.600000
310.714722	145.720000
310.807983	145.980000
310.901215	145.980000
310.994476	146.220000
311.087708	145.460000
311.181000	146.220000
311.274200	145.760000
311.367462	146.080000
311.460693	145.820000
311.553986	146.580000
311.647186	146.500000
311.740479	147.200000
311.833710	146.940000
311.926971	146.920000
312.020203	146.120000
312.113464	145.900000
312.206726	145.220000
312.299957	145.560000
312.393219	146.260000
312.486481	146.840000
312.579712	147.020000
312.672974	147.120000
312.766235	146.820000
312.859497	146.500000
312.952759	146.160000
313.045990	146.500000
313.139252	146.520000
313.232513	146.720000
313.325775	146.920000
313.419037	146.660000
313.512299	146.240000
313.605530	146.860000
313.698822	146.900000
313.792053	146.800000
313.885345	146.780000
313.978577	146.600000
314.071869	145.900000
314.165131	145.960000
314.258392	146.300000
314.351654	146.420000
314.444916	145.840000
314.538177	146.440000
314.631439	146.580000
314.724701	146.260000
314.817993	145.920000
314.911255	146.460000
315.004517	145.860000
315.097778	145.580000
315.191040	145.740000
315.284302	146.300000
315.377594	146.300000
315.470856	146.380000
315.564117	146.000000
315.657379	145.300000
315.750671	144.700000
315.843933	145.200000
315.937195	144.960000
316.030518	145.040000
316.123749	145.360000
316.217041	146.500000
316.310303	146.100000
316.403595	146.600000
316.496857	147.020000
316.590149	147.320000
316.683411	146.280000
316.776703	146.040000
316.869965	145.740000
316.963257	145.380000
317.056519	144.480000
317.149811	144.940000
317.243073	145.120000
317.336365	145.320000
317.429626	145.640000
317.522919	146.600000
317.616180	146.400000
317.709473	146.220000
317.802765	146.320000
317.896027	146.280000
317.989319	146.400000
318.082611	146.640000
318.175873	146.520000
318.269165	146.660000
318.362488	146.520000
318.455750	145.840000
318.549042	145.960000
318.642303	146.500000
318.735626	146.040000
318.828888	146.060000
318.922211	146.220000
319.015472	146.720000
319.108765	146.000000
319.202057	145.760000
319.295349	146.040000
319.388641	145.820000
319.481934	145.300000
319.575226	145.480000
319.668518	145.740000
319.761810	145.740000
319.855103	145.780000
319.948395	145.680000
320.041687	146.000000
320.134979	145.860000
320.228271	145.600000
320.321564	145.600000
320.414856	145.660000
320.508148	145.160000
320.601440	145.380000
320.694763	145.260000
320.788025	145.960000
320.881348	146.100000
320.974640	146.420000
321.067963	146.260000
321.161224	146.200000
321.254547	145.500000
321.347839	145.900000
321.441162	145.680000
321.534454	145.760000
321.627747	146.140000
321.721069	146.860000
321.814362	146.680000
321.907654	147.040000
322.000946	147.240000
322.094269	147.400000
322.187561	146.880000
322.280884	147.040000
322.374176	147.040000
322.467468	147.360000
322.560791	147.300000
322.654083	147.900000
322.747406	147.840000
322.840698	148.100000
322.934021	148.020000
323.027344	148.400000
323.120636	147.800000
323.213959	147.420000
323.307251	146.920000
323.400574	146.440000
323.493866	145.580000
323.587219	145.960000
323.680511	146.400000
323.773834	146.620000
323.867157	146.940000
323.960449	147.080000
324.053772	147.000000
324.147095	146.540000
324.240387	147.000000
324.333710	147.020000
324.427032	147.560000
324.520355	147.480000
324.613647	147.140000
324.706970	146.840000
324.800293	146.540000
324.893616	146.360000
324.986938	146.300000
325.080231	146.380000
325.173553	146.560000
325.266876	147.040000
325.360199	146.960000
325.453522	146.380000
325.546875	146.360000
325.640167	146.520000
325.733521	146.780000
325.826813	146.820000
325.920166	147.060000
326.013489	147.240000
326.106812	146.160000
326.200134	145.600000
326.293457	145.340000
326.386780	145.560000
326.480103	145.280000
326.573425	145.440000
326.666748	145.480000
326.760071	145.960000
326.853424	146.060000
326.946747	146.220000
327.040070	146.960000
327.133392	146.400000
327.226715	145.540000
327.320068	145.000000
327.413391	145.280000
327.506714	144.600000
327.600037	145.060000
327.693390	145.480000
327.786713	145.700000
327.880066	145.720000
327.973358	146.260000
328.066742	146.620000
328.160034	146.920000
328.253418	147.160000
328.346710	146.880000
328.440063	146.600000
328.533417	146.260000
328.626740	146.500000
328.720093	146.180000
328.813416	146.040000
328.906769	146.040000
329.000092	146.780000
329.093445	146.420000
329.186768	146.620000
329.280121	147.380000
329.373444	147.720000
329.466797	147.160000
329.560120	147.200000
329.653473	147.220000
329.746796	146.580000
329.840149	146.360000
329.933502	146.400000
330.026825	145.960000
330.120178	145.800000
330.213562	145.900000
330.306854	146.020000
330.400238	145.620000
330.493561	145.740000
330.586945	146.640000
330.680237	146.780000
330.773621	146.880000
330.866974	147.260000
330.960327	147.480000
331.053680	146.800000
331.147003	147.000000
331.240356	146.940000
331.333710	146.980000
331.427063	146.860000
331.520416	146.860000
331.613770	146.400000
331.707123	146.560000
331.800476	146.600000
331.893829	147.540000
331.987152	147.860000
332.080505	147.980000
332.173859	147.640000
332.267212	147.200000
332.360565	146.640000
332.453918	146.320000
332.547333	146.220000
332.640656	146.580000
332.734039	146.700000
332.827362	146.300000
332.920746	146.460000
333.014069	146.880000
333.107452	147.020000
333.200806	147.160000
333.294159	147.480000
333.387543	147.260000
333.480896	146.720000
333.574249	146.200000
333.667603	145.720000
333.760956	145.380000
333.854340	145.300000
333.947693	145.720000
334.041046	146.020000
334.134430	146.720000
334.227783	146.660000
334.321136	146.780000
334.414520	146.480000
334.507874	146.540000
334.601227	146.160000
334.694611	146.240000
334.787964	146.280000
334.881348	146.480000
334.974701	146.160000
335.068085	146.000000
335.161438	146.100000
335.254822	145.760000
335.348175	145.600000
335.441559	145.520000
335.534943	146.340000
335.628296	146.040000
335.721680	146.180000
335.815033	146.580000
335.908417	146.800000
336.001770	146.360000
336.095154	146.500000
336.188538	146.280000
336.281891	145.780000
336.375275	145.360000
336.468658	145.220000
336.562012	145.360000
336.655396	145.720000
336.748779	146.160000
336.842133	146.320000
336.935516	146.720000
337.028900	146.440000
337.122284	146.520000
337.215637	146.420000
337.309021	146.540000
337.402435	145.880000
337.495789	145.860000
337.589203	145.620000
337.682526	145.120000
337.775940	145.120000
337.869324	145.640000
337.962708	145.460000
338.056091	146.040000
338.149475	146.040000
338.242859	145.960000
338.336243	145.560000
338.429626	146.320000
338.523010	146.080000
338.616394	146.340000
338.709778	146.560000
338.803162	146.880000
338.896545	146.540000
338.989929	146.080000
339.083313	146.460000
339.176697	146.140000
339.270081	146.060000
339.363464	146.300000
339.456848	146.620000
339.550232	145.940000
339.643616	145.780000
339.737030	145.960000
339.830383	145.600000
339.923828	145.880000
340.017181	146.200000
340.110596	146.700000
340.203949	146.500000
340.297363	146.180000
340.390778	145.980000
340.484161	145.880000
340.577545	145.820000
340.670959	146.040000
340.764343	146.360000
340.857727	146.360000
340.951111	145.880000
341.044525	146.080000
341.137909	145.560000
341.231293	145.420000
341.324707	144.900000
341.418091	145.720000
341.511505	145.700000
341.604889	145.980000
341.698303	146.340000
341.791687	146.560000
341.885071	146.240000
341.978485	145.780000
342.071899	145.860000
342.165283	146.000000
342.258698	146.300000
342.352081	146.780000
342.445496	147.220000
342.538879	146.940000
342.632324	146.400000
342.725708	146.200000
342.819122	145.500000
342.912506	145.280000
343.005920	145.480000
343.099335	146.480000
343.192719	146.400000
343.286133	146.440000
343.379547	146.720000
343.472931	146.600000
343.566345	145.860000
343.659760	146.040000
343.753143	146.020000
343.846558	145.420000
343.939972	145.620000
344.033386	146.100000
344.126770	145.760000
344.220184	145.980000
344.313599	146.540000
344.407043	146.320000
344.500427	145.540000
344.593872	146.120000
344.687225	145.920000
344.780670	145.460000
344.874054	144.980000
344.967499	145.560000
345.060913	145.520000
345.154327	145.620000
345.247742	145.480000
345.341156	145.800000
345.434570	145.360000
345.527985	145.000000
345.621399	145.120000
345.714813	145.100000
345.808228	145.380000
345.901642	145.400000
345.995056	145.140000
346.088470	145.420000
346.181885	145.660000
346.275299	145.320000
346.368713	145.280000
346.462128	144.900000
346.555573	144.780000
346.648987	145.060000
346.742401	145.200000
346.835815	145.800000
346.929260	145.900000
347.022644	145.940000
347.116119	145.980000
347.209503	146.260000
347.302948	146.660000
347.396362	147.520000
347.489807	147.360000
347.583221	147.700000
347.676636	147.300000
347.770050	146.060000
347.863495	145.640000
347.956909	145.580000
348.050323	144.980000
348.143768	145.180000
348.237183	145.560000
348.330597	145.860000
348.424042	146.200000
348.517456	146.380000
348.610901	146.440000
348.704315	146.460000
348.797760	145.820000
348.891174	145.360000
348.984619	145.100000
349.078033	145.320000
349.171448	145.980000
349.264923	146.320000
349.358337	146.460000
349.451782	146.320000
349.545197	145.720000
349.638641	144.860000
349.732086	144.560000
349.825500	145.060000
349.918945	145.160000
350.012390	146.060000
350.105804	146.540000
350.199249	147.040000
350.292664	147.020000
350.386108	147.000000
350.479553	147.080000
350.572968	146.880000
350.666412	146.840000
350.759857	146.340000
350.853302	146.820000
350.946716	145.960000
351.040161	145.960000
351.133606	146.140000
351.227081	146.100000
351.320465	146.720000
351.413940	147.120000
351.507355	147.140000
351.600830	146.980000
351.694244	146.720000
351.787720	146.240000
351.881104	146.160000
351.974579	145.960000
352.067993	146.500000
352.161469	146.900000
352.254883	146.000000
352.348358	145.780000
352.441803	145.780000
352.535248	145.220000
352.628693	145.400000
352.722137	145.640000
352.815582	146.140000
352.909027	146.320000
353.002472	146.260000
353.095917	146.100000
353.189362	146.700000
353.282806	146.380000
353.376251	146.520000
353.469696	146.100000
353.563141	146.520000
353.656586	146.080000
353.750061	145.880000
353.843475	145.580000
353.936981	146.480000
354.030396	145.900000
354.123871	146.320000
354.217285	147.400000
354.310760	147.720000
354.404175	147.300000
354.497681	147.240000
354.591095	146.920000
354.684570	145.460000
354.777985	145.380000
354.871490	145.140000
354.964935	145.640000
355.058380	145.940000
355.151855	146.060000
355.245300	146.260000
355.338745	146.700000
355.432220	146.520000
355.525665	145.740000
355.619110	146.220000
355.712585	145.960000
355.806030	145.560000
355.899475	145.040000
355.992950	145.700000
356.086426	145.920000
356.179871	145.700000
356.273346	146.020000
356.366791	146.340000
356.460266	146.320000
356.553711	145.920000
356.647186	146.180000
356.740631	146.080000
356.834106	145.640000
356.927551	145.780000
357.021027	145.880000
357.114471	145.960000
357.207947	145.880000
357.301422	146.400000
357.394867	146.400000
357.488342	146.620000
357.581818	146.540000
357.675262	146.960000
357.768738	146.540000
357.862213	145.700000
357.955658	145.640000
358.049133	145.620000
358.142609	145.280000
358.236053	145.460000
358.329529	145.680000
358.423035	146.000000
358.516449	145.740000
358.609955	146.260000
358.703400	146.760000
358.796906	147.220000
358.890350	146.500000
358.983826	146.760000
359.077271	146.040000
359.170776	145.740000
359.264221	145.440000
359.357727	146.000000
359.451172	146.220000
359.544647	146.260000
359.638123	146.020000
359.731598	146.400000
359.825073	146.460000
359.918549	146.180000
360.012024	146.820000
360.105499	146.620000
360.198975	146.400000
360.292450	146.000000
360.385925	146.040000
360.479401	145.600000
360.572876	146.180000
360.666351	146.280000
360.759857	146.240000
360.853302	146.360000
360.946808	145.600000
361.040253	145.520000
361.133759	145.560000
361.227203	145.860000
361.320709	145.480000
361.414154	146.480000
361.507660	146.540000
361.601105	146.680000
361.694641	147.160000
361.788086	147.300000
361.881592	147.660000
361.975067	147.500000
362.068542	147.460000
362.162018	147.020000
362.255524	146.580000
362.348999	146.100000
362.442474	146.280000
362.535950	145.820000
362.629456	145.460000
362.722931	145.820000
362.816406	146.160000
362.909882	146.480000
363.003387	146.700000
363.096863	147.140000
363.190338	147.240000
363.283875	146.800000
363.377319	146.540000
363.470825	146.820000
363.564301	146.440000
363.657806	146.640000
363.751282	146.320000
363.844788	147.060000
363.938232	146.760000
364.031769	147.560000
364.125214	147.500000
364.218750	148.040000
364.312225	146.660000
364.405731	146.740000
364.499207	145.680000
364.592712	145.400000
364.686188	145.120000
364.779694	145.740000
364.873169	145.660000
364.966675	145.960000
365.060150	146.140000
365.153656	146.580000
365.247131	146.360000
365.340637	146.500000
365.434143	147.000000
365.527618	146.900000
365.621155	146.160000
365.714600	146.020000
365.808136	146.340000
365.901611	145.300000
365.995117	145.200000
366.088593	145.580000
366.182129	145.500000
366.275604	145.260000
366.369110	145.800000
366.462585	145.880000
366.556122	146.260000
366.649567	146.520000
366.743103	146.560000
366.836609	146.240000
366.930115	146.480000
367.023590	146.580000
367.117096	146.620000
367.210602	146.420000
367.304108	147.080000
367.397614	147.400000
367.491119	147.280000
367.584595	147.340000
367.678101	147.660000
367.771606	147.560000
367.865112	146.980000
367.958649	146.100000
368.052124	146.040000
368.145660	145.720000
368.239136	146.120000
368.332672	146.380000
368.426147	147.160000
368.519684	146.800000
368.613159	147.080000
368.706696	146.440000
368.800171	146.420000
368.893707	146.080000
368.987183	146.300000
369.080719	146.220000
369.174225	146.140000
369.267731	146.480000
369.361237	146.260000
369.454742	146.200000
369.548248	146.660000
369.641754	146.520000
369.735260	145.980000
369.828766	145.420000
369.922272	146.160000
370.015808	145.640000
370.109314	145.520000
370.202820	145.480000
370.296356	147.080000
370.389832	146.400000
370.483368	146.120000
370.576874	146.000000
370.670410	145.920000
370.763885	144.780000
370.857422	144.960000
370.950928	145.040000
371.044464	145.860000
371.137939	146.180000
371.231476	146.660000
371.324982	147.060000
371.418518	147.260000
371.512024	147.120000
371.605560	146.860000
371.699066	146.860000
371.792572	146.320000
371.886108	146.580000
371.979614	146.500000
372.073120	146.860000
372.166656	146.680000
372.260162	146.960000
372.353668	146.680000
372.447205	146.400000
372.540710	146.240000
372.634277	146.120000
372.727753	146.080000
372.821320	145.860000
372.914795	146.180000
373.008362	146.180000
373.101837	146.420000
373.195404	146.400000
373.288879	146.200000
373.382446	146.540000
373.475922	146.500000
373.569489	147.100000
373.662964	147.180000
373.756531	147.460000
373.850037	147.400000
373.943573	147.340000
374.037109	146.280000
374.130615	146.460000
374.224152	146.920000
374.317657	146.620000
374.411194	147.240000
374.504730	147.240000
374.598236	146.860000
374.691772	146.360000
374.785309	146.420000
374.878815	145.580000
374.972351	146.080000
375.065887	145.960000
375.159454	146.540000
375.252930	146.360000
375.346497	146.820000
375.440002	147.160000
375.533569	147.220000
375.627045	146.520000
375.720612	146.420000
375.814117	146.500000
375.907684	145.900000
376.001160	145.860000
376.094727	145.720000
376.188232	146.360000
376.281799	146.460000
376.375336	146.600000
376.468872	147.400000
376.562408	147.480000
376.655914	147.040000
376.749451	146.780000
376.842987	147.060000
376.936523	146.380000
377.030060	146.460000
377.123596	146.860000
377.217133	146.420000
377.310669	146.360000
377.404205	146.800000
377.497772	147.420000
377.591278	146.940000
377.684845	147.820000
377.778351	147.760000
377.871918	147.280000
377.965424	146.420000
378.058990	146.080000
378.152496	146.040000
378.246063	146.360000
378.339569	146.440000
378.433136	146.880000
378.526642	147.440000
378.620209	146.980000
378.713745	146.480000
378.807312	147.160000
378.900848	147.040000
378.994385	147.020000
379.087921	146.640000
379.181458	146.880000
379.274994	145.740000
379.368530	145.680000
379.462097	145.760000
379.555634	146.240000
379.649170	145.780000
379.742706	146.200000
379.836273	146.200000
379.929810	145.940000
380.023376	145.620000
380.116882	145.640000
380.210449	145.420000
380.303986	145.080000
380.397552	144.520000
380.491058	144.840000
380.584656	144.700000
380.678162	145.060000
380.771729	145.480000
380.865265	146.680000
380.958832	146.740000
381.052368	147.380000
381.145935	147.620000
381.239471	148.100000
381.333008	147.660000
381.426575	147.540000
381.520111	147.740000
381.613647	147.840000
381.707214	147.340000
381.800751	146.700000
381.894318	146.880000
381.987854	146.020000
382.081421	145.620000
382.174988	145.960000
382.268524	145.980000
382.362091	146.120000
382.455627	147.000000
382.549194	146.720000
382.642731	145.860000
382.736298	145.880000
382.829834	145.320000
382.923401	145.560000
383.016937	145.840000
383.110504	146.400000
383.204041	146.700000
383.297607	147.200000
383.391174	146.180000
383.484741	146.940000
383.578278	146.760000
383.671844	146.640000
383.765411	146.060000
383.858948	146.780000
383.952515	146.220000
384.046051	146.720000
384.139618	147.080000
384.233185	147.440000
384.326721	147.320000
384.420288	147.820000
384.513855	147.520000
384.607422	147.620000
384.700989	147.980000
384.794525	147.480000
384.888123	147.000000
384.981659	147.160000
385.075226	146.720000
385.168762	146.300000
385.262360	146.340000
385.355896	145.540000
385.449463	145.260000
385.542999	145.460000
385.636597	146.120000
385.730164	146.520000
385.823730	146.740000
385.917267	146.360000
386.010834	146.600000
386.104401	146.520000
386.197968	146.660000
386.291534	147.040000
386.385101	147.520000
386.478668	147.600000
386.572235	147.260000
386.665802	146.560000
386.759338	146.580000
386.852905	146.260000
386.946472	145.760000
387.040070	145.700000
387.133606	146.060000
387.227203	145.760000
387.320740	146.420000
387.414337	146.280000
387.507874	146.000000
387.601471	146.160000
387.695007	146.120000
387.788605	145.460000
387.882141	145.980000
387.975739	146.160000
388.069275	145.580000
388.162872	146.000000
388.256439	145.880000
388.350037	145.280000
388.443604	145.200000
388.537170	145.780000
388.630737	146.040000
388.724304	146.520000
388.817871	146.840000
388.911438	146.880000
389.005005	146.880000
389.098602	147.160000
389.192169	146.820000
389.285736	147.000000
389.379333	147.120000
389.472870	146.540000
389.566467	146.120000
389.660034	146.120000
389.753632	145.760000
389.847168	146.120000
389.940765	146.420000
390.034332	146.420000
390.127930	146.060000
390.221466	146.060000
390.315063	145.400000
390.408630	144.980000
390.502228	144.060000
390.595795	144.660000
390.689362	144.700000
390.782959	145.340000
390.876526	145.920000
390.970093	146.240000
391.063690	146.620000
391.157257	146.760000
391.250824	146.680000
391.344421	146.400000
391.437988	146.960000
391.531555	146.940000
391.625153	147.300000
391.718750	147.160000
391.812317	147.240000
391.905914	146.880000
391.999481	146.720000
392.093079	146.540000
392.186615	146.820000
392.280243	147.240000
392.373779	147.220000
392.467407	147.520000
392.560944	147.440000
392.654572	146.960000
392.748108	146.600000
392.841736	146.940000
392.935303	146.380000
393.028900	146.220000
393.122467	146.180000
393.216064	145.800000
393.309631	145.140000
393.403229	144.920000
393.496796	144.680000
393.590393	144.280000
393.683990	144.820000
393.777557	145.440000
393.871155	146.060000
393.964722	146.540000
394.058350	146.820000
394.151917	146.440000
394.245514	146.140000
394.339081	146.160000
394.432678	146.340000
394.526245	146.420000
394.619873	146.240000
394.713409	146.400000
394.807037	146.020000
394.900604	145.720000
394.994202	145.780000
395.087769	146.240000
395.181396	145.800000
395.274994	146.520000
395.368561	146.240000
395.462158	146.460000
395.555756	146.160000
395.649353	146.800000
395.742920	146.060000
395.836517	146.720000
395.930115	146.200000
396.023712	146.380000
396.117279	146.440000
396.210876	146.260000
396.304474	146.140000
396.398071	146.560000
396.491669	146.980000
396.585266	146.620000
396.678833	146.640000
396.772461	146.720000
396.866028	146.740000
396.959656	147.180000
397.053223	147.860000
397.146851	148.400000
397.240417	149.540000
397.334015	151.060000
397.427582	151.740000
397.521210	153.360000
397.614807	156.460000
397.708405	159.240000
397.802002	162.940000
397.895599	168.840000
397.989197	175.700000
398.082794	183.500000
398.176392	193.600000
398.269989	204.900000
398.363586	218.040000
398.457184	233.180000
398.550781	249.500000
398.644379	265.600000
398.737976	283.240000
398.831573	300.220000
398.925201	316.740000
399.018768	334.360000
399.112396	353.880000
399.205963	375.700000
399.299591	400.580000
399.393158	428.280000
399.486786	457.740000
399.580353	485.240000
399.673981	507.340000
399.767578	525.020000
399.861206	535.500000
399.954773	537.760000
400.048401	533.720000
400.141998	525.420000
400.235596	512.980000
400.329193	499.740000
400.422791	486.640000
400.516418	473.320000
400.610016	460.520000
400.703613	445.520000
400.797211	425.720000
400.890808	402.540000
400.984436	378.720000
401.078033	353.480000
401.171631	329.780000
401.265259	307.920000
401.358826	288.840000
401.452484	269.760000
401.546051	252.780000
401.639679	235.360000
401.733246	219.920000
401.826904	205.280000
401.920471	192.760000
402.014099	181.880000
402.107697	173.180000
402.201324	166.500000
402.294891	161.380000
402.388550	157.560000
402.482147	154.240000
402.575745	151.700000
402.669373	149.440000
402.762970	147.960000
402.856567	147.500000
402.950195	147.240000
403.043793	147.060000
403.137390	148.320000
403.231018	147.760000
403.324615	147.940000
403.418243	147.400000
403.511841	148.120000
403.605469	147.420000
403.699066	148.040000
403.792694	147.860000
403.886292	148.020000
403.979919	147.380000
404.073517	147.360000
404.167145	147.260000
404.260712	147.320000
404.354370	147.180000
404.447937	147.340000
404.541595	147.260000
404.635162	147.420000
404.728821	147.620000
404.822418	147.460000
404.916046	147.260000
405.009644	147.380000
405.103271	147.480000
405.196899	146.860000
405.290497	146.880000
405.384125	147.160000
405.477722	146.640000
405.571350	146.060000
405.664948	146.340000
405.758575	146.300000
405.852203	145.780000
405.945801	146.260000
406.039429	146.580000
406.133057	146.180000
406.226654	146.200000
406.320312	146.640000
406.413879	146.660000
406.507538	147.020000
406.601135	146.880000
406.694763	147.380000
406.788361	146.920000
406.882019	146.480000
406.975586	146.360000
407.069244	147.120000
407.162872	147.160000
407.256470	147.260000
407.350098	147.380000
407.443726	147.080000
407.537323	146.340000
407.630951	146.260000
407.724579	145.900000
407.818207	146.260000
407.911804	146.040000
408.005432	146.040000
408.099060	146.180000
408.192688	146.600000
408.286285	146.360000
408.379913	146.180000
408.473572	146.600000
408.567169	145.860000
408.660828	145.900000
408.754395	145.700000
408.848053	145.720000
408.941650	145.620000
409.035309	145.480000
409.128906	145.440000
409.222565	145.580000
409.316132	146.020000
409.409790	145.720000
409.503387	145.900000
409.597046	146.080000
409.690674	146.080000
409.784302	146.220000
409.877930	146.140000
409.971558	146.180000
410.065186	145.980000
410.158783	145.960000
410.252411	145.660000
410.346039	146.420000
410.439667	146.600000
410.533295	147.140000
410.626923	147.440000
410.720551	147.380000
410.814209	147.420000
410.907806	147.580000
411.001465	146.740000
411.095062	146.760000
411.188721	146.860000
411.282318	146.420000
411.375977	145.980000
411.469574	146.460000
411.563232	146.020000
411.656830	146.040000
411.750488	145.680000
411.844086	145.780000
411.937744	145.840000
412.031372	145.860000
412.125000	145.600000
412.218628	145.720000
412.312256	146.340000
412.405884	146.420000
412.499512	146.340000
412.593170	146.560000
412.686798	147.140000
412.780426	146.480000
412.874054	146.520000
412.967682	146.600000
413.061310	147.120000
413.154968	147.000000
413.248566	147.240000
413.342224	146.760000
413.435852	146.800000
413.529510	146.160000
413.623108	145.520000
413.716766	145.120000
413.810364	145.700000
413.904022	145.440000
413.997650	145.360000
414.091309	146.220000
414.184906	146.460000
414.278564	146.020000
414.372192	146.600000
414.465851	147.000000
414.559479	146.860000
414.653107	147.760000
414.746735	147.620000
414.840393	147.620000
414.934021	147.660000
415.027649	146.720000
415.121277	146.180000
415.214935	146.620000
415.308563	146.320000
415.402191	145.580000
415.495850	145.920000
415.589478	145.860000
415.683136	145.620000
415.776733	145.820000
415.870422	146.660000
415.964020	146.500000
416.057678	146.380000
416.151306	146.580000
416.244965	146.440000
416.338562	146.280000
416.432251	146.900000
416.525848	147.420000
416.619507	147.480000
416.713165	147.940000
416.806793	147.620000
416.900421	147.560000
416.994080	146.860000
417.087708	146.760000
417.181366	146.000000
417.274994	146.180000
417.368622	146.000000
417.462280	146.700000
417.555908	146.700000
417.649567	146.740000
417.743195	146.680000
417.836853	146.840000
417.930481	146.720000
418.024170	146.900000
418.117767	147.640000
418.211426	147.860000
418.305054	147.920000
418.398712	147.260000
418.492340	147.140000
418.585999	147.120000
418.679626	147.100000
418.773285	147.220000
418.866913	147.560000
418.960571	147.700000
419.054230	147.400000
419.147858	147.440000
419.241516	147.280000
419.335144	147.180000
419.428802	147.100000
419.522461	146.820000
419.616089	146.380000
419.709747	146.560000
419.803375	146.480000
419.897034	145.940000
419.990662	146.080000
420.084320	146.760000
420.177979	146.660000
420.271606	147.000000
420.365295	147.720000
420.458893	147.940000
420.552582	147.800000
420.646210	148.000000
420.739868	147.660000
420.833496	147.220000
420.927155	147.100000
421.020782	146.900000
421.114471	146.420000
421.208069	146.620000
421.301758	147.060000
421.395386	147.180000
421.489044	147.080000
421.582703	147.260000
421.676361	147.700000
421.769989	146.960000
421.863647	146.960000
421.957306	147.080000
422.050934	146.940000
422.144592	146.580000
422.238251	146.560000
422.331909	146.360000
422.425537	146.380000
422.519196	146.540000
422.612854	146.360000
422.706543	146.280000
422.800140	146.400000
422.893829	146.020000
422.987457	145.440000
423.081146	145.520000
423.174744	146.140000
423.268433	145.720000
423.362061	145.600000
423.455750	145.600000
423.549347	145.580000
423.643036	144.820000
423.736664	145.880000
423.830353	145.940000
423.924011	146.700000
424.017639	146.220000
424.111298	146.680000
424.204956	145.840000
424.298615	146.400000
424.392273	145.940000
424.485931	146.480000
424.579559	146.500000
424.673218	146.560000
424.766876	146.260000
424.860535	146.360000
424.954193	146.280000
425.047882	146.820000
425.141510	146.820000
425.235199	147.020000
425.328796	146.860000
425.422485	146.620000
425.516113	145.720000
425.609802	145.840000
425.703430	145.720000
425.797119	145.740000
425.890747	146.160000
425.984436	146.420000
426.078064	146.300000
426.171753	146.200000
426.265411	146.200000
426.359070	146.300000
426.452728	146.100000
426.546356	146.100000
426.640015	145.740000
426.733673	145.820000
426.827332	145.340000
426.920990	146.580000
427.014648	146.260000
427.108307	146.860000
427.201965	147.420000
427.295624	147.600000
427.389282	146.340000
427.482941	146.720000
427.576630	146.280000
427.670258	145.280000
427.763947	145.180000
427.857574	145.420000
427.951263	145.380000
428.044922	145.500000
428.138611	145.800000
428.232239	146.360000
428.325928	146.760000
428.419556	147.180000
428.513245	146.740000
428.606903	146.880000
428.700562	146.280000
428.794220	145.540000
428.887878	144.920000
428.981537	145.280000
429.075195	145.560000
429.168854	145.940000
429.262512	146.580000
429.356201	146.740000
429.449860	146.820000
429.543518	146.500000
429.637177	146.460000
429.730835	146.180000
429.824493	146.120000
429.918182	146.500000
430.011810	146.080000
430.105530	145.660000
430.199158	145.820000
430.292847	145.740000
430.386475	145.360000
430.480164	145.420000
430.573792	145.300000
430.667511	145.420000
430.761139	145.580000
430.854828	146.000000
430.948456	146.280000
431.042145	146.660000
431.135834	146.100000
431.229492	146.160000
431.323151	145.980000
431.416809	145.980000
431.510468	145.880000
431.604156	146.000000
431.697815	145.900000
431.791473	145.520000
431.885132	145.380000
431.978821	145.620000
432.072479	145.880000
432.166138	146.060000
432.259827	145.840000
432.353485	145.980000
432.447174	146.100000
432.540802	145.960000
432.634491	145.980000
432.728149	146.560000
432.821838	147.020000
432.915466	146.820000
433.009186	146.900000
433.102814	146.700000
433.196503	146.460000
433.290131	146.240000
433.383850	146.440000
433.477509	146.480000
433.571167	146.940000
433.664856	147.540000
433.758514	147.920000
433.852173	147.500000
433.945862	147.260000
434.039520	147.060000
434.133179	146.380000
434.226868	145.820000
434.320526	145.600000
434.414185	146.240000
434.507874	145.860000
434.601562	146.520000
434.695221	146.500000
434.788910	147.060000
434.882538	146.840000
434.976257	146.760000
435.069885	146.200000
435.163574	146.400000
435.257233	145.860000
435.350922	145.880000
435.444580	145.860000
435.538269	145.680000
435.631897	146.060000
435.725616	146.560000
435.819275	146.580000
435.912964	146.900000
436.006622	147.260000
436.100311	146.940000
436.193970	146.240000
436.287628	145.800000
436.381317	145.480000
436.474976	145.200000
436.568665	144.900000
436.662323	145.240000
436.756012	145.340000
436.849670	145.400000
436.943390	145.360000
437.037018	145.280000
437.130737	145.520000
437.224365	145.400000
437.318085	145.820000
437.411713	145.900000
437.505432	146.220000
437.599060	146.540000
437.692780	147.360000
437.786407	146.820000
437.880127	146.740000
437.973755	146.720000
438.067474	146.200000
438.161133	145.760000
438.254822	146.340000
438.348480	146.500000
438.442169	146.700000
438.535828	147.160000
438.629517	146.920000
438.723175	146.260000
438.816864	146.600000
438.910553	146.000000
439.004211	145.580000
439.097900	145.380000
439.191559	145.860000
439.285248	145.200000
439.378906	145.880000
439.472626	146.000000
439.566284	146.040000
439.659973	146.240000
439.753632	146.140000
439.847321	146.260000
439.940979	146.200000
440.034698	146.240000
440.128326	145.520000
440.222046	145.400000
440.315674	144.680000
440.409393	144.800000
440.503082	145.020000
440.596741	145.740000
440.690430	146.180000
440.784088	146.200000
440.877777	145.540000
440.971466	145.600000
441.065125	145.280000
441.158813	145.140000
441.252502	145.020000
441.346161	145.520000
441.439850	145.580000
441.533539	145.400000
441.627197	145.780000
441.720886	145.780000
441.814606	145.940000
441.908234	146.060000
442.001953	145.900000
442.095612	145.780000
442.189301	146.040000
442.282959	145.960000
442.376678	145.320000
442.470306	146.040000
442.564026	145.900000
442.657684	145.800000
442.751404	145.700000
442.845032	146.520000
442.938751	145.860000
443.032440	146.080000
443.126099	145.960000
443.219788	146.460000
443.313477	146.340000
443.407166	146.800000
443.500824	146.760000
443.594513	147.200000
443.688202	146.980000
443.781891	146.460000
443.875549	146.120000
443.969238	146.300000
444.062927	146.360000
444.156647	146.120000
444.250275	146.540000
444.343994	146.620000
444.437653	146.260000
444.531372	146.140000
444.625031	146.020000
444.718719	145.860000
444.812378	145.960000
444.906097	146.040000
444.999756	145.520000
445.093445	145.840000
445.187103	145.560000
445.280823	146.060000
445.374512	145.380000
445.468201	145.780000
445.561859	145.480000
445.655548	145.660000
445.749237	145.080000
445.842926	145.740000
445.936615	145.980000
446.030304	145.840000
446.123962	146.180000
446.217651	146.040000
446.311340	146.140000
446.405029	145.760000
446.498749	145.660000
446.592407	145.380000
446.686096	145.700000
446.779755	145.880000
446.873474	146.000000
446.967133	146.580000
447.060852	146.300000
447.154510	146.240000
447.248230	145.960000
447.341858	145.980000
447.435577	145.400000
447.529236	145.200000
447.622955	144.860000
447.716644	145.040000
447.810333	145.280000
447.904022	145.720000
447.997711	146.080000
448.091400	146.860000
448.185059	146.620000
448.278748	146.560000
448.372437	146.360000
448.466125	146.340000
448.559814	145.860000
448.653503	146.480000
448.747192	146.480000
448.840912	147.120000
448.934570	147.200000
449.028290	147.260000
449.121948	146.740000
449.215637	146.860000
449.309296	146.060000
449.403015	146.380000
449.496674	146.060000
449.590393	146.180000
449.684052	145.740000
449.777771	146.640000
449.871429	145.900000
449.965149	146.180000
450.058838	146.580000
450.152527	146.940000
450.246216	146.260000
450.339905	146.560000
450.433594	146.440000
450.527283	146.440000
450.620972	146.520000
450.714661	146.640000
450.808350	146.900000
450.902039	147.160000
450.995728	146.780000
451.089417	146.180000
451.183105	145.940000
451.276794	146.160000
451.370514	145.500000
451.464172	144.900000
451.557892	145.220000
451.651550	145.560000
451.745270	144.860000
451.838928	144.760000
451.932648	145.180000
452.026306	145.440000
452.120026	145.120000
452.213684	145.420000
452.307404	145.760000
452.401062	145.720000
452.494781	145.620000
452.588470	145.780000
452.682159	145.580000
452.775848	145.740000
452.869537	145.740000
452.963226	145.620000
453.056915	145.720000
453.150604	145.880000
453.244293	145.940000
453.337982	146.500000
453.431671	146.680000
453.525360	147.180000
453.619049	147.460000
453.712769	147.280000
453.806427	146.840000
453.900146	146.360000
453.993805	145.880000
454.087555	146.100000
454.181213	146.120000
454.274933	145.780000
454.368591	146.120000
454.462311	146.060000
454.555969	145.260000
454.649689	146.400000
454.743347	146.360000
454.837067	146.900000
454.930756	147.320000
455.024445	147.760000
455.118134	147.100000
455.211853	147.580000
455.305542	146.920000
455.399231	146.540000
455.492920	146.360000
455.586609	146.180000
455.680298	146.280000
455.773987	146.080000
455.867676	146.320000
455.961365	146.640000
456.055084	146.420000
456.148773	146.080000
456.242493	146.420000
456.336151	146.260000
456.429871	146.320000
456.523529	146.740000
456.617249	146.500000
456.710907	146.860000
456.804626	147.000000
456.898315	146.560000
456.992035	146.380000
457.085693	146.320000
457.179413	145.640000
457.273102	146.320000
457.366791	146.420000
457.460480	146.580000
457.554199	147.320000
457.647888	147.660000
457.741577	146.940000
457.835266	147.060000
457.928955	147.040000
458.022644	146.940000
458.116364	147.080000
458.210052	146.960000
458.303741	146.900000
458.397461	146.500000
458.491119	146.100000
458.584839	146.000000
458.678528	145.660000
458.772247	145.560000
458.865906	145.940000
458.959625	147.040000
459.053284	147.120000
459.147003	147.280000
459.240692	147.800000
459.334412	147.780000
459.428070	146.900000
459.521790	146.340000
459.615479	146.160000
459.709198	146.580000
459.802887	146.080000
459.896576	145.940000
459.990265	146.460000
460.083954	146.780000
460.177673	145.720000
460.271362	145.940000
460.365051	145.780000
460.458740	145.480000
460.552429	145.280000
460.646149	145.740000
460.739838	145.560000
460.833527	145.820000
460.927246	145.680000
461.020905	145.560000
461.114655	145.680000
461.208313	145.940000
461.302032	145.680000
461.395691	145.920000
461.489441	145.940000
461.583099	145.580000
461.676819	145.300000
461.770477	145.660000
461.864197	145.360000
461.957916	145.560000
462.051605	144.860000
462.145294	145.860000
462.238983	145.520000
462.332703	146.000000
462.426392	146.420000
462.520081	146.960000
462.613770	146.240000
462.707489	146.660000
462.801178	146.340000
462.894867	145.940000
462.988556	146.140000
463.082275	146.220000
463.175964	145.800000
463.269684	146.220000
463.363342	146.140000
463.457092	145.380000
463.550751	145.600000
463.644470	145.740000
463.738129	145.420000
463.831879	145.580000
463.925537	146.720000
464.019257	146.480000
464.112946	146.520000
464.206665	146.560000
464.300323	146.320000
464.394043	145.920000
464.487762	146.060000
464.581451	146.340000
464.675140	146.560000
464.768829	146.780000
464.862549	146.700000
464.956238	146.600000
465.049927	146.400000
465.143646	146.340000
465.237335	146.500000
465.331024	147.060000
465.424713	147.240000
465.518433	147.080000
465.612152	146.860000
465.705811	146.600000
465.799561	146.160000
465.893219	145.680000
465.986938	145.600000
466.080597	145.280000
466.174347	145.740000
466.268005	145.840000
466.361725	145.940000
466.455414	146.240000
466.549133	146.500000
466.642792	146.400000
466.736542	146.020000
466.830231	146.020000
466.923920	145.680000
467.017609	145.420000
467.111328	144.660000
467.205017	144.940000
467.298706	145.080000
467.392426	145.520000
467.486115	146.280000
467.579803	146.480000
467.673523	146.560000
467.767212	146.600000
467.860901	146.240000
467.954651	146.220000
468.048309	146.700000
468.142029	146.620000
468.235718	146.400000
468.329437	146.240000
468.423096	145.940000
468.516846	145.680000
468.610504	145.620000
468.704224	145.300000
468.797913	145.360000
468.891632	145.520000
468.985291	145.420000
469.079010	145.440000
469.172729	145.600000
469.266418	146.160000
469.360107	145.780000
469.453827	145.540000
469.547516	145.680000
469.641205	146.260000
469.734924	146.140000
469.828613	146.740000
469.922302	147.240000
470.016022	147.040000
470.109711	146.580000
470.203430	146.200000
470.297150	145.560000
470.390808	145.620000
470.484558	145.580000
470.578217	146.280000
470.671936	146.860000
470.765625	147.480000
470.859344	147.040000
470.953003	147.380000
471.046753	146.820000
471.140411	146.000000
471.234131	146.120000
471.327820	146.640000
471.421539	146.540000
471.515228	146.500000
471.608948	146.840000
471.702637	146.140000
471.796326	145.680000
471.890045	145.520000
471.983734	145.720000
472.077423	145.440000
472.171143	145.600000
472.264832	145.760000
472.358521	145.520000
472.452240	145.020000
472.545929	145.760000
472.639648	145.860000
472.733337	146.240000
472.827057	146.220000
472.920746	146.340000
473.014465	146.240000
473.108124	146.080000
473.201874	145.840000
473.295532	145.800000
473.389252	146.340000
473.482941	146.400000
473.576660	146.220000
473.670319	145.960000
473.764069	146.260000
473.857727	146.160000
473.951477	146.260000
474.045166	146.620000
474.138855	146.620000
474.232574	146.680000
474.326263	146.540000
474.419952	146.440000
474.513672	146.500000
474.607361	146.080000
474.701050	146.260000
474.794769	146.740000
474.888458	146.920000
474.982178	146.980000
475.075867	147.660000
475.169586	147.520000
475.263275	146.880000
475.356995	146.720000
475.450653	146.340000
475.544403	145.940000
475.638062	146.700000
475.731812	146.440000
475.825470	146.240000
475.919189	146.540000
476.012878	146.680000
476.106598	145.780000
476.200256	146.340000
476.294006	146.080000
476.387695	146.080000
476.481384	146.220000
476.575104	146.700000
476.668793	146.060000
476.762512	145.980000
476.856201	146.680000
476.949890	146.380000
477.043610	145.580000
477.137299	145.840000
477.230988	146.260000
477.324707	145.540000
477.418396	146.100000
477.512146	146.300000
477.605804	146.260000
477.699524	146.200000
477.793213	146.080000
477.886932	145.560000
477.980591	145.720000
478.074341	145.960000
478.167999	145.520000
478.261749	145.760000
478.355408	145.900000
478.449127	146.220000
478.542816	146.980000
478.636536	147.740000
478.730225	147.520000
478.823944	147.760000
478.917633	147.500000
479.011322	147.040000
479.105042	146.900000
479.198730	147.020000
479.292450	146.540000
479.386139	146.580000
479.479828	146.460000
479.573547	146.560000
479.667267	146.520000
479.760925	146.580000
479.854675	146.460000
479.948334	146.660000
480.042084	145.920000
480.135742	146.220000
480.229462	146.040000
480.323151	146.380000
480.416870	145.840000
480.510529	146.240000
480.604279	145.360000
480.697937	145.780000
480.791656	145.220000
480.885345	144.920000
480.979065	144.700000
481.072754	145.400000
481.166473	145.800000
481.260132	146.080000
481.353882	146.660000
481.447540	146.840000
481.541260	146.880000
481.635010	146.200000
481.728668	145.900000
481.822388	145.640000
481.916077	145.820000
482.009796	145.720000
482.103485	146.120000
482.197205	146.460000
482.290863	146.600000
482.384613	146.180000
482.478271	145.980000
482.571991	146.100000
482.665680	145.800000
482.759399	146.320000
482.853058	147.060000
482.946808	146.920000
483.040466	146.800000
483.134216	146.980000
483.227875	146.460000
483.321594	146.500000
483.415283	146.640000
483.509003	146.360000
483.602661	146.140000
483.696411	146.520000
483.790070	146.320000
483.883789	146.440000
483.977478	146.920000
484.071198	147.240000
484.164917	146.500000
484.258606	145.760000
484.352325	146.120000
484.445984	145.980000
484.539734	145.960000
484.633392	145.780000
484.727142	146.360000
484.820801	146.160000
484.914520	146.180000
485.008209	146.260000
485.101929	146.760000
485.195587	146.460000
485.289337	146.260000
485.382996	146.120000
485.476715	145.880000
485.570404	146.280000
485.664124	146.340000
485.757782	146.860000
485.851532	146.520000
485.945190	146.600000
486.038910	146.580000
486.132599	147.060000
486.226318	146.420000
486.319977	146.640000
486.413727	147.160000
486.507446	146.820000
486.601105	146.040000
486.694855	145.840000
486.788513	145.600000
486.882233	145.160000
486.975922	145.100000
487.069641	145.180000
487.163300	145.380000
487.257050	146.620000
487.350708	146.220000
487.444427	145.920000
487.538116	146.020000
487.631836	146.020000
487.725494	145.180000
487.819214	145.320000
487.912903	145.640000
488.006622	145.960000
488.100281	146.100000
488.194031	146.340000
488.287689	146.980000
488.381409	147.540000
488.475098	147.420000
488.568817	147.680000
488.662476	147.120000
488.756226	146.480000
488.849945	145.680000
488.943604	145.660000
489.037354	145.500000
489.131012	145.620000
489.224731	145.520000
489.318390	145.320000
489.412140	145.580000
489.505798	145.280000
489.599518	145.040000
489.693207	145.440000
489.786926	145.460000
489.880585	145.000000
489.974335	145.220000
490.067993	146.380000
490.161713	146.540000
490.255371	147.560000
490.349121	147.740000
490.442780	147.840000
490.536499	146.580000
490.630188	146.440000
490.723907	145.540000
490.817566	145.640000
490.911285	145.340000
491.004974	145.640000
491.098694	145.380000
491.192413	146.260000
491.286102	146.000000
491.379822	146.420000
491.473480	146.460000
491.567200	146.620000
491.660889	145.700000
491.754608	145.920000
491.848267	145.440000
491.941986	145.640000
492.035675	145.420000
492.129395	146.020000
492.223053	145.600000
492.316772	146.080000
492.410461	146.140000
492.504181	146.280000
492.597839	145.800000
492.691559	146.220000
492.785248	145.980000
492.878967	145.640000
492.972626	145.340000
493.066345	145.700000
493.160034	145.200000
493.253754	145.260000
493.347412	144.760000
493.441132	145.240000
493.534882	145.240000
493.628540	145.700000
493.722260	146.020000
493.815918	146.660000
493.909668	147.020000
494.003326	147.480000
494.097046	147.560000
494.190704	146.880000
494.284454	146.880000
494.378113	146.660000
494.471832	146.380000
494.565491	146.240000
494.659210	146.560000
494.752899	146.700000
494.846619	146.340000
494.940277	146.120000
495.033997	145.860000
495.127686	145.420000
495.221405	145.020000
495.315063	145.200000
495.408783	145.340000
495.502441	145.660000
495.596191	146.020000
495.689850	146.100000
495.783569	146.280000
495.877228	146.380000
495.970947	146.160000
496.064697	146.040000
496.158356	146.780000
496.252075	146.680000
496.345734	146.500000
496.439453	147.400000
496.533142	147.380000
496.626862	147.360000
496.720520	147.520000
496.814240	147.540000
496.907898	146.780000
497.001617	147.040000
497.095306	146.280000
497.189026	145.880000
497.282684	146.160000
497.376404	146.520000
497.470062	146.240000
497.563782	146.480000
497.657471	146.660000
497.751190	145.900000
497.844849	145.740000
497.938568	146.140000
498.032227	146.100000
498.125946	146.120000
498.219635	146.360000
498.313354	146.240000
498.407074	145.980000
498.500732	146.080000
498.594452	146.160000
498.688110	145.700000
498.781830	145.220000
498.875519	144.980000
498.969238	145.000000
499.062897	144.660000
499.156616	145.580000
499.250275	145.920000
499.343994	145.820000
499.437653	145.580000
499.531372	145.900000
499.625061	146.200000
499.718781	146.720000
499.812439	147.300000
499.906158	147.440000
499.999817	147.260000
500.093536	146.780000
500.187195	146.580000
500.280914	146.360000
500.374573	146.540000
500.468323	146.360000
500.561981	146.500000
500.655701	145.880000
500.749420	145.980000
500.843079	146.160000
500.936798	146.580000
501.030457	146.760000
501.124176	147.420000
501.217834	147.340000
501.311554	147.020000
501.405212	146.300000
501.498962	145.560000
501.592621	145.360000
501.686340	145.820000
501.779999	146.060000
501.873718	146.560000
501.967377	146.900000
502.061096	147.180000
502.154755	146.260000
502.248474	146.100000
502.342133	146.320000
502.435852	146.440000
502.529510	146.920000
502.623230	147.880000
502.716888	147.400000
502.810608	147.160000
502.904266	147.400000
502.997986	146.640000
503.091705	145.880000
503.185364	146.260000
503.279083	146.300000
503.372772	145.980000
503.466492	145.720000
503.560150	145.920000
503.653870	145.960000
503.747528	145.980000
503.841248	146.060000
503.934906	146.480000
504.028625	146.460000
504.122284	146.880000
504.216003	147.380000
504.309662	146.800000
504.403381	146.960000
504.497040	146.780000
504.590759	146.180000
504.684418	146.160000
504.778137	146.720000
504.871796	146.940000
504.965515	147.080000
505.059174	147.280000
505.152893	146.780000
505.246521	146.480000
505.340240	145.880000
505.433899	146.120000
505.527618	146.300000
505.621338	146.480000
505.714996	146.480000
505.808716	146.580000
505.902374	146.860000
505.996094	147.020000
506.089752	146.860000
506.183472	146.900000
506.277130	147.000000
506.370850	146.600000
506.464508	146.160000
506.558228	146.220000
506.651886	145.940000
506.745605	146.140000
506.839264	146.360000
506.932983	146.620000
507.026611	146.540000
507.120331	147.340000
507.213989	146.660000
507.307709	146.340000
507.401367	146.420000
507.495087	147.480000
507.588745	146.740000
507.682465	147.840000
507.776123	148.000000
507.869843	147.900000
507.963531	146.940000
508.057190	147.680000
508.150909	146.900000
508.244568	147.060000
508.338287	146.600000
508.431946	146.640000
508.525665	146.080000
508.619324	145.740000
508.713013	145.660000
508.806671	146.360000
508.900391	147.200000
508.994049	147.440000
509.087769	147.320000
509.181427	147.420000
509.275146	146.700000
509.368774	145.660000
509.462494	145.500000
509.556152	145.740000
509.649872	145.780000
509.743530	146.100000
509.837250	146.220000
509.930878	146.480000
510.024597	146.520000
510.118256	146.200000
510.211975	146.280000
510.305695	146.100000
510.399353	146.440000
510.493042	147.080000
510.586700	147.380000
510.680420	148.060000
510.774078	148.300000
510.867798	148.080000
510.961426	147.460000
511.055145	147.240000
511.148804	146.560000
511.242523	146.860000
511.336151	146.760000
511.429871	147.000000
511.523529	146.900000
511.617249	146.820000
511.710876	146.560000
511.804596	146.040000
511.898254	145.900000
511.991974	146.140000
512.085632	145.980000
512.179321	146.100000
512.272949	146.620000
512.366699	146.800000
512.460327	146.920000
512.554077	147.880000
512.647766	147.540000
512.741394	147.380000
512.835144	147.420000
512.928772	147.100000
513.022461	146.480000
513.116150	146.600000
513.209839	147.020000
513.303467	146.840000
513.397217	146.460000
513.490845	146.240000
513.584595	146.140000
513.678223	145.520000
513.771912	145.020000
513.865601	145.620000
513.959290	145.320000
514.052917	145.260000
514.146667	146.060000
514.240295	146.740000
514.333984	147.000000
514.427673	147.260000
514.521362	147.760000
514.614990	146.880000
514.708740	147.060000
514.802368	146.880000
514.896057	146.900000
514.989746	147.420000
515.083435	147.640000
515.177124	147.520000
515.270752	147.300000
515.364502	147.540000
515.458130	147.520000
515.551819	147.360000
515.645508	147.320000
515.739197	147.400000
515.832825	147.180000
515.926575	146.620000
516.020203	146.940000
516.113892	147.220000
516.207520	146.760000
516.301270	146.940000
516.394897	146.660000
516.488586	147.180000
516.582275	146.840000
516.675964	146.520000
516.769592	146.100000
516.863281	146.720000
516.956970	146.500000
517.050659	146.440000
517.144287	147.060000
517.238037	147.400000
517.331665	146.660000
517.425354	146.200000
517.519043	145.900000
517.612732	145.880000
517.706421	145.760000
517.800049	145.840000
517.893738	145.580000
517.987427	145.720000
518.081116	145.800000
518.174744	145.620000
518.268433	146.000000
518.362122	147.020000
518.455811	147.200000
518.549438	147.800000
518.643127	148.860000
518.736816	148.420000
518.830505	147.680000
518.924133	147.780000
519.017822	147.360000
519.111511	146.580000
519.205200	147.140000
519.298828	147.620000
519.392517	147.160000
519.486206	147.580000
519.579895	147.740000
519.673523	147.280000
519.767212	146.640000
519.860901	147.220000
519.954590	146.600000
520.048279	146.260000
520.141907	146.040000
520.235596	147.040000
520.329224	147.100000
520.422974	147.120000
520.516602	147.240000
520.610291	147.340000
520.703918	146.800000
520.797607	146.300000
520.891296	146.300000
520.984985	146.600000
521.078613	147.240000
521.172302	146.640000
521.265930	147.560000
521.359680	148.000000
521.453308	147.700000
521.546997	147.260000
521.640625	147.740000
521.734314	146.660000
521.827942	146.280000
521.921692	146.740000
522.015320	146.700000
522.109009	146.520000
522.202698	146.680000
522.296326	146.620000
522.390015	146.760000
522.483704	147.000000
522.577393	146.760000
522.671021	146.740000
522.764709	146.540000
522.858337	146.520000
522.952026	146.460000
523.045654	147.260000
523.139404	148.020000
523.233032	148.300000
523.326721	147.880000
523.420349	147.660000
523.514038	146.920000
523.607666	147.040000
523.701355	146.680000
523.795044	146.520000
523.888733	146.620000
523.982361	147.120000
524.076050	146.440000
524.169678	146.840000
524.263367	146.760000
524.356995	146.480000
524.450684	146.100000
524.544373	145.940000
524.638062	146.200000
524.731750	146.460000
524.825378	146.620000
524.919067	146.380000
525.012695	146.660000
525.106384	146.040000
525.200012	146.040000
525.293701	145.760000
525.387329	146.320000
525.481018	146.520000
525.574646	146.720000
525.668396	146.660000
525.762024	147.400000
525.855713	147.200000
525.949341	146.660000
526.043030	146.940000
526.136658	146.840000
526.230347	146.120000
526.323975	146.000000
526.417664	146.200000
526.511292	146.160000
526.604980	146.340000
526.698608	146.500000
526.792297	146.380000
526.885925	146.420000
526.979614	146.340000
527.073303	146.000000
527.166931	146.160000
527.260620	146.300000
527.354309	146.640000
527.447998	146.720000
527.541626	146.660000
527.635315	146.800000
527.728943	147.320000
527.822632	147.260000
527.916260	147.000000
528.009949	147.300000
528.103577	147.040000
528.197266	146.260000
528.290894	146.260000
528.384583	146.360000
528.478210	146.240000
528.571899	146.400000
528.665527	147.120000
528.759216	146.920000
528.852844	147.400000
528.946533	147.500000
529.040161	147.460000
529.133850	146.800000
529.227478	147.080000
529.321167	147.000000
529.414856	147.440000
529.508484	147.820000
529.602173	147.920000
529.695801	147.600000
529.789490	147.280000
529.883057	146.660000
529.976746	146.740000
530.070374	147.040000
530.164062	147.420000
530.257690	147.500000
530.351379	147.820000
530.445007	147.420000
530.538696	146.800000
530.632324	146.780000
530.726013	146.640000
530.819641	146.640000
530.913330	146.780000
531.006958	147.140000
531.100647	146.780000
531.194275	147.000000
531.287964	146.700000
531.381592	146.300000
531.475220	146.480000
531.568848	146.620000
531.662537	146.140000
531.756226	147.040000
531.849854	147.060000
531.943542	146.900000
532.037170	146.420000
532.130859	147.160000
532.224487	146.100000
532.318176	146.120000
532.411804	146.520000
532.505432	147.000000
532.599060	146.360000
532.692749	146.680000
532.786377	147.180000
532.880066	146.480000
532.973694	145.920000
533.067383	146.140000
533.161011	146.000000
533.254639	145.440000
533.348267	145.500000
533.441956	145.780000
533.535583	145.620000
533.629272	145.560000
533.722900	145.380000
533.816589	145.600000
533.910156	145.940000
534.003845	145.820000
534.097534	146.420000
534.191162	147.180000
534.284851	147.540000
534.378479	147.580000
534.472107	147.640000
534.565735	146.800000
534.659424	147.040000
534.753052	146.960000
534.846741	146.300000
534.940369	146.840000
535.033997	147.100000
535.127625	146.680000
535.221313	146.620000
535.314941	146.740000
535.408630	146.280000
535.502197	146.840000
535.595886	146.520000
535.689514	146.520000
535.783203	147.060000
535.876831	147.620000
535.970459	147.420000
536.064087	147.360000
536.157776	147.400000
536.251404	147.400000
536.345093	147.060000
536.438721	146.980000
536.532349	147.360000
536.626038	147.140000
536.719666	147.200000
536.813293	146.860000
536.906921	146.940000
537.000610	147.100000
537.094238	147.140000
537.187866	147.160000
537.281494	147.460000
537.375183	147.660000
537.468811	147.260000
537.562439	147.240000
537.656067	147.020000
537.749756	146.800000
537.843384	147.000000
537.937012	147.220000
538.030640	147.060000
538.124329	147.100000
538.217896	147.320000
538.311584	147.160000
538.405212	147.180000
538.498901	147.800000
538.592468	148.380000
538.686157	147.960000
538.779785	147.040000
538.873413	147.060000
538.967102	146.620000
539.060730	145.800000
539.154358	146.500000
539.247986	147.200000
539.341675	147.020000
539.435242	146.760000
539.528931	147.020000
539.622559	146.300000
539.716187	146.960000
539.809814	147.000000
539.903503	147.120000
539.997070	146.820000
540.090759	147.140000
540.184387	146.400000
540.278015	146.800000
540.371643	147.140000
540.465332	147.540000
540.558899	147.320000
540.652588	147.180000
540.746216	146.780000
540.839844	146.720000
540.933472	146.660000
541.027100	146.620000
541.120728	146.800000
541.214417	146.940000
541.308044	147.320000
541.401672	146.880000
541.495300	146.760000
541.588928	146.660000
541.682617	146.440000
541.776184	145.780000
541.869873	146.160000
541.963440	146.640000
542.057129	146.760000
542.150757	146.820000
542.244385	146.960000
542.338013	146.540000
542.431641	146.360000
542.525269	146.200000
542.618958	146.740000
542.712524	146.920000
542.806213	146.900000
542.899780	146.920000
542.993469	146.760000
543.087036	146.240000
543.180725	145.500000
543.274292	146.080000
543.367981	146.200000
543.461548	146.840000
543.555237	146.820000
543.648926	147.880000
543.742493	148.160000
543.836182	148.140000
543.929749	148.020000
544.023437	148.480000
544.117004	148.300000
544.210693	148.340000
544.304260	148.340000
544.397949	147.980000
544.491516	147.900000
544.585205	147.840000
544.678772	147.080000
544.772461	147.520000
544.866028	147.520000
544.959717	147.520000
545.053284	147.180000
545.146973	147.780000
545.240540	147.880000
545.334229	148.360000
545.427795	148.620000
545.521423	149.060000
545.615051	148.920000
545.708679	148.980000
545.802307	148.920000
545.895935	148.840000
545.989624	149.320000
546.083191	149.280000
546.176880	149.040000
546.270447	148.480000
546.364136	148.940000
546.457703	148.200000
546.551331	148.120000
546.644958	148.300000
546.738586	148.940000
546.832214	147.860000
546.925842	147.580000
547.019409	147.880000
547.113098	147.560000
547.206665	147.140000
547.300354	147.360000
547.393921	147.660000
547.487549	147.600000
547.581177	147.120000
547.674805	147.200000
547.768433	146.720000
547.862061	146.900000
547.955627	146.200000
548.049316	146.820000
548.142883	147.060000
548.236572	147.520000
548.330139	147.360000
548.423767	147.600000
548.517456	147.440000
548.611023	147.600000
548.704651	147.100000
548.798279	146.960000
548.891907	147.680000
548.985474	147.480000
549.079163	147.200000
549.172729	147.040000
549.266357	146.860000
549.359985	146.500000
549.453613	145.820000
549.547180	145.320000
549.640869	146.040000
549.734436	146.080000
549.828064	146.060000
549.921631	146.380000
550.015320	146.240000
550.108887	146.340000
550.202515	146.440000
550.296143	145.740000
550.389771	146.120000
550.483337	146.660000
550.576965	146.440000
550.670593	146.820000
550.764221	147.420000
550.857849	147.080000
550.951477	146.500000
551.045105	146.080000
551.138672	146.020000
551.232300	145.720000
551.325928	146.300000
551.419556	146.760000
551.513123	147.080000
551.606750	146.540000
551.700378	146.660000
551.794006	146.340000
551.887573	146.160000
551.981201	146.660000
552.074768	146.960000
552.168457	146.620000
552.262024	147.580000
552.355652	147.560000
552.449219	147.800000
552.542847	147.760000
552.636475	147.620000
552.730103	146.620000
552.823669	146.600000
552.917297	145.700000
553.010864	145.580000
553.104553	146.220000
553.198181	145.800000
553.291748	146.380000
553.385376	146.960000
553.478943	146.780000
553.572571	146.740000
553.666199	147.420000
553.759827	146.880000
553.853394	146.160000
553.947021	146.460000
554.040588	146.280000
554.134216	145.960000
554.227783	146.760000
554.321411	147.480000
554.415039	147.140000
554.508667	146.900000
554.602234	147.180000
554.695862	146.160000
554.789429	146.000000
554.883057	146.220000
554.976624	146.380000
555.070251	146.020000
555.163818	146.060000
555.257507	146.080000
555.351074	146.000000
555.444702	147.160000
555.538330	146.940000
555.631897	147.380000
555.725525	147.040000
555.819092	147.020000
555.912720	145.840000
556.006287	146.540000
556.099915	146.380000
556.193481	146.540000
556.287109	146.920000
556.380676	147.040000
556.474304	147.180000
556.567871	147.420000
556.661499	146.740000
556.755066	146.900000
556.848694	147.120000
556.942261	146.640000
557.035889	146.940000
557.129517	147.740000
557.223145	147.380000
557.316711	147.080000
557.410339	147.540000
557.503906	146.960000
557.597473	147.080000
557.691040	147.040000
557.784668	147.000000
557.878296	146.700000
557.971863	147.180000
558.065491	147.040000
558.159058	146.640000
558.252686	147.300000
558.346252	147.720000
558.439880	147.160000
558.533447	146.920000
558.627075	147.200000
558.720642	146.560000
558.814270	146.180000
558.907837	146.380000
559.001465	146.040000
559.095032	146.500000
559.188660	146.960000
559.282227	146.300000
559.375854	146.600000
559.469360	146.800000
559.562988	146.860000
559.656555	146.580000
559.750183	147.120000
559.843750	146.860000
559.937378	147.040000
560.030945	146.800000
560.124573	0.000000
560.218140	0.000000
560.311707	0.000000
560.405334	0.000000
560.498901	0.000000
560.592529	0.000000
560.686096	0.000000
560.779724	0.000000
560.873291	0.000000
560.966858	0.000000
561.060425	0.000000
561.154053	0.000000
561.247620	0.000000
561.341248	0.000000
561.434814	0.000000
561.528381	0.000000
561.621948	0.000000
561.715576	0.000000
561.809143	0.000000
561.902771	0.000000
561.996277	0.000000
562.089905	0.000000
562.183472	0.000000
562.277100	0.000000
