Model Number: SPM-002-B   
Serial Number: 70087108
Firmware Version: 004.15.4
Exposure Time: 100000.000000us
Data Taken on: 11-12-2020 19:27:58.984
Wavelength	Amplitude
221.570786	0.000000
221.663406	0.000000
221.756027	0.000000
221.848648	0.000000
221.941269	0.000000
222.033905	0.000000
222.126526	0.000000
222.219162	0.000000
222.311798	0.000000
222.404419	0.000000
222.497055	0.000000
222.589676	0.000000
222.682312	0.000000
222.774933	0.000000
222.867569	0.000000
222.960205	0.000000
223.052841	0.000000
223.145462	0.000000
223.238098	0.000000
223.330734	0.000000
223.423386	0.000000
223.516022	0.000000
223.608658	0.000000
223.701309	0.000000
223.793945	0.000000
223.886581	0.000000
223.979218	0.000000
224.071869	0.000000
224.164505	0.000000
224.257156	0.000000
224.349792	0.000000
224.442444	0.000000
224.535095	0.000000
224.627747	0.000000
224.720398	0.000000
224.813034	0.000000
224.905685	0.000000
224.998337	146.140000
225.090988	146.000000
225.183640	146.060000
225.276291	145.820000
225.368942	146.160000
225.461594	146.680000
225.554245	147.020000
225.646912	146.900000
225.739578	147.300000
225.832230	147.760000
225.924896	147.100000
226.017548	147.580000
226.110199	148.220000
226.202866	147.580000
226.295532	147.460000
226.388184	147.400000
226.480850	146.580000
226.573517	146.340000
226.666168	146.660000
226.758835	146.580000
226.851501	147.200000
226.944183	147.380000
227.036850	146.680000
227.129517	146.840000
227.222183	146.980000
227.314850	146.840000
227.407516	147.180000
227.500198	148.060000
227.592865	147.660000
227.685532	147.140000
227.778214	146.980000
227.870880	147.080000
227.963562	147.120000
228.056229	147.420000
228.148926	147.400000
228.241592	148.140000
228.334274	147.840000
228.426956	147.640000
228.519638	147.520000
228.612305	147.120000
228.704987	146.900000
228.797668	147.080000
228.890350	146.700000
228.983032	146.420000
229.075714	147.380000
229.168396	146.700000
229.261108	146.320000
229.353790	146.600000
229.446472	146.860000
229.539169	146.480000
229.631851	146.260000
229.724533	146.420000
229.817230	146.460000
229.909912	147.340000
230.002609	147.520000
230.095306	147.820000
230.187988	147.740000
230.280685	147.640000
230.373383	146.520000
230.466095	146.200000
230.558792	146.660000
230.651474	146.860000
230.744171	146.500000
230.836868	146.620000
230.929581	146.720000
231.022278	146.420000
231.114975	146.200000
231.207672	146.180000
231.300369	146.300000
231.393082	146.720000
231.485779	146.420000
231.578506	146.520000
231.671204	146.920000
231.763916	147.060000
231.856613	146.700000
231.949326	146.980000
232.042023	146.820000
232.134735	146.480000
232.227448	146.360000
232.320160	146.680000
232.412872	146.740000
232.505585	147.580000
232.598297	148.100000
232.691010	147.880000
232.783722	147.280000
232.876450	147.520000
232.969162	146.780000
233.061874	146.400000
233.154587	146.020000
233.247314	146.300000
233.340027	145.840000
233.432739	146.380000
233.525467	146.360000
233.618179	147.080000
233.710907	147.100000
233.803635	147.980000
233.896347	147.640000
233.989090	148.120000
234.081818	147.800000
234.174545	147.880000
234.267258	147.080000
234.359985	147.400000
234.452713	147.360000
234.545441	147.340000
234.638168	147.100000
234.730896	147.660000
234.823639	147.320000
234.916367	147.480000
235.009094	147.580000
235.101822	147.680000
235.194580	147.160000
235.287308	147.040000
235.380051	146.420000
235.472778	146.780000
235.565521	146.760000
235.658249	146.560000
235.750992	146.700000
235.843719	146.720000
235.936462	146.620000
236.029205	146.300000
236.121948	146.420000
236.214691	146.780000
236.307449	147.400000
236.400192	147.200000
236.492935	147.260000
236.585678	147.360000
236.678421	147.220000
236.771164	146.940000
236.863907	147.460000
236.956665	148.040000
237.049408	149.760000
237.142151	149.160000
237.234909	149.760000
237.327652	149.380000
237.420410	148.900000
237.513153	147.640000
237.605927	147.480000
237.698669	146.900000
237.791428	146.260000
237.884186	146.920000
237.976944	146.520000
238.069702	147.320000
238.162445	146.740000
238.255203	147.240000
238.347961	147.180000
238.440720	147.120000
238.533478	147.120000
238.626266	147.000000
238.719025	147.320000
238.811783	146.900000
238.904541	146.940000
238.997314	146.540000
239.090073	146.540000
239.182831	146.600000
239.275604	147.340000
239.368362	147.260000
239.461136	147.480000
239.553909	147.560000
239.646667	147.380000
239.739441	146.880000
239.832214	147.220000
239.925003	147.240000
240.017761	148.280000
240.110535	148.620000
240.203308	148.000000
240.296082	147.900000
240.388855	147.880000
240.481628	147.580000
240.574417	147.560000
240.667191	147.980000
240.759964	147.860000
240.852737	147.740000
240.945526	147.460000
241.038315	147.200000
241.131088	147.420000
241.223877	147.540000
241.316650	147.320000
241.409439	147.780000
241.502228	147.480000
241.595001	147.760000
241.687790	147.600000
241.780579	147.440000
241.873367	147.240000
241.966141	147.660000
242.058929	147.020000
242.151718	147.160000
242.244507	147.960000
242.337311	147.180000
242.430099	147.520000
242.522903	147.880000
242.615692	147.640000
242.708481	147.560000
242.801270	148.380000
242.894073	148.000000
242.986862	147.940000
243.079651	148.340000
243.172455	147.880000
243.265244	147.800000
243.358063	147.580000
243.450867	147.920000
243.543655	147.940000
243.636459	148.240000
243.729263	148.500000
243.822067	148.740000
243.914856	148.680000
244.007660	148.600000
244.100464	148.660000
244.193268	148.080000
244.286072	147.760000
244.378876	147.140000
244.471680	146.600000
244.564499	146.420000
244.657318	147.160000
244.750122	147.480000
244.842926	147.200000
244.935745	147.820000
245.028549	147.580000
245.121368	146.800000
245.214172	146.740000
245.306992	147.600000
245.399796	147.180000
245.492615	147.480000
245.585434	147.520000
245.678253	147.200000
245.771072	146.980000
245.863892	147.320000
245.956711	147.460000
246.049530	147.220000
246.142349	147.280000
246.235168	147.080000
246.327988	147.440000
246.420807	147.140000
246.513626	147.360000
246.606445	147.360000
246.699280	147.480000
246.792099	147.400000
246.884918	147.320000
246.977753	147.160000
247.070587	147.400000
247.163422	147.260000
247.256241	147.040000
247.349075	147.200000
247.441895	147.340000
247.534729	146.980000
247.627563	147.060000
247.720383	147.740000
247.813217	147.760000
247.906052	147.660000
247.998886	147.760000
248.091736	147.720000
248.184570	147.040000
248.277405	146.720000
248.370239	147.760000
248.463074	148.740000
248.555908	149.080000
248.648743	148.880000
248.741592	149.300000
248.834427	148.340000
248.927261	147.020000
249.020111	147.180000
249.112946	147.880000
249.205795	147.220000
249.298630	147.580000
249.391495	147.940000
249.484344	147.520000
249.577179	147.260000
249.670029	147.920000
249.762878	148.180000
249.855728	148.140000
249.948563	148.060000
250.041412	147.300000
250.134262	147.300000
250.227112	147.180000
250.319962	147.240000
250.412827	147.440000
250.505692	147.380000
250.598541	147.280000
250.691391	147.100000
250.784241	146.980000
250.877106	146.860000
250.969955	146.840000
251.062805	147.640000
251.155670	147.840000
251.248520	147.620000
251.341385	148.020000
251.434235	148.200000
251.527100	147.480000
251.619965	147.180000
251.712814	148.160000
251.805695	147.840000
251.898560	148.020000
251.991425	148.140000
252.084290	148.040000
252.177155	147.240000
252.270020	147.080000
252.362885	146.960000
252.455750	147.180000
252.548615	146.900000
252.641479	146.700000
252.734360	146.520000
252.827240	146.360000
252.920105	146.220000
253.012970	146.480000
253.105850	146.860000
253.198715	146.600000
253.291595	146.940000
253.384460	146.540000
253.477341	146.460000
253.570221	146.420000
253.663086	146.760000
253.755966	147.080000
253.848846	147.140000
253.941727	147.500000
254.034592	147.440000
254.127472	147.160000
254.220367	147.160000
254.313248	147.180000
254.406128	146.580000
254.499008	146.860000
254.591904	147.700000
254.684784	148.160000
254.777664	148.240000
254.870544	148.220000
254.963440	148.120000
255.056335	148.000000
255.149216	147.180000
255.242111	147.520000
255.334991	148.040000
255.427887	148.060000
255.520767	148.200000
255.613663	148.440000
255.706558	147.860000
255.799438	147.460000
255.892334	147.380000
255.985229	146.880000
256.078125	146.840000
256.171021	147.080000
256.263916	147.640000
256.356812	147.840000
256.449707	148.080000
256.542603	147.760000
256.635498	148.120000
256.728394	147.640000
256.821289	147.160000
256.914215	147.280000
257.007080	147.600000
257.100006	147.480000
257.192932	148.060000
257.285828	148.200000
257.378723	147.940000
257.471619	147.800000
257.564545	147.340000
257.657440	147.200000
257.750336	147.880000
257.843262	147.660000
257.936157	148.460000
258.029053	148.940000
258.121979	148.860000
258.214874	148.360000
258.307800	148.320000
258.400696	147.500000
258.493622	147.200000
258.586517	146.540000
258.679443	146.860000
258.772339	146.480000
258.865265	146.120000
258.958160	145.900000
259.051086	146.740000
259.144012	146.300000
259.236938	147.320000
259.329834	147.740000
259.422791	147.680000
259.515717	147.100000
259.608612	147.080000
259.701538	147.080000
259.794464	147.220000
259.887390	147.400000
259.980316	147.460000
260.073212	147.260000
260.166138	146.180000
260.259064	146.080000
260.351990	146.400000
260.444916	146.560000
260.537842	146.880000
260.630768	147.720000
260.723694	147.640000
260.816620	147.500000
260.909546	147.320000
261.002472	147.040000
261.095398	146.360000
261.188354	146.360000
261.281281	146.200000
261.374207	146.260000
261.467133	147.260000
261.560089	147.900000
261.653015	147.540000
261.745972	147.920000
261.838867	148.240000
261.931824	147.920000
262.024780	147.080000
262.117706	147.460000
262.210663	147.440000
262.303589	147.320000
262.396515	147.040000
262.489471	147.980000
262.582397	147.940000
262.675354	147.440000
262.768280	147.600000
262.861237	147.680000
262.954163	147.480000
263.047119	147.560000
263.140045	147.300000
263.233002	147.240000
263.325958	147.140000
263.418884	146.660000
263.511841	146.580000
263.604797	146.840000
263.697723	146.540000
263.790680	146.320000
263.883636	147.140000
263.976593	146.760000
264.069550	146.820000
264.162476	146.540000
264.255463	146.940000
264.348419	146.600000
264.441376	147.360000
264.534332	147.020000
264.627289	147.400000
264.720245	147.320000
264.813202	146.580000
264.906158	146.280000
264.999115	147.140000
265.092072	147.120000
265.185028	147.440000
265.277985	147.980000
265.370941	147.920000
265.463898	147.160000
265.556854	146.800000
265.649811	146.240000
265.742798	146.360000
265.835754	146.320000
265.928711	147.000000
266.021667	147.200000
266.114655	147.420000
266.207611	147.740000
266.300568	147.360000
266.393585	146.620000
266.486511	147.040000
266.579498	146.140000
266.672485	145.800000
266.765442	145.900000
266.858429	146.760000
266.951385	146.280000
267.044342	147.000000
267.137329	146.940000
267.230316	147.360000
267.323273	146.840000
267.416260	147.340000
267.509216	147.200000
267.602203	147.180000
267.695160	147.320000
267.788147	147.220000
267.881134	146.620000
267.974091	146.720000
268.067078	146.660000
268.160065	145.960000
268.253052	146.180000
268.346008	146.380000
268.438995	146.100000
268.531982	146.080000
268.624969	146.380000
268.717987	146.560000
268.810944	146.460000
268.903961	146.660000
268.996948	146.600000
269.089905	147.180000
269.182892	147.120000
269.275879	147.380000
269.368866	147.100000
269.461853	147.440000
269.554871	146.800000
269.647858	146.860000
269.740845	147.140000
269.833832	147.620000
269.926819	147.120000
270.019806	147.380000
270.112793	146.760000
270.205811	146.680000
270.298798	146.360000
270.391785	147.200000
270.484772	146.880000
270.577789	147.160000
270.670776	147.040000
270.763763	147.100000
270.856750	146.760000
270.949768	146.680000
271.042786	146.940000
271.135773	146.880000
271.228790	147.060000
271.321808	146.540000
271.414795	146.020000
271.507782	145.740000
271.600800	145.260000
271.693817	145.340000
271.786804	146.080000
271.879822	147.020000
271.972809	147.080000
272.065826	147.760000
272.158844	147.640000
272.251831	147.820000
272.344849	147.540000
272.437866	147.280000
272.530853	147.300000
272.623871	147.560000
272.716888	146.720000
272.809906	147.040000
272.902893	147.200000
272.995911	146.500000
273.088928	146.220000
273.181946	146.520000
273.274963	146.120000
273.367981	145.820000
273.460999	146.120000
273.554047	146.720000
273.647003	147.180000
273.740051	147.260000
273.833069	147.900000
273.926086	148.040000
274.019135	147.460000
274.112152	146.800000
274.205170	147.020000
274.298187	147.140000
274.391205	146.720000
274.484222	146.780000
274.577240	147.040000
274.670258	146.560000
274.763306	146.260000
274.856323	146.960000
274.949341	146.840000
275.042358	147.160000
275.135406	147.420000
275.228424	147.340000
275.321442	147.160000
275.414490	146.960000
275.507507	147.060000
275.600525	147.480000
275.693573	146.920000
275.786591	146.460000
275.879669	146.900000
275.972656	146.380000
276.065735	145.980000
276.158752	146.800000
276.251801	147.520000
276.344818	147.680000
276.437866	147.800000
276.530884	147.880000
276.623932	147.360000
276.716980	147.580000
276.809998	147.380000
276.903046	147.380000
276.996094	147.740000
277.089111	148.300000
277.182159	148.420000
277.275208	148.020000
277.368256	147.840000
277.461304	147.440000
277.554321	146.880000
277.647369	146.440000
277.740417	146.440000
277.833466	146.480000
277.926514	146.600000
278.019562	147.380000
278.112610	146.760000
278.205688	147.220000
278.298706	147.280000
278.391785	147.040000
278.484833	146.220000
278.577881	146.520000
278.670929	146.420000
278.763977	146.820000
278.857025	147.400000
278.950073	147.600000
279.043121	147.400000
279.136169	147.440000
279.229248	146.820000
279.322296	146.640000
279.415344	146.580000
279.508392	146.540000
279.601440	146.380000
279.694519	146.520000
279.787567	146.280000
279.880615	146.100000
279.973694	146.160000
280.066742	146.280000
280.159790	146.540000
280.252869	146.300000
280.345917	146.700000
280.438995	146.540000
280.532074	146.400000
280.625122	146.640000
280.718201	147.460000
280.811279	147.300000
280.904327	147.500000
280.997406	147.560000
281.090454	147.480000
281.183533	146.740000
281.276581	146.780000
281.369659	146.680000
281.462738	146.800000
281.555786	146.560000
281.648865	146.880000
281.741943	146.760000
281.835022	147.220000
281.928070	146.820000
282.021149	146.800000
282.114227	146.620000
282.207306	146.720000
282.300385	146.680000
282.393433	147.080000
282.486511	147.020000
282.579590	147.460000
282.672668	147.800000
282.765747	147.440000
282.858856	146.940000
282.951904	147.280000
283.045013	147.120000
283.138062	146.940000
283.231171	147.260000
283.324249	147.800000
283.417328	147.620000
283.510406	147.620000
283.603485	147.500000
283.696564	147.460000
283.789642	147.640000
283.882751	147.220000
283.975830	147.840000
284.068909	147.500000
284.161987	147.780000
284.255066	147.100000
284.348175	147.540000
284.441254	146.760000
284.534332	147.440000
284.627441	147.060000
284.720520	146.820000
284.813599	146.900000
284.906708	146.980000
284.999786	146.160000
285.092896	145.840000
285.185974	146.960000
285.279053	146.360000
285.372192	146.120000
285.465240	147.260000
285.558380	147.520000
285.651459	146.900000
285.744568	147.940000
285.837677	147.820000
285.930756	147.100000
286.023865	147.220000
286.116943	147.160000
286.210052	147.040000
286.303162	147.140000
286.396240	147.420000
286.489349	147.260000
286.582458	147.140000
286.675568	146.580000
286.768646	146.620000
286.861755	146.620000
286.954865	147.180000
287.047974	146.860000
287.141083	146.780000
287.234161	146.760000
287.327271	146.500000
287.420380	146.780000
287.513519	147.180000
287.606598	147.320000
287.699738	147.660000
287.792816	147.800000
287.885956	147.540000
287.979034	147.600000
288.072174	147.420000
288.165283	147.220000
288.258392	147.400000
288.351501	146.500000
288.444611	146.620000
288.537720	147.120000
288.630859	147.040000
288.723969	147.000000
288.817078	147.760000
288.910187	147.620000
289.003296	147.220000
289.096436	147.080000
289.189545	146.900000
289.282654	146.220000
289.375763	146.680000
289.468903	147.120000
289.562012	147.480000
289.655121	147.580000
289.748260	148.280000
289.841400	148.320000
289.934509	148.080000
290.027649	148.120000
290.120728	148.120000
290.213898	147.600000
290.306976	147.420000
290.400146	147.220000
290.493256	146.600000
290.586395	146.740000
290.679535	147.240000
290.772644	146.860000
290.865784	146.300000
290.958893	146.640000
291.052032	146.360000
291.145172	145.920000
291.238281	145.800000
291.331421	146.220000
291.424561	146.680000
291.517670	146.460000
291.610809	146.840000
291.703949	146.960000
291.797089	147.300000
291.890228	146.600000
291.983337	146.480000
292.076477	146.060000
292.169617	146.500000
292.262756	146.440000
292.355927	146.460000
292.449036	146.560000
292.542206	146.720000
292.635315	146.660000
292.728485	146.820000
292.821625	146.700000
292.914764	147.880000
293.007904	148.080000
293.101044	147.860000
293.194183	147.460000
293.287323	147.620000
293.380463	146.640000
293.473602	146.620000
293.566742	146.980000
293.659882	147.640000
293.753021	147.900000
293.846191	147.960000
293.939331	147.720000
294.032471	147.180000
294.125610	146.780000
294.218781	147.040000
294.311920	147.200000
294.405060	147.180000
294.498230	147.120000
294.591370	147.140000
294.684540	146.540000
294.777679	146.140000
294.870850	146.280000
294.963959	146.280000
295.057159	146.080000
295.150299	146.520000
295.243469	146.520000
295.336609	146.220000
295.429779	146.480000
295.522919	146.860000
295.616089	146.900000
295.709229	147.580000
295.802399	147.920000
295.895569	147.500000
295.988708	147.100000
296.081879	147.200000
296.175018	146.800000
296.268188	146.920000
296.361359	147.440000
296.454529	147.820000
296.547668	147.340000
296.640839	147.480000
296.734009	146.760000
296.827179	146.880000
296.920319	147.020000
297.013519	147.180000
297.106659	147.000000
297.199860	147.480000
297.292999	147.320000
297.386200	146.900000
297.479309	146.800000
297.572510	146.780000
297.665680	146.300000
297.758850	146.460000
297.852020	146.500000
297.945190	146.580000
298.038361	146.520000
298.131531	147.480000
298.224701	147.260000
298.317871	147.100000
298.411072	146.740000
298.504242	146.580000
298.597412	145.940000
298.690582	146.180000
298.783752	146.560000
298.876923	147.200000
298.970093	147.460000
299.063293	148.000000
299.156464	148.060000
299.249634	147.920000
299.342834	147.800000
299.436005	148.020000
299.529205	147.780000
299.622345	147.780000
299.715576	147.400000
299.808716	146.880000
299.901917	146.500000
299.995117	146.880000
300.088287	146.660000
300.181488	146.560000
300.274658	146.820000
300.367828	147.200000
300.461029	146.940000
300.554199	147.620000
300.647400	148.220000
300.740601	148.620000
300.833771	148.320000
300.926971	148.540000
301.020142	147.520000
301.113342	147.280000
301.206512	147.200000
301.299713	147.400000
301.392914	147.300000
301.486084	147.840000
301.579285	147.840000
301.672516	148.200000
301.765686	148.060000
301.858887	148.080000
301.952057	147.960000
302.045288	147.940000
302.138458	147.240000
302.231659	147.000000
302.324860	146.880000
302.418060	146.640000
302.511261	146.620000
302.604462	147.300000
302.697662	147.460000
302.790863	146.880000
302.884064	146.460000
302.977264	146.400000
303.070465	146.240000
303.163666	146.900000
303.256866	147.600000
303.350067	148.100000
303.443268	148.220000
303.536469	148.400000
303.629669	147.820000
303.722870	147.660000
303.816071	147.680000
303.909271	147.420000
304.002472	146.680000
304.095673	146.540000
304.188934	145.800000
304.282104	146.700000
304.375336	146.880000
304.468506	146.980000
304.561768	147.080000
304.654968	147.920000
304.748169	147.220000
304.841370	146.920000
304.934601	147.100000
305.027802	146.800000
305.121002	146.700000
305.214233	146.340000
305.307434	146.600000
305.400665	147.260000
305.493866	147.340000
305.587097	147.460000
305.680298	147.500000
305.773499	147.940000
305.866730	147.420000
305.959930	148.060000
306.053162	148.120000
306.146393	147.820000
306.239594	146.960000
306.332825	146.940000
306.426025	146.940000
306.519287	146.480000
306.612488	147.020000
306.705719	147.360000
306.798920	147.340000
306.892181	146.620000
306.985352	146.400000
307.078613	145.700000
307.171844	145.820000
307.265045	145.420000
307.358276	145.360000
307.451508	145.840000
307.544739	146.640000
307.637970	146.260000
307.731201	146.240000
307.824402	146.860000
307.917633	146.940000
308.010864	147.080000
308.104095	147.740000
308.197327	148.060000
308.290558	148.200000
308.383789	147.760000
308.477020	147.180000
308.570251	146.440000
308.663483	145.880000
308.756714	145.580000
308.849976	145.980000
308.943176	146.840000
309.036438	147.060000
309.129639	147.120000
309.222900	147.220000
309.316101	146.720000
309.409393	146.040000
309.502625	145.920000
309.595856	146.160000
309.689087	146.040000
309.782318	146.320000
309.875580	146.640000
309.968811	146.920000
310.062042	147.060000
310.155273	147.020000
310.248535	147.340000
310.341766	147.100000
310.434998	146.700000
310.528259	146.520000
310.621490	146.800000
310.714722	146.080000
310.807983	146.080000
310.901215	146.440000
310.994476	146.460000
311.087708	145.880000
311.181000	146.340000
311.274200	146.080000
311.367462	146.040000
311.460693	145.900000
311.553986	146.920000
311.647186	147.040000
311.740479	147.600000
311.833710	147.240000
311.926971	147.000000
312.020203	145.820000
312.113464	145.500000
312.206726	144.980000
312.299957	145.380000
312.393219	146.300000
312.486481	146.960000
312.579712	147.200000
312.672974	147.360000
312.766235	147.340000
312.859497	146.960000
312.952759	146.700000
313.045990	147.320000
313.139252	146.940000
313.232513	147.260000
313.325775	147.640000
313.419037	147.620000
313.512299	146.540000
313.605530	147.020000
313.698822	147.000000
313.792053	146.520000
313.885345	146.140000
313.978577	146.680000
314.071869	146.060000
314.165131	146.200000
314.258392	146.720000
314.351654	147.040000
314.444916	146.420000
314.538177	147.240000
314.631439	147.280000
314.724701	146.760000
314.817993	146.780000
314.911255	147.160000
315.004517	146.540000
315.097778	146.320000
315.191040	146.820000
315.284302	146.880000
315.377594	146.800000
315.470856	147.060000
315.564117	146.280000
315.657379	145.620000
315.750671	145.220000
315.843933	145.480000
315.937195	145.040000
316.030518	145.260000
316.123749	145.440000
316.217041	146.500000
316.310303	146.320000
316.403595	146.760000
316.496857	147.260000
316.590149	147.580000
316.683411	146.640000
316.776703	146.540000
316.869965	146.600000
316.963257	146.160000
317.056519	145.580000
317.149811	145.520000
317.243073	145.620000
317.336365	145.660000
317.429626	146.240000
317.522919	146.760000
317.616180	146.860000
317.709473	146.560000
317.802765	146.280000
317.896027	146.120000
317.989319	146.440000
318.082611	146.540000
318.175873	146.660000
318.269165	146.760000
318.362488	146.440000
318.455750	145.780000
318.549042	146.120000
318.642303	146.520000
318.735626	146.480000
318.828888	146.640000
318.922211	146.760000
319.015472	147.120000
319.108765	146.380000
319.202057	145.940000
319.295349	146.360000
319.388641	146.540000
319.481934	145.900000
319.575226	146.300000
319.668518	146.880000
319.761810	146.860000
319.855103	146.440000
319.948395	146.600000
320.041687	146.620000
320.134979	146.720000
320.228271	146.300000
320.321564	146.400000
320.414856	146.360000
320.508148	145.920000
320.601440	145.580000
320.694763	145.620000
320.788025	146.340000
320.881348	146.380000
320.974640	146.700000
321.067963	146.280000
321.161224	146.480000
321.254547	145.680000
321.347839	146.040000
321.441162	145.700000
321.534454	146.400000
321.627747	146.120000
321.721069	146.900000
321.814362	146.780000
321.907654	147.160000
322.000946	146.860000
322.094269	147.460000
322.187561	146.800000
322.280884	147.020000
322.374176	147.260000
322.467468	147.800000
322.560791	147.420000
322.654083	147.980000
322.747406	147.940000
322.840698	148.000000
322.934021	148.180000
323.027344	148.380000
323.120636	147.900000
323.213959	147.920000
323.307251	147.400000
323.400574	147.080000
323.493866	146.620000
323.587219	147.040000
323.680511	147.160000
323.773834	147.520000
323.867157	147.520000
323.960449	147.760000
324.053772	147.500000
324.147095	147.260000
324.240387	147.560000
324.333710	147.700000
324.427032	147.800000
324.520355	147.660000
324.613647	147.160000
324.706970	146.960000
324.800293	146.420000
324.893616	146.560000
324.986938	146.660000
325.080231	146.740000
325.173553	146.880000
325.266876	147.500000
325.360199	147.320000
325.453522	146.920000
325.546875	146.700000
325.640167	146.740000
325.733521	147.060000
325.826813	147.220000
325.920166	147.400000
326.013489	147.680000
326.106812	146.860000
326.200134	145.940000
326.293457	145.540000
326.386780	145.560000
326.480103	145.640000
326.573425	145.940000
326.666748	146.180000
326.760071	146.540000
326.853424	146.700000
326.946747	146.400000
327.040070	147.320000
327.133392	147.140000
327.226715	146.420000
327.320068	145.800000
327.413391	146.560000
327.506714	145.780000
327.600037	145.980000
327.693390	146.440000
327.786713	146.900000
327.880066	146.500000
327.973358	146.840000
328.066742	146.920000
328.160034	147.320000
328.253418	147.700000
328.346710	147.540000
328.440063	146.840000
328.533417	146.800000
328.626740	146.940000
328.720093	146.660000
328.813416	146.540000
328.906769	146.760000
329.000092	146.640000
329.093445	145.900000
329.186768	145.700000
329.280121	146.080000
329.373444	146.640000
329.466797	146.760000
329.560120	146.980000
329.653473	147.100000
329.746796	146.860000
329.840149	146.460000
329.933502	146.400000
330.026825	146.020000
330.120178	145.860000
330.213562	145.620000
330.306854	145.840000
330.400238	145.720000
330.493561	146.080000
330.586945	146.700000
330.680237	147.160000
330.773621	147.080000
330.866974	147.200000
330.960327	147.140000
331.053680	146.820000
331.147003	146.680000
331.240356	146.820000
331.333710	146.700000
331.427063	146.320000
331.520416	146.260000
331.613770	146.020000
331.707123	146.100000
331.800476	146.240000
331.893829	147.400000
331.987152	147.360000
332.080505	147.740000
332.173859	147.320000
332.267212	146.920000
332.360565	146.080000
332.453918	146.040000
332.547333	145.600000
332.640656	145.700000
332.734039	145.960000
332.827362	146.040000
332.920746	146.260000
333.014069	146.560000
333.107452	147.100000
333.200806	147.460000
333.294159	147.600000
333.387543	146.900000
333.480896	146.600000
333.574249	145.960000
333.667603	145.340000
333.760956	145.420000
333.854340	145.780000
333.947693	145.840000
334.041046	145.720000
334.134430	146.280000
334.227783	145.820000
334.321136	145.820000
334.414520	145.580000
334.507874	145.780000
334.601227	145.640000
334.694611	145.840000
334.787964	146.100000
334.881348	146.460000
334.974701	146.440000
335.068085	145.980000
335.161438	146.420000
335.254822	146.120000
335.348175	146.200000
335.441559	145.860000
335.534943	146.680000
335.628296	146.260000
335.721680	146.360000
335.815033	146.480000
335.908417	147.080000
336.001770	146.740000
336.095154	146.540000
336.188538	146.520000
336.281891	146.060000
336.375275	145.640000
336.468658	145.340000
336.562012	145.420000
336.655396	145.540000
336.748779	146.180000
336.842133	146.100000
336.935516	146.400000
337.028900	146.280000
337.122284	146.220000
337.215637	145.960000
337.309021	146.200000
337.402435	145.640000
337.495789	145.480000
337.589203	145.360000
337.682526	145.280000
337.775940	145.540000
337.869324	145.940000
337.962708	146.020000
338.056091	146.580000
338.149475	146.320000
338.242859	146.060000
338.336243	145.940000
338.429626	146.380000
338.523010	145.980000
338.616394	146.080000
338.709778	146.440000
338.803162	146.420000
338.896545	146.420000
338.989929	146.340000
339.083313	146.580000
339.176697	146.180000
339.270081	146.200000
339.363464	146.300000
339.456848	146.760000
339.550232	145.980000
339.643616	145.900000
339.737030	145.980000
339.830383	145.640000
339.923828	145.460000
340.017181	145.820000
340.110596	146.120000
340.203949	146.220000
340.297363	146.280000
340.390778	146.280000
340.484161	146.440000
340.577545	146.300000
340.670959	146.240000
340.764343	146.120000
340.857727	146.080000
340.951111	145.820000
341.044525	146.120000
341.137909	145.840000
341.231293	146.100000
341.324707	145.760000
341.418091	146.660000
341.511505	146.260000
341.604889	146.700000
341.698303	146.820000
341.791687	147.160000
341.885071	146.600000
341.978485	146.660000
342.071899	146.800000
342.165283	146.880000
342.258698	146.820000
342.352081	147.020000
342.445496	147.520000
342.538879	147.200000
342.632324	146.640000
342.725708	146.620000
342.819122	146.200000
342.912506	145.880000
343.005920	145.880000
343.099335	146.880000
343.192719	146.860000
343.286133	147.060000
343.379547	147.260000
343.472931	147.520000
343.566345	147.000000
343.659760	147.160000
343.753143	146.860000
343.846558	146.440000
343.939972	146.020000
344.033386	146.280000
344.126770	145.860000
344.220184	145.940000
344.313599	146.280000
344.407043	146.620000
344.500427	146.320000
344.593872	147.120000
344.687225	147.300000
344.780670	146.900000
344.874054	146.720000
344.967499	147.080000
345.060913	146.780000
345.154327	146.420000
345.247742	146.040000
345.341156	145.880000
345.434570	145.440000
345.527985	145.380000
345.621399	145.840000
345.714813	146.160000
345.808228	146.660000
345.901642	146.400000
345.995056	146.340000
346.088470	146.320000
346.181885	146.400000
346.275299	145.860000
346.368713	145.720000
346.462128	145.420000
346.555573	145.340000
346.648987	145.480000
346.742401	145.800000
346.835815	146.700000
346.929260	146.400000
347.022644	146.660000
347.116119	146.800000
347.209503	146.800000
347.302948	147.260000
347.396362	147.980000
347.489807	147.780000
347.583221	148.280000
347.676636	147.940000
347.770050	146.700000
347.863495	146.060000
347.956909	146.100000
348.050323	145.420000
348.143768	145.780000
348.237183	145.920000
348.330597	146.680000
348.424042	146.820000
348.517456	147.080000
348.610901	146.920000
348.704315	146.800000
348.797760	146.320000
348.891174	145.760000
348.984619	145.500000
349.078033	145.880000
349.171448	146.440000
349.264923	146.300000
349.358337	146.440000
349.451782	146.440000
349.545197	145.820000
349.638641	145.260000
349.732086	144.840000
349.825500	145.380000
349.918945	145.000000
350.012390	145.480000
350.105804	146.120000
350.199249	146.540000
350.292664	146.440000
350.386108	146.680000
350.479553	147.140000
350.572968	147.060000
350.666412	147.200000
350.759857	147.180000
350.853302	147.800000
350.946716	147.120000
351.040161	146.920000
351.133606	147.160000
351.227081	147.000000
351.320465	147.400000
351.413940	147.240000
351.507355	147.380000
351.600830	147.300000
351.694244	147.100000
351.787720	146.700000
351.881104	146.800000
351.974579	146.320000
352.067993	147.060000
352.161469	147.320000
352.254883	146.680000
352.348358	146.740000
352.441803	147.120000
352.535248	146.380000
352.628693	146.760000
352.722137	146.800000
352.815582	147.000000
352.909027	146.940000
353.002472	146.980000
353.095917	146.540000
353.189362	146.700000
353.282806	146.700000
353.376251	146.340000
353.469696	145.960000
353.563141	146.340000
353.656586	146.360000
353.750061	146.140000
353.843475	146.500000
353.936981	147.340000
354.030396	146.860000
354.123871	146.780000
354.217285	147.460000
354.310760	147.420000
354.404175	146.960000
354.497681	146.700000
354.591095	146.840000
354.684570	145.640000
354.777985	145.360000
354.871490	145.300000
354.964935	145.740000
355.058380	145.740000
355.151855	145.820000
355.245300	146.380000
355.338745	146.580000
355.432220	146.600000
355.525665	146.140000
355.619110	146.880000
355.712585	146.460000
355.806030	146.260000
355.899475	145.840000
355.992950	146.520000
356.086426	146.540000
356.179871	146.760000
356.273346	146.800000
356.366791	147.020000
356.460266	146.980000
356.553711	146.660000
356.647186	146.620000
356.740631	146.380000
356.834106	146.440000
356.927551	146.520000
357.021027	146.520000
357.114471	146.800000
357.207947	146.960000
357.301422	147.080000
357.394867	146.940000
357.488342	147.200000
357.581818	146.980000
357.675262	147.240000
357.768738	147.080000
357.862213	146.440000
357.955658	146.460000
358.049133	146.300000
358.142609	146.060000
358.236053	145.800000
358.329529	146.080000
358.423035	145.940000
358.516449	145.440000
358.609955	145.920000
358.703400	146.740000
358.796906	146.860000
358.890350	146.640000
358.983826	147.320000
359.077271	146.540000
359.170776	146.060000
359.264221	145.860000
359.357727	146.200000
359.451172	146.420000
359.544647	146.960000
359.638123	147.000000
359.731598	147.580000
359.825073	147.680000
359.918549	147.480000
360.012024	147.300000
360.105499	146.860000
360.198975	146.780000
360.292450	146.760000
360.385925	146.700000
360.479401	146.500000
360.572876	146.740000
360.666351	146.740000
360.759857	146.800000
360.853302	146.580000
360.946808	146.080000
361.040253	146.340000
361.133759	145.780000
361.227203	145.880000
361.320709	145.680000
361.414154	146.300000
361.507660	146.320000
361.601105	147.120000
361.694641	147.280000
361.788086	147.500000
361.881592	147.880000
361.975067	147.560000
362.068542	147.800000
362.162018	147.380000
362.255524	147.100000
362.348999	146.620000
362.442474	146.980000
362.535950	145.960000
362.629456	145.760000
362.722931	145.620000
362.816406	146.200000
362.909882	146.420000
363.003387	146.460000
363.096863	147.180000
363.190338	147.460000
363.283875	147.020000
363.377319	146.800000
363.470825	147.560000
363.564301	146.680000
363.657806	146.880000
363.751282	146.640000
363.844788	147.300000
363.938232	146.520000
364.031769	147.420000
364.125214	147.760000
364.218750	148.220000
364.312225	147.100000
364.405731	147.260000
364.499207	146.620000
364.592712	145.880000
364.686188	145.760000
364.779694	145.860000
364.873169	145.940000
364.966675	146.060000
365.060150	146.500000
365.153656	146.880000
365.247131	147.120000
365.340637	147.200000
365.434143	147.540000
365.527618	147.820000
365.621155	147.140000
365.714600	147.180000
365.808136	147.320000
365.901611	146.220000
365.995117	145.780000
366.088593	145.720000
366.182129	145.420000
366.275604	145.680000
366.369110	146.240000
366.462585	146.220000
366.556122	147.000000
366.649567	147.520000
366.743103	147.140000
366.836609	146.980000
366.930115	147.200000
367.023590	147.320000
367.117096	146.980000
367.210602	146.920000
367.304108	147.620000
367.397614	148.020000
367.491119	147.700000
367.584595	147.840000
367.678101	148.160000
367.771606	147.640000
367.865112	146.900000
367.958649	146.060000
368.052124	145.780000
368.145660	145.500000
368.239136	145.840000
368.332672	146.180000
368.426147	146.640000
368.519684	146.800000
368.613159	147.120000
368.706696	146.720000
368.800171	146.660000
368.893707	147.060000
368.987183	147.300000
369.080719	147.320000
369.174225	147.220000
369.267731	147.400000
369.361237	146.880000
369.454742	146.480000
369.548248	146.560000
369.641754	146.480000
369.735260	146.140000
369.828766	145.680000
369.922272	146.600000
370.015808	146.100000
370.109314	146.140000
370.202820	146.040000
370.296356	147.320000
370.389832	146.480000
370.483368	146.020000
370.576874	145.700000
370.670410	146.100000
370.763885	145.120000
370.857422	145.060000
370.950928	145.320000
371.044464	146.340000
371.137939	146.260000
371.231476	146.920000
371.324982	147.560000
371.418518	147.880000
371.512024	147.360000
371.605560	146.960000
371.699066	146.800000
371.792572	146.080000
371.886108	146.440000
371.979614	146.620000
372.073120	147.300000
372.166656	147.260000
372.260162	147.900000
372.353668	147.400000
372.447205	147.100000
372.540710	146.880000
372.634277	146.540000
372.727753	146.400000
372.821320	146.520000
372.914795	146.580000
373.008362	146.440000
373.101837	146.520000
373.195404	146.060000
373.288879	145.720000
373.382446	146.540000
373.475922	146.360000
373.569489	147.320000
373.662964	147.960000
373.756531	148.220000
373.850037	147.960000
373.943573	148.260000
374.037109	147.080000
374.130615	147.120000
374.224152	147.340000
374.317657	146.900000
374.411194	147.300000
374.504730	147.380000
374.598236	146.720000
374.691772	146.460000
374.785309	146.820000
374.878815	145.960000
374.972351	146.640000
375.065887	146.900000
375.159454	147.660000
375.252930	147.500000
375.346497	147.960000
375.440002	148.220000
375.533569	148.080000
375.627045	147.280000
375.720612	147.320000
375.814117	147.680000
375.907684	147.000000
376.001160	146.880000
376.094727	146.700000
376.188232	147.140000
376.281799	146.840000
376.375336	146.820000
376.468872	147.800000
376.562408	148.080000
376.655914	147.560000
376.749451	147.420000
376.842987	147.540000
376.936523	146.660000
377.030060	146.640000
377.123596	146.760000
377.217133	146.600000
377.310669	146.580000
377.404205	147.240000
377.497772	147.680000
377.591278	147.500000
377.684845	148.100000
377.778351	148.400000
377.871918	148.080000
377.965424	147.340000
378.058990	146.980000
378.152496	146.600000
378.246063	146.720000
378.339569	146.900000
378.433136	147.040000
378.526642	147.540000
378.620209	147.620000
378.713745	147.300000
378.807312	147.500000
378.900848	147.540000
378.994385	147.600000
379.087921	146.800000
379.181458	146.920000
379.274994	145.740000
379.368530	145.780000
379.462097	145.820000
379.555634	146.800000
379.649170	146.240000
379.742706	146.700000
379.836273	147.160000
379.929810	146.940000
380.023376	146.460000
380.116882	146.740000
380.210449	146.960000
380.303986	146.320000
380.397552	146.060000
380.491058	146.560000
380.584656	146.600000
380.678162	146.860000
380.771729	147.140000
380.865265	147.800000
380.958832	147.700000
381.052368	147.680000
381.145935	147.920000
381.239471	148.000000
381.333008	147.700000
381.426575	147.480000
381.520111	147.620000
381.613647	147.420000
381.707214	147.160000
381.800751	146.420000
381.894318	146.440000
381.987854	145.980000
382.081421	145.700000
382.174988	146.160000
382.268524	146.180000
382.362091	146.280000
382.455627	147.100000
382.549194	146.820000
382.642731	145.960000
382.736298	146.160000
382.829834	145.940000
382.923401	146.280000
383.016937	146.820000
383.110504	147.540000
383.204041	147.800000
383.297607	148.180000
383.391174	147.140000
383.484741	147.460000
383.578278	147.060000
383.671844	146.720000
383.765411	146.020000
383.858948	146.660000
383.952515	146.140000
384.046051	146.620000
384.139618	146.960000
384.233185	147.440000
384.326721	147.320000
384.420288	147.860000
384.513855	147.720000
384.607422	147.980000
384.700989	147.940000
384.794525	147.540000
384.888123	147.200000
384.981659	147.440000
385.075226	146.980000
385.168762	146.840000
385.262360	146.840000
385.355896	146.000000
385.449463	145.760000
385.542999	145.980000
385.636597	146.840000
385.730164	147.080000
385.823730	147.280000
385.917267	146.820000
386.010834	146.660000
386.104401	146.200000
386.197968	146.380000
386.291534	146.820000
386.385101	147.480000
386.478668	148.360000
386.572235	148.080000
386.665802	147.480000
386.759338	147.440000
386.852905	146.920000
386.946472	145.760000
387.040070	145.960000
387.133606	146.300000
387.227203	146.140000
387.320740	146.460000
387.414337	146.820000
387.507874	146.440000
387.601471	146.540000
387.695007	146.400000
387.788605	146.160000
387.882141	146.240000
387.975739	146.360000
388.069275	145.880000
388.162872	146.060000
388.256439	146.000000
388.350037	146.060000
388.443604	145.980000
388.537170	146.200000
388.630737	146.920000
388.724304	147.100000
388.817871	146.820000
388.911438	146.940000
389.005005	147.420000
389.098602	147.200000
389.192169	146.820000
389.285736	147.360000
389.379333	147.360000
389.472870	146.800000
389.566467	146.760000
389.660034	146.940000
389.753632	146.280000
389.847168	146.680000
389.940765	146.820000
390.034332	146.940000
390.127930	146.800000
390.221466	147.000000
390.315063	146.520000
390.408630	145.940000
390.502228	145.140000
390.595795	145.460000
390.689362	145.420000
390.782959	145.920000
390.876526	146.620000
390.970093	146.720000
391.063690	147.340000
391.157257	147.500000
391.250824	147.640000
391.344421	147.460000
391.437988	148.000000
391.531555	147.760000
391.625153	148.120000
391.718750	148.080000
391.812317	148.060000
391.905914	147.620000
391.999481	147.500000
392.093079	147.200000
392.186615	147.220000
392.280243	147.540000
392.373779	147.500000
392.467407	148.040000
392.560944	148.140000
392.654572	147.620000
392.748108	147.240000
392.841736	147.640000
392.935303	146.760000
393.028900	146.540000
393.122467	146.680000
393.216064	146.340000
393.309631	145.860000
393.403229	145.640000
393.496796	145.720000
393.590393	145.000000
393.683990	145.500000
393.777557	145.920000
393.871155	146.440000
393.964722	146.560000
394.058350	147.400000
394.151917	147.460000
394.245514	147.060000
394.339081	147.060000
394.432678	147.320000
394.526245	147.020000
394.619873	146.660000
394.713409	146.980000
394.807037	146.620000
394.900604	146.580000
394.994202	146.580000
395.087769	146.860000
395.181396	146.220000
395.274994	147.200000
395.368561	146.360000
395.462158	146.460000
395.555756	146.160000
395.649353	147.100000
395.742920	146.600000
395.836517	147.700000
395.930115	147.120000
396.023712	147.440000
396.117279	147.220000
396.210876	146.660000
396.304474	146.300000
396.398071	147.100000
396.491669	147.220000
396.585266	147.080000
396.678833	147.000000
396.772461	147.380000
396.866028	147.240000
396.959656	147.860000
397.053223	148.640000
397.146851	149.340000
397.240417	150.300000
397.334015	152.340000
397.427582	154.080000
397.521210	156.700000
397.614807	161.120000
397.708405	165.940000
397.802002	172.200000
397.895599	180.640000
397.989197	190.880000
398.082794	202.800000
398.176392	217.600000
398.269989	233.760000
398.363586	252.280000
398.457184	273.840000
398.550781	297.440000
398.644379	320.460000
398.737976	344.900000
398.831573	369.900000
398.925201	393.980000
399.018768	419.220000
399.112396	446.200000
399.205963	475.600000
399.299591	506.600000
399.393158	539.880000
399.486786	571.580000
399.580353	600.660000
399.673981	622.780000
399.767578	638.760000
399.861206	645.060000
399.954773	643.160000
400.048401	632.300000
400.141998	615.880000
400.235596	593.760000
400.329193	570.300000
400.422791	545.760000
400.516418	522.240000
400.610016	499.340000
400.703613	475.600000
400.797211	447.200000
400.890808	418.600000
400.984436	388.920000
401.078033	358.260000
401.171631	329.540000
401.265259	304.720000
401.358826	282.700000
401.452484	262.560000
401.546051	245.380000
401.639679	228.780000
401.733246	214.920000
401.826904	201.000000
401.920471	189.100000
402.014099	179.140000
402.107697	171.540000
402.201324	165.200000
402.294891	160.460000
402.388550	157.160000
402.482147	154.340000
402.575745	152.080000
402.669373	150.220000
402.762970	149.200000
402.856567	148.700000
402.950195	148.520000
403.043793	148.440000
403.137390	149.040000
403.231018	148.320000
403.324615	148.640000
403.418243	148.260000
403.511841	148.160000
403.605469	147.860000
403.699066	148.260000
403.792694	147.860000
403.886292	148.000000
403.979919	147.840000
404.073517	147.340000
404.167145	147.440000
404.260712	147.400000
404.354370	147.020000
404.447937	147.160000
404.541595	147.260000
404.635162	147.400000
404.728821	147.720000
404.822418	147.580000
404.916046	147.400000
405.009644	147.560000
405.103271	147.700000
405.196899	147.340000
405.290497	147.560000
405.384125	147.840000
405.477722	147.200000
405.571350	146.500000
405.664948	146.620000
405.758575	146.240000
405.852203	145.500000
405.945801	145.900000
406.039429	146.240000
406.133057	145.840000
406.226654	146.200000
406.320312	146.480000
406.413879	146.420000
406.507538	146.700000
406.601135	146.500000
406.694763	146.740000
406.788361	146.620000
406.882019	146.480000
406.975586	146.240000
407.069244	146.960000
407.162872	146.760000
407.256470	147.240000
407.350098	147.220000
407.443726	147.080000
407.537323	146.540000
407.630951	146.820000
407.724579	146.260000
407.818207	146.620000
407.911804	146.520000
408.005432	146.460000
408.099060	146.620000
408.192688	147.300000
408.286285	146.940000
408.379913	146.580000
408.473572	146.820000
408.567169	146.160000
408.660828	145.900000
408.754395	145.760000
408.848053	145.880000
408.941650	145.860000
409.035309	145.840000
409.128906	145.700000
409.222565	146.100000
409.316132	146.440000
409.409790	146.220000
409.503387	146.360000
409.597046	146.400000
409.690674	146.300000
409.784302	146.380000
409.877930	146.480000
409.971558	146.600000
410.065186	146.420000
410.158783	146.340000
410.252411	146.260000
410.346039	146.240000
410.439667	146.100000
410.533295	146.680000
410.626923	146.700000
410.720551	146.640000
410.814209	147.280000
410.907806	147.360000
411.001465	146.760000
411.095062	146.920000
411.188721	147.180000
411.282318	146.660000
411.375977	146.560000
411.469574	146.620000
411.563232	146.500000
411.656830	146.180000
411.750488	146.040000
411.844086	145.700000
411.937744	146.040000
412.031372	146.200000
412.125000	146.220000
412.218628	146.600000
412.312256	147.500000
412.405884	148.120000
412.499512	147.880000
412.593170	148.240000
412.686798	148.420000
412.780426	147.800000
412.874054	147.420000
412.967682	147.660000
413.061310	148.160000
413.154968	148.040000
413.248566	148.180000
413.342224	148.020000
413.435852	148.060000
413.529510	147.280000
413.623108	146.860000
413.716766	146.880000
413.810364	146.760000
413.904022	146.500000
413.997650	146.240000
414.091309	146.940000
414.184906	146.840000
414.278564	146.580000
414.372192	146.800000
414.465851	147.300000
414.559479	146.800000
414.653107	147.660000
414.746735	147.740000
414.840393	147.480000
414.934021	147.600000
415.027649	147.260000
415.121277	147.000000
415.214935	147.400000
415.308563	147.440000
415.402191	146.620000
415.495850	146.700000
415.589478	146.020000
415.683136	145.780000
415.776733	146.040000
415.870422	146.960000
415.964020	146.680000
416.057678	146.960000
416.151306	146.900000
416.244965	146.720000
416.338562	146.640000
416.432251	147.280000
416.525848	148.040000
416.619507	148.060000
416.713165	148.400000
416.806793	148.160000
416.900421	148.100000
416.994080	146.940000
417.087708	147.040000
417.181366	146.380000
417.274994	146.100000
417.368622	146.100000
417.462280	146.980000
417.555908	146.880000
417.649567	146.900000
417.743195	147.220000
417.836853	147.200000
417.930481	146.980000
418.024170	146.980000
418.117767	147.540000
418.211426	147.520000
418.305054	147.700000
418.398712	147.240000
418.492340	147.300000
418.585999	147.540000
418.679626	147.660000
418.773285	147.680000
418.866913	148.160000
418.960571	148.420000
419.054230	148.560000
419.147858	148.500000
419.241516	148.560000
419.335144	148.320000
419.428802	148.100000
419.522461	147.560000
419.616089	147.140000
419.709747	147.200000
419.803375	147.440000
419.897034	147.140000
419.990662	147.120000
420.084320	147.540000
420.177979	147.420000
420.271606	147.400000
420.365295	147.760000
420.458893	147.880000
420.552582	148.060000
420.646210	147.920000
420.739868	147.660000
420.833496	147.440000
420.927155	147.060000
421.020782	146.560000
421.114471	146.280000
421.208069	146.220000
421.301758	146.640000
421.395386	146.580000
421.489044	146.580000
421.582703	146.700000
421.676361	147.200000
421.769989	146.500000
421.863647	146.880000
421.957306	147.040000
422.050934	147.280000
422.144592	146.880000
422.238251	146.800000
422.331909	146.340000
422.425537	146.380000
422.519196	146.180000
422.612854	145.780000
422.706543	145.920000
422.800140	146.460000
422.893829	145.980000
422.987457	145.980000
423.081146	146.600000
423.174744	147.220000
423.268433	146.820000
423.362061	146.860000
423.455750	146.380000
423.549347	146.140000
423.643036	145.460000
423.736664	145.960000
423.830353	146.240000
423.924011	147.160000
424.017639	146.620000
424.111298	146.580000
424.204956	146.260000
424.298615	146.140000
424.392273	145.620000
424.485931	146.120000
424.579559	146.540000
424.673218	146.640000
424.766876	146.820000
424.860535	146.600000
424.954193	146.060000
425.047882	146.440000
425.141510	146.260000
425.235199	146.320000
425.328796	146.300000
425.422485	146.900000
425.516113	146.140000
425.609802	146.180000
425.703430	146.160000
425.797119	146.160000
425.890747	145.920000
425.984436	146.040000
426.078064	146.080000
426.171753	146.100000
426.265411	146.100000
426.359070	146.520000
426.452728	146.420000
426.546356	146.340000
426.640015	145.940000
426.733673	146.160000
426.827332	145.580000
426.920990	146.280000
427.014648	145.980000
427.108307	146.300000
427.201965	146.720000
427.295624	147.140000
427.389282	146.580000
427.482941	147.080000
427.576630	147.140000
427.670258	146.400000
427.763947	146.120000
427.857574	146.140000
427.951263	146.020000
428.044922	145.760000
428.138611	146.320000
428.232239	146.880000
428.325928	147.400000
428.419556	147.600000
428.513245	147.460000
428.606903	147.120000
428.700562	146.320000
428.794220	145.440000
428.887878	144.840000
428.981537	145.380000
429.075195	145.600000
429.168854	146.160000
429.262512	146.220000
429.356201	146.720000
429.449860	146.240000
429.543518	146.040000
429.637177	145.960000
429.730835	146.120000
429.824493	145.760000
429.918182	146.120000
430.011810	145.820000
430.105530	145.260000
430.199158	145.780000
430.292847	146.040000
430.386475	145.920000
430.480164	145.900000
430.573792	145.980000
430.667511	145.620000
430.761139	145.820000
430.854828	146.160000
430.948456	146.360000
431.042145	147.300000
431.135834	147.060000
431.229492	146.840000
431.323151	146.720000
431.416809	146.920000
431.510468	146.260000
431.604156	146.300000
431.697815	146.060000
431.791473	145.520000
431.885132	145.200000
431.978821	145.900000
432.072479	146.380000
432.166138	147.000000
432.259827	147.220000
432.353485	147.800000
432.447174	147.520000
432.540802	147.160000
432.634491	147.160000
432.728149	147.460000
432.821838	147.740000
432.915466	147.380000
433.009186	147.540000
433.102814	146.960000
433.196503	146.760000
433.290131	146.420000
433.383850	146.920000
433.477509	147.040000
433.571167	148.100000
433.664856	148.420000
433.758514	148.800000
433.852173	148.360000
433.945862	148.000000
434.039520	147.540000
434.133179	146.880000
434.226868	146.260000
434.320526	145.880000
434.414185	146.780000
434.507874	146.380000
434.601562	146.940000
434.695221	146.960000
434.788910	147.620000
434.882538	147.320000
434.976257	147.140000
435.069885	147.020000
435.163574	147.160000
435.257233	146.480000
435.350922	146.340000
435.444580	146.200000
435.538269	146.260000
435.631897	146.520000
435.725616	147.140000
435.819275	147.340000
435.912964	147.880000
436.006622	147.960000
436.100311	147.760000
436.193970	147.040000
436.287628	146.520000
436.381317	146.120000
436.474976	145.800000
436.568665	145.400000
436.662323	145.800000
436.756012	145.760000
436.849670	145.820000
436.943390	145.680000
437.037018	145.700000
437.130737	145.720000
437.224365	145.760000
437.318085	146.020000
437.411713	146.180000
437.505432	146.740000
437.599060	147.260000
437.692780	148.000000
437.786407	147.600000
437.880127	147.560000
437.973755	147.200000
438.067474	146.540000
438.161133	146.180000
438.254822	147.000000
438.348480	146.820000
438.442169	147.520000
438.535828	148.020000
438.629517	147.460000
438.723175	146.760000
438.816864	147.480000
438.910553	146.700000
439.004211	146.260000
439.097900	146.240000
439.191559	146.380000
439.285248	145.680000
439.378906	146.360000
439.472626	146.560000
439.566284	146.740000
439.659973	146.980000
439.753632	147.080000
439.847321	147.000000
439.940979	147.040000
440.034698	147.180000
440.128326	146.680000
440.222046	146.380000
440.315674	145.500000
440.409393	145.240000
440.503082	144.860000
440.596741	145.220000
440.690430	145.400000
440.784088	145.520000
440.877777	145.080000
440.971466	145.300000
441.065125	145.060000
441.158813	145.120000
441.252502	145.180000
441.346161	145.800000
441.439850	146.380000
441.533539	146.280000
441.627197	146.640000
441.720886	146.800000
441.814606	146.880000
441.908234	146.820000
442.001953	146.880000
442.095612	146.700000
442.189301	147.080000
442.282959	147.020000
442.376678	146.180000
442.470306	146.620000
442.564026	146.380000
442.657684	146.440000
442.751404	146.660000
442.845032	147.920000
442.938751	147.460000
443.032440	147.580000
443.126099	146.660000
443.219788	146.820000
443.313477	146.140000
443.407166	146.340000
443.500824	146.380000
443.594513	147.120000
443.688202	146.980000
443.781891	146.280000
443.875549	146.000000
443.969238	145.980000
444.062927	145.800000
444.156647	145.800000
444.250275	146.300000
444.343994	146.680000
444.437653	146.940000
444.531372	146.620000
444.625031	146.020000
444.718719	145.740000
444.812378	145.500000
444.906097	145.420000
444.999756	145.360000
445.093445	145.620000
445.187103	145.880000
445.280823	146.460000
445.374512	145.900000
445.468201	146.020000
445.561859	145.940000
445.655548	146.140000
445.749237	145.400000
445.842926	145.920000
445.936615	146.540000
446.030304	146.380000
446.123962	146.440000
446.217651	146.460000
446.311340	146.520000
446.405029	145.780000
446.498749	146.040000
446.592407	145.580000
446.686096	146.080000
446.779755	146.220000
446.873474	146.640000
446.967133	146.680000
447.060852	146.900000
447.154510	146.860000
447.248230	146.540000
447.341858	146.380000
447.435577	146.220000
447.529236	146.000000
447.622955	145.660000
447.716644	145.660000
447.810333	145.760000
447.904022	146.240000
447.997711	146.240000
448.091400	146.840000
448.185059	146.940000
448.278748	147.200000
448.372437	146.920000
448.466125	147.140000
448.559814	146.800000
448.653503	147.120000
448.747192	147.300000
448.840912	147.460000
448.934570	147.700000
449.028290	147.920000
449.121948	147.760000
449.215637	147.180000
449.309296	146.900000
449.403015	146.720000
449.496674	146.580000
449.590393	146.320000
449.684052	146.220000
449.777771	146.920000
449.871429	146.320000
449.965149	146.040000
450.058838	146.500000
450.152527	147.200000
450.246216	146.740000
450.339905	147.200000
450.433594	147.080000
450.527283	147.500000
450.620972	146.800000
450.714661	146.900000
450.808350	147.040000
450.902039	147.440000
450.995728	146.700000
451.089417	146.600000
451.183105	146.520000
451.276794	146.920000
451.370514	146.240000
451.464172	145.580000
451.557892	145.700000
451.651550	145.640000
451.745270	145.060000
451.838928	144.800000
451.932648	145.460000
452.026306	145.840000
452.120026	145.440000
452.213684	146.020000
452.307404	146.680000
452.401062	146.880000
452.494781	146.980000
452.588470	147.000000
452.682159	146.220000
452.775848	146.260000
452.869537	145.500000
452.963226	145.000000
453.056915	145.140000
453.150604	145.680000
453.244293	145.980000
453.337982	147.080000
453.431671	147.700000
453.525360	148.260000
453.619049	148.300000
453.712769	147.940000
453.806427	147.040000
453.900146	146.300000
453.993805	145.840000
454.087555	145.800000
454.181213	145.520000
454.274933	145.480000
454.368591	145.520000
454.462311	145.500000
454.555969	145.100000
454.649689	146.120000
454.743347	146.080000
454.837067	147.200000
454.930756	148.020000
455.024445	148.420000
455.118134	147.760000
455.211853	148.120000
455.305542	147.320000
455.399231	146.740000
455.492920	146.780000
455.586609	146.880000
455.680298	146.940000
455.773987	146.640000
455.867676	146.460000
455.961365	146.180000
456.055084	146.200000
456.148773	146.000000
456.242493	146.100000
456.336151	146.320000
456.429871	146.720000
456.523529	146.940000
456.617249	146.900000
456.710907	147.560000
456.804626	147.320000
456.898315	146.760000
456.992035	146.300000
457.085693	146.220000
457.179413	145.500000
457.273102	146.300000
457.366791	146.360000
457.460480	146.900000
457.554199	147.420000
457.647888	147.640000
457.741577	147.160000
457.835266	147.080000
457.928955	147.080000
458.022644	147.200000
458.116364	147.480000
458.210052	147.320000
458.303741	147.600000
458.397461	146.900000
458.491119	146.300000
458.584839	146.080000
458.678528	145.720000
458.772247	145.380000
458.865906	145.680000
458.959625	146.800000
459.053284	146.940000
459.147003	147.060000
459.240692	147.680000
459.334412	147.860000
459.428070	146.820000
459.521790	146.880000
459.615479	146.740000
459.709198	146.980000
459.802887	146.600000
459.896576	146.680000
459.990265	146.580000
460.083954	146.700000
460.177673	145.800000
460.271362	145.760000
460.365051	145.560000
460.458740	145.080000
460.552429	145.140000
460.646149	145.420000
460.739838	145.340000
460.833527	145.680000
460.927246	145.620000
461.020905	145.600000
461.114655	145.480000
461.208313	145.600000
461.302032	145.320000
461.395691	145.860000
461.489441	145.660000
461.583099	145.820000
461.676819	145.800000
461.770477	145.960000
461.864197	145.700000
461.957916	145.980000
462.051605	145.320000
462.145294	146.480000
462.238983	146.280000
462.332703	146.740000
462.426392	147.320000
462.520081	147.780000
462.613770	146.880000
462.707489	147.120000
462.801178	146.580000
462.894867	146.000000
462.988556	146.220000
463.082275	146.220000
463.175964	145.740000
463.269684	146.120000
463.363342	146.060000
463.457092	145.480000
463.550751	145.860000
463.644470	146.420000
463.738129	146.080000
463.831879	146.360000
463.925537	147.200000
464.019257	147.060000
464.112946	146.920000
464.206665	146.900000
464.300323	147.100000
464.394043	146.860000
464.487762	146.600000
464.581451	146.780000
464.675140	146.920000
464.768829	146.640000
464.862549	146.740000
464.956238	146.940000
465.049927	147.100000
465.143646	146.980000
465.237335	146.860000
465.331024	147.340000
465.424713	147.300000
465.518433	147.340000
465.612152	147.280000
465.705811	147.240000
465.799561	146.880000
465.893219	146.720000
465.986938	146.300000
466.080597	146.280000
466.174347	146.640000
466.268005	146.560000
466.361725	146.600000
466.455414	146.780000
466.549133	146.720000
466.642792	146.800000
466.736542	146.420000
466.830231	146.440000
466.923920	146.420000
467.017609	146.600000
467.111328	145.960000
467.205017	146.160000
467.298706	146.120000
467.392426	146.320000
467.486115	146.480000
467.579803	146.420000
467.673523	146.680000
467.767212	147.100000
467.860901	146.700000
467.954651	146.620000
468.048309	147.140000
468.142029	146.940000
468.235718	146.560000
468.329437	146.440000
468.423096	146.440000
468.516846	146.200000
468.610504	145.560000
468.704224	145.100000
468.797913	145.320000
468.891632	145.420000
468.985291	145.220000
469.079010	145.840000
469.172729	145.800000
469.266418	146.300000
469.360107	146.500000
469.453827	146.440000
469.547516	146.280000
469.641205	146.700000
469.734924	146.140000
469.828613	146.240000
469.922302	146.600000
470.016022	146.620000
470.109711	146.340000
470.203430	146.060000
470.297150	145.200000
470.390808	145.380000
470.484558	145.260000
470.578217	146.100000
470.671936	146.800000
470.765625	147.700000
470.859344	147.400000
470.953003	147.720000
471.046753	147.080000
471.140411	146.340000
471.234131	146.200000
471.327820	146.580000
471.421539	146.460000
471.515228	146.320000
471.608948	146.920000
471.702637	146.560000
471.796326	146.180000
471.890045	146.540000
471.983734	147.040000
472.077423	146.500000
472.171143	146.700000
472.264832	146.440000
472.358521	145.960000
472.452240	145.300000
472.545929	146.140000
472.639648	146.120000
472.733337	146.960000
472.827057	147.000000
472.920746	147.480000
473.014465	147.280000
473.108124	147.320000
473.201874	146.880000
473.295532	146.820000
473.389252	146.940000
473.482941	146.960000
473.576660	146.420000
473.670319	146.040000
473.764069	145.920000
473.857727	146.100000
473.951477	146.280000
474.045166	146.800000
474.138855	146.800000
474.232574	147.020000
474.326263	146.900000
474.419952	147.080000
474.513672	147.120000
474.607361	147.060000
474.701050	147.460000
474.794769	147.580000
474.888458	147.420000
474.982178	147.220000
475.075867	147.620000
475.169586	147.240000
475.263275	147.060000
475.356995	146.760000
475.450653	146.560000
475.544403	146.240000
475.638062	147.020000
475.731812	146.480000
475.825470	146.400000
475.919189	146.900000
476.012878	147.040000
476.106598	146.120000
476.200256	146.800000
476.294006	146.660000
476.387695	146.280000
476.481384	146.240000
476.575104	146.640000
476.668793	146.120000
476.762512	145.720000
476.856201	146.600000
476.949890	146.460000
477.043610	145.980000
477.137299	146.200000
477.230988	146.740000
477.324707	145.960000
477.418396	146.540000
477.512146	146.740000
477.605804	146.420000
477.699524	146.880000
477.793213	146.820000
477.886932	146.700000
477.980591	146.360000
478.074341	146.440000
478.167999	145.440000
478.261749	145.620000
478.355408	145.240000
478.449127	145.700000
478.542816	146.440000
478.636536	147.440000
478.730225	147.500000
478.823944	147.920000
478.917633	147.680000
479.011322	147.320000
479.105042	147.020000
479.198730	147.140000
479.292450	147.000000
479.386139	147.240000
479.479828	147.360000
479.573547	147.620000
479.667267	147.520000
479.760925	147.440000
479.854675	147.560000
479.948334	147.660000
480.042084	146.960000
480.135742	147.360000
480.229462	146.760000
480.323151	146.840000
480.416870	146.020000
480.510529	146.060000
480.604279	145.240000
480.697937	146.060000
480.791656	145.460000
480.885345	145.860000
480.979065	146.120000
481.072754	146.980000
481.166473	147.080000
481.260132	147.140000
481.353882	147.220000
481.447540	147.200000
481.541260	146.860000
481.635010	146.320000
481.728668	146.520000
481.822388	146.420000
481.916077	146.620000
482.009796	146.600000
482.103485	147.100000
482.197205	147.100000
482.290863	147.040000
482.384613	146.760000
482.478271	146.360000
482.571991	146.320000
482.665680	146.180000
482.759399	146.920000
482.853058	147.300000
482.946808	147.280000
483.040466	147.200000
483.134216	147.240000
483.227875	146.540000
483.321594	146.780000
483.415283	146.760000
483.509003	146.380000
483.602661	146.100000
483.696411	146.260000
483.790070	145.900000
483.883789	146.020000
483.977478	146.320000
484.071198	146.780000
484.164917	146.320000
484.258606	145.880000
484.352325	146.440000
484.445984	146.480000
484.539734	146.340000
484.633392	146.220000
484.727142	146.900000
484.820801	146.340000
484.914520	146.260000
485.008209	146.380000
485.101929	147.100000
485.195587	146.440000
485.289337	146.480000
485.382996	146.440000
485.476715	146.660000
485.570404	146.740000
485.664124	146.780000
485.757782	147.340000
485.851532	146.900000
485.945190	146.420000
486.038910	146.240000
486.132599	146.460000
486.226318	145.380000
486.319977	145.680000
486.413727	146.480000
486.507446	146.080000
486.601105	145.640000
486.694855	146.080000
486.788513	145.740000
486.882233	145.380000
486.975922	145.600000
487.069641	145.740000
487.163300	145.760000
487.257050	147.000000
487.350708	146.580000
487.444427	146.440000
487.538116	146.360000
487.631836	146.020000
487.725494	145.300000
487.819214	145.340000
487.912903	145.140000
488.006622	145.620000
488.100281	146.300000
488.194031	146.160000
488.287689	146.780000
488.381409	147.600000
488.475098	147.740000
488.568817	147.620000
488.662476	147.380000
488.756226	146.440000
488.849945	145.540000
488.943604	145.220000
489.037354	145.280000
489.131012	145.700000
489.224731	145.840000
489.318390	145.960000
489.412140	145.940000
489.505798	145.820000
489.599518	145.220000
489.693207	145.620000
489.786926	145.640000
489.880585	145.560000
489.974335	145.800000
490.067993	147.200000
490.161713	147.060000
490.255371	148.000000
490.349121	148.380000
490.442780	148.120000
490.536499	147.080000
490.630188	147.320000
490.723907	146.160000
490.817566	146.260000
490.911285	146.400000
491.004974	146.420000
491.098694	146.100000
491.192413	146.980000
491.286102	146.360000
491.379822	146.200000
491.473480	146.440000
491.567200	146.640000
491.660889	145.980000
491.754608	146.120000
491.848267	146.060000
491.941986	145.960000
492.035675	146.040000
492.129395	146.400000
492.223053	146.360000
492.316772	146.440000
492.410461	146.140000
492.504181	145.820000
492.597839	145.440000
492.691559	145.680000
492.785248	145.680000
492.878967	146.100000
492.972626	145.960000
493.066345	146.300000
493.160034	145.720000
493.253754	145.960000
493.347412	145.380000
493.441132	145.720000
493.534882	146.240000
493.628540	146.780000
493.722260	146.680000
493.815918	147.240000
493.909668	147.800000
494.003326	147.580000
494.097046	147.420000
494.190704	147.120000
494.284454	147.140000
494.378113	146.860000
494.471832	146.620000
494.565491	146.580000
494.659210	146.880000
494.752899	146.680000
494.846619	146.360000
494.940277	146.280000
495.033997	146.160000
495.127686	145.800000
495.221405	145.580000
495.315063	145.700000
495.408783	145.640000
495.502441	145.640000
495.596191	145.800000
495.689850	145.440000
495.783569	145.580000
495.877228	145.640000
495.970947	145.700000
496.064697	145.740000
496.158356	147.020000
496.252075	146.900000
496.345734	146.880000
496.439453	147.580000
496.533142	147.880000
496.626862	147.760000
496.720520	147.560000
496.814240	147.540000
496.907898	146.880000
497.001617	146.720000
497.095306	145.860000
497.189026	146.080000
497.282684	146.580000
497.376404	147.100000
497.470062	146.580000
497.563782	146.860000
497.657471	146.900000
497.751190	146.300000
497.844849	146.280000
497.938568	146.680000
498.032227	146.680000
498.125946	146.640000
498.219635	146.520000
498.313354	146.280000
498.407074	145.960000
498.500732	146.040000
498.594452	146.060000
498.688110	145.940000
498.781830	145.720000
498.875519	145.840000
498.969238	145.540000
499.062897	145.400000
499.156616	146.040000
499.250275	146.260000
499.343994	145.680000
499.437653	145.780000
499.531372	145.920000
499.625061	146.360000
499.718781	146.600000
499.812439	147.580000
499.906158	147.760000
499.999817	147.480000
500.093536	146.960000
500.187195	146.740000
500.280914	146.380000
500.374573	146.140000
500.468323	145.900000
500.561981	145.700000
500.655701	145.480000
500.749420	145.400000
500.843079	145.900000
500.936798	146.220000
501.030457	146.660000
501.124176	146.840000
501.217834	147.060000
501.311554	146.840000
501.405212	146.760000
501.498962	146.160000
501.592621	146.100000
501.686340	146.180000
501.779999	146.320000
501.873718	146.440000
501.967377	147.040000
502.061096	147.200000
502.154755	146.760000
502.248474	146.540000
502.342133	146.820000
502.435852	146.560000
502.529510	146.940000
502.623230	147.820000
502.716888	147.600000
502.810608	147.340000
502.904266	147.660000
502.997986	147.180000
503.091705	146.180000
503.185364	146.080000
503.279083	146.020000
503.372772	145.720000
503.466492	145.440000
503.560150	145.880000
503.653870	146.280000
503.747528	146.380000
503.841248	146.180000
503.934906	146.460000
504.028625	146.140000
504.122284	146.280000
504.216003	146.940000
504.309662	146.640000
504.403381	146.760000
504.497040	146.760000
504.590759	146.320000
504.684418	145.960000
504.778137	146.520000
504.871796	146.520000
504.965515	146.320000
505.059174	146.600000
505.152893	146.100000
505.246521	145.800000
505.340240	145.500000
505.433899	146.040000
505.527618	146.420000
505.621338	146.800000
505.714996	146.480000
505.808716	146.460000
505.902374	146.980000
505.996094	146.860000
506.089752	146.680000
506.183472	147.240000
506.277130	147.500000
506.370850	147.200000
506.464508	146.760000
506.558228	146.760000
506.651886	146.440000
506.745605	146.420000
506.839264	146.160000
506.932983	146.400000
507.026611	146.240000
507.120331	146.960000
507.213989	146.360000
507.307709	146.680000
507.401367	146.780000
507.495087	147.700000
507.588745	147.020000
507.682465	148.200000
507.776123	147.820000
507.869843	147.780000
507.963531	147.460000
508.057190	148.000000
508.150909	147.060000
508.244568	147.460000
508.338287	147.280000
508.431946	146.800000
508.525665	146.180000
508.619324	146.140000
508.713013	146.000000
508.806671	146.400000
508.900391	147.140000
508.994049	147.480000
509.087769	147.380000
509.181427	147.340000
509.275146	146.880000
509.368774	145.920000
509.462494	145.900000
509.556152	146.140000
509.649872	146.300000
509.743530	146.580000
509.837250	147.000000
509.930878	146.780000
510.024597	146.820000
510.118256	146.600000
510.211975	146.340000
510.305695	145.760000
510.399353	146.140000
510.493042	146.780000
510.586700	146.880000
510.680420	147.440000
510.774078	147.700000
510.867798	147.920000
510.961426	146.840000
511.055145	146.560000
511.148804	146.240000
511.242523	146.700000
511.336151	146.440000
511.429871	147.360000
511.523529	147.420000
511.617249	147.100000
511.710876	146.860000
511.804596	146.580000
511.898254	146.120000
511.991974	146.280000
512.085632	146.160000
512.179321	146.180000
512.272949	146.360000
512.366699	146.700000
512.460327	146.560000
512.554077	147.640000
512.647766	147.540000
512.741394	147.500000
512.835144	147.880000
512.928772	147.640000
513.022461	147.220000
513.116150	147.160000
513.209839	147.720000
513.303467	146.800000
513.397217	146.960000
513.490845	146.560000
513.584595	146.480000
513.678223	145.620000
513.771912	145.500000
513.865601	145.740000
513.959290	145.660000
514.052917	145.900000
514.146667	146.700000
514.240295	147.180000
514.333984	147.180000
514.427673	147.040000
514.521362	147.080000
514.614990	146.200000
514.708740	146.300000
514.802368	146.480000
514.896057	146.940000
514.989746	147.400000
515.083435	147.720000
515.177124	147.860000
515.270752	147.360000
515.364502	147.200000
515.458130	147.560000
515.551819	147.380000
515.645508	147.220000
515.739197	147.500000
515.832825	147.540000
515.926575	146.740000
516.020203	147.040000
516.113892	147.600000
516.207520	147.200000
516.301270	147.540000
516.394897	147.680000
516.488586	148.120000
516.582275	147.540000
516.675964	147.520000
516.769592	147.060000
516.863281	147.480000
516.956970	147.620000
517.050659	147.700000
517.144287	148.040000
517.238037	148.140000
517.331665	147.320000
517.425354	146.460000
517.519043	146.280000
517.612732	146.540000
517.706421	146.420000
517.800049	146.320000
517.893738	146.260000
517.987427	146.020000
518.081116	145.720000
518.174744	145.580000
518.268433	146.120000
518.362122	147.000000
518.455811	147.160000
518.549438	147.840000
518.643127	148.800000
518.736816	148.360000
518.830505	147.660000
518.924133	147.420000
519.017822	147.220000
519.111511	146.540000
519.205200	147.300000
519.298828	147.360000
519.392517	147.280000
519.486206	147.260000
519.579895	147.660000
519.673523	146.980000
519.767212	147.000000
519.860901	147.660000
519.954590	147.340000
520.048279	146.620000
520.141907	146.680000
520.235596	147.500000
520.329224	147.740000
520.422974	147.760000
520.516602	147.960000
520.610291	147.980000
520.703918	147.540000
520.797607	147.060000
520.891296	146.960000
520.984985	147.140000
521.078613	147.560000
521.172302	146.920000
521.265930	147.660000
521.359680	148.280000
521.453308	148.100000
521.546997	148.120000
521.640625	148.400000
521.734314	147.700000
521.827942	147.020000
521.921692	147.440000
522.015320	147.360000
522.109009	147.100000
522.202698	147.140000
522.296326	147.320000
522.390015	147.320000
522.483704	147.280000
522.577393	147.220000
522.671021	147.080000
522.764709	146.760000
522.858337	146.840000
522.952026	146.860000
523.045654	147.680000
523.139404	148.240000
523.233032	148.460000
523.326721	148.060000
523.420349	147.880000
523.514038	147.300000
523.607666	147.300000
523.701355	146.940000
523.795044	146.720000
523.888733	146.840000
523.982361	146.980000
524.076050	146.380000
524.169678	146.880000
524.263367	147.020000
524.356995	146.460000
524.450684	146.580000
524.544373	146.400000
524.638062	146.580000
524.731750	146.940000
524.825378	147.120000
524.919067	146.560000
525.012695	146.920000
525.106384	146.260000
525.200012	145.920000
525.293701	145.980000
525.387329	146.560000
525.481018	146.680000
525.574646	147.240000
525.668396	147.240000
525.762024	147.700000
525.855713	147.800000
525.949341	147.200000
526.043030	147.020000
526.136658	146.820000
526.230347	146.420000
526.323975	145.720000
526.417664	145.960000
526.511292	146.220000
526.604980	146.460000
526.698608	146.380000
526.792297	146.780000
526.885925	146.900000
526.979614	146.760000
527.073303	146.500000
527.166931	146.560000
527.260620	146.720000
527.354309	147.120000
527.447998	146.940000
527.541626	146.800000
527.635315	146.960000
527.728943	147.320000
527.822632	147.400000
527.916260	147.420000
528.009949	147.960000
528.103577	147.800000
528.197266	147.140000
528.290894	146.900000
528.384583	147.040000
528.478210	147.260000
528.571899	147.580000
528.665527	148.140000
528.759216	148.300000
528.852844	148.880000
528.946533	148.320000
529.040161	148.080000
529.133850	147.560000
529.227478	147.600000
529.321167	147.420000
529.414856	147.740000
529.508484	148.300000
529.602173	147.980000
529.695801	147.680000
529.789490	147.260000
529.883057	147.320000
529.976746	147.080000
530.070374	147.680000
530.164062	147.820000
530.257690	148.240000
530.351379	148.160000
530.445007	147.940000
530.538696	147.320000
530.632324	147.360000
530.726013	147.080000
530.819641	147.140000
530.913330	147.020000
531.006958	147.320000
531.100647	147.140000
531.194275	147.080000
531.287964	146.740000
531.381592	146.720000
531.475220	146.820000
531.568848	146.900000
531.662537	146.540000
531.756226	147.180000
531.849854	147.100000
531.943542	147.140000
532.037170	146.580000
532.130859	147.120000
532.224487	146.520000
532.318176	146.580000
532.411804	147.120000
532.505432	147.880000
532.599060	147.360000
532.692749	147.600000
532.786377	147.940000
532.880066	147.000000
532.973694	146.220000
533.067383	146.180000
533.161011	146.020000
533.254639	145.560000
533.348267	145.680000
533.441956	146.020000
533.535583	146.140000
533.629272	146.440000
533.722900	146.600000
533.816589	146.880000
533.910156	147.500000
534.003845	147.220000
534.097534	147.200000
534.191162	147.680000
534.284851	147.820000
534.378479	147.480000
534.472107	147.840000
534.565735	147.540000
534.659424	147.460000
534.753052	147.460000
534.846741	146.940000
534.940369	147.600000
535.033997	147.600000
535.127625	147.360000
535.221313	147.900000
535.314941	147.960000
535.408630	146.900000
535.502197	147.240000
535.595886	147.040000
535.689514	146.460000
535.783203	146.960000
535.876831	147.480000
535.970459	147.580000
536.064087	147.520000
536.157776	147.700000
536.251404	147.600000
536.345093	147.620000
536.438721	147.260000
536.532349	147.240000
536.626038	146.760000
536.719666	146.900000
536.813293	146.480000
536.906921	146.740000
537.000610	147.080000
537.094238	147.060000
537.187866	146.880000
537.281494	147.120000
537.375183	147.080000
537.468811	146.720000
537.562439	146.920000
537.656067	146.740000
537.749756	146.820000
537.843384	147.220000
537.937012	147.420000
538.030640	147.140000
538.124329	147.160000
538.217896	147.560000
538.311584	147.540000
538.405212	147.400000
538.498901	147.840000
538.592468	148.680000
538.686157	148.040000
538.779785	147.100000
538.873413	147.300000
538.967102	147.060000
539.060730	146.160000
539.154358	146.820000
539.247986	147.460000
539.341675	147.540000
539.435242	147.560000
539.528931	147.760000
539.622559	146.960000
539.716187	147.360000
539.809814	147.240000
539.903503	147.400000
539.997070	147.200000
540.090759	147.080000
540.184387	146.520000
540.278015	146.760000
540.371643	146.740000
540.465332	146.720000
540.558899	147.060000
540.652588	147.020000
540.746216	146.620000
540.839844	146.860000
540.933472	146.960000
541.027100	147.000000
541.120728	147.320000
541.214417	147.500000
541.308044	147.560000
541.401672	147.540000
541.495300	147.440000
541.588928	147.140000
541.682617	146.860000
541.776184	146.400000
541.869873	146.860000
541.963440	147.000000
542.057129	147.080000
542.150757	147.540000
542.244385	147.340000
542.338013	146.760000
542.431641	146.560000
542.525269	146.260000
542.618958	146.480000
542.712524	146.880000
542.806213	146.840000
542.899780	147.220000
542.993469	147.420000
543.087036	147.100000
543.180725	146.740000
543.274292	147.420000
543.367981	147.520000
543.461548	148.040000
543.555237	148.020000
543.648926	148.740000
543.742493	149.000000
543.836182	148.960000
543.929749	148.680000
544.023437	148.660000
544.117004	148.220000
544.210693	148.160000
544.304260	147.900000
544.397949	147.360000
544.491516	147.860000
544.585205	148.080000
544.678772	147.180000
544.772461	147.760000
544.866028	147.940000
544.959717	147.500000
545.053284	147.120000
545.146973	147.820000
545.240540	147.520000
545.334229	148.140000
545.427795	148.580000
545.521423	148.900000
545.615051	149.000000
545.708679	149.220000
545.802307	148.980000
545.895935	148.840000
545.989624	149.460000
546.083191	149.000000
546.176880	148.640000
546.270447	148.340000
546.364136	148.580000
546.457703	147.700000
546.551331	147.740000
546.644958	148.160000
546.738586	148.240000
546.832214	147.640000
546.925842	147.760000
547.019409	148.080000
547.113098	147.600000
547.206665	147.480000
547.300354	147.460000
547.393921	147.760000
547.487549	147.620000
547.581177	147.460000
547.674805	147.340000
547.768433	146.800000
547.862061	146.640000
547.955627	146.240000
548.049316	146.740000
548.142883	147.160000
548.236572	147.920000
548.330139	147.960000
548.423767	148.040000
548.517456	147.780000
548.611023	147.620000
548.704651	146.960000
548.798279	146.880000
548.891907	147.360000
548.985474	147.180000
549.079163	147.520000
549.172729	147.420000
549.266357	146.740000
549.359985	146.480000
549.453613	146.000000
549.547180	145.660000
549.640869	146.500000
549.734436	146.940000
549.828064	147.420000
549.921631	147.720000
550.015320	147.200000
550.108887	147.300000
550.202515	147.280000
550.296143	146.180000
550.389771	146.200000
550.483337	146.320000
550.576965	145.920000
550.670593	146.220000
550.764221	146.540000
550.857849	146.640000
550.951477	146.300000
551.045105	145.540000
551.138672	145.380000
551.232300	145.480000
551.325928	145.900000
551.419556	146.480000
551.513123	146.920000
551.606750	146.600000
551.700378	146.420000
551.794006	146.140000
551.887573	145.940000
551.981201	146.780000
552.074768	146.840000
552.168457	146.620000
552.262024	147.180000
552.355652	147.320000
552.449219	147.380000
552.542847	147.680000
552.636475	147.700000
552.730103	146.880000
552.823669	146.740000
552.917297	146.140000
553.010864	146.240000
553.104553	146.620000
553.198181	146.620000
553.291748	147.260000
553.385376	147.400000
553.478943	146.900000
553.572571	146.780000
553.666199	147.060000
553.759827	146.560000
553.853394	145.920000
553.947021	146.480000
554.040588	146.860000
554.134216	146.940000
554.227783	147.500000
554.321411	148.360000
554.415039	147.540000
554.508667	147.320000
554.602234	147.560000
554.695862	146.940000
554.789429	146.880000
554.883057	147.280000
554.976624	147.080000
555.070251	146.580000
555.163818	146.720000
555.257507	146.420000
555.351074	146.500000
555.444702	147.480000
555.538330	147.400000
555.631897	147.800000
555.725525	147.580000
555.819092	147.440000
555.912720	146.320000
556.006287	146.860000
556.099915	146.120000
556.193481	146.580000
556.287109	146.660000
556.380676	146.960000
556.474304	146.840000
556.567871	147.360000
556.661499	146.820000
556.755066	146.780000
556.848694	146.660000
556.942261	146.360000
557.035889	146.400000
557.129517	146.820000
557.223145	147.180000
557.316711	147.120000
557.410339	147.140000
557.503906	146.840000
557.597473	146.700000
557.691040	146.280000
557.784668	146.440000
557.878296	146.740000
557.971863	146.820000
558.065491	147.020000
558.159058	146.900000
558.252686	147.260000
558.346252	147.760000
558.439880	147.300000
558.533447	146.740000
558.627075	146.600000
558.720642	146.260000
558.814270	145.940000
558.907837	146.240000
559.001465	146.140000
559.095032	146.840000
559.188660	147.060000
559.282227	146.260000
559.375854	146.740000
559.469360	146.780000
559.562988	147.000000
559.656555	146.780000
559.750183	147.340000
559.843750	147.080000
559.937378	147.460000
560.030945	147.160000
560.124573	0.000000
560.218140	0.000000
560.311707	0.000000
560.405334	0.000000
560.498901	0.000000
560.592529	0.000000
560.686096	0.000000
560.779724	0.000000
560.873291	0.000000
560.966858	0.000000
561.060425	0.000000
561.154053	0.000000
561.247620	0.000000
561.341248	0.000000
561.434814	0.000000
561.528381	0.000000
561.621948	0.000000
561.715576	0.000000
561.809143	0.000000
561.902771	0.000000
561.996277	0.000000
562.089905	0.000000
562.183472	0.000000
562.277100	0.000000
