Model Number: SPM-002-B   
Serial Number: 70087108
Firmware Version: 004.15.4
Exposure Time: 100000.000000us
Data Taken on: 11-12-2020 19:27:51.383
Wavelength	Amplitude
221.570786	0.000000
221.663406	0.000000
221.756027	0.000000
221.848648	0.000000
221.941269	0.000000
222.033905	0.000000
222.126526	0.000000
222.219162	0.000000
222.311798	0.000000
222.404419	0.000000
222.497055	0.000000
222.589676	0.000000
222.682312	0.000000
222.774933	0.000000
222.867569	0.000000
222.960205	0.000000
223.052841	0.000000
223.145462	0.000000
223.238098	0.000000
223.330734	0.000000
223.423386	0.000000
223.516022	0.000000
223.608658	0.000000
223.701309	0.000000
223.793945	0.000000
223.886581	0.000000
223.979218	0.000000
224.071869	0.000000
224.164505	0.000000
224.257156	0.000000
224.349792	0.000000
224.442444	0.000000
224.535095	0.000000
224.627747	0.000000
224.720398	0.000000
224.813034	0.000000
224.905685	0.000000
224.998337	145.840000
225.090988	145.480000
225.183640	145.760000
225.276291	145.460000
225.368942	145.640000
225.461594	146.140000
225.554245	146.520000
225.646912	146.240000
225.739578	147.020000
225.832230	147.460000
225.924896	146.680000
226.017548	147.020000
226.110199	147.520000
226.202866	146.800000
226.295532	146.560000
226.388184	146.600000
226.480850	145.760000
226.573517	145.480000
226.666168	145.560000
226.758835	145.800000
226.851501	146.640000
226.944183	147.020000
227.036850	146.480000
227.129517	146.620000
227.222183	146.680000
227.314850	146.020000
227.407516	146.440000
227.500198	147.500000
227.592865	147.080000
227.685532	146.600000
227.778214	146.380000
227.870880	146.580000
227.963562	146.740000
228.056229	147.580000
228.148926	147.520000
228.241592	148.600000
228.334274	148.080000
228.426956	147.880000
228.519638	147.360000
228.612305	147.000000
228.704987	146.480000
228.797668	146.660000
228.890350	146.160000
228.983032	145.660000
229.075714	146.560000
229.168396	146.440000
229.261108	146.020000
229.353790	146.360000
229.446472	146.920000
229.539169	146.320000
229.631851	145.900000
229.724533	146.100000
229.817230	146.180000
229.909912	146.840000
230.002609	147.160000
230.095306	147.180000
230.187988	147.200000
230.280685	146.840000
230.373383	145.740000
230.466095	145.520000
230.558792	145.980000
230.651474	145.840000
230.744171	145.820000
230.836868	145.900000
230.929581	146.400000
231.022278	146.340000
231.114975	146.380000
231.207672	146.100000
231.300369	146.600000
231.393082	146.400000
231.485779	146.340000
231.578506	146.620000
231.671204	146.900000
231.763916	146.820000
231.856613	146.420000
231.949326	146.800000
232.042023	146.520000
232.134735	146.500000
232.227448	146.300000
232.320160	146.860000
232.412872	146.620000
232.505585	147.400000
232.598297	147.640000
232.691010	147.360000
232.783722	146.800000
232.876450	147.380000
232.969162	146.740000
233.061874	146.120000
233.154587	145.960000
233.247314	146.380000
233.340027	145.860000
233.432739	146.440000
233.525467	146.880000
233.618179	147.540000
233.710907	147.000000
233.803635	147.340000
233.896347	146.660000
233.989090	147.200000
234.081818	147.020000
234.174545	147.440000
234.267258	146.500000
234.359985	146.820000
234.452713	146.120000
234.545441	145.780000
234.638168	145.640000
234.730896	146.300000
234.823639	146.180000
234.916367	146.900000
235.009094	147.160000
235.101822	147.040000
235.194580	146.900000
235.287308	146.680000
235.380051	145.800000
235.472778	146.180000
235.565521	146.660000
235.658249	146.580000
235.750992	146.840000
235.843719	147.180000
235.936462	147.240000
236.029205	146.720000
236.121948	146.440000
236.214691	146.480000
236.307449	146.980000
236.400192	146.360000
236.492935	146.320000
236.585678	146.680000
236.678421	146.640000
236.771164	146.500000
236.863907	147.320000
236.956665	147.520000
237.049408	149.080000
237.142151	148.540000
237.234909	148.760000
237.327652	148.220000
237.420410	148.020000
237.513153	146.540000
237.605927	146.900000
237.698669	146.560000
237.791428	146.300000
237.884186	146.800000
237.976944	146.460000
238.069702	146.760000
238.162445	145.960000
238.255203	146.220000
238.347961	146.640000
238.440720	146.720000
238.533478	146.340000
238.626266	146.420000
238.719025	146.640000
238.811783	146.160000
238.904541	145.900000
238.997314	145.860000
239.090073	145.960000
239.182831	145.980000
239.275604	146.700000
239.368362	146.880000
239.461136	146.980000
239.553909	147.100000
239.646667	146.840000
239.739441	146.320000
239.832214	146.640000
239.925003	146.660000
240.017761	147.220000
240.110535	147.860000
240.203308	147.620000
240.296082	147.400000
240.388855	147.500000
240.481628	147.540000
240.574417	147.040000
240.667191	146.820000
240.759964	146.840000
240.852737	146.800000
240.945526	146.420000
241.038315	146.320000
241.131088	146.540000
241.223877	146.620000
241.316650	146.220000
241.409439	146.140000
241.502228	145.740000
241.595001	146.100000
241.687790	145.900000
241.780579	146.260000
241.873367	146.620000
241.966141	147.160000
242.058929	146.460000
242.151718	146.780000
242.244507	146.860000
242.337311	145.980000
242.430099	146.560000
242.522903	146.900000
242.615692	146.760000
242.708481	146.700000
242.801270	147.500000
242.894073	146.860000
242.986862	146.700000
243.079651	147.100000
243.172455	146.840000
243.265244	147.080000
243.358063	146.680000
243.450867	147.200000
243.543655	147.100000
243.636459	147.160000
243.729263	147.000000
243.822067	147.380000
243.914856	147.460000
244.007660	147.400000
244.100464	147.400000
244.193268	146.740000
244.286072	146.880000
244.378876	146.300000
244.471680	145.700000
244.564499	145.980000
244.657318	146.760000
244.750122	146.820000
244.842926	146.260000
244.935745	146.980000
245.028549	146.520000
245.121368	146.140000
245.214172	146.120000
245.306992	146.720000
245.399796	146.240000
245.492615	146.540000
245.585434	146.440000
245.678253	146.200000
245.771072	146.240000
245.863892	146.400000
245.956711	146.580000
246.049530	146.640000
246.142349	146.320000
246.235168	146.380000
246.327988	146.940000
246.420807	146.780000
246.513626	146.580000
246.606445	146.580000
246.699280	146.240000
246.792099	145.860000
246.884918	145.880000
246.977753	145.820000
247.070587	146.040000
247.163422	146.400000
247.256241	146.240000
247.349075	146.320000
247.441895	146.720000
247.534729	146.780000
247.627563	146.420000
247.720383	146.880000
247.813217	146.700000
247.906052	146.260000
247.998886	146.340000
248.091736	146.420000
248.184570	146.140000
248.277405	145.980000
248.370239	146.880000
248.463074	147.700000
248.555908	148.160000
248.648743	148.040000
248.741592	148.380000
248.834427	147.540000
248.927261	146.160000
249.020111	146.480000
249.112946	147.040000
249.205795	146.580000
249.298630	146.920000
249.391495	147.260000
249.484344	146.500000
249.577179	146.120000
249.670029	146.520000
249.762878	146.840000
249.855728	146.860000
249.948563	147.000000
250.041412	146.580000
250.134262	146.940000
250.227112	146.880000
250.319962	147.060000
250.412827	147.140000
250.505692	146.980000
250.598541	146.440000
250.691391	145.800000
250.784241	145.660000
250.877106	145.920000
250.969955	146.060000
251.062805	146.880000
251.155670	147.680000
251.248520	147.700000
251.341385	147.480000
251.434235	147.220000
251.527100	146.700000
251.619965	146.320000
251.712814	147.020000
251.805695	147.200000
251.898560	147.660000
251.991425	147.680000
252.084290	147.920000
252.177155	147.120000
252.270020	146.820000
252.362885	146.700000
252.455750	146.760000
252.548615	146.480000
252.641479	146.500000
252.734360	146.260000
252.827240	146.040000
252.920105	146.000000
253.012970	145.720000
253.105850	145.400000
253.198715	145.280000
253.291595	145.440000
253.384460	144.800000
253.477341	145.060000
253.570221	145.440000
253.663086	145.520000
253.755966	146.200000
253.848846	146.800000
253.941727	146.980000
254.034592	147.020000
254.127472	146.660000
254.220367	146.400000
254.313248	146.560000
254.406128	146.060000
254.499008	146.520000
254.591904	147.540000
254.684784	147.940000
254.777664	147.820000
254.870544	147.680000
254.963440	147.200000
255.056335	146.960000
255.149216	146.100000
255.242111	146.320000
255.334991	146.740000
255.427887	147.140000
255.520767	147.080000
255.613663	147.320000
255.706558	146.580000
255.799438	146.380000
255.892334	145.880000
255.985229	145.700000
256.078125	145.560000
256.171021	145.800000
256.263916	146.220000
256.356812	146.300000
256.449707	146.580000
256.542603	146.440000
256.635498	146.880000
256.728394	146.560000
256.821289	146.340000
256.914215	146.560000
257.007080	147.040000
257.100006	146.900000
257.192932	147.340000
257.285828	147.660000
257.378723	147.160000
257.471619	146.920000
257.564545	146.600000
257.657440	146.420000
257.750336	146.840000
257.843262	146.640000
257.936157	147.780000
258.029053	148.120000
258.121979	148.100000
258.214874	147.500000
258.307800	147.860000
258.400696	146.540000
258.493622	146.220000
258.586517	145.480000
258.679443	145.760000
258.772339	145.180000
258.865265	145.000000
258.958160	144.640000
259.051086	145.840000
259.144012	145.560000
259.236938	146.600000
259.329834	146.880000
259.422791	146.960000
259.515717	145.940000
259.608612	145.820000
259.701538	145.380000
259.794464	145.220000
259.887390	145.420000
259.980316	145.820000
260.073212	145.720000
260.166138	145.080000
260.259064	145.360000
260.351990	146.160000
260.444916	146.080000
260.537842	146.380000
260.630768	147.060000
260.723694	147.020000
260.816620	146.620000
260.909546	146.560000
261.002472	146.120000
261.095398	145.860000
261.188354	145.960000
261.281281	145.440000
261.374207	145.560000
261.467133	146.580000
261.560089	146.700000
261.653015	146.440000
261.745972	147.320000
261.838867	147.560000
261.931824	147.300000
262.024780	146.940000
262.117706	147.280000
262.210663	146.860000
262.303589	146.560000
262.396515	146.640000
262.489471	147.740000
262.582397	147.540000
262.675354	147.120000
262.768280	147.280000
262.861237	147.140000
262.954163	146.480000
263.047119	146.620000
263.140045	146.600000
263.233002	146.380000
263.325958	146.320000
263.418884	145.900000
263.511841	145.700000
263.604797	145.800000
263.697723	145.820000
263.790680	145.700000
263.883636	146.160000
263.976593	146.100000
264.069550	146.400000
264.162476	146.140000
264.255463	146.180000
264.348419	145.940000
264.441376	146.320000
264.534332	145.720000
264.627289	145.900000
264.720245	146.480000
264.813202	146.100000
264.906158	146.260000
264.999115	146.780000
265.092072	146.880000
265.185028	147.100000
265.277985	147.580000
265.370941	147.220000
265.463898	146.960000
265.556854	146.980000
265.649811	145.880000
265.742798	145.780000
265.835754	145.940000
265.928711	146.480000
266.021667	146.220000
266.114655	146.580000
266.207611	146.820000
266.300568	146.360000
266.393585	145.460000
266.486511	145.900000
266.579498	145.360000
266.672485	145.240000
266.765442	145.360000
266.858429	146.320000
266.951385	145.940000
267.044342	146.300000
267.137329	146.080000
267.230316	146.400000
267.323273	145.620000
267.416260	146.380000
267.509216	146.260000
267.602203	146.260000
267.695160	146.460000
267.788147	146.840000
267.881134	146.000000
267.974091	146.620000
268.067078	146.600000
268.160065	146.240000
268.253052	145.880000
268.346008	146.100000
268.438995	145.580000
268.531982	145.740000
268.624969	145.480000
268.717987	145.900000
268.810944	145.980000
268.903961	146.360000
268.996948	145.860000
269.089905	146.540000
269.182892	146.900000
269.275879	147.220000
269.368866	146.600000
269.461853	147.100000
269.554871	146.740000
269.647858	145.960000
269.740845	146.260000
269.833832	146.460000
269.926819	146.340000
270.019806	146.080000
270.112793	146.240000
270.205811	145.900000
270.298798	145.960000
270.391785	146.300000
270.484772	146.240000
270.577789	146.340000
270.670776	145.780000
270.763763	145.820000
270.856750	145.940000
270.949768	146.280000
271.042786	146.360000
271.135773	146.600000
271.228790	147.040000
271.321808	146.660000
271.414795	146.100000
271.507782	145.840000
271.600800	145.400000
271.693817	145.120000
271.786804	145.080000
271.879822	145.620000
271.972809	145.780000
272.065826	146.800000
272.158844	146.420000
272.251831	146.920000
272.344849	146.680000
272.437866	146.220000
272.530853	146.080000
272.623871	146.620000
272.716888	145.720000
272.809906	146.040000
272.902893	146.180000
272.995911	145.500000
273.088928	145.260000
273.181946	145.660000
273.274963	145.260000
273.367981	145.300000
273.460999	145.820000
273.554047	146.440000
273.647003	147.020000
273.740051	147.160000
273.833069	147.540000
273.926086	147.440000
274.019135	146.800000
274.112152	146.440000
274.205170	146.460000
274.298187	146.680000
274.391205	146.040000
274.484222	146.100000
274.577240	146.000000
274.670258	145.920000
274.763306	145.720000
274.856323	146.440000
274.949341	146.420000
275.042358	146.820000
275.135406	147.140000
275.228424	146.980000
275.321442	147.060000
275.414490	146.760000
275.507507	146.880000
275.600525	147.120000
275.693573	147.220000
275.786591	146.700000
275.879669	147.080000
275.972656	146.500000
276.065735	146.000000
276.158752	146.620000
276.251801	147.400000
276.344818	147.620000
276.437866	147.840000
276.530884	147.720000
276.623932	146.620000
276.716980	146.520000
276.809998	146.220000
276.903046	146.280000
276.996094	147.120000
277.089111	148.160000
277.182159	148.680000
277.275208	148.280000
277.368256	148.240000
277.461304	147.580000
277.554321	146.500000
277.647369	145.860000
277.740417	145.940000
277.833466	145.960000
277.926514	145.940000
278.019562	146.600000
278.112610	146.100000
278.205688	146.560000
278.298706	146.540000
278.391785	146.440000
278.484833	146.200000
278.577881	146.200000
278.670929	146.140000
278.763977	146.320000
278.857025	146.660000
278.950073	146.800000
279.043121	146.700000
279.136169	146.340000
279.229248	146.000000
279.322296	145.960000
279.415344	145.680000
279.508392	145.880000
279.601440	146.200000
279.694519	145.960000
279.787567	145.700000
279.880615	145.680000
279.973694	145.520000
280.066742	145.480000
280.159790	145.760000
280.252869	145.600000
280.345917	145.940000
280.438995	146.140000
280.532074	146.200000
280.625122	146.260000
280.718201	147.260000
280.811279	147.200000
280.904327	146.960000
280.997406	147.020000
281.090454	146.940000
281.183533	146.000000
281.276581	145.980000
281.369659	146.060000
281.462738	145.960000
281.555786	146.300000
281.648865	146.620000
281.741943	146.600000
281.835022	147.240000
281.928070	146.980000
282.021149	146.640000
282.114227	146.200000
282.207306	146.160000
282.300385	146.140000
282.393433	146.420000
282.486511	146.820000
282.579590	147.600000
282.672668	147.620000
282.765747	147.020000
282.858856	146.820000
282.951904	146.540000
283.045013	146.500000
283.138062	146.860000
283.231171	147.060000
283.324249	147.460000
283.417328	147.380000
283.510406	146.780000
283.603485	146.460000
283.696564	146.120000
283.789642	146.020000
283.882751	146.040000
283.975830	146.900000
284.068909	146.740000
284.161987	147.720000
284.255066	146.960000
284.348175	147.180000
284.441254	146.700000
284.534332	147.040000
284.627441	146.480000
284.720520	146.520000
284.813599	146.460000
284.906708	146.560000
284.999786	146.100000
285.092896	145.700000
285.185974	146.640000
285.279053	146.180000
285.372192	146.180000
285.465240	146.840000
285.558380	146.960000
285.651459	146.780000
285.744568	147.400000
285.837677	146.880000
285.930756	146.320000
286.023865	146.240000
286.116943	145.780000
286.210052	145.820000
286.303162	146.040000
286.396240	146.220000
286.489349	146.460000
286.582458	146.940000
286.675568	146.480000
286.768646	146.600000
286.861755	146.840000
286.954865	147.320000
287.047974	146.520000
287.141083	146.320000
287.234161	146.260000
287.327271	146.000000
287.420380	146.380000
287.513519	146.680000
287.606598	147.060000
287.699738	147.120000
287.792816	147.020000
287.885956	146.300000
287.979034	146.200000
288.072174	146.200000
288.165283	146.020000
288.258392	146.320000
288.351501	145.980000
288.444611	146.360000
288.537720	146.500000
288.630859	146.400000
288.723969	146.340000
288.817078	146.920000
288.910187	146.800000
289.003296	146.260000
289.096436	146.120000
289.189545	145.960000
289.282654	145.360000
289.375763	145.840000
289.468903	146.220000
289.562012	146.700000
289.655121	146.540000
289.748260	146.880000
289.841400	146.840000
289.934509	146.780000
290.027649	146.560000
290.120728	146.560000
290.213898	146.400000
290.306976	146.140000
290.400146	146.420000
290.493256	146.200000
290.586395	146.500000
290.679535	146.660000
290.772644	146.400000
290.865784	145.680000
290.958893	145.920000
291.052032	145.700000
291.145172	145.800000
291.238281	145.660000
291.331421	145.860000
291.424561	146.160000
291.517670	146.180000
291.610809	146.180000
291.703949	146.140000
291.797089	146.260000
291.890228	145.640000
291.983337	145.580000
292.076477	145.280000
292.169617	145.580000
292.262756	145.560000
292.355927	145.700000
292.449036	145.600000
292.542206	145.640000
292.635315	145.780000
292.728485	146.000000
292.821625	145.560000
292.914764	146.520000
293.007904	146.940000
293.101044	146.980000
293.194183	146.680000
293.287323	147.020000
293.380463	146.300000
293.473602	145.960000
293.566742	146.080000
293.659882	146.740000
293.753021	147.200000
293.846191	147.040000
293.939331	146.700000
294.032471	146.420000
294.125610	145.900000
294.218781	146.200000
294.311920	146.560000
294.405060	146.760000
294.498230	146.560000
294.591370	146.880000
294.684540	146.160000
294.777679	145.860000
294.870850	146.260000
294.963959	146.600000
295.057159	146.280000
295.150299	146.740000
295.243469	146.560000
295.336609	145.940000
295.429779	145.960000
295.522919	146.520000
295.616089	146.420000
295.709229	147.220000
295.802399	147.420000
295.895569	147.020000
295.988708	146.480000
296.081879	146.280000
296.175018	145.560000
296.268188	145.860000
296.361359	146.360000
296.454529	146.640000
296.547668	146.660000
296.640839	147.240000
296.734009	146.660000
296.827179	146.520000
296.920319	146.660000
297.013519	146.560000
297.106659	146.480000
297.199860	146.620000
297.292999	146.580000
297.386200	146.360000
297.479309	146.300000
297.572510	146.080000
297.665680	146.000000
297.758850	145.880000
297.852020	145.640000
297.945190	145.600000
298.038361	145.500000
298.131531	146.300000
298.224701	146.220000
298.317871	145.940000
298.411072	145.720000
298.504242	145.580000
298.597412	145.180000
298.690582	145.500000
298.783752	145.620000
298.876923	146.060000
298.970093	146.080000
299.063293	146.340000
299.156464	146.460000
299.249634	146.740000
299.342834	147.080000
299.436005	147.420000
299.529205	147.080000
299.622345	146.960000
299.715576	146.340000
299.808716	145.920000
299.901917	145.840000
299.995117	146.260000
300.088287	146.540000
300.181488	146.700000
300.274658	146.460000
300.367828	146.460000
300.461029	146.360000
300.554199	146.180000
300.647400	146.380000
300.740601	147.200000
300.833771	146.840000
300.926971	146.840000
301.020142	146.360000
301.113342	146.440000
301.206512	146.120000
301.299713	146.540000
301.392914	146.340000
301.486084	146.860000
301.579285	146.740000
301.672516	147.100000
301.765686	146.940000
301.858887	146.940000
301.952057	146.740000
302.045288	146.860000
302.138458	146.420000
302.231659	146.180000
302.324860	145.920000
302.418060	145.460000
302.511261	145.200000
302.604462	145.420000
302.697662	145.460000
302.790863	145.560000
302.884064	145.460000
302.977264	145.780000
303.070465	145.980000
303.163666	146.660000
303.256866	147.200000
303.350067	147.560000
303.443268	147.660000
303.536469	147.500000
303.629669	146.900000
303.722870	146.780000
303.816071	146.800000
303.909271	146.860000
304.002472	145.840000
304.095673	145.720000
304.188934	144.800000
304.282104	145.280000
304.375336	145.000000
304.468506	145.600000
304.561768	145.280000
304.654968	146.240000
304.748169	145.740000
304.841370	145.580000
304.934601	145.900000
305.027802	146.000000
305.121002	145.480000
305.214233	145.900000
305.307434	146.140000
305.400665	146.620000
305.493866	146.840000
305.587097	147.240000
305.680298	146.880000
305.773499	147.260000
305.866730	146.640000
305.959930	147.140000
306.053162	147.100000
306.146393	146.700000
306.239594	145.920000
306.332825	145.900000
306.426025	145.660000
306.519287	145.180000
306.612488	145.340000
306.705719	145.440000
306.798920	145.580000
306.892181	145.300000
306.985352	145.280000
307.078613	144.880000
307.171844	145.400000
307.265045	145.000000
307.358276	144.600000
307.451508	144.900000
307.544739	145.900000
307.637970	145.560000
307.731201	145.680000
307.824402	146.680000
307.917633	146.920000
308.010864	147.080000
308.104095	147.480000
308.197327	147.560000
308.290558	147.520000
308.383789	147.320000
308.477020	146.780000
308.570251	145.720000
308.663483	145.460000
308.756714	145.180000
308.849976	145.360000
308.943176	145.800000
309.036438	146.300000
309.129639	146.200000
309.222900	146.040000
309.316101	145.600000
309.409393	145.120000
309.502625	145.100000
309.595856	145.380000
309.689087	145.680000
309.782318	145.960000
309.875580	145.980000
309.968811	146.260000
310.062042	146.040000
310.155273	145.960000
310.248535	146.340000
310.341766	146.180000
310.434998	146.000000
310.528259	146.180000
310.621490	146.180000
310.714722	145.380000
310.807983	145.560000
310.901215	145.620000
310.994476	145.800000
311.087708	145.600000
311.181000	146.100000
311.274200	145.900000
311.367462	146.020000
311.460693	145.720000
311.553986	146.280000
311.647186	146.180000
311.740479	146.880000
311.833710	146.340000
311.926971	146.400000
312.020203	145.620000
312.113464	145.520000
312.206726	144.680000
312.299957	145.280000
312.393219	145.900000
312.486481	146.040000
312.579712	145.860000
312.672974	146.060000
312.766235	145.940000
312.859497	145.840000
312.952759	145.800000
313.045990	146.720000
313.139252	146.620000
313.232513	146.860000
313.325775	146.620000
313.419037	146.300000
313.512299	145.460000
313.605530	146.080000
313.698822	145.900000
313.792053	145.900000
313.885345	146.020000
313.978577	146.320000
314.071869	145.640000
314.165131	145.820000
314.258392	146.200000
314.351654	146.780000
314.444916	146.040000
314.538177	147.180000
314.631439	147.460000
314.724701	147.080000
314.817993	146.680000
314.911255	147.380000
315.004517	146.340000
315.097778	145.900000
315.191040	146.200000
315.284302	146.660000
315.377594	146.280000
315.470856	146.580000
315.564117	146.080000
315.657379	145.380000
315.750671	144.900000
315.843933	145.480000
315.937195	144.860000
316.030518	144.960000
316.123749	145.420000
316.217041	146.120000
316.310303	145.780000
316.403595	146.300000
316.496857	147.120000
316.590149	146.980000
316.683411	146.300000
316.776703	146.300000
316.869965	146.200000
316.963257	145.580000
317.056519	145.080000
317.149811	145.040000
317.243073	145.000000
317.336365	145.160000
317.429626	145.420000
317.522919	146.160000
317.616180	146.200000
317.709473	145.900000
317.802765	145.840000
317.896027	145.920000
317.989319	145.960000
318.082611	146.100000
318.175873	146.060000
318.269165	146.120000
318.362488	145.980000
318.455750	145.640000
318.549042	146.060000
318.642303	146.840000
318.735626	146.520000
318.828888	146.420000
318.922211	146.060000
319.015472	146.140000
319.108765	145.060000
319.202057	145.020000
319.295349	145.140000
319.388641	145.500000
319.481934	145.160000
319.575226	145.440000
319.668518	146.040000
319.761810	146.320000
319.855103	146.500000
319.948395	146.540000
320.041687	147.020000
320.134979	146.560000
320.228271	145.960000
320.321564	145.320000
320.414856	145.220000
320.508148	144.700000
320.601440	144.780000
320.694763	144.920000
320.788025	146.180000
320.881348	146.320000
320.974640	146.160000
321.067963	145.700000
321.161224	145.980000
321.254547	144.800000
321.347839	145.420000
321.441162	145.580000
321.534454	145.880000
321.627747	145.240000
321.721069	146.040000
321.814362	145.620000
321.907654	146.000000
322.000946	146.040000
322.094269	146.880000
322.187561	146.440000
322.280884	146.680000
322.374176	146.600000
322.467468	147.000000
322.560791	146.860000
322.654083	147.200000
322.747406	146.940000
322.840698	147.160000
322.934021	147.260000
323.027344	147.400000
323.120636	147.140000
323.213959	147.020000
323.307251	146.680000
323.400574	146.420000
323.493866	145.900000
323.587219	145.740000
323.680511	146.000000
323.773834	146.200000
323.867157	145.900000
323.960449	146.160000
324.053772	146.200000
324.147095	146.080000
324.240387	146.480000
324.333710	146.740000
324.427032	146.880000
324.520355	146.940000
324.613647	146.340000
324.706970	145.700000
324.800293	145.800000
324.893616	145.700000
324.986938	145.840000
325.080231	145.900000
325.173553	146.300000
325.266876	146.620000
325.360199	146.480000
325.453522	146.500000
325.546875	146.620000
325.640167	146.880000
325.733521	146.860000
325.826813	147.280000
325.920166	146.800000
326.013489	146.880000
326.106812	146.200000
326.200134	145.680000
326.293457	144.840000
326.386780	145.340000
326.480103	145.240000
326.573425	145.160000
326.666748	145.280000
326.760071	145.980000
326.853424	145.660000
326.946747	145.780000
327.040070	146.680000
327.133392	146.660000
327.226715	146.220000
327.320068	145.720000
327.413391	146.340000
327.506714	145.300000
327.600037	145.320000
327.693390	145.460000
327.786713	145.920000
327.880066	145.300000
327.973358	145.900000
328.066742	146.220000
328.160034	146.400000
328.253418	146.720000
328.346710	146.340000
328.440063	146.080000
328.533417	145.700000
328.626740	145.720000
328.720093	145.500000
328.813416	145.600000
328.906769	145.400000
329.000092	145.700000
329.093445	145.700000
329.186768	145.600000
329.280121	146.120000
329.373444	146.620000
329.466797	146.320000
329.560120	146.360000
329.653473	146.420000
329.746796	145.980000
329.840149	145.980000
329.933502	145.860000
330.026825	145.620000
330.120178	145.440000
330.213562	145.520000
330.306854	145.380000
330.400238	145.340000
330.493561	145.160000
330.586945	146.200000
330.680237	146.560000
330.773621	146.760000
330.866974	146.940000
330.960327	147.080000
331.053680	146.040000
331.147003	145.880000
331.240356	145.860000
331.333710	145.860000
331.427063	145.880000
331.520416	146.180000
331.613770	146.000000
331.707123	146.020000
331.800476	146.200000
331.893829	147.160000
331.987152	147.180000
332.080505	147.540000
332.173859	147.440000
332.267212	146.960000
332.360565	146.100000
332.453918	145.940000
332.547333	145.640000
332.640656	145.500000
332.734039	145.560000
332.827362	145.620000
332.920746	146.120000
333.014069	146.300000
333.107452	146.840000
333.200806	147.440000
333.294159	147.700000
333.387543	147.120000
333.480896	146.780000
333.574249	146.100000
333.667603	145.760000
333.760956	145.720000
333.854340	145.960000
333.947693	146.200000
334.041046	146.380000
334.134430	146.460000
334.227783	145.880000
334.321136	145.540000
334.414520	145.340000
334.507874	145.500000
334.601227	145.400000
334.694611	145.540000
334.787964	145.800000
334.881348	146.120000
334.974701	145.880000
335.068085	146.040000
335.161438	146.620000
335.254822	146.620000
335.348175	146.680000
335.441559	146.420000
335.534943	146.860000
335.628296	146.300000
335.721680	146.180000
335.815033	146.340000
335.908417	146.880000
336.001770	146.400000
336.095154	146.520000
336.188538	146.100000
336.281891	145.380000
336.375275	144.920000
336.468658	144.420000
336.562012	144.520000
336.655396	145.320000
336.748779	145.640000
336.842133	145.820000
336.935516	146.600000
337.028900	146.240000
337.122284	145.900000
337.215637	146.200000
337.309021	146.260000
337.402435	145.720000
337.495789	145.960000
337.589203	145.920000
337.682526	145.460000
337.775940	145.780000
337.869324	146.080000
337.962708	145.940000
338.056091	146.460000
338.149475	146.320000
338.242859	146.300000
338.336243	146.000000
338.429626	146.140000
338.523010	145.840000
338.616394	146.060000
338.709778	146.180000
338.803162	146.620000
338.896545	146.340000
338.989929	146.240000
339.083313	146.300000
339.176697	145.660000
339.270081	145.340000
339.363464	145.800000
339.456848	146.140000
339.550232	145.740000
339.643616	145.880000
339.737030	145.820000
339.830383	145.640000
339.923828	145.520000
340.017181	145.580000
340.110596	145.580000
340.203949	145.580000
340.297363	145.220000
340.390778	145.080000
340.484161	145.080000
340.577545	144.940000
340.670959	145.240000
340.764343	145.500000
340.857727	145.560000
340.951111	145.520000
341.044525	146.000000
341.137909	145.300000
341.231293	145.400000
341.324707	145.080000
341.418091	146.080000
341.511505	146.100000
341.604889	146.560000
341.698303	146.680000
341.791687	146.900000
341.885071	146.020000
341.978485	145.580000
342.071899	145.480000
342.165283	145.640000
342.258698	145.600000
342.352081	146.300000
342.445496	147.000000
342.538879	146.980000
342.632324	146.660000
342.725708	146.920000
342.819122	145.940000
342.912506	145.560000
343.005920	145.800000
343.099335	146.760000
343.192719	146.520000
343.286133	147.100000
343.379547	147.060000
343.472931	146.960000
343.566345	146.080000
343.659760	146.320000
343.753143	145.740000
343.846558	145.600000
343.939972	145.500000
344.033386	145.920000
344.126770	145.600000
344.220184	146.220000
344.313599	146.420000
344.407043	146.720000
344.500427	146.200000
344.593872	146.740000
344.687225	146.400000
344.780670	145.900000
344.874054	145.800000
344.967499	146.300000
345.060913	146.040000
345.154327	146.140000
345.247742	146.200000
345.341156	145.920000
345.434570	145.560000
345.527985	145.220000
345.621399	145.380000
345.714813	145.160000
345.808228	145.560000
345.901642	145.240000
345.995056	145.400000
346.088470	145.360000
346.181885	145.820000
346.275299	145.380000
346.368713	145.500000
346.462128	145.180000
346.555573	145.040000
346.648987	145.000000
346.742401	145.020000
346.835815	145.520000
346.929260	145.580000
347.022644	145.840000
347.116119	145.960000
347.209503	146.420000
347.302948	146.820000
347.396362	147.420000
347.489807	147.280000
347.583221	148.000000
347.676636	147.420000
347.770050	146.540000
347.863495	145.920000
347.956909	145.980000
348.050323	145.160000
348.143768	145.080000
348.237183	144.900000
348.330597	145.680000
348.424042	146.180000
348.517456	146.500000
348.610901	147.180000
348.704315	147.280000
348.797760	146.320000
348.891174	145.480000
348.984619	145.120000
349.078033	145.400000
349.171448	146.040000
349.264923	146.360000
349.358337	146.280000
349.451782	146.260000
349.545197	145.500000
349.638641	145.020000
349.732086	144.760000
349.825500	145.600000
349.918945	145.500000
350.012390	145.920000
350.105804	146.000000
350.199249	146.060000
350.292664	146.220000
350.386108	146.360000
350.479553	146.800000
350.572968	146.700000
350.666412	147.340000
350.759857	146.680000
350.853302	147.080000
350.946716	146.700000
351.040161	146.820000
351.133606	146.620000
351.227081	146.860000
351.320465	147.460000
351.413940	147.140000
351.507355	147.160000
351.600830	147.060000
351.694244	146.560000
351.787720	145.860000
351.881104	145.900000
351.974579	145.820000
352.067993	146.620000
352.161469	147.000000
352.254883	146.640000
352.348358	146.520000
352.441803	146.560000
352.535248	145.880000
352.628693	146.100000
352.722137	146.420000
352.815582	146.880000
352.909027	146.980000
353.002472	146.900000
353.095917	146.700000
353.189362	146.920000
353.282806	146.740000
353.376251	146.540000
353.469696	146.220000
353.563141	146.660000
353.656586	146.180000
353.750061	145.740000
353.843475	145.800000
353.936981	146.320000
354.030396	145.780000
354.123871	145.620000
354.217285	146.500000
354.310760	147.000000
354.404175	146.800000
354.497681	146.660000
354.591095	147.080000
354.684570	145.880000
354.777985	145.080000
354.871490	144.700000
354.964935	145.020000
355.058380	145.020000
355.151855	145.440000
355.245300	146.120000
355.338745	146.880000
355.432220	146.900000
355.525665	146.640000
355.619110	147.040000
355.712585	146.680000
355.806030	146.160000
355.899475	145.760000
355.992950	146.100000
356.086426	146.420000
356.179871	146.420000
356.273346	146.660000
356.366791	147.120000
356.460266	147.240000
356.553711	146.480000
356.647186	146.520000
356.740631	146.100000
356.834106	145.760000
356.927551	145.480000
357.021027	145.820000
357.114471	145.880000
357.207947	146.520000
357.301422	146.920000
357.394867	146.960000
357.488342	147.120000
357.581818	147.080000
357.675262	147.080000
357.768738	146.520000
357.862213	146.180000
357.955658	146.300000
358.049133	146.280000
358.142609	145.940000
358.236053	146.160000
358.329529	146.220000
358.423035	146.100000
358.516449	145.800000
358.609955	146.460000
358.703400	146.920000
358.796906	147.460000
358.890350	147.260000
358.983826	147.840000
359.077271	146.680000
359.170776	146.140000
359.264221	145.680000
359.357727	145.900000
359.451172	145.980000
359.544647	146.760000
359.638123	146.780000
359.731598	147.180000
359.825073	147.220000
359.918549	147.000000
360.012024	146.940000
360.105499	146.600000
360.198975	146.560000
360.292450	146.200000
360.385925	146.240000
360.479401	145.700000
360.572876	146.260000
360.666351	146.160000
360.759857	146.120000
360.853302	146.020000
360.946808	146.020000
361.040253	145.800000
361.133759	145.480000
361.227203	145.920000
361.320709	145.420000
361.414154	146.020000
361.507660	146.260000
361.601105	146.880000
361.694641	147.020000
361.788086	147.360000
361.881592	147.520000
361.975067	147.100000
362.068542	147.180000
362.162018	146.920000
362.255524	146.700000
362.348999	146.620000
362.442474	147.220000
362.535950	146.480000
362.629456	146.380000
362.722931	146.480000
362.816406	146.320000
362.909882	146.240000
363.003387	146.380000
363.096863	146.600000
363.190338	146.600000
363.283875	146.280000
363.377319	146.200000
363.470825	146.520000
363.564301	146.040000
363.657806	145.960000
363.751282	146.000000
363.844788	146.760000
363.938232	146.240000
364.031769	146.940000
364.125214	147.240000
364.218750	147.880000
364.312225	146.460000
364.405731	147.080000
364.499207	146.440000
364.592712	146.160000
364.686188	145.760000
364.779694	146.420000
364.873169	146.160000
364.966675	146.060000
365.060150	146.260000
365.153656	146.480000
365.247131	146.420000
365.340637	146.500000
365.434143	147.140000
365.527618	147.180000
365.621155	146.420000
365.714600	146.400000
365.808136	146.440000
365.901611	145.540000
365.995117	145.120000
366.088593	145.420000
366.182129	145.400000
366.275604	145.360000
366.369110	145.920000
366.462585	145.940000
366.556122	146.500000
366.649567	146.440000
366.743103	146.500000
366.836609	146.340000
366.930115	146.860000
367.023590	146.840000
367.117096	146.640000
367.210602	146.220000
367.304108	146.560000
367.397614	146.860000
367.491119	146.700000
367.584595	147.000000
367.678101	147.660000
367.771606	147.060000
367.865112	146.640000
367.958649	146.160000
368.052124	146.000000
368.145660	145.700000
368.239136	146.620000
368.332672	146.660000
368.426147	146.560000
368.519684	146.400000
368.613159	146.500000
368.706696	145.800000
368.800171	145.680000
368.893707	145.980000
368.987183	146.340000
369.080719	146.500000
369.174225	146.740000
369.267731	146.840000
369.361237	146.840000
369.454742	146.560000
369.548248	146.580000
369.641754	146.240000
369.735260	146.220000
369.828766	145.440000
369.922272	146.140000
370.015808	145.660000
370.109314	145.500000
370.202820	145.100000
370.296356	146.400000
370.389832	145.740000
370.483368	145.940000
370.576874	146.160000
370.670410	146.620000
370.763885	145.780000
370.857422	145.940000
370.950928	145.680000
371.044464	146.360000
371.137939	146.160000
371.231476	146.680000
371.324982	147.300000
371.418518	147.480000
371.512024	146.940000
371.605560	146.840000
371.699066	146.820000
371.792572	145.960000
371.886108	146.240000
371.979614	146.040000
372.073120	146.760000
372.166656	146.560000
372.260162	147.320000
372.353668	147.100000
372.447205	147.360000
372.540710	147.000000
372.634277	147.000000
372.727753	146.700000
372.821320	146.740000
372.914795	146.780000
373.008362	146.480000
373.101837	146.500000
373.195404	146.300000
373.288879	146.240000
373.382446	146.760000
373.475922	146.720000
373.569489	147.220000
373.662964	147.420000
373.756531	147.200000
373.850037	146.960000
373.943573	147.280000
374.037109	146.280000
374.130615	146.480000
374.224152	146.920000
374.317657	146.500000
374.411194	147.260000
374.504730	147.560000
374.598236	147.060000
374.691772	146.480000
374.785309	146.760000
374.878815	145.220000
374.972351	145.620000
375.065887	145.760000
375.159454	146.860000
375.252930	146.520000
375.346497	147.240000
375.440002	147.600000
375.533569	147.460000
375.627045	146.600000
375.720612	146.700000
375.814117	146.960000
375.907684	146.560000
376.001160	146.280000
376.094727	145.720000
376.188232	146.440000
376.281799	146.380000
376.375336	146.340000
376.468872	147.180000
376.562408	147.580000
376.655914	146.980000
376.749451	146.680000
376.842987	146.520000
376.936523	145.980000
377.030060	146.040000
377.123596	146.040000
377.217133	145.840000
377.310669	145.940000
377.404205	146.480000
377.497772	146.960000
377.591278	146.860000
377.684845	147.840000
377.778351	148.040000
377.871918	147.600000
377.965424	146.640000
378.058990	146.600000
378.152496	145.900000
378.246063	146.300000
378.339569	146.520000
378.433136	146.720000
378.526642	146.780000
378.620209	146.820000
378.713745	146.000000
378.807312	146.260000
378.900848	146.500000
378.994385	146.960000
379.087921	146.200000
379.181458	146.540000
379.274994	145.620000
379.368530	145.680000
379.462097	145.680000
379.555634	146.660000
379.649170	146.180000
379.742706	146.540000
379.836273	146.880000
379.929810	146.180000
380.023376	145.800000
380.116882	146.020000
380.210449	146.080000
380.303986	145.540000
380.397552	145.360000
380.491058	145.580000
380.584656	145.420000
380.678162	145.540000
380.771729	145.800000
380.865265	146.780000
380.958832	146.740000
381.052368	146.920000
381.145935	147.080000
381.239471	147.260000
381.333008	146.760000
381.426575	146.560000
381.520111	146.640000
381.613647	146.480000
381.707214	146.060000
381.800751	145.480000
381.894318	145.840000
381.987854	145.600000
382.081421	145.620000
382.174988	145.580000
382.268524	145.720000
382.362091	145.680000
382.455627	146.620000
382.549194	146.360000
382.642731	146.100000
382.736298	145.900000
382.829834	145.520000
382.923401	145.620000
383.016937	145.920000
383.110504	146.660000
383.204041	147.000000
383.297607	147.380000
383.391174	146.340000
383.484741	146.980000
383.578278	146.460000
383.671844	146.340000
383.765411	145.700000
383.858948	146.140000
383.952515	145.540000
384.046051	145.960000
384.139618	146.540000
384.233185	146.680000
384.326721	146.640000
384.420288	147.000000
384.513855	146.860000
384.607422	146.620000
384.700989	147.180000
384.794525	147.000000
384.888123	146.620000
384.981659	146.820000
385.075226	146.500000
385.168762	146.160000
385.262360	146.020000
385.355896	145.640000
385.449463	145.240000
385.542999	145.340000
385.636597	146.040000
385.730164	146.300000
385.823730	145.860000
385.917267	145.820000
386.010834	146.220000
386.104401	145.840000
386.197968	146.100000
386.291534	146.740000
386.385101	147.040000
386.478668	147.160000
386.572235	146.720000
386.665802	146.200000
386.759338	146.180000
386.852905	145.680000
386.946472	144.920000
387.040070	145.340000
387.133606	145.500000
387.227203	145.300000
387.320740	145.920000
387.414337	146.020000
387.507874	145.640000
387.601471	145.700000
387.695007	145.660000
387.788605	145.300000
387.882141	145.640000
387.975739	145.880000
388.069275	145.600000
388.162872	145.940000
388.256439	145.980000
388.350037	145.660000
388.443604	145.640000
388.537170	145.700000
388.630737	145.940000
388.724304	145.920000
388.817871	146.060000
388.911438	146.040000
389.005005	146.280000
389.098602	146.580000
389.192169	146.300000
389.285736	146.840000
389.379333	147.080000
389.472870	146.480000
389.566467	145.820000
389.660034	146.160000
389.753632	145.180000
389.847168	145.020000
389.940765	145.600000
390.034332	145.980000
390.127930	145.800000
390.221466	146.120000
390.315063	145.900000
390.408630	145.160000
390.502228	144.500000
390.595795	145.140000
390.689362	145.400000
390.782959	145.720000
390.876526	146.420000
390.970093	146.480000
391.063690	146.340000
391.157257	146.240000
391.250824	146.380000
391.344421	146.360000
391.437988	146.560000
391.531555	146.940000
391.625153	147.060000
391.718750	147.220000
391.812317	147.140000
391.905914	147.000000
391.999481	146.800000
392.093079	146.780000
392.186615	146.740000
392.280243	146.800000
392.373779	147.040000
392.467407	147.320000
392.560944	147.320000
392.654572	146.780000
392.748108	146.540000
392.841736	146.580000
392.935303	146.040000
393.028900	145.900000
393.122467	146.120000
393.216064	145.980000
393.309631	145.500000
393.403229	144.900000
393.496796	145.120000
393.590393	144.620000
393.683990	145.060000
393.777557	145.760000
393.871155	146.000000
393.964722	146.240000
394.058350	146.640000
394.151917	146.440000
394.245514	146.020000
394.339081	146.520000
394.432678	146.580000
394.526245	146.560000
394.619873	146.420000
394.713409	146.600000
394.807037	146.320000
394.900604	146.420000
394.994202	146.260000
395.087769	146.740000
395.181396	146.320000
395.274994	147.060000
395.368561	146.200000
395.462158	146.720000
395.555756	145.920000
395.649353	146.440000
395.742920	145.740000
395.836517	146.560000
395.930115	145.640000
396.023712	146.520000
396.117279	146.700000
396.210876	146.480000
396.304474	146.380000
396.398071	146.980000
396.491669	146.780000
396.585266	146.380000
396.678833	146.580000
396.772461	146.740000
396.866028	146.880000
396.959656	147.240000
397.053223	147.920000
397.146851	148.160000
397.240417	148.920000
397.334015	150.680000
397.427582	152.560000
397.521210	154.900000
397.614807	158.740000
397.708405	162.480000
397.802002	167.380000
397.895599	174.020000
397.989197	182.140000
398.082794	191.620000
398.176392	204.220000
398.269989	217.920000
398.363586	233.500000
398.457184	251.400000
398.550781	270.580000
398.644379	289.520000
398.737976	308.980000
398.831573	327.860000
398.925201	345.940000
399.018768	365.060000
399.112396	385.220000
399.205963	407.280000
399.299591	431.720000
399.393158	459.540000
399.486786	488.820000
399.580353	515.800000
399.673981	537.740000
399.767578	555.580000
399.861206	564.020000
399.954773	563.760000
400.048401	556.160000
400.141998	543.400000
400.235596	525.520000
400.329193	506.740000
400.422791	486.960000
400.516418	467.820000
400.610016	449.460000
400.703613	430.480000
400.797211	407.720000
400.890808	383.980000
400.984436	359.700000
401.078033	334.380000
401.171631	310.840000
401.265259	289.920000
401.358826	270.740000
401.452484	252.660000
401.546051	237.280000
401.639679	221.160000
401.733246	207.980000
401.826904	195.680000
401.920471	185.020000
402.014099	176.460000
402.107697	169.760000
402.201324	164.000000
402.294891	159.760000
402.388550	156.900000
402.482147	154.180000
402.575745	152.200000
402.669373	150.360000
402.762970	149.020000
402.856567	148.500000
402.950195	147.960000
403.043793	147.700000
403.137390	148.440000
403.231018	147.740000
403.324615	148.040000
403.418243	147.480000
403.511841	147.880000
403.605469	147.200000
403.699066	147.900000
403.792694	147.400000
403.886292	147.720000
403.979919	147.300000
404.073517	147.100000
404.167145	147.000000
404.260712	146.820000
404.354370	146.500000
404.447937	146.560000
404.541595	146.660000
404.635162	146.920000
404.728821	147.440000
404.822418	147.300000
404.916046	147.320000
405.009644	147.440000
405.103271	147.420000
405.196899	146.940000
405.290497	147.040000
405.384125	146.980000
405.477722	146.500000
405.571350	145.940000
405.664948	146.100000
405.758575	146.020000
405.852203	145.680000
405.945801	145.900000
406.039429	146.120000
406.133057	145.740000
406.226654	145.740000
406.320312	145.740000
406.413879	146.020000
406.507538	146.240000
406.601135	146.020000
406.694763	146.640000
406.788361	146.440000
406.882019	145.680000
406.975586	145.820000
407.069244	146.680000
407.162872	146.380000
407.256470	146.500000
407.350098	146.980000
407.443726	146.640000
407.537323	145.960000
407.630951	146.180000
407.724579	145.960000
407.818207	146.260000
407.911804	146.180000
408.005432	146.220000
408.099060	146.160000
408.192688	146.600000
408.286285	146.320000
408.379913	146.020000
408.473572	146.220000
408.567169	145.800000
408.660828	145.760000
408.754395	145.720000
408.848053	145.720000
408.941650	145.800000
409.035309	145.440000
409.128906	145.280000
409.222565	145.320000
409.316132	145.820000
409.409790	145.660000
409.503387	146.380000
409.597046	146.500000
409.690674	146.760000
409.784302	146.920000
409.877930	146.780000
409.971558	146.480000
410.065186	146.520000
410.158783	146.320000
410.252411	145.940000
410.346039	146.260000
410.439667	146.280000
410.533295	146.360000
410.626923	146.640000
410.720551	146.600000
410.814209	146.660000
410.907806	146.920000
411.001465	146.400000
411.095062	146.260000
411.188721	146.640000
411.282318	146.520000
411.375977	146.320000
411.469574	146.700000
411.563232	146.460000
411.656830	146.120000
411.750488	145.820000
411.844086	145.400000
411.937744	145.580000
412.031372	145.580000
412.125000	145.440000
412.218628	145.200000
412.312256	146.160000
412.405884	146.680000
412.499512	146.480000
412.593170	146.840000
412.686798	147.220000
412.780426	146.480000
412.874054	146.100000
412.967682	146.240000
413.061310	146.620000
413.154968	146.820000
413.248566	147.280000
413.342224	147.020000
413.435852	147.340000
413.529510	146.760000
413.623108	145.960000
413.716766	145.780000
413.810364	146.080000
413.904022	145.460000
413.997650	145.340000
414.091309	146.460000
414.184906	146.260000
414.278564	145.860000
414.372192	146.380000
414.465851	146.600000
414.559479	146.200000
414.653107	146.940000
414.746735	146.620000
414.840393	146.700000
414.934021	147.060000
415.027649	146.640000
415.121277	146.140000
415.214935	146.840000
415.308563	146.880000
415.402191	146.400000
415.495850	146.540000
415.589478	146.620000
415.683136	146.240000
415.776733	146.240000
415.870422	146.460000
415.964020	146.200000
416.057678	146.060000
416.151306	145.920000
416.244965	145.880000
416.338562	145.780000
416.432251	146.480000
416.525848	147.200000
416.619507	147.620000
416.713165	147.840000
416.806793	147.740000
416.900421	147.600000
416.994080	146.400000
417.087708	146.400000
417.181366	145.940000
417.274994	145.820000
417.368622	146.080000
417.462280	147.060000
417.555908	146.740000
417.649567	146.500000
417.743195	146.360000
417.836853	145.980000
417.930481	145.820000
418.024170	145.900000
418.117767	146.580000
418.211426	147.180000
418.305054	147.420000
418.398712	147.060000
418.492340	147.260000
418.585999	147.220000
418.679626	147.220000
418.773285	147.540000
418.866913	148.120000
418.960571	148.400000
419.054230	148.380000
419.147858	148.400000
419.241516	147.820000
419.335144	147.280000
419.428802	146.900000
419.522461	146.540000
419.616089	146.060000
419.709747	146.520000
419.803375	146.560000
419.897034	146.540000
419.990662	146.720000
420.084320	147.100000
420.177979	146.940000
420.271606	147.200000
420.365295	147.720000
420.458893	147.760000
420.552582	148.140000
420.646210	148.160000
420.739868	147.780000
420.833496	147.220000
420.927155	147.080000
421.020782	146.580000
421.114471	146.140000
421.208069	146.480000
421.301758	146.860000
421.395386	146.780000
421.489044	146.720000
421.582703	146.720000
421.676361	147.120000
421.769989	146.640000
421.863647	147.020000
421.957306	147.100000
422.050934	147.560000
422.144592	147.000000
422.238251	146.640000
422.331909	146.200000
422.425537	145.720000
422.519196	145.320000
422.612854	144.880000
422.706543	145.220000
422.800140	145.520000
422.893829	145.440000
422.987457	145.240000
423.081146	145.580000
423.174744	146.180000
423.268433	145.960000
423.362061	146.200000
423.455750	146.100000
423.549347	146.160000
423.643036	145.120000
423.736664	145.480000
423.830353	145.680000
423.924011	146.400000
424.017639	146.080000
424.111298	146.420000
424.204956	146.160000
424.298615	146.120000
424.392273	145.820000
424.485931	145.940000
424.579559	146.060000
424.673218	145.940000
424.766876	146.040000
424.860535	145.860000
424.954193	145.840000
425.047882	146.120000
425.141510	146.420000
425.235199	146.120000
425.328796	146.100000
425.422485	145.940000
425.516113	145.300000
425.609802	145.220000
425.703430	145.600000
425.797119	145.620000
425.890747	145.780000
425.984436	146.120000
426.078064	146.040000
426.171753	145.900000
426.265411	145.720000
426.359070	146.020000
426.452728	146.000000
426.546356	145.760000
426.640015	145.700000
426.733673	145.840000
426.827332	145.460000
426.920990	146.100000
427.014648	145.860000
427.108307	146.020000
427.201965	146.520000
427.295624	146.800000
427.389282	145.860000
427.482941	146.280000
427.576630	146.080000
427.670258	145.360000
427.763947	145.120000
427.857574	145.500000
427.951263	145.580000
428.044922	145.560000
428.138611	146.040000
428.232239	146.700000
428.325928	147.100000
428.419556	147.320000
428.513245	147.100000
428.606903	147.200000
428.700562	146.260000
428.794220	145.280000
428.887878	144.920000
428.981537	145.100000
429.075195	144.640000
429.168854	145.500000
429.262512	146.120000
429.356201	146.260000
429.449860	146.320000
429.543518	146.540000
429.637177	146.500000
429.730835	146.340000
429.824493	146.120000
429.918182	146.280000
430.011810	145.960000
430.105530	145.200000
430.199158	145.460000
430.292847	145.440000
430.386475	145.300000
430.480164	145.340000
430.573792	145.240000
430.667511	145.040000
430.761139	144.920000
430.854828	145.400000
430.948456	145.740000
431.042145	146.380000
431.135834	145.920000
431.229492	146.280000
431.323151	146.200000
431.416809	146.060000
431.510468	145.980000
431.604156	146.500000
431.697815	146.440000
431.791473	145.800000
431.885132	145.320000
431.978821	145.580000
432.072479	145.660000
432.166138	146.240000
432.259827	146.320000
432.353485	146.900000
432.447174	146.800000
432.540802	146.580000
432.634491	146.260000
432.728149	146.600000
432.821838	146.960000
432.915466	146.660000
433.009186	146.880000
433.102814	146.340000
433.196503	146.120000
433.290131	145.680000
433.383850	146.240000
433.477509	146.300000
433.571167	147.100000
433.664856	147.660000
433.758514	148.500000
433.852173	148.180000
433.945862	147.940000
434.039520	147.700000
434.133179	146.980000
434.226868	146.220000
434.320526	145.560000
434.414185	145.920000
434.507874	145.620000
434.601562	146.000000
434.695221	145.760000
434.788910	146.420000
434.882538	146.600000
434.976257	146.340000
435.069885	146.240000
435.163574	146.620000
435.257233	146.060000
435.350922	145.920000
435.444580	145.800000
435.538269	145.680000
435.631897	145.760000
435.725616	146.820000
435.819275	147.220000
435.912964	147.920000
436.006622	148.360000
436.100311	148.160000
436.193970	147.140000
436.287628	146.400000
436.381317	146.040000
436.474976	145.500000
436.568665	145.280000
436.662323	145.500000
436.756012	145.560000
436.849670	145.480000
436.943390	145.580000
437.037018	145.700000
437.130737	145.980000
437.224365	145.880000
437.318085	146.040000
437.411713	145.940000
437.505432	146.220000
437.599060	146.700000
437.692780	147.320000
437.786407	147.300000
437.880127	147.540000
437.973755	147.140000
438.067474	146.420000
438.161133	146.320000
438.254822	146.620000
438.348480	146.360000
438.442169	147.140000
438.535828	147.760000
438.629517	147.240000
438.723175	146.700000
438.816864	147.140000
438.910553	146.300000
439.004211	145.740000
439.097900	145.540000
439.191559	145.880000
439.285248	145.600000
439.378906	146.040000
439.472626	145.840000
439.566284	146.160000
439.659973	146.260000
439.753632	146.160000
439.847321	146.460000
439.940979	146.660000
440.034698	147.000000
440.128326	146.420000
440.222046	146.340000
440.315674	145.460000
440.409393	145.800000
440.503082	145.140000
440.596741	145.520000
440.690430	145.900000
440.784088	146.080000
440.877777	145.240000
440.971466	145.480000
441.065125	145.480000
441.158813	145.140000
441.252502	145.120000
441.346161	145.680000
441.439850	145.820000
441.533539	145.660000
441.627197	146.020000
441.720886	146.060000
441.814606	146.300000
441.908234	146.520000
442.001953	146.320000
442.095612	146.160000
442.189301	146.320000
442.282959	146.300000
442.376678	145.700000
442.470306	146.580000
442.564026	146.520000
442.657684	147.080000
442.751404	147.060000
442.845032	147.960000
442.938751	147.160000
443.032440	147.060000
443.126099	146.360000
443.219788	146.700000
443.313477	146.560000
443.407166	146.960000
443.500824	146.940000
443.594513	147.500000
443.688202	147.200000
443.781891	146.320000
443.875549	145.980000
443.969238	146.040000
444.062927	145.660000
444.156647	145.560000
444.250275	146.240000
444.343994	146.560000
444.437653	146.880000
444.531372	146.920000
444.625031	146.780000
444.718719	146.420000
444.812378	146.260000
444.906097	145.980000
444.999756	145.600000
445.093445	145.700000
445.187103	145.700000
445.280823	146.280000
445.374512	145.780000
445.468201	145.940000
445.561859	145.720000
445.655548	146.000000
445.749237	144.940000
445.842926	145.380000
445.936615	145.780000
446.030304	145.740000
446.123962	145.540000
446.217651	145.740000
446.311340	145.740000
446.405029	145.320000
446.498749	145.140000
446.592407	145.260000
446.686096	145.660000
446.779755	145.840000
446.873474	146.280000
446.967133	146.820000
447.060852	146.560000
447.154510	146.420000
447.248230	146.300000
447.341858	145.980000
447.435577	145.380000
447.529236	145.280000
447.622955	145.200000
447.716644	145.460000
447.810333	145.940000
447.904022	146.500000
447.997711	146.860000
448.091400	147.120000
448.185059	146.880000
448.278748	146.780000
448.372437	146.240000
448.466125	146.480000
448.559814	146.200000
448.653503	146.620000
448.747192	146.900000
448.840912	147.600000
448.934570	147.580000
449.028290	147.960000
449.121948	147.300000
449.215637	146.740000
449.309296	146.300000
449.403015	146.080000
449.496674	145.900000
449.590393	145.940000
449.684052	145.740000
449.777771	146.500000
449.871429	146.220000
449.965149	146.020000
450.058838	146.400000
450.152527	147.020000
450.246216	146.460000
450.339905	146.800000
450.433594	146.620000
450.527283	147.240000
450.620972	146.760000
450.714661	146.700000
450.808350	146.760000
450.902039	147.260000
450.995728	146.700000
451.089417	146.440000
451.183105	146.740000
451.276794	146.840000
451.370514	146.280000
451.464172	145.500000
451.557892	145.420000
451.651550	145.240000
451.745270	144.620000
451.838928	144.200000
451.932648	144.760000
452.026306	145.400000
452.120026	145.160000
452.213684	145.760000
452.307404	146.500000
452.401062	146.860000
452.494781	146.820000
452.588470	146.960000
452.682159	146.160000
452.775848	146.200000
452.869537	145.440000
452.963226	145.020000
453.056915	144.960000
453.150604	145.340000
453.244293	145.200000
453.337982	145.800000
453.431671	146.280000
453.525360	146.800000
453.619049	147.100000
453.712769	146.920000
453.806427	146.300000
453.900146	146.100000
453.993805	145.860000
454.087555	146.260000
454.181213	146.520000
454.274933	146.880000
454.368591	146.540000
454.462311	146.100000
454.555969	145.320000
454.649689	146.320000
454.743347	146.080000
454.837067	146.980000
454.930756	147.740000
455.024445	148.000000
455.118134	147.360000
455.211853	147.780000
455.305542	147.020000
455.399231	146.480000
455.492920	146.360000
455.586609	146.340000
455.680298	146.280000
455.773987	145.960000
455.867676	146.280000
455.961365	146.500000
456.055084	146.080000
456.148773	146.120000
456.242493	146.660000
456.336151	146.340000
456.429871	146.520000
456.523529	147.140000
456.617249	146.540000
456.710907	147.140000
456.804626	147.080000
456.898315	146.780000
456.992035	146.420000
457.085693	146.680000
457.179413	145.580000
457.273102	146.500000
457.366791	146.600000
457.460480	146.880000
457.554199	147.540000
457.647888	148.220000
457.741577	147.800000
457.835266	147.700000
457.928955	147.760000
458.022644	147.820000
458.116364	147.820000
458.210052	147.300000
458.303741	147.420000
458.397461	146.740000
458.491119	146.000000
458.584839	145.880000
458.678528	145.720000
458.772247	145.480000
458.865906	145.840000
458.959625	146.820000
459.053284	146.800000
459.147003	146.800000
459.240692	147.660000
459.334412	147.720000
459.428070	146.820000
459.521790	146.260000
459.615479	146.360000
459.709198	146.280000
459.802887	145.980000
459.896576	146.000000
459.990265	146.580000
460.083954	146.820000
460.177673	146.200000
460.271362	146.580000
460.365051	146.760000
460.458740	146.460000
460.552429	145.880000
460.646149	145.820000
460.739838	145.260000
460.833527	145.300000
460.927246	145.080000
461.020905	145.420000
461.114655	145.460000
461.208313	145.800000
461.302032	145.340000
461.395691	145.740000
461.489441	145.800000
461.583099	145.620000
461.676819	145.360000
461.770477	145.720000
461.864197	145.460000
461.957916	145.440000
462.051605	145.020000
462.145294	145.960000
462.238983	145.920000
462.332703	146.340000
462.426392	146.680000
462.520081	146.900000
462.613770	146.000000
462.707489	146.340000
462.801178	146.260000
462.894867	145.940000
462.988556	146.040000
463.082275	146.500000
463.175964	145.960000
463.269684	146.020000
463.363342	146.180000
463.457092	145.800000
463.550751	146.020000
463.644470	146.360000
463.738129	146.280000
463.831879	146.280000
463.925537	147.320000
464.019257	146.940000
464.112946	147.000000
464.206665	146.920000
464.300323	146.800000
464.394043	146.280000
464.487762	146.200000
464.581451	146.180000
464.675140	146.100000
464.768829	146.320000
464.862549	146.600000
464.956238	147.020000
465.049927	147.120000
465.143646	147.320000
465.237335	146.980000
465.331024	147.300000
465.424713	147.020000
465.518433	146.900000
465.612152	146.220000
465.705811	146.340000
465.799561	146.000000
465.893219	145.860000
465.986938	145.860000
466.080597	146.200000
466.174347	146.500000
466.268005	146.620000
466.361725	146.640000
466.455414	146.260000
466.549133	146.320000
466.642792	146.360000
466.736542	145.720000
466.830231	145.940000
466.923920	146.280000
467.017609	146.440000
467.111328	146.000000
467.205017	146.500000
467.298706	146.120000
467.392426	146.100000
467.486115	146.100000
467.579803	145.840000
467.673523	145.940000
467.767212	145.940000
467.860901	145.680000
467.954651	145.800000
468.048309	146.440000
468.142029	146.240000
468.235718	146.580000
468.329437	146.600000
468.423096	146.700000
468.516846	146.220000
468.610504	145.900000
468.704224	145.420000
468.797913	145.580000
468.891632	145.620000
468.985291	145.820000
469.079010	146.080000
469.172729	145.680000
469.266418	146.060000
469.360107	145.820000
469.453827	145.600000
469.547516	145.680000
469.641205	146.660000
469.734924	146.560000
469.828613	146.880000
469.922302	147.220000
470.016022	147.140000
470.109711	146.760000
470.203430	146.140000
470.297150	145.200000
470.390808	145.300000
470.484558	145.240000
470.578217	145.740000
470.671936	146.540000
470.765625	147.500000
470.859344	147.140000
470.953003	147.280000
471.046753	146.900000
471.140411	146.260000
471.234131	146.300000
471.327820	146.820000
471.421539	146.600000
471.515228	146.180000
471.608948	146.560000
471.702637	146.000000
471.796326	145.260000
471.890045	145.660000
471.983734	145.920000
472.077423	145.700000
472.171143	145.900000
472.264832	146.060000
472.358521	145.560000
472.452240	145.380000
472.545929	145.700000
472.639648	145.760000
472.733337	146.120000
472.827057	146.560000
472.920746	146.880000
473.014465	147.000000
473.108124	147.020000
473.201874	147.080000
473.295532	146.960000
473.389252	147.040000
473.482941	147.180000
473.576660	146.680000
473.670319	146.300000
473.764069	146.560000
473.857727	146.720000
473.951477	146.820000
474.045166	147.780000
474.138855	147.720000
474.232574	147.560000
474.326263	147.480000
474.419952	147.060000
474.513672	146.560000
474.607361	146.640000
474.701050	146.880000
474.794769	147.100000
474.888458	147.500000
474.982178	147.620000
475.075867	147.820000
475.169586	147.360000
475.263275	146.880000
475.356995	146.520000
475.450653	146.140000
475.544403	145.820000
475.638062	146.720000
475.731812	146.660000
475.825470	146.420000
475.919189	146.640000
476.012878	147.020000
476.106598	146.040000
476.200256	146.300000
476.294006	146.300000
476.387695	146.500000
476.481384	146.300000
476.575104	146.520000
476.668793	146.340000
476.762512	146.080000
476.856201	146.240000
476.949890	146.020000
477.043610	145.380000
477.137299	145.260000
477.230988	145.800000
477.324707	145.400000
477.418396	145.920000
477.512146	146.700000
477.605804	146.760000
477.699524	146.720000
477.793213	146.640000
477.886932	146.380000
477.980591	145.820000
478.074341	145.780000
478.167999	145.040000
478.261749	145.020000
478.355408	145.100000
478.449127	145.520000
478.542816	146.380000
478.636536	147.380000
478.730225	147.680000
478.823944	147.760000
478.917633	147.580000
479.011322	147.340000
479.105042	146.980000
479.198730	146.960000
479.292450	146.900000
479.386139	147.240000
479.479828	147.300000
479.573547	147.860000
479.667267	147.900000
479.760925	147.880000
479.854675	147.940000
479.948334	147.680000
480.042084	147.080000
480.135742	147.240000
480.229462	146.840000
480.323151	146.620000
480.416870	145.880000
480.510529	145.760000
480.604279	145.520000
480.697937	146.000000
480.791656	145.660000
480.885345	145.780000
480.979065	145.760000
481.072754	145.940000
481.166473	146.060000
481.260132	146.060000
481.353882	146.100000
481.447540	146.120000
481.541260	146.040000
481.635010	145.280000
481.728668	145.420000
481.822388	145.680000
481.916077	145.920000
482.009796	145.840000
482.103485	146.560000
482.197205	146.720000
482.290863	146.660000
482.384613	146.360000
482.478271	145.940000
482.571991	145.960000
482.665680	145.660000
482.759399	146.180000
482.853058	146.560000
482.946808	146.680000
483.040466	146.500000
483.134216	146.840000
483.227875	146.140000
483.321594	146.480000
483.415283	146.680000
483.509003	146.240000
483.602661	145.940000
483.696411	146.380000
483.790070	145.960000
483.883789	145.960000
483.977478	146.380000
484.071198	146.580000
484.164917	146.100000
484.258606	145.480000
484.352325	145.700000
484.445984	145.840000
484.539734	145.820000
484.633392	145.500000
484.727142	146.140000
484.820801	145.820000
484.914520	145.580000
485.008209	145.480000
485.101929	146.160000
485.195587	145.860000
485.289337	145.820000
485.382996	145.920000
485.476715	146.040000
485.570404	146.140000
485.664124	146.260000
485.757782	146.880000
485.851532	146.440000
485.945190	146.440000
486.038910	146.740000
486.132599	147.340000
486.226318	146.640000
486.319977	146.940000
486.413727	147.500000
486.507446	147.000000
486.601105	146.060000
486.694855	145.900000
486.788513	145.620000
486.882233	145.020000
486.975922	145.000000
487.069641	145.060000
487.163300	145.060000
487.257050	146.280000
487.350708	146.000000
487.444427	146.300000
487.538116	146.600000
487.631836	146.520000
487.725494	145.860000
487.819214	146.200000
487.912903	145.560000
488.006622	145.740000
488.100281	146.340000
488.194031	146.340000
488.287689	146.800000
488.381409	147.860000
488.475098	147.520000
488.568817	147.540000
488.662476	146.960000
488.756226	146.080000
488.849945	144.960000
488.943604	145.120000
489.037354	144.960000
489.131012	145.340000
489.224731	145.660000
489.318390	145.980000
489.412140	146.180000
489.505798	145.920000
489.599518	145.440000
489.693207	145.560000
489.786926	145.380000
489.880585	144.820000
489.974335	145.100000
490.067993	146.540000
490.161713	146.880000
490.255371	147.440000
490.349121	147.660000
490.442780	147.480000
490.536499	146.120000
490.630188	146.040000
490.723907	145.540000
490.817566	145.860000
490.911285	145.700000
491.004974	145.520000
491.098694	144.880000
491.192413	145.800000
491.286102	145.600000
491.379822	146.060000
491.473480	146.700000
491.567200	146.900000
491.660889	145.940000
491.754608	145.940000
491.848267	145.740000
491.941986	145.840000
492.035675	145.900000
492.129395	146.560000
492.223053	146.340000
492.316772	146.500000
492.410461	146.020000
492.504181	145.960000
492.597839	145.460000
492.691559	145.740000
492.785248	145.680000
492.878967	146.100000
492.972626	146.020000
493.066345	146.480000
493.160034	146.140000
493.253754	146.060000
493.347412	145.520000
493.441132	145.640000
493.534882	145.640000
493.628540	146.140000
493.722260	146.220000
493.815918	146.580000
493.909668	146.980000
494.003326	147.020000
494.097046	146.800000
494.190704	146.500000
494.284454	146.580000
494.378113	146.520000
494.471832	146.260000
494.565491	145.920000
494.659210	146.340000
494.752899	146.380000
494.846619	146.060000
494.940277	146.160000
495.033997	146.220000
495.127686	145.800000
495.221405	145.660000
495.315063	145.780000
495.408783	145.780000
495.502441	146.140000
495.596191	146.460000
495.689850	146.260000
495.783569	146.560000
495.877228	146.580000
495.970947	146.240000
496.064697	146.180000
496.158356	146.920000
496.252075	146.780000
496.345734	146.380000
496.439453	147.400000
496.533142	147.480000
496.626862	147.820000
496.720520	147.700000
496.814240	148.060000
496.907898	147.240000
497.001617	147.300000
497.095306	146.160000
497.189026	146.140000
497.282684	146.100000
497.376404	146.380000
497.470062	146.280000
497.563782	146.620000
497.657471	146.500000
497.751190	146.300000
497.844849	146.080000
497.938568	146.220000
498.032227	146.300000
498.125946	146.440000
498.219635	146.480000
498.313354	146.400000
498.407074	146.040000
498.500732	146.060000
498.594452	146.140000
498.688110	146.020000
498.781830	145.860000
498.875519	145.800000
498.969238	145.440000
499.062897	145.280000
499.156616	145.560000
499.250275	145.800000
499.343994	145.480000
499.437653	145.880000
499.531372	145.820000
499.625061	146.240000
499.718781	146.520000
499.812439	147.260000
499.906158	147.060000
499.999817	147.000000
500.093536	146.320000
500.187195	146.020000
500.280914	145.800000
500.374573	145.920000
500.468323	145.960000
500.561981	146.400000
500.655701	146.100000
500.749420	146.020000
500.843079	146.160000
500.936798	146.100000
501.030457	146.240000
501.124176	146.720000
501.217834	146.600000
501.311554	146.560000
501.405212	146.540000
501.498962	145.660000
501.592621	145.360000
501.686340	145.780000
501.779999	145.940000
501.873718	146.160000
501.967377	146.680000
502.061096	146.920000
502.154755	146.240000
502.248474	145.920000
502.342133	145.900000
502.435852	145.980000
502.529510	146.600000
502.623230	147.660000
502.716888	147.160000
502.810608	147.280000
502.904266	147.660000
502.997986	147.080000
503.091705	146.160000
503.185364	146.560000
503.279083	146.440000
503.372772	146.120000
503.466492	145.680000
503.560150	146.040000
503.653870	146.460000
503.747528	146.560000
503.841248	146.640000
503.934906	146.760000
504.028625	146.420000
504.122284	146.240000
504.216003	146.660000
504.309662	146.160000
504.403381	146.560000
504.497040	146.880000
504.590759	146.640000
504.684418	146.620000
504.778137	147.160000
504.871796	147.160000
504.965515	146.640000
505.059174	146.660000
505.152893	145.880000
505.246521	145.540000
505.340240	145.460000
505.433899	145.840000
505.527618	146.060000
505.621338	146.440000
505.714996	146.020000
505.808716	145.940000
505.902374	146.480000
505.996094	146.700000
506.089752	146.320000
506.183472	146.920000
506.277130	146.740000
506.370850	146.220000
506.464508	145.960000
506.558228	146.200000
506.651886	145.880000
506.745605	146.380000
506.839264	146.620000
506.932983	146.540000
507.026611	146.660000
507.120331	147.060000
507.213989	146.360000
507.307709	146.160000
507.401367	146.640000
507.495087	147.080000
507.588745	146.560000
507.682465	147.480000
507.776123	147.560000
507.869843	147.220000
507.963531	147.020000
508.057190	147.600000
508.150909	146.480000
508.244568	146.520000
508.338287	146.320000
508.431946	146.080000
508.525665	145.640000
508.619324	145.960000
508.713013	146.220000
508.806671	146.680000
508.900391	147.220000
508.994049	147.260000
509.087769	146.960000
509.181427	146.720000
509.275146	146.400000
509.368774	145.420000
509.462494	145.380000
509.556152	145.640000
509.649872	146.240000
509.743530	146.220000
509.837250	146.780000
509.930878	147.260000
510.024597	147.240000
510.118256	146.600000
510.211975	146.500000
510.305695	146.040000
510.399353	146.000000
510.493042	146.760000
510.586700	146.740000
510.680420	147.360000
510.774078	147.460000
510.867798	147.700000
510.961426	146.980000
511.055145	147.080000
511.148804	146.580000
511.242523	147.300000
511.336151	146.960000
511.429871	147.340000
511.523529	147.240000
511.617249	146.960000
511.710876	146.580000
511.804596	146.340000
511.898254	146.080000
511.991974	146.480000
512.085632	146.540000
512.179321	146.600000
512.272949	146.980000
512.366699	147.300000
512.460327	146.960000
512.554077	147.880000
512.647766	147.640000
512.741394	147.460000
512.835144	147.760000
512.928772	147.540000
513.022461	147.220000
513.116150	147.100000
513.209839	147.500000
513.303467	147.080000
513.397217	147.020000
513.490845	146.740000
513.584595	146.760000
513.678223	146.080000
513.771912	145.600000
513.865601	146.000000
513.959290	145.700000
514.052917	145.900000
514.146667	146.680000
514.240295	147.260000
514.333984	147.320000
514.427673	147.180000
514.521362	147.280000
514.614990	146.400000
514.708740	146.220000
514.802368	146.000000
514.896057	146.300000
514.989746	146.860000
515.083435	146.880000
515.177124	147.020000
515.270752	146.540000
515.364502	146.480000
515.458130	146.120000
515.551819	146.300000
515.645508	146.020000
515.739197	146.360000
515.832825	146.440000
515.926575	145.880000
516.020203	145.900000
516.113892	146.580000
516.207520	146.820000
516.301270	146.900000
516.394897	147.280000
516.488586	147.820000
516.582275	147.400000
516.675964	146.820000
516.769592	146.760000
516.863281	147.400000
516.956970	147.360000
517.050659	147.080000
517.144287	147.340000
517.238037	147.360000
517.331665	146.300000
517.425354	145.760000
517.519043	145.860000
517.612732	146.060000
517.706421	145.940000
517.800049	145.820000
517.893738	145.740000
517.987427	145.560000
518.081116	145.260000
518.174744	144.980000
518.268433	145.660000
518.362122	146.340000
518.455811	146.620000
518.549438	147.320000
518.643127	148.300000
518.736816	148.080000
518.830505	147.380000
518.924133	147.280000
519.017822	147.220000
519.111511	146.760000
519.205200	146.900000
519.298828	146.960000
519.392517	146.660000
519.486206	146.540000
519.579895	146.360000
519.673523	146.160000
519.767212	146.080000
519.860901	146.620000
519.954590	146.360000
520.048279	145.980000
520.141907	146.080000
520.235596	147.040000
520.329224	147.180000
520.422974	147.140000
520.516602	147.360000
520.610291	146.720000
520.703918	146.220000
520.797607	145.600000
520.891296	145.760000
520.984985	146.100000
521.078613	147.000000
521.172302	146.440000
521.265930	147.540000
521.359680	147.940000
521.453308	147.640000
521.546997	147.220000
521.640625	147.620000
521.734314	146.860000
521.827942	146.300000
521.921692	146.640000
522.015320	146.840000
522.109009	146.580000
522.202698	146.400000
522.296326	146.560000
522.390015	146.740000
522.483704	146.780000
522.577393	146.860000
522.671021	147.040000
522.764709	146.620000
522.858337	146.680000
522.952026	146.600000
523.045654	147.080000
523.139404	147.660000
523.233032	148.100000
523.326721	147.500000
523.420349	147.480000
523.514038	147.040000
523.607666	147.060000
523.701355	146.480000
523.795044	146.680000
523.888733	146.940000
523.982361	147.160000
524.076050	146.340000
524.169678	147.060000
524.263367	146.840000
524.356995	146.320000
524.450684	146.140000
524.544373	146.180000
524.638062	146.040000
524.731750	146.260000
524.825378	146.380000
524.919067	146.000000
525.012695	146.180000
525.106384	145.580000
525.200012	145.800000
525.293701	145.620000
525.387329	146.200000
525.481018	146.200000
525.574646	146.780000
525.668396	146.520000
525.762024	146.920000
525.855713	146.720000
525.949341	146.480000
526.043030	146.540000
526.136658	146.360000
526.230347	145.940000
526.323975	145.520000
526.417664	145.520000
526.511292	145.720000
526.604980	146.140000
526.698608	146.320000
526.792297	146.660000
526.885925	147.100000
526.979614	146.720000
527.073303	146.560000
527.166931	146.620000
527.260620	146.920000
527.354309	147.160000
527.447998	147.140000
527.541626	146.960000
527.635315	147.200000
527.728943	147.600000
527.822632	147.400000
527.916260	147.640000
528.009949	148.020000
528.103577	147.800000
528.197266	147.060000
528.290894	147.160000
528.384583	146.860000
528.478210	146.580000
528.571899	146.720000
528.665527	147.080000
528.759216	147.020000
528.852844	147.600000
528.946533	147.540000
529.040161	147.460000
529.133850	147.220000
529.227478	147.240000
529.321167	147.220000
529.414856	147.420000
529.508484	147.660000
529.602173	147.420000
529.695801	147.020000
529.789490	146.780000
529.883057	146.620000
529.976746	146.580000
530.070374	146.760000
530.164062	146.900000
530.257690	146.900000
530.351379	147.180000
530.445007	147.060000
530.538696	146.820000
530.632324	147.300000
530.726013	147.160000
530.819641	147.100000
530.913330	147.140000
531.006958	147.240000
531.100647	146.940000
531.194275	146.640000
531.287964	146.340000
531.381592	146.020000
531.475220	146.120000
531.568848	145.900000
531.662537	146.000000
531.756226	146.340000
531.849854	146.280000
531.943542	146.420000
532.037170	145.940000
532.130859	146.800000
532.224487	146.460000
532.318176	146.400000
532.411804	146.920000
532.505432	147.560000
532.599060	146.800000
532.692749	146.940000
532.786377	147.580000
532.880066	146.900000
532.973694	146.180000
533.067383	146.100000
533.161011	145.820000
533.254639	145.360000
533.348267	145.240000
533.441956	145.960000
533.535583	146.040000
533.629272	146.200000
533.722900	146.060000
533.816589	146.020000
533.910156	146.080000
534.003845	145.720000
534.097534	145.960000
534.191162	146.620000
534.284851	146.840000
534.378479	146.300000
534.472107	146.560000
534.565735	146.280000
534.659424	146.120000
534.753052	146.220000
534.846741	146.260000
534.940369	146.580000
535.033997	146.660000
535.127625	146.520000
535.221313	146.760000
535.314941	146.720000
535.408630	146.300000
535.502197	146.600000
535.595886	146.520000
535.689514	146.340000
535.783203	146.960000
535.876831	147.360000
535.970459	147.280000
536.064087	146.800000
536.157776	146.500000
536.251404	146.260000
536.345093	146.140000
536.438721	145.820000
536.532349	146.200000
536.626038	146.140000
536.719666	146.320000
536.813293	146.060000
536.906921	146.220000
537.000610	146.380000
537.094238	146.680000
537.187866	146.380000
537.281494	146.680000
537.375183	146.720000
537.468811	146.540000
537.562439	146.320000
537.656067	146.480000
537.749756	146.280000
537.843384	147.000000
537.937012	147.340000
538.030640	147.220000
538.124329	147.180000
538.217896	147.600000
538.311584	147.100000
538.405212	146.700000
538.498901	147.200000
538.592468	147.720000
538.686157	147.180000
538.779785	146.600000
538.873413	146.740000
538.967102	146.300000
539.060730	145.640000
539.154358	146.160000
539.247986	146.760000
539.341675	146.780000
539.435242	146.940000
539.528931	147.060000
539.622559	146.540000
539.716187	147.200000
539.809814	147.200000
539.903503	147.240000
539.997070	146.980000
540.090759	147.440000
540.184387	146.560000
540.278015	146.940000
540.371643	147.120000
540.465332	147.280000
540.558899	146.880000
540.652588	147.060000
540.746216	146.600000
540.839844	146.860000
540.933472	147.280000
541.027100	147.240000
541.120728	147.300000
541.214417	147.380000
541.308044	147.160000
541.401672	146.680000
541.495300	146.760000
541.588928	146.400000
541.682617	146.380000
541.776184	145.940000
541.869873	146.500000
541.963440	146.520000
542.057129	146.760000
542.150757	147.140000
542.244385	147.100000
542.338013	146.520000
542.431641	146.800000
542.525269	146.820000
542.618958	146.940000
542.712524	147.480000
542.806213	147.740000
542.899780	147.840000
542.993469	147.340000
543.087036	147.160000
543.180725	146.640000
543.274292	146.760000
543.367981	146.720000
543.461548	147.460000
543.555237	147.240000
543.648926	147.800000
543.742493	148.360000
543.836182	148.260000
543.929749	148.040000
544.023437	148.180000
544.117004	148.200000
544.210693	147.920000
544.304260	148.200000
544.397949	148.020000
544.491516	148.200000
544.585205	147.860000
544.678772	147.240000
544.772461	147.160000
544.866028	147.100000
544.959717	147.100000
545.053284	147.000000
545.146973	147.600000
545.240540	147.680000
545.334229	148.500000
545.427795	148.560000
545.521423	148.940000
545.615051	148.680000
545.708679	149.000000
545.802307	148.340000
545.895935	148.540000
545.989624	149.060000
546.083191	149.100000
546.176880	148.580000
546.270447	148.600000
546.364136	148.540000
546.457703	147.940000
546.551331	147.660000
546.644958	147.920000
546.738586	148.080000
546.832214	147.620000
546.925842	147.360000
547.019409	147.720000
547.113098	147.140000
547.206665	146.380000
547.300354	146.220000
547.393921	146.500000
547.487549	146.400000
547.581177	146.420000
547.674805	146.620000
547.768433	146.160000
547.862061	146.080000
547.955627	145.540000
548.049316	146.180000
548.142883	146.480000
548.236572	147.260000
548.330139	147.080000
548.423767	146.940000
548.517456	146.500000
548.611023	146.580000
548.704651	145.760000
548.798279	145.860000
548.891907	146.660000
548.985474	146.300000
549.079163	146.460000
549.172729	146.400000
549.266357	146.000000
549.359985	145.940000
549.453613	145.440000
549.547180	144.960000
549.640869	145.800000
549.734436	145.900000
549.828064	145.940000
549.921631	146.140000
550.015320	145.900000
550.108887	146.060000
550.202515	146.220000
550.296143	145.640000
550.389771	146.120000
550.483337	146.300000
550.576965	145.940000
550.670593	146.180000
550.764221	146.440000
550.857849	146.440000
550.951477	146.500000
551.045105	146.100000
551.138672	145.880000
551.232300	145.300000
551.325928	145.620000
551.419556	145.840000
551.513123	145.940000
551.606750	145.740000
551.700378	146.380000
551.794006	146.240000
551.887573	146.080000
551.981201	146.240000
552.074768	146.420000
552.168457	145.900000
552.262024	146.380000
552.355652	146.460000
552.449219	147.020000
552.542847	147.160000
552.636475	147.260000
552.730103	146.040000
552.823669	145.640000
552.917297	145.220000
553.010864	145.120000
553.104553	145.520000
553.198181	145.780000
553.291748	146.400000
553.385376	146.480000
553.478943	146.460000
553.572571	146.340000
553.666199	146.760000
553.759827	146.260000
553.853394	145.880000
553.947021	145.860000
554.040588	145.860000
554.134216	145.840000
554.227783	146.480000
554.321411	147.280000
554.415039	146.860000
554.508667	146.640000
554.602234	146.880000
554.695862	146.320000
554.789429	145.980000
554.883057	146.120000
554.976624	146.220000
555.070251	145.880000
555.163818	146.120000
555.257507	146.040000
555.351074	146.300000
555.444702	147.500000
555.538330	147.240000
555.631897	147.420000
555.725525	147.440000
555.819092	147.260000
555.912720	146.080000
556.006287	146.560000
556.099915	146.200000
556.193481	146.180000
556.287109	146.660000
556.380676	146.800000
556.474304	146.820000
556.567871	147.300000
556.661499	146.740000
556.755066	146.480000
556.848694	146.400000
556.942261	146.200000
557.035889	146.040000
557.129517	146.400000
557.223145	146.900000
557.316711	147.140000
557.410339	147.240000
557.503906	147.140000
557.597473	147.340000
557.691040	146.580000
557.784668	146.540000
557.878296	146.460000
557.971863	146.560000
558.065491	146.520000
558.159058	146.760000
558.252686	147.040000
558.346252	147.880000
558.439880	147.360000
558.533447	147.020000
558.627075	146.700000
558.720642	146.300000
558.814270	145.700000
558.907837	145.800000
559.001465	145.620000
559.095032	146.480000
559.188660	146.460000
559.282227	145.760000
559.375854	146.620000
559.469360	146.500000
559.562988	146.520000
559.656555	146.740000
559.750183	147.400000
559.843750	147.280000
559.937378	147.720000
560.030945	147.480000
560.124573	0.000000
560.218140	0.000000
560.311707	0.000000
560.405334	0.000000
560.498901	0.000000
560.592529	0.000000
560.686096	0.000000
560.779724	0.000000
560.873291	0.000000
560.966858	0.000000
561.060425	0.000000
561.154053	0.000000
561.247620	0.000000
561.341248	0.000000
561.434814	0.000000
561.528381	0.000000
561.621948	0.000000
561.715576	0.000000
561.809143	0.000000
561.902771	0.000000
561.996277	0.000000
562.089905	0.000000
562.183472	0.000000
562.277100	0.000000
