Model Number: SPM-002-B   
Serial Number: 70087108
Firmware Version: 004.15.4
Exposure Time: 100000.000000us
Data Taken on: 11-12-2020 19:28:11.065
Wavelength	Amplitude
221.570786	0.000000
221.663406	0.000000
221.756027	0.000000
221.848648	0.000000
221.941269	0.000000
222.033905	0.000000
222.126526	0.000000
222.219162	0.000000
222.311798	0.000000
222.404419	0.000000
222.497055	0.000000
222.589676	0.000000
222.682312	0.000000
222.774933	0.000000
222.867569	0.000000
222.960205	0.000000
223.052841	0.000000
223.145462	0.000000
223.238098	0.000000
223.330734	0.000000
223.423386	0.000000
223.516022	0.000000
223.608658	0.000000
223.701309	0.000000
223.793945	0.000000
223.886581	0.000000
223.979218	0.000000
224.071869	0.000000
224.164505	0.000000
224.257156	0.000000
224.349792	0.000000
224.442444	0.000000
224.535095	0.000000
224.627747	0.000000
224.720398	0.000000
224.813034	0.000000
224.905685	0.000000
224.998337	146.220000
225.090988	145.900000
225.183640	146.020000
225.276291	145.900000
225.368942	146.100000
225.461594	146.640000
225.554245	146.820000
225.646912	146.780000
225.739578	147.220000
225.832230	147.480000
225.924896	146.360000
226.017548	146.460000
226.110199	147.020000
226.202866	146.440000
226.295532	146.220000
226.388184	146.720000
226.480850	146.340000
226.573517	145.940000
226.666168	146.220000
226.758835	146.740000
226.851501	147.500000
226.944183	147.480000
227.036850	146.920000
227.129517	146.900000
227.222183	146.640000
227.314850	146.060000
227.407516	146.700000
227.500198	147.640000
227.592865	147.420000
227.685532	147.060000
227.778214	146.980000
227.870880	146.920000
227.963562	147.000000
228.056229	147.320000
228.148926	147.340000
228.241592	148.060000
228.334274	148.060000
228.426956	147.700000
228.519638	147.960000
228.612305	147.500000
228.704987	147.180000
228.797668	146.800000
228.890350	146.420000
228.983032	145.680000
229.075714	146.840000
229.168396	146.480000
229.261108	146.320000
229.353790	146.700000
229.446472	147.060000
229.539169	146.360000
229.631851	146.140000
229.724533	146.540000
229.817230	146.740000
229.909912	147.700000
230.002609	147.800000
230.095306	147.820000
230.187988	147.900000
230.280685	147.780000
230.373383	146.620000
230.466095	146.660000
230.558792	147.200000
230.651474	146.980000
230.744171	146.900000
230.836868	146.440000
230.929581	146.420000
231.022278	146.420000
231.114975	146.420000
231.207672	146.080000
231.300369	146.760000
231.393082	146.900000
231.485779	146.440000
231.578506	146.340000
231.671204	146.640000
231.763916	146.660000
231.856613	146.560000
231.949326	146.900000
232.042023	147.080000
232.134735	146.780000
232.227448	146.480000
232.320160	146.900000
232.412872	146.660000
232.505585	147.200000
232.598297	147.880000
232.691010	147.860000
232.783722	147.120000
232.876450	147.780000
232.969162	147.220000
233.061874	146.720000
233.154587	146.540000
233.247314	146.980000
233.340027	146.040000
233.432739	146.120000
233.525467	145.960000
233.618179	146.400000
233.710907	145.900000
233.803635	146.600000
233.896347	146.560000
233.989090	147.240000
234.081818	147.320000
234.174545	147.780000
234.267258	147.220000
234.359985	147.240000
234.452713	146.940000
234.545441	146.640000
234.638168	146.600000
234.730896	147.360000
234.823639	147.500000
234.916367	148.000000
235.009094	148.240000
235.101822	148.200000
235.194580	147.760000
235.287308	147.480000
235.380051	146.680000
235.472778	146.940000
235.565521	146.980000
235.658249	146.580000
235.750992	146.880000
235.843719	147.040000
235.936462	146.960000
236.029205	146.680000
236.121948	146.680000
236.214691	146.700000
236.307449	147.240000
236.400192	146.740000
236.492935	146.440000
236.585678	146.960000
236.678421	146.900000
236.771164	146.580000
236.863907	147.240000
236.956665	147.840000
237.049408	149.100000
237.142151	148.720000
237.234909	149.240000
237.327652	149.040000
237.420410	148.660000
237.513153	147.660000
237.605927	147.440000
237.698669	146.960000
237.791428	146.280000
237.884186	146.880000
237.976944	146.300000
238.069702	146.880000
238.162445	146.280000
238.255203	146.560000
238.347961	146.720000
238.440720	146.560000
238.533478	146.440000
238.626266	146.340000
238.719025	146.720000
238.811783	146.400000
238.904541	146.560000
238.997314	146.280000
239.090073	146.460000
239.182831	146.480000
239.275604	147.140000
239.368362	146.900000
239.461136	147.000000
239.553909	147.040000
239.646667	146.700000
239.739441	146.040000
239.832214	146.660000
239.925003	146.820000
240.017761	147.400000
240.110535	148.060000
240.203308	147.800000
240.296082	147.780000
240.388855	147.720000
240.481628	147.720000
240.574417	147.500000
240.667191	147.680000
240.759964	147.300000
240.852737	147.220000
240.945526	146.780000
241.038315	146.560000
241.131088	146.620000
241.223877	146.840000
241.316650	146.600000
241.409439	146.740000
241.502228	146.480000
241.595001	146.760000
241.687790	146.460000
241.780579	146.720000
241.873367	146.940000
241.966141	147.260000
242.058929	146.720000
242.151718	147.120000
242.244507	147.420000
242.337311	146.760000
242.430099	147.060000
242.522903	147.420000
242.615692	146.840000
242.708481	146.980000
242.801270	147.340000
242.894073	146.740000
242.986862	146.960000
243.079651	147.580000
243.172455	146.980000
243.265244	147.460000
243.358063	147.260000
243.450867	147.200000
243.543655	147.100000
243.636459	147.360000
243.729263	147.120000
243.822067	147.880000
243.914856	147.920000
244.007660	147.980000
244.100464	147.720000
244.193268	147.420000
244.286072	146.900000
244.378876	146.480000
244.471680	146.040000
244.564499	146.340000
244.657318	147.040000
244.750122	147.640000
244.842926	147.180000
244.935745	147.760000
245.028549	147.460000
245.121368	147.040000
245.214172	146.560000
245.306992	147.160000
245.399796	146.640000
245.492615	146.680000
245.585434	146.480000
245.678253	146.440000
245.771072	146.440000
245.863892	147.020000
245.956711	147.480000
246.049530	147.540000
246.142349	147.600000
246.235168	147.680000
246.327988	148.020000
246.420807	147.760000
246.513626	147.760000
246.606445	147.600000
246.699280	147.300000
246.792099	146.740000
246.884918	146.260000
246.977753	145.820000
247.070587	145.940000
247.163422	146.300000
247.256241	146.260000
247.349075	146.700000
247.441895	147.140000
247.534729	147.180000
247.627563	146.700000
247.720383	147.360000
247.813217	147.060000
247.906052	146.780000
247.998886	147.120000
248.091736	147.280000
248.184570	146.840000
248.277405	147.200000
248.370239	148.360000
248.463074	148.900000
248.555908	149.180000
248.648743	148.680000
248.741592	148.820000
248.834427	147.760000
248.927261	146.760000
249.020111	146.960000
249.112946	147.880000
249.205795	147.180000
249.298630	147.520000
249.391495	147.600000
249.484344	147.200000
249.577179	146.940000
249.670029	147.560000
249.762878	147.840000
249.855728	147.860000
249.948563	147.960000
250.041412	147.420000
250.134262	147.400000
250.227112	147.360000
250.319962	147.420000
250.412827	147.520000
250.505692	147.340000
250.598541	147.400000
250.691391	146.820000
250.784241	147.160000
250.877106	147.220000
250.969955	147.380000
251.062805	147.860000
251.155670	148.400000
251.248520	147.660000
251.341385	147.580000
251.434235	147.500000
251.527100	146.940000
251.619965	146.620000
251.712814	147.640000
251.805695	147.400000
251.898560	147.800000
251.991425	147.700000
252.084290	147.940000
252.177155	147.220000
252.270020	147.240000
252.362885	147.120000
252.455750	147.260000
252.548615	146.720000
252.641479	146.440000
252.734360	146.400000
252.827240	146.320000
252.920105	146.540000
253.012970	146.740000
253.105850	146.920000
253.198715	146.700000
253.291595	146.580000
253.384460	146.160000
253.477341	146.020000
253.570221	146.500000
253.663086	146.580000
253.755966	147.280000
253.848846	147.500000
253.941727	147.940000
254.034592	147.740000
254.127472	147.540000
254.220367	147.240000
254.313248	147.240000
254.406128	146.640000
254.499008	146.880000
254.591904	147.560000
254.684784	148.000000
254.777664	148.000000
254.870544	148.240000
254.963440	147.980000
255.056335	147.720000
255.149216	147.340000
255.242111	147.540000
255.334991	148.020000
255.427887	148.040000
255.520767	148.300000
255.613663	148.260000
255.706558	147.400000
255.799438	147.080000
255.892334	146.600000
255.985229	146.500000
256.078125	146.560000
256.171021	147.140000
256.263916	147.300000
256.356812	148.140000
256.449707	148.140000
256.542603	147.800000
256.635498	148.240000
256.728394	148.140000
256.821289	147.340000
256.914215	147.380000
257.007080	147.520000
257.100006	147.480000
257.192932	147.960000
257.285828	148.260000
257.378723	147.960000
257.471619	147.800000
257.564545	147.260000
257.657440	146.860000
257.750336	147.540000
257.843262	147.420000
257.936157	148.340000
258.029053	149.000000
258.121979	149.000000
258.214874	148.260000
258.307800	148.340000
258.400696	147.220000
258.493622	146.540000
258.586517	145.880000
258.679443	146.340000
258.772339	146.040000
258.865265	146.040000
258.958160	145.780000
259.051086	146.600000
259.144012	146.200000
259.236938	146.960000
259.329834	147.320000
259.422791	147.600000
259.515717	147.020000
259.608612	146.720000
259.701538	146.720000
259.794464	146.600000
259.887390	146.600000
259.980316	146.840000
260.073212	146.900000
260.166138	145.560000
260.259064	145.760000
260.351990	146.260000
260.444916	146.160000
260.537842	146.760000
260.630768	148.000000
260.723694	147.620000
260.816620	147.320000
260.909546	147.360000
261.002472	146.680000
261.095398	146.020000
261.188354	146.240000
261.281281	145.720000
261.374207	145.740000
261.467133	146.560000
261.560089	146.900000
261.653015	146.560000
261.745972	147.520000
261.838867	147.820000
261.931824	147.900000
262.024780	147.480000
262.117706	147.800000
262.210663	147.820000
262.303589	147.660000
262.396515	147.240000
262.489471	148.320000
262.582397	148.180000
262.675354	147.440000
262.768280	147.300000
262.861237	147.460000
262.954163	147.140000
263.047119	147.340000
263.140045	147.400000
263.233002	147.520000
263.325958	147.520000
263.418884	146.860000
263.511841	146.820000
263.604797	147.040000
263.697723	147.140000
263.790680	146.840000
263.883636	147.360000
263.976593	146.840000
264.069550	146.820000
264.162476	146.140000
264.255463	146.060000
264.348419	145.740000
264.441376	146.580000
264.534332	146.260000
264.627289	146.880000
264.720245	147.300000
264.813202	147.120000
264.906158	147.040000
264.999115	147.400000
265.092072	146.960000
265.185028	147.240000
265.277985	147.520000
265.370941	146.980000
265.463898	146.640000
265.556854	146.680000
265.649811	145.820000
265.742798	145.820000
265.835754	146.260000
265.928711	146.820000
266.021667	146.920000
266.114655	147.280000
266.207611	147.640000
266.300568	147.060000
266.393585	146.620000
266.486511	146.980000
266.579498	146.320000
266.672485	146.000000
266.765442	145.920000
266.858429	146.300000
266.951385	145.600000
267.044342	146.040000
267.137329	145.780000
267.230316	146.440000
267.323273	145.740000
267.416260	146.480000
267.509216	146.360000
267.602203	146.300000
267.695160	146.600000
267.788147	146.840000
267.881134	146.340000
267.974091	146.680000
268.067078	146.740000
268.160065	146.260000
268.253052	146.280000
268.346008	146.540000
268.438995	146.280000
268.531982	146.500000
268.624969	146.280000
268.717987	146.360000
268.810944	146.220000
268.903961	146.240000
268.996948	145.860000
269.089905	146.380000
269.182892	146.620000
269.275879	146.960000
269.368866	146.740000
269.461853	147.200000
269.554871	146.980000
269.647858	146.820000
269.740845	147.320000
269.833832	147.780000
269.926819	147.280000
270.019806	147.180000
270.112793	146.760000
270.205811	146.360000
270.298798	146.000000
270.391785	146.880000
270.484772	146.540000
270.577789	146.860000
270.670776	146.120000
270.763763	146.180000
270.856750	145.800000
270.949768	145.800000
271.042786	145.940000
271.135773	146.520000
271.228790	147.160000
271.321808	146.540000
271.414795	146.460000
271.507782	146.040000
271.600800	145.540000
271.693817	145.380000
271.786804	146.340000
271.879822	146.440000
271.972809	146.760000
272.065826	147.220000
272.158844	146.320000
272.251831	146.560000
272.344849	146.780000
272.437866	146.180000
272.530853	146.300000
272.623871	146.980000
272.716888	145.980000
272.809906	146.420000
272.902893	146.760000
272.995911	146.280000
273.088928	146.340000
273.181946	146.860000
273.274963	146.420000
273.367981	146.620000
273.460999	146.940000
273.554047	147.040000
273.647003	147.420000
273.740051	147.460000
273.833069	147.840000
273.926086	147.900000
274.019135	147.680000
274.112152	147.180000
274.205170	147.280000
274.298187	147.060000
274.391205	146.580000
274.484222	146.600000
274.577240	146.480000
274.670258	146.220000
274.763306	146.080000
274.856323	146.380000
274.949341	146.500000
275.042358	147.020000
275.135406	147.100000
275.228424	147.040000
275.321442	147.100000
275.414490	146.680000
275.507507	146.780000
275.600525	147.280000
275.693573	147.180000
275.786591	146.920000
275.879669	147.380000
275.972656	146.800000
276.065735	146.240000
276.158752	146.680000
276.251801	147.380000
276.344818	147.280000
276.437866	147.200000
276.530884	147.160000
276.623932	146.300000
276.716980	146.280000
276.809998	145.960000
276.903046	146.180000
276.996094	146.980000
277.089111	147.840000
277.182159	147.980000
277.275208	148.280000
277.368256	148.540000
277.461304	147.940000
277.554321	147.260000
277.647369	146.900000
277.740417	146.560000
277.833466	146.260000
277.926514	146.220000
278.019562	146.900000
278.112610	146.480000
278.205688	146.900000
278.298706	146.780000
278.391785	146.760000
278.484833	146.160000
278.577881	146.080000
278.670929	146.100000
278.763977	146.320000
278.857025	146.740000
278.950073	147.100000
279.043121	146.920000
279.136169	146.800000
279.229248	146.800000
279.322296	146.540000
279.415344	146.160000
279.508392	146.560000
279.601440	146.380000
279.694519	146.020000
279.787567	145.880000
279.880615	146.000000
279.973694	145.540000
280.066742	145.620000
280.159790	146.120000
280.252869	145.880000
280.345917	145.900000
280.438995	146.260000
280.532074	146.360000
280.625122	146.460000
280.718201	147.200000
280.811279	147.380000
280.904327	147.580000
280.997406	147.600000
281.090454	147.100000
281.183533	146.720000
281.276581	146.720000
281.369659	145.940000
281.462738	146.080000
281.555786	146.520000
281.648865	146.420000
281.741943	146.260000
281.835022	147.280000
281.928070	146.820000
282.021149	146.900000
282.114227	146.940000
282.207306	147.100000
282.300385	146.960000
282.393433	147.180000
282.486511	146.980000
282.579590	147.300000
282.672668	147.320000
282.765747	146.920000
282.858856	146.620000
282.951904	146.540000
283.045013	146.480000
283.138062	146.940000
283.231171	147.400000
283.324249	148.280000
283.417328	148.620000
283.510406	148.260000
283.603485	147.940000
283.696564	147.740000
283.789642	147.200000
283.882751	146.760000
283.975830	147.180000
284.068909	146.840000
284.161987	147.280000
284.255066	147.160000
284.348175	147.200000
284.441254	146.980000
284.534332	147.580000
284.627441	146.920000
284.720520	146.740000
284.813599	146.960000
284.906708	147.120000
284.999786	146.360000
285.092896	146.380000
285.185974	147.440000
285.279053	146.720000
285.372192	146.580000
285.465240	147.300000
285.558380	147.380000
285.651459	146.820000
285.744568	147.960000
285.837677	147.680000
285.930756	147.400000
286.023865	147.260000
286.116943	146.800000
286.210052	146.540000
286.303162	146.860000
286.396240	147.020000
286.489349	146.920000
286.582458	147.480000
286.675568	147.440000
286.768646	147.360000
286.861755	147.440000
286.954865	148.100000
287.047974	147.540000
287.141083	146.940000
287.234161	146.660000
287.327271	146.640000
287.420380	147.080000
287.513519	147.080000
287.606598	147.300000
287.699738	147.580000
287.792816	147.380000
287.885956	146.700000
287.979034	146.700000
288.072174	146.640000
288.165283	146.680000
288.258392	146.740000
288.351501	146.080000
288.444611	146.300000
288.537720	146.820000
288.630859	146.640000
288.723969	146.620000
288.817078	147.340000
288.910187	147.660000
289.003296	147.200000
289.096436	146.940000
289.189545	146.520000
289.282654	146.080000
289.375763	146.080000
289.468903	146.560000
289.562012	146.940000
289.655121	147.380000
289.748260	147.580000
289.841400	147.820000
289.934509	147.520000
290.027649	147.540000
290.120728	147.600000
290.213898	147.760000
290.306976	147.180000
290.400146	147.380000
290.493256	147.000000
290.586395	146.880000
290.679535	147.140000
290.772644	147.340000
290.865784	146.280000
290.958893	146.220000
291.052032	146.200000
291.145172	145.820000
291.238281	145.580000
291.331421	146.320000
291.424561	147.060000
291.517670	146.800000
291.610809	146.980000
291.703949	146.780000
291.797089	146.880000
291.890228	146.260000
291.983337	146.480000
292.076477	146.600000
292.169617	147.080000
292.262756	147.020000
292.355927	147.160000
292.449036	146.980000
292.542206	146.860000
292.635315	146.660000
292.728485	146.580000
292.821625	146.180000
292.914764	147.140000
293.007904	147.240000
293.101044	147.200000
293.194183	147.160000
293.287323	147.560000
293.380463	146.960000
293.473602	146.840000
293.566742	146.940000
293.659882	147.500000
293.753021	147.640000
293.846191	147.280000
293.939331	146.860000
294.032471	146.920000
294.125610	146.480000
294.218781	146.780000
294.311920	147.160000
294.405060	147.360000
294.498230	147.200000
294.591370	147.600000
294.684540	146.980000
294.777679	146.380000
294.870850	146.680000
294.963959	146.680000
295.057159	146.080000
295.150299	146.440000
295.243469	146.300000
295.336609	145.560000
295.429779	145.540000
295.522919	146.040000
295.616089	145.820000
295.709229	146.620000
295.802399	147.220000
295.895569	146.720000
295.988708	146.240000
296.081879	146.480000
296.175018	146.180000
296.268188	146.080000
296.361359	146.580000
296.454529	146.780000
296.547668	146.760000
296.640839	146.980000
296.734009	146.800000
296.827179	147.140000
296.920319	147.560000
297.013519	147.160000
297.106659	147.280000
297.199860	147.380000
297.292999	147.020000
297.386200	146.420000
297.479309	146.460000
297.572510	146.500000
297.665680	146.500000
297.758850	146.600000
297.852020	146.520000
297.945190	146.360000
298.038361	145.480000
298.131531	146.360000
298.224701	146.240000
298.317871	146.020000
298.411072	145.760000
298.504242	146.000000
298.597412	145.100000
298.690582	145.380000
298.783752	145.640000
298.876923	146.200000
298.970093	146.300000
299.063293	146.600000
299.156464	146.580000
299.249634	147.060000
299.342834	147.400000
299.436005	147.440000
299.529205	147.180000
299.622345	147.400000
299.715576	146.800000
299.808716	146.320000
299.901917	146.600000
299.995117	146.780000
300.088287	146.680000
300.181488	146.520000
300.274658	146.340000
300.367828	146.340000
300.461029	146.260000
300.554199	146.520000
300.647400	146.700000
300.740601	147.400000
300.833771	147.060000
300.926971	147.220000
301.020142	146.440000
301.113342	146.420000
301.206512	146.180000
301.299713	146.560000
301.392914	146.600000
301.486084	147.160000
301.579285	147.380000
301.672516	147.520000
301.765686	147.300000
301.858887	147.220000
301.952057	147.100000
302.045288	146.800000
302.138458	146.940000
302.231659	146.840000
302.324860	146.420000
302.418060	146.340000
302.511261	146.580000
302.604462	146.460000
302.697662	146.380000
302.790863	146.640000
302.884064	146.360000
302.977264	146.300000
303.070465	146.280000
303.163666	146.900000
303.256866	147.440000
303.350067	147.680000
303.443268	147.760000
303.536469	147.960000
303.629669	147.680000
303.722870	147.240000
303.816071	147.000000
303.909271	146.840000
304.002472	146.180000
304.095673	145.940000
304.188934	145.160000
304.282104	146.180000
304.375336	146.080000
304.468506	146.200000
304.561768	145.860000
304.654968	147.000000
304.748169	146.160000
304.841370	146.280000
304.934601	146.720000
305.027802	146.640000
305.121002	146.300000
305.214233	146.520000
305.307434	146.560000
305.400665	146.880000
305.493866	147.000000
305.587097	147.160000
305.680298	146.700000
305.773499	147.400000
305.866730	147.040000
305.959930	147.400000
306.053162	147.380000
306.146393	147.480000
306.239594	146.480000
306.332825	146.280000
306.426025	146.900000
306.519287	146.280000
306.612488	146.660000
306.705719	147.040000
306.798920	147.320000
306.892181	146.540000
306.985352	146.520000
307.078613	145.620000
307.171844	145.860000
307.265045	145.120000
307.358276	144.840000
307.451508	145.600000
307.544739	146.400000
307.637970	145.940000
307.731201	146.300000
307.824402	147.140000
307.917633	147.040000
308.010864	147.320000
308.104095	147.660000
308.197327	147.820000
308.290558	147.700000
308.383789	147.280000
308.477020	146.740000
308.570251	146.220000
308.663483	146.080000
308.756714	145.660000
308.849976	145.820000
308.943176	146.540000
309.036438	146.620000
309.129639	146.240000
309.222900	146.340000
309.316101	146.020000
309.409393	145.460000
309.502625	145.360000
309.595856	145.820000
309.689087	146.120000
309.782318	146.520000
309.875580	146.380000
309.968811	146.940000
310.062042	146.380000
310.155273	146.060000
310.248535	146.460000
310.341766	146.500000
310.434998	145.980000
310.528259	146.180000
310.621490	146.620000
310.714722	146.160000
310.807983	146.120000
310.901215	146.400000
310.994476	146.620000
311.087708	145.980000
311.181000	146.020000
311.274200	145.700000
311.367462	145.740000
311.460693	145.160000
311.553986	145.980000
311.647186	146.400000
311.740479	147.140000
311.833710	146.800000
311.926971	147.400000
312.020203	146.740000
312.113464	146.320000
312.206726	145.720000
312.299957	146.300000
312.393219	146.700000
312.486481	146.900000
312.579712	147.000000
312.672974	147.160000
312.766235	146.840000
312.859497	146.560000
312.952759	146.140000
313.045990	146.900000
313.139252	146.340000
313.232513	146.340000
313.325775	146.280000
313.419037	146.380000
313.512299	145.220000
313.605530	146.020000
313.698822	146.360000
313.792053	146.360000
313.885345	146.400000
313.978577	146.560000
314.071869	146.000000
314.165131	145.900000
314.258392	146.020000
314.351654	146.140000
314.444916	145.720000
314.538177	146.460000
314.631439	146.360000
314.724701	146.280000
314.817993	146.100000
314.911255	146.620000
315.004517	146.280000
315.097778	146.180000
315.191040	146.520000
315.284302	146.920000
315.377594	146.600000
315.470856	146.480000
315.564117	146.360000
315.657379	145.720000
315.750671	145.260000
315.843933	145.780000
315.937195	145.480000
316.030518	145.380000
316.123749	145.720000
316.217041	146.700000
316.310303	146.560000
316.403595	146.860000
316.496857	147.160000
316.590149	147.320000
316.683411	146.360000
316.776703	146.460000
316.869965	146.660000
316.963257	146.360000
317.056519	145.800000
317.149811	146.000000
317.243073	145.680000
317.336365	145.640000
317.429626	146.160000
317.522919	146.620000
317.616180	146.420000
317.709473	146.160000
317.802765	146.020000
317.896027	145.720000
317.989319	145.860000
318.082611	145.920000
318.175873	146.300000
318.269165	146.180000
318.362488	146.460000
318.455750	146.080000
318.549042	146.200000
318.642303	146.780000
318.735626	146.920000
318.828888	146.920000
318.922211	146.920000
319.015472	147.440000
319.108765	146.460000
319.202057	145.980000
319.295349	145.860000
319.388641	145.940000
319.481934	145.560000
319.575226	145.780000
319.668518	146.320000
319.761810	146.620000
319.855103	146.680000
319.948395	146.760000
320.041687	146.960000
320.134979	146.520000
320.228271	146.160000
320.321564	146.060000
320.414856	146.040000
320.508148	145.780000
320.601440	146.120000
320.694763	146.040000
320.788025	146.340000
320.881348	146.280000
320.974640	146.100000
321.067963	145.500000
321.161224	145.720000
321.254547	145.180000
321.347839	145.960000
321.441162	146.300000
321.534454	147.100000
321.627747	146.840000
321.721069	147.700000
321.814362	147.400000
321.907654	147.560000
322.000946	147.540000
322.094269	148.240000
322.187561	147.420000
322.280884	147.620000
322.374176	147.380000
322.467468	147.400000
322.560791	147.120000
322.654083	147.760000
322.747406	147.180000
322.840698	147.520000
322.934021	147.840000
323.027344	147.840000
323.120636	148.040000
323.213959	148.320000
323.307251	147.640000
323.400574	147.080000
323.493866	146.740000
323.587219	146.380000
323.680511	146.520000
323.773834	147.100000
323.867157	147.060000
323.960449	147.120000
324.053772	146.880000
324.147095	146.560000
324.240387	146.840000
324.333710	146.940000
324.427032	146.880000
324.520355	147.000000
324.613647	146.780000
324.706970	146.380000
324.800293	146.320000
324.893616	146.700000
324.986938	146.580000
325.080231	146.520000
325.173553	146.720000
325.266876	147.460000
325.360199	147.340000
325.453522	147.180000
325.546875	147.140000
325.640167	147.240000
325.733521	147.060000
325.826813	146.980000
325.920166	146.820000
326.013489	146.640000
326.106812	145.980000
326.200134	145.640000
326.293457	145.400000
326.386780	145.960000
326.480103	146.140000
326.573425	146.340000
326.666748	146.240000
326.760071	146.800000
326.853424	146.480000
326.946747	146.480000
327.040070	147.160000
327.133392	146.820000
327.226715	145.980000
327.320068	145.980000
327.413391	146.620000
327.506714	145.880000
327.600037	146.200000
327.693390	146.720000
327.786713	146.720000
327.880066	146.260000
327.973358	146.420000
328.066742	146.780000
328.160034	146.920000
328.253418	147.200000
328.346710	146.960000
328.440063	146.720000
328.533417	146.440000
328.626740	146.480000
328.720093	146.140000
328.813416	146.300000
328.906769	146.680000
329.000092	147.000000
329.093445	146.560000
329.186768	146.280000
329.280121	146.600000
329.373444	146.500000
329.466797	145.920000
329.560120	146.220000
329.653473	146.600000
329.746796	146.140000
329.840149	146.160000
329.933502	146.200000
330.026825	145.860000
330.120178	145.560000
330.213562	145.680000
330.306854	145.660000
330.400238	145.940000
330.493561	145.760000
330.586945	146.800000
330.680237	147.080000
330.773621	147.280000
330.866974	147.440000
330.960327	148.080000
331.053680	147.300000
331.147003	147.080000
331.240356	147.160000
331.333710	146.880000
331.427063	146.280000
331.520416	146.420000
331.613770	146.160000
331.707123	145.960000
331.800476	146.200000
331.893829	147.400000
331.987152	147.500000
332.080505	147.940000
332.173859	147.780000
332.267212	147.060000
332.360565	146.040000
332.453918	145.680000
332.547333	145.240000
332.640656	145.520000
332.734039	145.860000
332.827362	145.760000
332.920746	146.300000
333.014069	146.620000
333.107452	146.920000
333.200806	147.080000
333.294159	147.380000
333.387543	146.700000
333.480896	146.440000
333.574249	146.060000
333.667603	145.620000
333.760956	146.020000
333.854340	146.360000
333.947693	146.680000
334.041046	146.720000
334.134430	147.260000
334.227783	146.640000
334.321136	146.680000
334.414520	145.920000
334.507874	146.000000
334.601227	146.020000
334.694611	145.920000
334.787964	145.900000
334.881348	146.760000
334.974701	146.500000
335.068085	146.000000
335.161438	146.460000
335.254822	146.320000
335.348175	145.820000
335.441559	145.660000
335.534943	146.640000
335.628296	146.340000
335.721680	146.500000
335.815033	146.900000
335.908417	147.260000
336.001770	146.880000
336.095154	146.900000
336.188538	146.480000
336.281891	146.020000
336.375275	145.660000
336.468658	145.160000
336.562012	145.280000
336.655396	145.660000
336.748779	146.120000
336.842133	146.220000
336.935516	146.740000
337.028900	146.540000
337.122284	146.720000
337.215637	146.980000
337.309021	146.840000
337.402435	146.220000
337.495789	146.260000
337.589203	145.920000
337.682526	145.620000
337.775940	145.920000
337.869324	146.360000
337.962708	146.060000
338.056091	146.520000
338.149475	145.980000
338.242859	145.940000
338.336243	145.780000
338.429626	146.300000
338.523010	146.060000
338.616394	145.960000
338.709778	146.120000
338.803162	146.440000
338.896545	146.140000
338.989929	145.780000
339.083313	146.580000
339.176697	146.340000
339.270081	145.800000
339.363464	146.160000
339.456848	146.600000
339.550232	145.860000
339.643616	145.860000
339.737030	146.060000
339.830383	145.800000
339.923828	145.700000
340.017181	146.020000
340.110596	146.140000
340.203949	146.120000
340.297363	145.920000
340.390778	145.760000
340.484161	145.820000
340.577545	145.660000
340.670959	145.780000
340.764343	145.860000
340.857727	145.900000
340.951111	145.540000
341.044525	145.820000
341.137909	145.300000
341.231293	145.040000
341.324707	144.720000
341.418091	145.860000
341.511505	145.660000
341.604889	145.960000
341.698303	146.320000
341.791687	146.660000
341.885071	145.680000
341.978485	145.360000
342.071899	145.600000
342.165283	146.000000
342.258698	146.300000
342.352081	146.780000
342.445496	147.840000
342.538879	147.480000
342.632324	146.740000
342.725708	146.440000
342.819122	145.860000
342.912506	145.200000
343.005920	145.420000
343.099335	146.500000
343.192719	146.300000
343.286133	146.540000
343.379547	146.700000
343.472931	146.660000
343.566345	145.880000
343.659760	146.280000
343.753143	146.000000
343.846558	145.400000
343.939972	145.320000
344.033386	145.940000
344.126770	145.760000
344.220184	145.820000
344.313599	146.220000
344.407043	146.400000
344.500427	145.420000
344.593872	145.860000
344.687225	145.800000
344.780670	145.860000
344.874054	145.860000
344.967499	146.600000
345.060913	146.460000
345.154327	146.660000
345.247742	146.440000
345.341156	146.160000
345.434570	145.740000
345.527985	145.420000
345.621399	145.420000
345.714813	145.320000
345.808228	145.780000
345.901642	145.740000
345.995056	145.460000
346.088470	145.760000
346.181885	145.860000
346.275299	145.420000
346.368713	145.440000
346.462128	145.180000
346.555573	144.840000
346.648987	145.140000
346.742401	145.220000
346.835815	145.440000
346.929260	145.600000
347.022644	145.720000
347.116119	145.640000
347.209503	146.020000
347.302948	146.920000
347.396362	147.600000
347.489807	147.560000
347.583221	148.100000
347.676636	147.400000
347.770050	146.220000
347.863495	145.680000
347.956909	145.860000
348.050323	145.240000
348.143768	145.640000
348.237183	145.520000
348.330597	146.220000
348.424042	146.520000
348.517456	146.980000
348.610901	147.300000
348.704315	147.440000
348.797760	146.560000
348.891174	145.900000
348.984619	145.060000
349.078033	144.960000
349.171448	145.680000
349.264923	145.720000
349.358337	145.700000
349.451782	146.140000
349.545197	145.580000
349.638641	144.880000
349.732086	144.800000
349.825500	145.400000
349.918945	144.760000
350.012390	145.600000
350.105804	146.020000
350.199249	146.320000
350.292664	146.740000
350.386108	147.340000
350.479553	147.400000
350.572968	147.240000
350.666412	147.400000
350.759857	146.760000
350.853302	147.100000
350.946716	146.660000
351.040161	146.540000
351.133606	146.500000
351.227081	146.680000
351.320465	147.300000
351.413940	147.400000
351.507355	147.640000
351.600830	147.800000
351.694244	147.640000
351.787720	146.980000
351.881104	147.060000
351.974579	147.200000
352.067993	147.820000
352.161469	147.760000
352.254883	147.340000
352.348358	147.180000
352.441803	146.680000
352.535248	146.220000
352.628693	146.440000
352.722137	146.200000
352.815582	146.380000
352.909027	146.720000
353.002472	146.280000
353.095917	146.120000
353.189362	146.580000
353.282806	146.440000
353.376251	146.160000
353.469696	145.960000
353.563141	146.240000
353.656586	146.160000
353.750061	145.740000
353.843475	145.620000
353.936981	146.200000
354.030396	145.700000
354.123871	145.800000
354.217285	146.980000
354.310760	147.480000
354.404175	147.300000
354.497681	147.220000
354.591095	147.140000
354.684570	145.880000
354.777985	145.360000
354.871490	145.280000
354.964935	145.700000
355.058380	145.960000
355.151855	145.920000
355.245300	146.560000
355.338745	147.140000
355.432220	147.440000
355.525665	146.740000
355.619110	147.700000
355.712585	147.280000
355.806030	146.900000
355.899475	146.220000
355.992950	146.820000
356.086426	146.820000
356.179871	147.120000
356.273346	147.040000
356.366791	147.320000
356.460266	147.420000
356.553711	146.840000
356.647186	146.620000
356.740631	146.340000
356.834106	146.220000
356.927551	146.000000
357.021027	146.180000
357.114471	146.280000
357.207947	146.420000
357.301422	146.520000
357.394867	146.600000
357.488342	146.860000
357.581818	146.940000
357.675262	147.260000
357.768738	146.920000
357.862213	146.440000
357.955658	146.160000
358.049133	145.680000
358.142609	145.800000
358.236053	145.840000
358.329529	146.000000
358.423035	146.320000
358.516449	146.180000
358.609955	146.160000
358.703400	147.060000
358.796906	147.580000
358.890350	147.200000
358.983826	147.860000
359.077271	147.340000
359.170776	146.980000
359.264221	146.680000
359.357727	147.020000
359.451172	147.160000
359.544647	147.620000
359.638123	147.180000
359.731598	147.320000
359.825073	147.160000
359.918549	146.840000
360.012024	146.940000
360.105499	147.260000
360.198975	147.140000
360.292450	147.040000
360.385925	147.140000
360.479401	146.460000
360.572876	146.500000
360.666351	146.800000
360.759857	147.000000
360.853302	146.820000
360.946808	146.440000
361.040253	146.280000
361.133759	145.740000
361.227203	145.720000
361.320709	145.500000
361.414154	146.400000
361.507660	146.700000
361.601105	147.600000
361.694641	147.780000
361.788086	147.800000
361.881592	147.860000
361.975067	147.420000
362.068542	147.240000
362.162018	147.340000
362.255524	147.280000
362.348999	147.340000
362.442474	147.620000
362.535950	146.820000
362.629456	146.740000
362.722931	146.600000
362.816406	146.640000
362.909882	146.800000
363.003387	146.920000
363.096863	147.120000
363.190338	147.440000
363.283875	147.300000
363.377319	147.000000
363.470825	147.480000
363.564301	146.680000
363.657806	146.740000
363.751282	146.600000
363.844788	147.520000
363.938232	146.880000
364.031769	147.520000
364.125214	147.780000
364.218750	148.060000
364.312225	146.560000
364.405731	146.840000
364.499207	146.360000
364.592712	146.000000
364.686188	145.840000
364.779694	146.360000
364.873169	146.640000
364.966675	146.660000
365.060150	146.500000
365.153656	146.860000
365.247131	146.980000
365.340637	146.960000
365.434143	147.480000
365.527618	147.700000
365.621155	146.500000
365.714600	146.420000
365.808136	146.360000
365.901611	145.540000
365.995117	145.500000
366.088593	145.820000
366.182129	145.480000
366.275604	145.360000
366.369110	145.340000
366.462585	145.460000
366.556122	146.440000
366.649567	146.780000
366.743103	146.900000
366.836609	146.960000
366.930115	147.240000
367.023590	147.160000
367.117096	146.980000
367.210602	146.860000
367.304108	147.520000
367.397614	147.860000
367.491119	147.340000
367.584595	147.600000
367.678101	147.960000
367.771606	147.460000
367.865112	146.520000
367.958649	146.360000
368.052124	146.220000
368.145660	145.900000
368.239136	146.500000
368.332672	146.700000
368.426147	147.000000
368.519684	146.980000
368.613159	147.200000
368.706696	146.500000
368.800171	146.600000
368.893707	146.280000
368.987183	146.140000
369.080719	146.080000
369.174225	145.880000
369.267731	145.860000
369.361237	146.120000
369.454742	146.420000
369.548248	146.780000
369.641754	146.960000
369.735260	146.980000
369.828766	146.260000
369.922272	146.760000
370.015808	146.040000
370.109314	145.880000
370.202820	146.060000
370.296356	147.120000
370.389832	146.580000
370.483368	146.560000
370.576874	146.700000
370.670410	146.440000
370.763885	145.640000
370.857422	145.720000
370.950928	146.080000
371.044464	147.060000
371.137939	147.300000
371.231476	147.800000
371.324982	148.220000
371.418518	148.260000
371.512024	147.840000
371.605560	147.520000
371.699066	147.440000
371.792572	146.620000
371.886108	146.980000
371.979614	146.360000
372.073120	147.120000
372.166656	147.080000
372.260162	147.640000
372.353668	146.920000
372.447205	146.960000
372.540710	146.500000
372.634277	146.580000
372.727753	146.780000
372.821320	147.020000
372.914795	147.240000
373.008362	147.240000
373.101837	146.940000
373.195404	146.360000
373.288879	146.620000
373.382446	147.280000
373.475922	147.080000
373.569489	147.880000
373.662964	148.420000
373.756531	148.060000
373.850037	147.800000
373.943573	147.900000
374.037109	146.720000
374.130615	146.720000
374.224152	146.700000
374.317657	146.340000
374.411194	146.860000
374.504730	147.020000
374.598236	146.520000
374.691772	146.420000
374.785309	146.440000
374.878815	145.580000
374.972351	146.340000
375.065887	146.140000
375.159454	146.660000
375.252930	146.440000
375.346497	146.860000
375.440002	147.100000
375.533569	147.220000
375.627045	146.720000
375.720612	147.140000
375.814117	147.180000
375.907684	146.660000
376.001160	146.440000
376.094727	146.120000
376.188232	146.540000
376.281799	146.780000
376.375336	146.460000
376.468872	147.100000
376.562408	147.540000
376.655914	147.040000
376.749451	146.900000
376.842987	147.320000
376.936523	147.160000
377.030060	147.200000
377.123596	147.640000
377.217133	147.420000
377.310669	147.400000
377.404205	147.560000
377.497772	147.860000
377.591278	147.340000
377.684845	147.860000
377.778351	147.900000
377.871918	147.760000
377.965424	146.640000
378.058990	146.560000
378.152496	146.180000
378.246063	146.200000
378.339569	146.680000
378.433136	147.280000
378.526642	147.520000
378.620209	147.340000
378.713745	146.960000
378.807312	146.920000
378.900848	146.940000
378.994385	146.980000
379.087921	146.440000
379.181458	146.980000
379.274994	146.300000
379.368530	146.360000
379.462097	146.680000
379.555634	147.340000
379.649170	146.660000
379.742706	146.640000
379.836273	146.740000
379.929810	146.220000
380.023376	145.960000
380.116882	145.980000
380.210449	146.100000
380.303986	145.820000
380.397552	145.560000
380.491058	145.620000
380.584656	145.600000
380.678162	145.760000
380.771729	145.820000
380.865265	146.940000
380.958832	147.280000
381.052368	147.580000
381.145935	147.680000
381.239471	148.160000
381.333008	147.440000
381.426575	147.300000
381.520111	147.600000
381.613647	147.640000
381.707214	147.160000
381.800751	146.920000
381.894318	146.780000
381.987854	146.120000
382.081421	145.800000
382.174988	145.960000
382.268524	145.840000
382.362091	146.120000
382.455627	147.260000
382.549194	147.320000
382.642731	146.880000
382.736298	146.880000
382.829834	146.480000
382.923401	146.360000
383.016937	146.640000
383.110504	147.000000
383.204041	147.220000
383.297607	147.680000
383.391174	147.160000
383.484741	147.600000
383.578278	147.220000
383.671844	146.880000
383.765411	146.260000
383.858948	146.680000
383.952515	146.320000
384.046051	147.060000
384.139618	147.440000
384.233185	147.660000
384.326721	147.220000
384.420288	147.400000
384.513855	147.140000
384.607422	147.400000
384.700989	147.700000
384.794525	147.300000
384.888123	147.240000
384.981659	147.300000
385.075226	146.780000
385.168762	146.400000
385.262360	146.460000
385.355896	145.660000
385.449463	145.400000
385.542999	145.540000
385.636597	146.360000
385.730164	146.900000
385.823730	146.720000
385.917267	146.580000
386.010834	146.900000
386.104401	146.500000
386.197968	146.800000
386.291534	147.380000
386.385101	147.480000
386.478668	147.580000
386.572235	147.500000
386.665802	146.680000
386.759338	146.380000
386.852905	146.280000
386.946472	145.880000
387.040070	145.960000
387.133606	146.220000
387.227203	146.100000
387.320740	146.600000
387.414337	146.360000
387.507874	146.140000
387.601471	146.260000
387.695007	146.280000
387.788605	145.860000
387.882141	146.160000
387.975739	146.260000
388.069275	145.960000
388.162872	146.300000
388.256439	146.240000
388.350037	145.920000
388.443604	145.800000
388.537170	145.680000
388.630737	146.000000
388.724304	146.480000
388.817871	146.520000
388.911438	146.560000
389.005005	147.080000
389.098602	147.100000
389.192169	146.480000
389.285736	147.100000
389.379333	147.140000
389.472870	146.540000
389.566467	146.820000
389.660034	147.160000
389.753632	146.480000
389.847168	146.900000
389.940765	147.420000
390.034332	147.000000
390.127930	146.700000
390.221466	146.760000
390.315063	145.920000
390.408630	145.100000
390.502228	144.440000
390.595795	144.940000
390.689362	145.220000
390.782959	146.100000
390.876526	146.860000
390.970093	147.180000
391.063690	147.260000
391.157257	147.120000
391.250824	146.960000
391.344421	146.620000
391.437988	147.080000
391.531555	147.220000
391.625153	147.340000
391.718750	147.400000
391.812317	147.500000
391.905914	146.820000
391.999481	146.380000
392.093079	146.540000
392.186615	146.900000
392.280243	146.660000
392.373779	147.140000
392.467407	147.760000
392.560944	147.540000
392.654572	146.760000
392.748108	147.080000
392.841736	147.080000
392.935303	146.420000
393.028900	146.560000
393.122467	146.980000
393.216064	146.860000
393.309631	146.340000
393.403229	146.200000
393.496796	145.820000
393.590393	145.140000
393.683990	145.260000
393.777557	145.800000
393.871155	146.080000
393.964722	146.480000
394.058350	146.680000
394.151917	146.620000
394.245514	146.340000
394.339081	146.800000
394.432678	146.780000
394.526245	146.560000
394.619873	146.260000
394.713409	146.360000
394.807037	145.720000
394.900604	146.020000
394.994202	146.380000
395.087769	146.720000
395.181396	146.440000
395.274994	147.360000
395.368561	146.420000
395.462158	146.620000
395.555756	146.140000
395.649353	146.500000
395.742920	145.880000
395.836517	146.940000
395.930115	146.160000
396.023712	146.800000
396.117279	146.920000
396.210876	146.500000
396.304474	146.280000
396.398071	146.720000
396.491669	146.660000
396.585266	146.580000
396.678833	146.840000
396.772461	146.820000
396.866028	147.180000
396.959656	147.320000
397.053223	147.900000
397.146851	148.000000
397.240417	148.820000
397.334015	149.960000
397.427582	151.080000
397.521210	152.400000
397.614807	155.080000
397.708405	158.060000
397.802002	161.640000
397.895599	166.960000
397.989197	173.160000
398.082794	180.780000
398.176392	189.920000
398.269989	201.620000
398.363586	215.060000
398.457184	230.920000
398.550781	248.580000
398.644379	266.260000
398.737976	285.180000
398.831573	305.380000
398.925201	325.640000
399.018768	347.660000
399.112396	373.560000
399.205963	403.240000
399.299591	436.320000
399.393158	474.140000
399.486786	514.220000
399.580353	553.620000
399.673981	586.860000
399.767578	614.820000
399.861206	633.840000
399.954773	643.600000
400.048401	643.220000
400.141998	637.000000
400.235596	625.560000
400.329193	612.380000
400.422791	596.980000
400.516418	581.560000
400.610016	565.300000
400.703613	545.820000
400.797211	518.780000
400.890808	488.360000
400.984436	455.340000
401.078033	421.080000
401.171631	387.540000
401.265259	357.700000
401.358826	330.920000
401.452484	305.400000
401.546051	282.120000
401.639679	259.940000
401.733246	240.500000
401.826904	221.800000
401.920471	206.020000
402.014099	192.100000
402.107697	181.020000
402.201324	172.100000
402.294891	165.280000
402.388550	160.440000
402.482147	156.880000
402.575745	153.660000
402.669373	151.060000
402.762970	149.960000
402.856567	149.160000
402.950195	148.640000
403.043793	148.560000
403.137390	149.060000
403.231018	148.160000
403.324615	148.260000
403.418243	147.780000
403.511841	147.860000
403.605469	147.380000
403.699066	147.700000
403.792694	147.500000
403.886292	147.760000
403.979919	147.680000
404.073517	147.240000
404.167145	147.120000
404.260712	147.100000
404.354370	146.740000
404.447937	146.760000
404.541595	147.300000
404.635162	147.740000
404.728821	147.940000
404.822418	147.580000
404.916046	147.280000
405.009644	147.020000
405.103271	146.760000
405.196899	146.460000
405.290497	146.680000
405.384125	147.040000
405.477722	146.620000
405.571350	146.140000
405.664948	145.960000
405.758575	145.760000
405.852203	144.920000
405.945801	145.280000
406.039429	145.500000
406.133057	145.500000
406.226654	145.600000
406.320312	146.020000
406.413879	145.940000
406.507538	146.460000
406.601135	145.860000
406.694763	146.120000
406.788361	145.920000
406.882019	145.620000
406.975586	145.540000
407.069244	146.380000
407.162872	146.380000
407.256470	146.520000
407.350098	146.760000
407.443726	146.600000
407.537323	146.320000
407.630951	146.440000
407.724579	146.160000
407.818207	146.920000
407.911804	146.680000
408.005432	146.820000
408.099060	146.880000
408.192688	147.340000
408.286285	146.620000
408.379913	146.440000
408.473572	146.120000
408.567169	145.800000
408.660828	145.700000
408.754395	145.740000
408.848053	145.860000
408.941650	146.140000
409.035309	145.780000
409.128906	145.700000
409.222565	145.980000
409.316132	146.420000
409.409790	146.180000
409.503387	146.660000
409.597046	146.420000
409.690674	146.340000
409.784302	146.060000
409.877930	145.820000
409.971558	145.780000
410.065186	145.920000
410.158783	145.480000
410.252411	145.380000
410.346039	146.020000
410.439667	145.860000
410.533295	146.180000
410.626923	146.800000
410.720551	146.780000
410.814209	146.860000
410.907806	147.340000
411.001465	146.780000
411.095062	146.660000
411.188721	147.060000
411.282318	146.600000
411.375977	146.040000
411.469574	146.500000
411.563232	146.380000
411.656830	145.980000
411.750488	145.920000
411.844086	145.620000
411.937744	145.500000
412.031372	145.220000
412.125000	145.240000
412.218628	145.200000
412.312256	146.320000
412.405884	146.860000
412.499512	146.880000
412.593170	146.940000
412.686798	147.360000
412.780426	146.500000
412.874054	146.080000
412.967682	146.040000
413.061310	146.500000
413.154968	146.700000
413.248566	147.120000
413.342224	146.900000
413.435852	147.240000
413.529510	146.500000
413.623108	145.600000
413.716766	145.460000
413.810364	146.160000
413.904022	145.540000
413.997650	145.740000
414.091309	146.580000
414.184906	146.320000
414.278564	145.740000
414.372192	146.420000
414.465851	146.680000
414.559479	146.460000
414.653107	147.400000
414.746735	147.060000
414.840393	147.200000
414.934021	146.760000
415.027649	146.360000
415.121277	145.860000
415.214935	146.520000
415.308563	146.180000
415.402191	146.140000
415.495850	146.180000
415.589478	145.880000
415.683136	145.560000
415.776733	145.640000
415.870422	146.280000
415.964020	146.140000
416.057678	146.420000
416.151306	146.620000
416.244965	146.780000
416.338562	146.660000
416.432251	147.220000
416.525848	147.780000
416.619507	147.820000
416.713165	147.920000
416.806793	147.860000
416.900421	147.760000
416.994080	146.720000
417.087708	146.600000
417.181366	145.880000
417.274994	145.720000
417.368622	146.180000
417.462280	146.900000
417.555908	147.000000
417.649567	147.220000
417.743195	147.260000
417.836853	146.900000
417.930481	147.180000
418.024170	146.980000
418.117767	147.540000
418.211426	147.820000
418.305054	148.020000
418.398712	147.140000
418.492340	147.480000
418.585999	147.500000
418.679626	147.580000
418.773285	147.500000
418.866913	148.060000
418.960571	148.280000
419.054230	148.220000
419.147858	148.160000
419.241516	148.080000
419.335144	147.680000
419.428802	147.280000
419.522461	146.880000
419.616089	146.460000
419.709747	146.620000
419.803375	146.600000
419.897034	146.640000
419.990662	146.700000
420.084320	147.000000
420.177979	147.040000
420.271606	147.420000
420.365295	147.620000
420.458893	147.700000
420.552582	147.900000
420.646210	147.720000
420.739868	147.560000
420.833496	147.240000
420.927155	146.860000
421.020782	146.260000
421.114471	145.700000
421.208069	145.420000
421.301758	145.520000
421.395386	145.780000
421.489044	145.740000
421.582703	145.960000
421.676361	146.820000
421.769989	146.380000
421.863647	146.760000
421.957306	147.000000
422.050934	147.100000
422.144592	146.580000
422.238251	146.640000
422.331909	145.940000
422.425537	145.680000
422.519196	145.700000
422.612854	145.320000
422.706543	145.280000
422.800140	146.100000
422.893829	146.000000
422.987457	145.900000
423.081146	146.220000
423.174744	147.020000
423.268433	146.400000
423.362061	146.680000
423.455750	146.580000
423.549347	146.560000
423.643036	145.700000
423.736664	146.500000
423.830353	146.580000
423.924011	147.020000
424.017639	146.360000
424.111298	146.760000
424.204956	146.580000
424.298615	146.600000
424.392273	146.380000
424.485931	147.120000
424.579559	146.780000
424.673218	146.300000
424.766876	146.400000
424.860535	146.140000
424.954193	146.080000
425.047882	146.680000
425.141510	146.940000
425.235199	146.860000
425.328796	146.660000
425.422485	146.460000
425.516113	145.860000
425.609802	145.660000
425.703430	145.680000
425.797119	145.960000
425.890747	145.840000
425.984436	146.000000
426.078064	145.980000
426.171753	146.020000
426.265411	145.720000
426.359070	146.020000
426.452728	145.980000
426.546356	145.880000
426.640015	145.800000
426.733673	145.820000
426.827332	145.320000
426.920990	146.220000
427.014648	145.740000
427.108307	145.680000
427.201965	146.300000
427.295624	146.620000
427.389282	145.540000
427.482941	146.280000
427.576630	146.300000
427.670258	145.400000
427.763947	145.280000
427.857574	145.380000
427.951263	145.200000
428.044922	144.980000
428.138611	145.500000
428.232239	146.040000
428.325928	146.520000
428.419556	147.000000
428.513245	146.620000
428.606903	147.060000
428.700562	146.420000
428.794220	145.900000
428.887878	145.300000
428.981537	146.120000
429.075195	146.000000
429.168854	146.420000
429.262512	146.580000
429.356201	146.780000
429.449860	146.380000
429.543518	145.980000
429.637177	146.160000
429.730835	146.620000
429.824493	146.540000
429.918182	146.900000
430.011810	146.680000
430.105530	145.860000
430.199158	145.560000
430.292847	145.340000
430.386475	144.840000
430.480164	145.060000
430.573792	145.140000
430.667511	144.980000
430.761139	145.080000
430.854828	145.740000
430.948456	145.940000
431.042145	146.740000
431.135834	146.560000
431.229492	146.780000
431.323151	146.660000
431.416809	146.740000
431.510468	146.540000
431.604156	146.580000
431.697815	146.440000
431.791473	145.940000
431.885132	145.440000
431.978821	145.520000
432.072479	145.620000
432.166138	146.120000
432.259827	146.220000
432.353485	146.680000
432.447174	146.680000
432.540802	146.460000
432.634491	146.500000
432.728149	146.980000
432.821838	147.620000
432.915466	147.100000
433.009186	147.380000
433.102814	146.720000
433.196503	146.020000
433.290131	145.480000
433.383850	146.040000
433.477509	146.260000
433.571167	146.980000
433.664856	147.560000
433.758514	147.820000
433.852173	147.580000
433.945862	147.180000
434.039520	146.860000
434.133179	146.260000
434.226868	145.980000
434.320526	145.280000
434.414185	145.980000
434.507874	145.700000
434.601562	146.300000
434.695221	145.980000
434.788910	146.600000
434.882538	146.300000
434.976257	146.080000
435.069885	146.140000
435.163574	146.300000
435.257233	145.760000
435.350922	145.740000
435.444580	145.880000
435.538269	145.200000
435.631897	145.540000
435.725616	146.300000
435.819275	146.500000
435.912964	146.680000
436.006622	147.380000
436.100311	146.980000
436.193970	146.360000
436.287628	145.880000
436.381317	145.620000
436.474976	145.260000
436.568665	145.160000
436.662323	145.500000
436.756012	145.920000
436.849670	145.800000
436.943390	145.700000
437.037018	145.640000
437.130737	145.560000
437.224365	145.180000
437.318085	145.760000
437.411713	145.800000
437.505432	146.340000
437.599060	146.980000
437.692780	147.700000
437.786407	147.280000
437.880127	147.540000
437.973755	147.120000
438.067474	146.580000
438.161133	146.340000
438.254822	146.940000
438.348480	146.600000
438.442169	147.320000
438.535828	147.480000
438.629517	146.860000
438.723175	146.200000
438.816864	146.620000
438.910553	145.840000
439.004211	146.000000
439.097900	145.600000
439.191559	146.040000
439.285248	145.760000
439.378906	146.380000
439.472626	146.140000
439.566284	146.740000
439.659973	146.520000
439.753632	146.300000
439.847321	146.440000
439.940979	146.420000
440.034698	146.360000
440.128326	145.980000
440.222046	146.080000
440.315674	145.120000
440.409393	145.480000
440.503082	145.420000
440.596741	145.720000
440.690430	146.160000
440.784088	146.300000
440.877777	145.360000
440.971466	145.520000
441.065125	145.040000
441.158813	144.600000
441.252502	144.760000
441.346161	145.160000
441.439850	145.120000
441.533539	145.360000
441.627197	145.680000
441.720886	145.620000
441.814606	145.940000
441.908234	146.340000
442.001953	146.180000
442.095612	146.340000
442.189301	146.640000
442.282959	146.700000
442.376678	146.220000
442.470306	147.120000
442.564026	146.820000
442.657684	147.080000
442.751404	147.000000
442.845032	147.920000
442.938751	147.080000
443.032440	147.180000
443.126099	146.600000
443.219788	147.180000
443.313477	146.800000
443.407166	147.260000
443.500824	147.140000
443.594513	147.380000
443.688202	146.660000
443.781891	145.860000
443.875549	145.480000
443.969238	145.460000
444.062927	145.240000
444.156647	145.300000
444.250275	145.780000
444.343994	146.400000
444.437653	146.380000
444.531372	146.440000
444.625031	146.160000
444.718719	145.860000
444.812378	145.400000
444.906097	145.600000
444.999756	145.260000
445.093445	145.420000
445.187103	145.400000
445.280823	145.840000
445.374512	145.360000
445.468201	145.620000
445.561859	145.520000
445.655548	145.640000
445.749237	145.180000
445.842926	145.500000
445.936615	145.740000
446.030304	145.580000
446.123962	145.860000
446.217651	145.820000
446.311340	146.020000
446.405029	145.740000
446.498749	145.780000
446.592407	145.740000
446.686096	145.980000
446.779755	145.920000
446.873474	146.160000
446.967133	146.460000
447.060852	145.720000
447.154510	145.720000
447.248230	145.440000
447.341858	145.440000
447.435577	144.980000
447.529236	145.260000
447.622955	145.020000
447.716644	145.340000
447.810333	145.320000
447.904022	145.920000
447.997711	145.860000
448.091400	146.200000
448.185059	145.900000
448.278748	146.220000
448.372437	145.920000
448.466125	146.200000
448.559814	146.140000
448.653503	146.700000
448.747192	146.660000
448.840912	147.460000
448.934570	147.760000
449.028290	147.980000
449.121948	147.520000
449.215637	147.240000
449.309296	146.460000
449.403015	146.660000
449.496674	146.400000
449.590393	146.280000
449.684052	146.000000
449.777771	146.840000
449.871429	145.800000
449.965149	145.760000
450.058838	146.220000
450.152527	147.120000
450.246216	146.500000
450.339905	146.960000
450.433594	146.660000
450.527283	147.100000
450.620972	146.680000
450.714661	146.600000
450.808350	146.840000
450.902039	147.320000
450.995728	146.780000
451.089417	146.480000
451.183105	146.540000
451.276794	146.700000
451.370514	146.160000
451.464172	145.320000
451.557892	145.180000
451.651550	145.340000
451.745270	145.120000
451.838928	144.600000
451.932648	145.700000
452.026306	146.060000
452.120026	145.700000
452.213684	146.160000
452.307404	147.040000
452.401062	146.380000
452.494781	146.840000
452.588470	146.880000
452.682159	146.080000
452.775848	146.080000
452.869537	145.840000
452.963226	145.220000
453.056915	145.340000
453.150604	145.420000
453.244293	145.420000
453.337982	146.460000
453.431671	146.760000
453.525360	147.020000
453.619049	147.360000
453.712769	147.500000
453.806427	146.680000
453.900146	146.580000
453.993805	146.520000
454.087555	146.920000
454.181213	146.900000
454.274933	146.900000
454.368591	146.700000
454.462311	146.360000
454.555969	145.840000
454.649689	146.260000
454.743347	146.160000
454.837067	147.120000
454.930756	147.920000
455.024445	148.240000
455.118134	147.960000
455.211853	148.380000
455.305542	147.600000
455.399231	147.180000
455.492920	146.940000
455.586609	147.080000
455.680298	147.120000
455.773987	146.700000
455.867676	146.580000
455.961365	146.780000
456.055084	146.440000
456.148773	146.080000
456.242493	146.460000
456.336151	146.360000
456.429871	146.500000
456.523529	146.760000
456.617249	146.600000
456.710907	147.340000
456.804626	147.420000
456.898315	146.780000
456.992035	146.680000
457.085693	146.580000
457.179413	145.640000
457.273102	146.480000
457.366791	146.700000
457.460480	146.800000
457.554199	147.760000
457.647888	147.640000
457.741577	146.860000
457.835266	146.920000
457.928955	147.000000
458.022644	146.720000
458.116364	147.280000
458.210052	147.360000
458.303741	147.540000
458.397461	146.780000
458.491119	146.320000
458.584839	146.100000
458.678528	145.900000
458.772247	145.560000
458.865906	145.920000
458.959625	146.740000
459.053284	146.620000
459.147003	146.240000
459.240692	146.960000
459.334412	147.320000
459.428070	146.960000
459.521790	146.660000
459.615479	147.020000
459.709198	146.860000
459.802887	146.440000
459.896576	145.960000
459.990265	146.380000
460.083954	146.400000
460.177673	146.040000
460.271362	146.020000
460.365051	146.400000
460.458740	146.180000
460.552429	145.760000
460.646149	145.680000
460.739838	145.440000
460.833527	145.240000
460.927246	145.080000
461.020905	145.260000
461.114655	145.480000
461.208313	145.920000
461.302032	145.420000
461.395691	145.860000
461.489441	146.120000
461.583099	145.520000
461.676819	145.260000
461.770477	145.960000
461.864197	145.340000
461.957916	144.960000
462.051605	145.000000
462.145294	145.720000
462.238983	145.240000
462.332703	146.160000
462.426392	146.720000
462.520081	146.840000
462.613770	146.160000
462.707489	146.600000
462.801178	146.080000
462.894867	145.680000
462.988556	145.700000
463.082275	146.000000
463.175964	145.580000
463.269684	145.700000
463.363342	145.600000
463.457092	145.140000
463.550751	145.140000
463.644470	145.620000
463.738129	145.600000
463.831879	145.940000
463.925537	146.980000
464.019257	146.940000
464.112946	146.740000
464.206665	146.580000
464.300323	146.780000
464.394043	146.220000
464.487762	146.240000
464.581451	146.720000
464.675140	146.820000
464.768829	146.780000
464.862549	147.080000
464.956238	146.780000
465.049927	146.600000
465.143646	146.540000
465.237335	146.180000
465.331024	146.740000
465.424713	146.980000
465.518433	146.820000
465.612152	146.700000
465.705811	147.000000
465.799561	146.260000
465.893219	146.000000
465.986938	145.920000
466.080597	145.960000
466.174347	146.100000
466.268005	146.180000
466.361725	146.160000
466.455414	146.120000
466.549133	145.960000
466.642792	145.900000
466.736542	145.620000
466.830231	146.240000
466.923920	146.040000
467.017609	146.100000
467.111328	145.700000
467.205017	145.880000
467.298706	145.520000
467.392426	146.140000
467.486115	146.360000
467.579803	145.920000
467.673523	146.300000
467.767212	146.420000
467.860901	146.020000
467.954651	146.160000
468.048309	146.700000
468.142029	146.180000
468.235718	146.180000
468.329437	146.080000
468.423096	145.920000
468.516846	146.180000
468.610504	146.100000
468.704224	145.640000
468.797913	145.500000
468.891632	145.440000
468.985291	145.160000
469.079010	145.540000
469.172729	145.240000
469.266418	145.780000
469.360107	145.960000
469.453827	146.060000
469.547516	145.840000
469.641205	146.840000
469.734924	146.880000
469.828613	147.360000
469.922302	147.480000
470.016022	147.600000
470.109711	147.100000
470.203430	146.620000
470.297150	145.600000
470.390808	145.760000
470.484558	145.580000
470.578217	146.260000
470.671936	146.660000
470.765625	147.620000
470.859344	147.020000
470.953003	147.560000
471.046753	146.860000
471.140411	146.140000
471.234131	145.920000
471.327820	146.640000
471.421539	146.540000
471.515228	146.280000
471.608948	146.860000
471.702637	146.460000
471.796326	145.760000
471.890045	145.640000
471.983734	145.860000
472.077423	145.580000
472.171143	145.560000
472.264832	145.760000
472.358521	145.480000
472.452240	145.300000
472.545929	145.760000
472.639648	146.160000
472.733337	146.740000
472.827057	147.160000
472.920746	147.340000
473.014465	147.500000
473.108124	147.240000
473.201874	146.800000
473.295532	146.680000
473.389252	147.060000
473.482941	146.740000
473.576660	146.580000
473.670319	146.460000
473.764069	146.700000
473.857727	146.720000
473.951477	146.960000
474.045166	147.520000
474.138855	147.420000
474.232574	147.100000
474.326263	146.960000
474.419952	147.420000
474.513672	147.060000
474.607361	147.080000
474.701050	147.400000
474.794769	147.780000
474.888458	147.600000
474.982178	147.960000
475.075867	148.240000
475.169586	147.940000
475.263275	147.740000
475.356995	147.400000
475.450653	146.680000
475.544403	146.280000
475.638062	147.040000
475.731812	146.540000
475.825470	146.320000
475.919189	146.860000
476.012878	146.980000
476.106598	146.220000
476.200256	146.720000
476.294006	146.420000
476.387695	146.760000
476.481384	146.540000
476.575104	146.640000
476.668793	146.180000
476.762512	146.340000
476.856201	146.220000
476.949890	146.480000
477.043610	145.680000
477.137299	145.520000
477.230988	145.960000
477.324707	145.540000
477.418396	146.120000
477.512146	146.600000
477.605804	146.800000
477.699524	146.720000
477.793213	146.700000
477.886932	146.120000
477.980591	146.020000
478.074341	145.940000
478.167999	145.360000
478.261749	145.280000
478.355408	145.440000
478.449127	145.780000
478.542816	146.720000
478.636536	147.660000
478.730225	148.220000
478.823944	148.480000
478.917633	148.560000
479.011322	148.520000
479.105042	148.160000
479.198730	147.740000
479.292450	147.120000
479.386139	146.800000
479.479828	146.420000
479.573547	146.580000
479.667267	146.640000
479.760925	147.060000
479.854675	147.480000
479.948334	147.400000
480.042084	147.040000
480.135742	147.480000
480.229462	146.700000
480.323151	146.540000
480.416870	145.880000
480.510529	145.740000
480.604279	145.120000
480.697937	145.960000
480.791656	145.660000
480.885345	145.940000
480.979065	146.040000
481.072754	146.480000
481.166473	146.720000
481.260132	146.740000
481.353882	146.700000
481.447540	146.760000
481.541260	146.840000
481.635010	145.940000
481.728668	146.120000
481.822388	146.120000
481.916077	145.920000
482.009796	145.600000
482.103485	146.280000
482.197205	146.320000
482.290863	146.620000
482.384613	146.880000
482.478271	146.340000
482.571991	146.260000
482.665680	146.100000
482.759399	146.660000
482.853058	147.100000
482.946808	147.360000
483.040466	147.280000
483.134216	147.400000
483.227875	146.600000
483.321594	146.500000
483.415283	146.760000
483.509003	146.560000
483.602661	146.160000
483.696411	146.760000
483.790070	146.720000
483.883789	146.840000
483.977478	147.240000
484.071198	147.640000
484.164917	147.120000
484.258606	146.460000
484.352325	146.440000
484.445984	146.320000
484.539734	146.200000
484.633392	145.620000
484.727142	146.220000
484.820801	145.900000
484.914520	145.980000
485.008209	146.200000
485.101929	147.100000
485.195587	146.560000
485.289337	146.480000
485.382996	146.440000
485.476715	146.420000
485.570404	146.420000
485.664124	146.580000
485.757782	147.260000
485.851532	146.760000
485.945190	146.720000
486.038910	146.740000
486.132599	147.280000
486.226318	146.500000
486.319977	146.620000
486.413727	147.080000
486.507446	147.040000
486.601105	146.200000
486.694855	146.140000
486.788513	146.100000
486.882233	145.780000
486.975922	145.700000
487.069641	145.940000
487.163300	145.900000
487.257050	147.080000
487.350708	146.800000
487.444427	146.360000
487.538116	146.460000
487.631836	146.760000
487.725494	145.980000
487.819214	145.880000
487.912903	146.080000
488.006622	146.500000
488.100281	146.860000
488.194031	146.840000
488.287689	147.100000
488.381409	147.640000
488.475098	147.400000
488.568817	147.540000
488.662476	147.040000
488.756226	147.000000
488.849945	145.980000
488.943604	145.880000
489.037354	145.780000
489.131012	146.040000
489.224731	145.800000
489.318390	146.180000
489.412140	146.100000
489.505798	146.020000
489.599518	145.980000
489.693207	146.580000
489.786926	146.520000
489.880585	146.460000
489.974335	146.620000
490.067993	147.560000
490.161713	147.460000
490.255371	148.120000
490.349121	148.320000
490.442780	147.860000
490.536499	146.840000
490.630188	146.860000
490.723907	146.240000
490.817566	146.340000
490.911285	146.520000
491.004974	146.720000
491.098694	146.280000
491.192413	147.060000
491.286102	146.640000
491.379822	146.500000
491.473480	146.640000
491.567200	146.580000
491.660889	145.640000
491.754608	145.640000
491.848267	145.860000
491.941986	145.380000
492.035675	145.540000
492.129395	145.980000
492.223053	146.140000
492.316772	146.140000
492.410461	146.400000
492.504181	146.260000
492.597839	145.740000
492.691559	145.800000
492.785248	145.740000
492.878967	145.780000
492.972626	145.720000
493.066345	146.000000
493.160034	145.460000
493.253754	145.640000
493.347412	145.320000
493.441132	145.340000
493.534882	146.080000
493.628540	146.960000
493.722260	147.120000
493.815918	147.760000
493.909668	148.440000
494.003326	148.200000
494.097046	147.920000
494.190704	147.480000
494.284454	147.140000
494.378113	147.140000
494.471832	146.820000
494.565491	146.340000
494.659210	146.640000
494.752899	146.340000
494.846619	145.840000
494.940277	146.060000
495.033997	146.200000
495.127686	145.600000
495.221405	145.960000
495.315063	146.160000
495.408783	146.100000
495.502441	146.400000
495.596191	146.800000
495.689850	146.360000
495.783569	146.900000
495.877228	147.100000
495.970947	146.900000
496.064697	146.980000
496.158356	148.040000
496.252075	147.300000
496.345734	146.780000
496.439453	147.500000
496.533142	147.480000
496.626862	147.520000
496.720520	147.540000
496.814240	147.620000
496.907898	147.060000
497.001617	147.040000
497.095306	146.220000
497.189026	146.280000
497.282684	146.680000
497.376404	146.980000
497.470062	146.620000
497.563782	146.820000
497.657471	146.840000
497.751190	146.400000
497.844849	146.180000
497.938568	146.560000
498.032227	146.540000
498.125946	146.640000
498.219635	146.500000
498.313354	146.660000
498.407074	146.240000
498.500732	146.200000
498.594452	146.200000
498.688110	146.180000
498.781830	145.720000
498.875519	146.020000
498.969238	145.820000
499.062897	145.520000
499.156616	146.460000
499.250275	146.800000
499.343994	146.500000
499.437653	146.780000
499.531372	146.960000
499.625061	146.880000
499.718781	146.620000
499.812439	147.360000
499.906158	147.040000
499.999817	147.000000
500.093536	146.420000
500.187195	146.760000
500.280914	146.660000
500.374573	146.920000
500.468323	146.620000
500.561981	147.060000
500.655701	146.680000
500.749420	146.220000
500.843079	146.400000
500.936798	146.640000
501.030457	146.840000
501.124176	147.240000
501.217834	147.140000
501.311554	146.920000
501.405212	146.740000
501.498962	146.000000
501.592621	145.700000
501.686340	146.200000
501.779999	146.660000
501.873718	146.980000
501.967377	147.360000
502.061096	147.640000
502.154755	147.220000
502.248474	146.840000
502.342133	146.800000
502.435852	146.500000
502.529510	146.880000
502.623230	147.540000
502.716888	147.200000
502.810608	147.220000
502.904266	147.580000
502.997986	147.000000
503.091705	146.200000
503.185364	146.380000
503.279083	146.400000
503.372772	146.200000
503.466492	145.800000
503.560150	145.940000
503.653870	146.320000
503.747528	146.500000
503.841248	146.440000
503.934906	146.980000
504.028625	146.680000
504.122284	146.480000
504.216003	146.920000
504.309662	146.680000
504.403381	146.840000
504.497040	147.280000
504.590759	147.160000
504.684418	147.020000
504.778137	147.700000
504.871796	147.880000
504.965515	147.360000
505.059174	147.480000
505.152893	146.580000
505.246521	145.860000
505.340240	145.340000
505.433899	145.720000
505.527618	145.780000
505.621338	146.400000
505.714996	146.500000
505.808716	146.380000
505.902374	147.080000
505.996094	147.280000
506.089752	146.800000
506.183472	146.960000
506.277130	147.140000
506.370850	146.760000
506.464508	146.460000
506.558228	146.620000
506.651886	146.280000
506.745605	146.480000
506.839264	146.340000
506.932983	146.200000
507.026611	146.400000
507.120331	146.840000
507.213989	146.320000
507.307709	146.320000
507.401367	146.880000
507.495087	147.360000
507.588745	146.880000
507.682465	147.680000
507.776123	147.580000
507.869843	147.560000
507.963531	147.100000
508.057190	147.680000
508.150909	147.060000
508.244568	147.280000
508.338287	146.380000
508.431946	146.220000
508.525665	146.100000
508.619324	146.040000
508.713013	146.300000
508.806671	147.200000
508.900391	147.880000
508.994049	147.780000
509.087769	147.720000
509.181427	147.560000
509.275146	147.000000
509.368774	146.060000
509.462494	146.040000
509.556152	146.000000
509.649872	146.280000
509.743530	146.360000
509.837250	146.840000
509.930878	146.860000
510.024597	147.040000
510.118256	146.580000
510.211975	146.740000
510.305695	146.260000
510.399353	146.560000
510.493042	146.980000
510.586700	147.140000
510.680420	147.860000
510.774078	148.180000
510.867798	148.120000
510.961426	147.680000
511.055145	147.620000
511.148804	147.060000
511.242523	147.380000
511.336151	147.440000
511.429871	147.860000
511.523529	147.520000
511.617249	147.240000
511.710876	146.940000
511.804596	146.520000
511.898254	146.340000
511.991974	146.540000
512.085632	146.420000
512.179321	146.580000
512.272949	146.940000
512.366699	147.340000
512.460327	147.420000
512.554077	148.440000
512.647766	148.320000
512.741394	148.000000
512.835144	148.200000
512.928772	147.800000
513.022461	147.420000
513.116150	147.260000
513.209839	148.160000
513.303467	147.220000
513.397217	146.980000
513.490845	146.680000
513.584595	146.720000
513.678223	145.940000
513.771912	146.080000
513.865601	146.780000
513.959290	146.500000
514.052917	146.360000
514.146667	147.060000
514.240295	147.060000
514.333984	147.340000
514.427673	147.200000
514.521362	147.700000
514.614990	146.580000
514.708740	146.700000
514.802368	146.280000
514.896057	146.720000
514.989746	147.120000
515.083435	147.440000
515.177124	147.960000
515.270752	147.740000
515.364502	147.440000
515.458130	147.220000
515.551819	146.860000
515.645508	146.240000
515.739197	146.480000
515.832825	146.600000
515.926575	145.840000
516.020203	146.720000
516.113892	147.160000
516.207520	147.000000
516.301270	147.180000
516.394897	147.680000
516.488586	147.560000
516.582275	147.420000
516.675964	147.000000
516.769592	146.700000
516.863281	147.180000
516.956970	147.120000
517.050659	146.920000
517.144287	147.200000
517.238037	147.380000
517.331665	146.580000
517.425354	146.260000
517.519043	146.100000
517.612732	146.460000
517.706421	146.220000
517.800049	146.140000
517.893738	145.900000
517.987427	145.940000
518.081116	145.740000
518.174744	145.560000
518.268433	146.100000
518.362122	147.080000
518.455811	146.940000
518.549438	147.400000
518.643127	148.620000
518.736816	148.020000
518.830505	147.240000
518.924133	147.160000
519.017822	146.960000
519.111511	146.140000
519.205200	146.920000
519.298828	146.900000
519.392517	146.960000
519.486206	147.180000
519.579895	147.240000
519.673523	146.720000
519.767212	146.920000
519.860901	147.400000
519.954590	146.980000
520.048279	146.680000
520.141907	146.680000
520.235596	147.640000
520.329224	147.760000
520.422974	147.760000
520.516602	148.040000
520.610291	147.640000
520.703918	146.980000
520.797607	146.600000
520.891296	146.580000
520.984985	146.660000
521.078613	147.660000
521.172302	147.120000
521.265930	147.840000
521.359680	148.180000
521.453308	147.800000
521.546997	147.020000
521.640625	147.580000
521.734314	146.800000
521.827942	146.780000
521.921692	147.120000
522.015320	147.440000
522.109009	147.120000
522.202698	147.180000
522.296326	146.980000
522.390015	147.180000
522.483704	147.120000
522.577393	146.780000
522.671021	146.620000
522.764709	146.140000
522.858337	146.300000
522.952026	146.300000
523.045654	147.180000
523.139404	147.920000
523.233032	148.600000
523.326721	148.320000
523.420349	148.540000
523.514038	147.940000
523.607666	148.060000
523.701355	147.560000
523.795044	147.440000
523.888733	147.320000
523.982361	147.220000
524.076050	146.660000
524.169678	147.180000
524.263367	146.860000
524.356995	146.740000
524.450684	147.040000
524.544373	146.640000
524.638062	146.300000
524.731750	146.560000
524.825378	146.420000
524.919067	145.620000
525.012695	145.840000
525.106384	145.700000
525.200012	145.740000
525.293701	145.760000
525.387329	146.380000
525.481018	146.660000
525.574646	147.180000
525.668396	147.300000
525.762024	147.400000
525.855713	147.540000
525.949341	147.060000
526.043030	146.780000
526.136658	146.400000
526.230347	146.340000
526.323975	145.900000
526.417664	146.220000
526.511292	146.260000
526.604980	146.560000
526.698608	146.260000
526.792297	146.580000
526.885925	146.680000
526.979614	146.680000
527.073303	146.560000
527.166931	146.700000
527.260620	146.760000
527.354309	146.920000
527.447998	146.700000
527.541626	146.400000
527.635315	146.640000
527.728943	146.980000
527.822632	146.820000
527.916260	147.200000
528.009949	147.680000
528.103577	147.260000
528.197266	146.520000
528.290894	146.440000
528.384583	146.240000
528.478210	146.200000
528.571899	146.960000
528.665527	147.480000
528.759216	147.560000
528.852844	147.780000
528.946533	147.760000
529.040161	147.400000
529.133850	147.020000
529.227478	147.040000
529.321167	147.280000
529.414856	147.420000
529.508484	147.840000
529.602173	147.860000
529.695801	147.680000
529.789490	147.600000
529.883057	147.480000
529.976746	147.540000
530.070374	148.020000
530.164062	148.120000
530.257690	148.200000
530.351379	148.380000
530.445007	147.860000
530.538696	146.980000
530.632324	147.360000
530.726013	147.060000
530.819641	146.800000
530.913330	147.040000
531.006958	147.460000
531.100647	147.360000
531.194275	147.320000
531.287964	147.080000
531.381592	146.820000
531.475220	147.100000
531.568848	146.780000
531.662537	146.540000
531.756226	147.220000
531.849854	147.300000
531.943542	147.400000
532.037170	147.160000
532.130859	147.920000
532.224487	147.340000
532.318176	146.920000
532.411804	146.920000
532.505432	147.160000
532.599060	146.580000
532.692749	146.580000
532.786377	147.300000
532.880066	146.440000
532.973694	145.940000
533.067383	146.000000
533.161011	146.100000
533.254639	145.600000
533.348267	145.660000
533.441956	146.340000
533.535583	146.200000
533.629272	146.120000
533.722900	146.080000
533.816589	146.500000
533.910156	146.640000
534.003845	146.360000
534.097534	146.920000
534.191162	147.340000
534.284851	147.500000
534.378479	147.260000
534.472107	147.500000
534.565735	146.900000
534.659424	146.940000
534.753052	147.160000
534.846741	147.140000
534.940369	147.620000
535.033997	147.760000
535.127625	147.700000
535.221313	148.020000
535.314941	147.700000
535.408630	147.100000
535.502197	147.320000
535.595886	147.040000
535.689514	146.520000
535.783203	146.940000
535.876831	147.260000
535.970459	147.180000
536.064087	147.080000
536.157776	146.880000
536.251404	147.040000
536.345093	146.720000
536.438721	146.620000
536.532349	147.100000
536.626038	147.160000
536.719666	147.100000
536.813293	147.180000
536.906921	146.980000
537.000610	147.100000
537.094238	147.000000
537.187866	146.560000
537.281494	146.460000
537.375183	146.860000
537.468811	146.260000
537.562439	146.280000
537.656067	146.640000
537.749756	146.760000
537.843384	146.880000
537.937012	146.920000
538.030640	146.760000
538.124329	146.700000
538.217896	147.220000
538.311584	147.240000
538.405212	147.300000
538.498901	147.720000
538.592468	148.100000
538.686157	147.420000
538.779785	146.600000
538.873413	146.760000
538.967102	146.520000
539.060730	146.000000
539.154358	146.420000
539.247986	146.920000
539.341675	147.060000
539.435242	147.020000
539.528931	147.200000
539.622559	146.920000
539.716187	147.440000
539.809814	147.300000
539.903503	147.220000
539.997070	147.180000
540.090759	147.000000
540.184387	146.640000
540.278015	147.020000
540.371643	147.320000
540.465332	147.220000
540.558899	147.560000
540.652588	147.600000
540.746216	147.020000
540.839844	147.200000
540.933472	147.120000
541.027100	147.120000
541.120728	147.160000
541.214417	147.700000
541.308044	147.940000
541.401672	147.880000
541.495300	147.340000
541.588928	147.140000
541.682617	146.620000
541.776184	146.040000
541.869873	146.420000
541.963440	146.980000
542.057129	146.980000
542.150757	147.320000
542.244385	147.160000
542.338013	146.700000
542.431641	146.380000
542.525269	146.280000
542.618958	146.460000
542.712524	146.980000
542.806213	147.080000
542.899780	147.320000
542.993469	147.260000
543.087036	146.960000
543.180725	146.580000
543.274292	147.100000
543.367981	147.240000
543.461548	147.680000
543.555237	147.660000
543.648926	148.320000
543.742493	148.700000
543.836182	148.380000
543.929749	148.180000
544.023437	148.220000
544.117004	148.020000
544.210693	147.580000
544.304260	147.700000
544.397949	147.360000
544.491516	147.540000
544.585205	147.280000
544.678772	146.880000
544.772461	147.400000
544.866028	147.580000
544.959717	147.740000
545.053284	147.560000
545.146973	147.920000
545.240540	147.940000
545.334229	148.560000
545.427795	148.420000
545.521423	148.760000
545.615051	148.820000
545.708679	148.820000
545.802307	148.500000
545.895935	148.880000
545.989624	149.460000
546.083191	149.200000
546.176880	148.980000
546.270447	148.680000
546.364136	148.780000
546.457703	147.880000
546.551331	147.980000
546.644958	148.360000
546.738586	148.880000
546.832214	148.060000
546.925842	148.200000
547.019409	148.340000
547.113098	147.420000
547.206665	147.120000
547.300354	147.300000
547.393921	147.200000
547.487549	147.080000
547.581177	146.920000
547.674805	146.500000
547.768433	145.760000
547.862061	145.920000
547.955627	145.500000
548.049316	146.280000
548.142883	146.620000
548.236572	147.440000
548.330139	147.680000
548.423767	147.640000
548.517456	147.380000
548.611023	147.600000
548.704651	146.540000
548.798279	146.060000
548.891907	146.580000
548.985474	146.380000
549.079163	146.240000
549.172729	146.700000
549.266357	146.620000
549.359985	146.400000
549.453613	146.100000
549.547180	145.920000
549.640869	146.400000
549.734436	146.420000
549.828064	146.660000
549.921631	146.520000
550.015320	146.180000
550.108887	146.300000
550.202515	146.240000
550.296143	145.800000
550.389771	146.100000
550.483337	146.260000
550.576965	146.020000
550.670593	146.480000
550.764221	146.780000
550.857849	146.860000
550.951477	146.500000
551.045105	146.120000
551.138672	145.940000
551.232300	145.360000
551.325928	145.620000
551.419556	146.220000
551.513123	146.520000
551.606750	146.320000
551.700378	146.460000
551.794006	146.380000
551.887573	146.080000
551.981201	146.600000
552.074768	146.580000
552.168457	146.540000
552.262024	147.160000
552.355652	147.020000
552.449219	147.320000
552.542847	147.480000
552.636475	147.720000
552.730103	147.000000
552.823669	147.200000
552.917297	146.380000
553.010864	146.360000
553.104553	146.400000
553.198181	146.180000
553.291748	146.540000
553.385376	146.700000
553.478943	146.560000
553.572571	146.500000
553.666199	146.760000
553.759827	146.380000
553.853394	146.080000
553.947021	146.320000
554.040588	146.480000
554.134216	146.540000
554.227783	147.320000
554.321411	147.900000
554.415039	147.260000
554.508667	147.280000
554.602234	147.440000
554.695862	146.560000
554.789429	146.420000
554.883057	146.760000
554.976624	146.240000
555.070251	146.160000
555.163818	146.200000
555.257507	146.060000
555.351074	146.100000
555.444702	147.360000
555.538330	147.180000
555.631897	147.520000
555.725525	147.420000
555.819092	147.480000
555.912720	146.340000
556.006287	146.840000
556.099915	146.480000
556.193481	146.700000
556.287109	146.700000
556.380676	146.560000
556.474304	146.500000
556.567871	146.800000
556.661499	146.180000
556.755066	146.220000
556.848694	146.520000
556.942261	145.780000
557.035889	145.800000
557.129517	146.080000
557.223145	146.440000
557.316711	146.620000
557.410339	147.120000
557.503906	146.740000
557.597473	147.280000
557.691040	146.960000
557.784668	146.900000
557.878296	146.720000
557.971863	147.100000
558.065491	146.980000
558.159058	146.740000
558.252686	147.440000
558.346252	148.160000
558.439880	147.720000
558.533447	147.240000
558.627075	146.860000
558.720642	146.020000
558.814270	145.220000
558.907837	145.340000
559.001465	145.420000
559.095032	146.460000
559.188660	146.520000
559.282227	146.440000
559.375854	146.760000
559.469360	146.560000
559.562988	146.660000
559.656555	146.920000
559.750183	147.260000
559.843750	147.640000
559.937378	147.820000
560.030945	147.340000
560.124573	0.000000
560.218140	0.000000
560.311707	0.000000
560.405334	0.000000
560.498901	0.000000
560.592529	0.000000
560.686096	0.000000
560.779724	0.000000
560.873291	0.000000
560.966858	0.000000
561.060425	0.000000
561.154053	0.000000
561.247620	0.000000
561.341248	0.000000
561.434814	0.000000
561.528381	0.000000
561.621948	0.000000
561.715576	0.000000
561.809143	0.000000
561.902771	0.000000
561.996277	0.000000
562.089905	0.000000
562.183472	0.000000
562.277100	0.000000
