Model Number: SPM-002-B   
Serial Number: 70087108
Firmware Version: 004.15.4
Exposure Time: 100000.000000us
Data Taken on: 11-12-2020 19:28:05.269
Wavelength	Amplitude
221.570786	0.000000
221.663406	0.000000
221.756027	0.000000
221.848648	0.000000
221.941269	0.000000
222.033905	0.000000
222.126526	0.000000
222.219162	0.000000
222.311798	0.000000
222.404419	0.000000
222.497055	0.000000
222.589676	0.000000
222.682312	0.000000
222.774933	0.000000
222.867569	0.000000
222.960205	0.000000
223.052841	0.000000
223.145462	0.000000
223.238098	0.000000
223.330734	0.000000
223.423386	0.000000
223.516022	0.000000
223.608658	0.000000
223.701309	0.000000
223.793945	0.000000
223.886581	0.000000
223.979218	0.000000
224.071869	0.000000
224.164505	0.000000
224.257156	0.000000
224.349792	0.000000
224.442444	0.000000
224.535095	0.000000
224.627747	0.000000
224.720398	0.000000
224.813034	0.000000
224.905685	0.000000
224.998337	146.220000
225.090988	146.220000
225.183640	146.240000
225.276291	145.920000
225.368942	146.540000
225.461594	146.820000
225.554245	147.260000
225.646912	147.080000
225.739578	147.720000
225.832230	147.960000
225.924896	147.060000
226.017548	147.200000
226.110199	148.000000
226.202866	147.140000
226.295532	146.740000
226.388184	147.320000
226.480850	146.560000
226.573517	145.860000
226.666168	146.340000
226.758835	146.600000
226.851501	146.740000
226.944183	147.300000
227.036850	146.980000
227.129517	146.900000
227.222183	146.860000
227.314850	146.880000
227.407516	147.060000
227.500198	148.120000
227.592865	147.640000
227.685532	147.360000
227.778214	147.400000
227.870880	147.520000
227.963562	147.520000
228.056229	148.280000
228.148926	148.260000
228.241592	148.700000
228.334274	148.300000
228.426956	147.740000
228.519638	147.520000
228.612305	147.220000
228.704987	146.900000
228.797668	147.080000
228.890350	147.000000
228.983032	146.760000
229.075714	147.240000
229.168396	146.780000
229.261108	146.320000
229.353790	146.700000
229.446472	147.020000
229.539169	146.660000
229.631851	146.740000
229.724533	147.160000
229.817230	147.000000
229.909912	147.880000
230.002609	148.420000
230.095306	148.280000
230.187988	148.200000
230.280685	148.300000
230.373383	147.000000
230.466095	146.460000
230.558792	146.760000
230.651474	146.700000
230.744171	146.660000
230.836868	146.860000
230.929581	147.260000
231.022278	147.240000
231.114975	147.300000
231.207672	146.620000
231.300369	147.040000
231.393082	147.180000
231.485779	147.080000
231.578506	147.200000
231.671204	147.860000
231.763916	147.400000
231.856613	146.900000
231.949326	147.180000
232.042023	146.980000
232.134735	146.820000
232.227448	146.940000
232.320160	147.300000
232.412872	147.440000
232.505585	148.240000
232.598297	148.460000
232.691010	148.120000
232.783722	147.840000
232.876450	148.080000
232.969162	147.360000
233.061874	147.140000
233.154587	147.260000
233.247314	147.780000
233.340027	147.040000
233.432739	147.580000
233.525467	147.760000
233.618179	148.180000
233.710907	147.700000
233.803635	148.060000
233.896347	147.620000
233.989090	147.940000
234.081818	147.480000
234.174545	147.980000
234.267258	147.640000
234.359985	147.820000
234.452713	147.420000
234.545441	147.300000
234.638168	147.040000
234.730896	147.900000
234.823639	148.000000
234.916367	148.120000
235.009094	148.600000
235.101822	148.360000
235.194580	147.600000
235.287308	147.480000
235.380051	146.960000
235.472778	147.160000
235.565521	147.560000
235.658249	147.460000
235.750992	147.400000
235.843719	147.780000
235.936462	147.640000
236.029205	146.980000
236.121948	146.740000
236.214691	146.740000
236.307449	147.240000
236.400192	146.940000
236.492935	147.040000
236.585678	147.160000
236.678421	147.300000
236.771164	146.960000
236.863907	147.740000
236.956665	148.260000
237.049408	149.820000
237.142151	149.540000
237.234909	150.120000
237.327652	149.860000
237.420410	149.220000
237.513153	148.320000
237.605927	148.140000
237.698669	147.440000
237.791428	146.660000
237.884186	147.440000
237.976944	146.860000
238.069702	147.300000
238.162445	146.960000
238.255203	147.480000
238.347961	147.620000
238.440720	147.880000
238.533478	147.540000
238.626266	147.320000
238.719025	147.400000
238.811783	146.860000
238.904541	146.720000
238.997314	146.740000
239.090073	146.660000
239.182831	146.800000
239.275604	147.360000
239.368362	146.860000
239.461136	146.900000
239.553909	147.180000
239.646667	146.860000
239.739441	146.380000
239.832214	146.980000
239.925003	147.080000
240.017761	147.860000
240.110535	148.300000
240.203308	148.160000
240.296082	148.320000
240.388855	147.900000
240.481628	147.460000
240.574417	147.180000
240.667191	147.140000
240.759964	146.620000
240.852737	147.040000
240.945526	146.780000
241.038315	146.740000
241.131088	147.260000
241.223877	147.440000
241.316650	146.960000
241.409439	147.280000
241.502228	146.860000
241.595001	147.180000
241.687790	147.180000
241.780579	147.400000
241.873367	147.580000
241.966141	148.040000
242.058929	146.940000
242.151718	147.220000
242.244507	147.860000
242.337311	146.940000
242.430099	147.120000
242.522903	147.620000
242.615692	147.200000
242.708481	146.800000
242.801270	147.600000
242.894073	147.320000
242.986862	147.300000
243.079651	147.960000
243.172455	147.760000
243.265244	148.020000
243.358063	147.480000
243.450867	147.600000
243.543655	147.400000
243.636459	147.420000
243.729263	147.080000
243.822067	147.920000
243.914856	148.340000
244.007660	148.220000
244.100464	148.160000
244.193268	148.280000
244.286072	147.700000
244.378876	146.920000
244.471680	146.860000
244.564499	147.240000
244.657318	147.740000
244.750122	148.200000
244.842926	147.980000
244.935745	148.240000
245.028549	148.120000
245.121368	147.500000
245.214172	147.400000
245.306992	148.000000
245.399796	147.700000
245.492615	147.380000
245.585434	147.400000
245.678253	147.280000
245.771072	147.020000
245.863892	147.280000
245.956711	147.460000
246.049530	147.220000
246.142349	146.920000
246.235168	147.280000
246.327988	147.680000
246.420807	147.580000
246.513626	147.880000
246.606445	148.160000
246.699280	148.120000
246.792099	147.880000
246.884918	147.340000
246.977753	146.780000
247.070587	146.780000
247.163422	146.720000
247.256241	146.740000
247.349075	147.580000
247.441895	147.780000
247.534729	148.140000
247.627563	147.760000
247.720383	148.080000
247.813217	148.020000
247.906052	147.940000
247.998886	147.240000
248.091736	147.360000
248.184570	146.820000
248.277405	146.640000
248.370239	147.700000
248.463074	148.900000
248.555908	149.360000
248.648743	149.300000
248.741592	149.500000
248.834427	148.620000
248.927261	147.460000
249.020111	147.740000
249.112946	148.240000
249.205795	147.900000
249.298630	148.080000
249.391495	148.280000
249.484344	147.660000
249.577179	147.460000
249.670029	147.680000
249.762878	148.040000
249.855728	148.140000
249.948563	148.160000
250.041412	147.560000
250.134262	147.700000
250.227112	147.340000
250.319962	147.520000
250.412827	147.520000
250.505692	147.400000
250.598541	147.360000
250.691391	147.140000
250.784241	146.920000
250.877106	147.000000
250.969955	147.160000
251.062805	147.640000
251.155670	148.080000
251.248520	148.140000
251.341385	148.160000
251.434235	148.160000
251.527100	147.720000
251.619965	147.300000
251.712814	148.020000
251.805695	148.060000
251.898560	148.180000
251.991425	148.440000
252.084290	148.720000
252.177155	147.940000
252.270020	147.620000
252.362885	147.640000
252.455750	147.140000
252.548615	146.920000
252.641479	146.880000
252.734360	146.780000
252.827240	146.740000
252.920105	147.020000
253.012970	146.740000
253.105850	146.580000
253.198715	146.460000
253.291595	146.200000
253.384460	145.960000
253.477341	146.060000
253.570221	146.240000
253.663086	146.440000
253.755966	147.520000
253.848846	147.380000
253.941727	148.060000
254.034592	148.100000
254.127472	147.460000
254.220367	146.920000
254.313248	146.980000
254.406128	146.240000
254.499008	146.540000
254.591904	147.740000
254.684784	148.080000
254.777664	148.220000
254.870544	148.020000
254.963440	147.820000
255.056335	147.500000
255.149216	146.900000
255.242111	147.560000
255.334991	148.260000
255.427887	148.300000
255.520767	148.340000
255.613663	148.820000
255.706558	147.700000
255.799438	147.540000
255.892334	147.320000
255.985229	146.960000
256.078125	146.640000
256.171021	147.200000
256.263916	147.520000
256.356812	147.740000
256.449707	148.040000
256.542603	147.680000
256.635498	148.140000
256.728394	147.680000
256.821289	147.380000
256.914215	147.600000
257.007080	147.880000
257.100006	147.720000
257.192932	148.240000
257.285828	148.640000
257.378723	148.120000
257.471619	148.040000
257.564545	147.560000
257.657440	147.440000
257.750336	147.360000
257.843262	147.300000
257.936157	148.240000
258.029053	148.380000
258.121979	148.240000
258.214874	148.140000
258.307800	148.040000
258.400696	147.300000
258.493622	147.100000
258.586517	146.540000
258.679443	146.520000
258.772339	146.220000
258.865265	145.900000
258.958160	146.060000
259.051086	147.040000
259.144012	146.840000
259.236938	147.980000
259.329834	148.120000
259.422791	147.980000
259.515717	147.320000
259.608612	147.400000
259.701538	146.940000
259.794464	147.180000
259.887390	147.100000
259.980316	146.940000
260.073212	146.920000
260.166138	146.080000
260.259064	146.220000
260.351990	146.700000
260.444916	146.600000
260.537842	147.000000
260.630768	148.280000
260.723694	147.920000
260.816620	147.580000
260.909546	147.680000
261.002472	147.140000
261.095398	146.260000
261.188354	146.300000
261.281281	145.900000
261.374207	146.000000
261.467133	146.900000
261.560089	147.300000
261.653015	147.060000
261.745972	147.980000
261.838867	148.520000
261.931824	148.440000
262.024780	148.060000
262.117706	148.340000
262.210663	147.940000
262.303589	147.600000
262.396515	147.280000
262.489471	148.180000
262.582397	148.220000
262.675354	148.020000
262.768280	148.040000
262.861237	147.980000
262.954163	147.700000
263.047119	147.860000
263.140045	147.980000
263.233002	147.480000
263.325958	147.420000
263.418884	146.920000
263.511841	146.560000
263.604797	146.400000
263.697723	146.880000
263.790680	146.800000
263.883636	147.280000
263.976593	147.340000
264.069550	147.540000
264.162476	147.200000
264.255463	147.040000
264.348419	146.560000
264.441376	146.800000
264.534332	146.500000
264.627289	146.720000
264.720245	147.540000
264.813202	147.380000
264.906158	147.360000
264.999115	147.580000
265.092072	147.820000
265.185028	147.800000
265.277985	148.020000
265.370941	147.980000
265.463898	148.040000
265.556854	147.480000
265.649811	146.520000
265.742798	146.660000
265.835754	146.580000
265.928711	147.120000
266.021667	147.480000
266.114655	147.940000
266.207611	148.280000
266.300568	147.660000
266.393585	146.900000
266.486511	147.360000
266.579498	146.800000
266.672485	146.460000
266.765442	146.800000
266.858429	147.320000
266.951385	146.480000
267.044342	146.920000
267.137329	146.600000
267.230316	147.060000
267.323273	146.780000
267.416260	147.800000
267.509216	147.840000
267.602203	148.100000
267.695160	148.140000
267.788147	148.060000
267.881134	147.260000
267.974091	147.020000
268.067078	146.820000
268.160065	146.760000
268.253052	146.400000
268.346008	146.680000
268.438995	146.800000
268.531982	147.160000
268.624969	146.880000
268.717987	147.520000
268.810944	147.280000
268.903961	147.220000
268.996948	146.940000
269.089905	147.240000
269.182892	147.440000
269.275879	147.820000
269.368866	147.500000
269.461853	147.900000
269.554871	147.920000
269.647858	147.740000
269.740845	147.900000
269.833832	148.520000
269.926819	148.180000
270.019806	148.060000
270.112793	147.400000
270.205811	147.360000
270.298798	147.000000
270.391785	147.700000
270.484772	147.120000
270.577789	147.560000
270.670776	147.000000
270.763763	146.860000
270.856750	146.520000
270.949768	146.700000
271.042786	146.740000
271.135773	146.940000
271.228790	147.180000
271.321808	146.580000
271.414795	146.220000
271.507782	145.620000
271.600800	145.040000
271.693817	145.020000
271.786804	145.820000
271.879822	146.360000
271.972809	146.740000
272.065826	147.840000
272.158844	147.680000
272.251831	147.840000
272.344849	147.820000
272.437866	147.560000
272.530853	147.180000
272.623871	147.660000
272.716888	146.480000
272.809906	146.700000
272.902893	146.960000
272.995911	146.300000
273.088928	146.280000
273.181946	146.660000
273.274963	146.300000
273.367981	146.300000
273.460999	147.080000
273.554047	147.280000
273.647003	148.000000
273.740051	148.180000
273.833069	148.340000
273.926086	148.240000
274.019135	147.880000
274.112152	147.560000
274.205170	147.440000
274.298187	147.640000
274.391205	147.100000
274.484222	146.880000
274.577240	146.680000
274.670258	146.720000
274.763306	146.420000
274.856323	147.080000
274.949341	147.540000
275.042358	148.020000
275.135406	148.080000
275.228424	148.120000
275.321442	147.820000
275.414490	147.100000
275.507507	147.340000
275.600525	147.720000
275.693573	147.720000
275.786591	147.360000
275.879669	148.060000
275.972656	147.220000
276.065735	146.780000
276.158752	147.200000
276.251801	147.960000
276.344818	147.620000
276.437866	148.180000
276.530884	148.220000
276.623932	147.500000
276.716980	147.500000
276.809998	147.680000
276.903046	147.420000
276.996094	148.320000
277.089111	149.180000
277.182159	149.560000
277.275208	149.320000
277.368256	149.340000
277.461304	148.480000
277.554321	147.580000
277.647369	147.220000
277.740417	147.160000
277.833466	147.060000
277.926514	147.100000
278.019562	147.680000
278.112610	147.080000
278.205688	147.620000
278.298706	147.480000
278.391785	147.340000
278.484833	146.960000
278.577881	147.000000
278.670929	146.680000
278.763977	146.780000
278.857025	147.100000
278.950073	147.060000
279.043121	147.040000
279.136169	146.940000
279.229248	146.480000
279.322296	146.600000
279.415344	146.340000
279.508392	146.260000
279.601440	146.520000
279.694519	146.540000
279.787567	146.280000
279.880615	146.500000
279.973694	146.480000
280.066742	146.320000
280.159790	146.880000
280.252869	146.420000
280.345917	146.660000
280.438995	146.780000
280.532074	146.720000
280.625122	146.980000
280.718201	148.060000
280.811279	148.260000
280.904327	148.340000
280.997406	148.440000
281.090454	148.380000
281.183533	147.360000
281.276581	147.240000
281.369659	146.980000
281.462738	147.100000
281.555786	147.100000
281.648865	147.340000
281.741943	147.060000
281.835022	147.920000
281.928070	147.440000
282.021149	147.200000
282.114227	147.420000
282.207306	147.640000
282.300385	147.560000
282.393433	148.060000
282.486511	147.920000
282.579590	148.180000
282.672668	148.340000
282.765747	147.600000
282.858856	147.220000
282.951904	147.600000
283.045013	147.560000
283.138062	147.580000
283.231171	148.140000
283.324249	148.580000
283.417328	148.420000
283.510406	148.160000
283.603485	147.860000
283.696564	147.700000
283.789642	147.540000
283.882751	147.120000
283.975830	147.460000
284.068909	147.160000
284.161987	147.320000
284.255066	146.840000
284.348175	147.400000
284.441254	147.140000
284.534332	147.640000
284.627441	147.360000
284.720520	147.320000
284.813599	147.180000
284.906708	147.220000
284.999786	146.720000
285.092896	146.160000
285.185974	147.240000
285.279053	146.780000
285.372192	146.900000
285.465240	147.500000
285.558380	147.820000
285.651459	147.420000
285.744568	148.520000
285.837677	147.880000
285.930756	147.900000
286.023865	148.080000
286.116943	147.520000
286.210052	146.900000
286.303162	147.280000
286.396240	147.220000
286.489349	146.880000
286.582458	147.280000
286.675568	147.220000
286.768646	147.100000
286.861755	147.200000
286.954865	147.980000
287.047974	147.400000
287.141083	147.560000
287.234161	147.400000
287.327271	147.160000
287.420380	147.340000
287.513519	147.380000
287.606598	147.060000
287.699738	147.480000
287.792816	147.280000
287.885956	146.820000
287.979034	147.160000
288.072174	147.340000
288.165283	147.000000
288.258392	147.360000
288.351501	146.820000
288.444611	146.980000
288.537720	147.340000
288.630859	147.460000
288.723969	147.360000
288.817078	147.860000
288.910187	147.620000
289.003296	146.920000
289.096436	146.780000
289.189545	146.580000
289.282654	146.220000
289.375763	146.840000
289.468903	147.240000
289.562012	147.600000
289.655121	147.740000
289.748260	147.980000
289.841400	148.040000
289.934509	147.900000
290.027649	148.080000
290.120728	147.840000
290.213898	147.840000
290.306976	147.380000
290.400146	147.300000
290.493256	146.820000
290.586395	146.920000
290.679535	147.440000
290.772644	147.220000
290.865784	146.360000
290.958893	146.120000
291.052032	146.180000
291.145172	145.660000
291.238281	145.440000
291.331421	146.400000
291.424561	147.260000
291.517670	147.180000
291.610809	147.680000
291.703949	147.800000
291.797089	147.840000
291.890228	147.040000
291.983337	146.760000
292.076477	146.120000
292.169617	146.440000
292.262756	146.480000
292.355927	146.700000
292.449036	147.060000
292.542206	147.220000
292.635315	147.360000
292.728485	147.480000
292.821625	147.040000
292.914764	147.940000
293.007904	148.000000
293.101044	147.980000
293.194183	147.820000
293.287323	148.480000
293.380463	147.760000
293.473602	147.700000
293.566742	147.940000
293.659882	148.400000
293.753021	148.160000
293.846191	148.200000
293.939331	147.880000
294.032471	147.580000
294.125610	147.120000
294.218781	147.480000
294.311920	147.820000
294.405060	148.380000
294.498230	148.420000
294.591370	148.500000
294.684540	148.040000
294.777679	147.200000
294.870850	147.340000
294.963959	147.140000
295.057159	146.860000
295.150299	147.240000
295.243469	147.520000
295.336609	146.780000
295.429779	146.760000
295.522919	147.280000
295.616089	147.080000
295.709229	147.580000
295.802399	148.080000
295.895569	147.900000
295.988708	147.540000
296.081879	147.600000
296.175018	146.880000
296.268188	146.860000
296.361359	147.660000
296.454529	147.940000
296.547668	147.880000
296.640839	148.460000
296.734009	148.480000
296.827179	148.300000
296.920319	148.540000
297.013519	148.300000
297.106659	148.300000
297.199860	148.320000
297.292999	147.920000
297.386200	147.140000
297.479309	147.340000
297.572510	147.140000
297.665680	146.660000
297.758850	147.140000
297.852020	147.320000
297.945190	146.860000
298.038361	146.440000
298.131531	147.300000
298.224701	146.580000
298.317871	146.260000
298.411072	146.160000
298.504242	146.160000
298.597412	145.380000
298.690582	145.680000
298.783752	146.120000
298.876923	146.800000
298.970093	146.900000
299.063293	147.480000
299.156464	147.640000
299.249634	147.660000
299.342834	147.760000
299.436005	148.400000
299.529205	148.200000
299.622345	148.260000
299.715576	147.780000
299.808716	147.300000
299.901917	146.660000
299.995117	146.780000
300.088287	146.800000
300.181488	146.960000
300.274658	147.280000
300.367828	147.500000
300.461029	147.480000
300.554199	147.700000
300.647400	147.440000
300.740601	147.920000
300.833771	147.780000
300.926971	147.880000
301.020142	147.240000
301.113342	147.600000
301.206512	146.900000
301.299713	147.240000
301.392914	147.100000
301.486084	147.320000
301.579285	147.140000
301.672516	147.880000
301.765686	147.680000
301.858887	147.580000
301.952057	147.860000
302.045288	148.120000
302.138458	147.940000
302.231659	147.760000
302.324860	147.620000
302.418060	147.220000
302.511261	147.300000
302.604462	147.220000
302.697662	146.980000
302.790863	147.160000
302.884064	146.800000
302.977264	146.580000
303.070465	146.700000
303.163666	147.820000
303.256866	148.180000
303.350067	148.660000
303.443268	148.800000
303.536469	148.920000
303.629669	148.300000
303.722870	148.060000
303.816071	147.800000
303.909271	147.760000
304.002472	146.720000
304.095673	146.300000
304.188934	145.440000
304.282104	146.220000
304.375336	146.020000
304.468506	146.440000
304.561768	146.340000
304.654968	147.220000
304.748169	146.540000
304.841370	146.480000
304.934601	146.780000
305.027802	146.900000
305.121002	146.440000
305.214233	146.480000
305.307434	146.800000
305.400665	147.240000
305.493866	146.980000
305.587097	147.500000
305.680298	147.360000
305.773499	147.820000
305.866730	147.240000
305.959930	148.040000
306.053162	147.900000
306.146393	147.900000
306.239594	146.740000
306.332825	146.700000
306.426025	146.820000
306.519287	146.460000
306.612488	146.700000
306.705719	147.100000
306.798920	147.060000
306.892181	146.160000
306.985352	145.880000
307.078613	145.240000
307.171844	145.640000
307.265045	145.360000
307.358276	145.520000
307.451508	146.160000
307.544739	146.920000
307.637970	146.560000
307.731201	146.520000
307.824402	147.340000
307.917633	147.560000
308.010864	147.920000
308.104095	148.520000
308.197327	149.160000
308.290558	148.700000
308.383789	148.100000
308.477020	147.480000
308.570251	146.460000
308.663483	146.000000
308.756714	145.760000
308.849976	145.900000
308.943176	146.520000
309.036438	146.800000
309.129639	146.740000
309.222900	147.220000
309.316101	146.960000
309.409393	146.340000
309.502625	146.340000
309.595856	146.400000
309.689087	146.180000
309.782318	146.500000
309.875580	146.560000
309.968811	146.840000
310.062042	147.040000
310.155273	146.640000
310.248535	147.060000
310.341766	147.120000
310.434998	146.780000
310.528259	146.620000
310.621490	147.400000
310.714722	146.960000
310.807983	146.980000
310.901215	147.280000
310.994476	147.480000
311.087708	146.800000
311.181000	147.140000
311.274200	146.820000
311.367462	146.760000
311.460693	146.300000
311.553986	146.980000
311.647186	147.000000
311.740479	147.800000
311.833710	147.480000
311.926971	147.560000
312.020203	146.980000
312.113464	146.620000
312.206726	145.780000
312.299957	146.220000
312.393219	146.880000
312.486481	147.040000
312.579712	147.260000
312.672974	147.600000
312.766235	147.500000
312.859497	147.060000
312.952759	147.080000
313.045990	147.960000
313.139252	147.580000
313.232513	147.740000
313.325775	147.840000
313.419037	147.860000
313.512299	146.620000
313.605530	147.340000
313.698822	147.300000
313.792053	147.340000
313.885345	146.740000
313.978577	147.040000
314.071869	146.240000
314.165131	146.320000
314.258392	146.620000
314.351654	147.080000
314.444916	146.340000
314.538177	147.160000
314.631439	147.420000
314.724701	146.840000
314.817993	146.760000
314.911255	147.240000
315.004517	146.420000
315.097778	146.100000
315.191040	146.840000
315.284302	146.980000
315.377594	147.020000
315.470856	147.020000
315.564117	146.580000
315.657379	145.780000
315.750671	145.700000
315.843933	146.020000
315.937195	145.920000
316.030518	145.880000
316.123749	145.820000
316.217041	146.260000
316.310303	146.180000
316.403595	146.400000
316.496857	146.860000
316.590149	147.260000
316.683411	146.500000
316.776703	146.180000
316.869965	146.520000
316.963257	146.160000
317.056519	145.520000
317.149811	145.800000
317.243073	145.760000
317.336365	145.640000
317.429626	146.160000
317.522919	146.820000
317.616180	146.820000
317.709473	146.560000
317.802765	146.440000
317.896027	146.340000
317.989319	146.640000
318.082611	146.580000
318.175873	146.760000
318.269165	146.860000
318.362488	146.620000
318.455750	146.260000
318.549042	146.600000
318.642303	147.260000
318.735626	146.920000
318.828888	147.300000
318.922211	146.760000
319.015472	147.300000
319.108765	146.340000
319.202057	146.140000
319.295349	145.960000
319.388641	146.200000
319.481934	145.440000
319.575226	146.040000
319.668518	146.520000
319.761810	146.500000
319.855103	146.760000
319.948395	146.980000
320.041687	146.760000
320.134979	147.040000
320.228271	146.800000
320.321564	146.720000
320.414856	146.860000
320.508148	146.760000
320.601440	146.260000
320.694763	146.060000
320.788025	146.720000
320.881348	146.400000
320.974640	146.380000
321.067963	146.200000
321.161224	146.360000
321.254547	145.560000
321.347839	146.200000
321.441162	146.160000
321.534454	146.580000
321.627747	146.420000
321.721069	147.060000
321.814362	147.000000
321.907654	147.020000
322.000946	146.940000
322.094269	147.840000
322.187561	147.140000
322.280884	147.220000
322.374176	147.620000
322.467468	147.740000
322.560791	147.340000
322.654083	148.140000
322.747406	147.940000
322.840698	147.840000
322.934021	148.200000
323.027344	148.260000
323.120636	147.600000
323.213959	147.300000
323.307251	146.860000
323.400574	146.480000
323.493866	146.400000
323.587219	146.600000
323.680511	146.900000
323.773834	147.400000
323.867157	147.420000
323.960449	147.400000
324.053772	147.120000
324.147095	147.000000
324.240387	147.520000
324.333710	147.700000
324.427032	147.740000
324.520355	147.960000
324.613647	147.800000
324.706970	147.100000
324.800293	146.720000
324.893616	147.060000
324.986938	147.240000
325.080231	147.080000
325.173553	147.280000
325.266876	147.720000
325.360199	147.300000
325.453522	146.960000
325.546875	146.840000
325.640167	146.980000
325.733521	147.200000
325.826813	147.280000
325.920166	147.160000
326.013489	147.300000
326.106812	146.280000
326.200134	145.580000
326.293457	145.060000
326.386780	145.280000
326.480103	145.100000
326.573425	145.520000
326.666748	145.560000
326.760071	146.280000
326.853424	146.380000
326.946747	146.400000
327.040070	147.240000
327.133392	147.260000
327.226715	146.720000
327.320068	146.240000
327.413391	146.780000
327.506714	145.760000
327.600037	145.920000
327.693390	146.180000
327.786713	146.320000
327.880066	145.960000
327.973358	146.740000
328.066742	147.180000
328.160034	147.140000
328.253418	147.520000
328.346710	147.400000
328.440063	146.580000
328.533417	146.200000
328.626740	146.660000
328.720093	146.480000
328.813416	146.440000
328.906769	146.800000
329.000092	147.240000
329.093445	147.040000
329.186768	147.020000
329.280121	147.860000
329.373444	148.180000
329.466797	147.740000
329.560120	147.400000
329.653473	147.440000
329.746796	146.500000
329.840149	146.280000
329.933502	146.220000
330.026825	146.180000
330.120178	145.760000
330.213562	145.960000
330.306854	146.020000
330.400238	146.020000
330.493561	145.800000
330.586945	147.120000
330.680237	147.200000
330.773621	147.360000
330.866974	147.700000
330.960327	148.180000
331.053680	147.440000
331.147003	147.720000
331.240356	147.860000
331.333710	147.640000
331.427063	147.200000
331.520416	146.820000
331.613770	146.520000
331.707123	146.500000
331.800476	146.580000
331.893829	147.800000
331.987152	147.900000
332.080505	147.920000
332.173859	147.700000
332.267212	147.100000
332.360565	146.060000
332.453918	146.020000
332.547333	145.900000
332.640656	146.060000
332.734039	146.740000
332.827362	146.720000
332.920746	147.180000
333.014069	147.480000
333.107452	147.560000
333.200806	147.520000
333.294159	147.880000
333.387543	147.080000
333.480896	146.260000
333.574249	146.020000
333.667603	145.380000
333.760956	145.320000
333.854340	145.900000
333.947693	146.440000
334.041046	146.500000
334.134430	147.020000
334.227783	146.580000
334.321136	146.260000
334.414520	146.000000
334.507874	146.180000
334.601227	146.320000
334.694611	146.500000
334.787964	146.580000
334.881348	147.080000
334.974701	146.920000
335.068085	146.440000
335.161438	146.940000
335.254822	147.060000
335.348175	146.920000
335.441559	146.560000
335.534943	147.500000
335.628296	146.700000
335.721680	146.840000
335.815033	146.960000
335.908417	147.300000
336.001770	146.720000
336.095154	146.880000
336.188538	146.240000
336.281891	145.960000
336.375275	145.540000
336.468658	145.300000
336.562012	145.640000
336.655396	146.400000
336.748779	146.840000
336.842133	147.160000
336.935516	147.640000
337.028900	147.280000
337.122284	146.920000
337.215637	147.040000
337.309021	146.960000
337.402435	146.280000
337.495789	146.680000
337.589203	146.560000
337.682526	146.060000
337.775940	146.240000
337.869324	146.820000
337.962708	146.260000
338.056091	147.000000
338.149475	146.760000
338.242859	146.740000
338.336243	146.300000
338.429626	146.640000
338.523010	145.980000
338.616394	146.020000
338.709778	146.320000
338.803162	146.620000
338.896545	146.820000
338.989929	146.580000
339.083313	146.900000
339.176697	146.220000
339.270081	145.980000
339.363464	146.080000
339.456848	146.420000
339.550232	146.020000
339.643616	146.160000
339.737030	146.120000
339.830383	145.780000
339.923828	146.060000
340.017181	146.580000
340.110596	146.620000
340.203949	146.680000
340.297363	146.560000
340.390778	146.300000
340.484161	145.840000
340.577545	145.860000
340.670959	146.080000
340.764343	146.320000
340.857727	146.440000
340.951111	146.060000
341.044525	146.380000
341.137909	145.880000
341.231293	145.580000
341.324707	145.080000
341.418091	146.280000
341.511505	145.860000
341.604889	146.200000
341.698303	146.680000
341.791687	146.560000
341.885071	145.640000
341.978485	145.640000
342.071899	145.900000
342.165283	146.020000
342.258698	147.200000
342.352081	147.600000
342.445496	148.180000
342.538879	148.100000
342.632324	147.480000
342.725708	147.000000
342.819122	146.600000
342.912506	146.100000
343.005920	145.780000
343.099335	146.760000
343.192719	146.540000
343.286133	146.640000
343.379547	146.840000
343.472931	146.960000
343.566345	146.340000
343.659760	146.480000
343.753143	146.380000
343.846558	146.180000
343.939972	146.420000
344.033386	146.780000
344.126770	146.840000
344.220184	147.060000
344.313599	147.360000
344.407043	147.120000
344.500427	146.600000
344.593872	146.960000
344.687225	146.640000
344.780670	146.560000
344.874054	146.320000
344.967499	146.820000
345.060913	146.760000
345.154327	146.800000
345.247742	146.320000
345.341156	146.260000
345.434570	145.880000
345.527985	145.500000
345.621399	146.060000
345.714813	146.180000
345.808228	146.640000
345.901642	146.280000
345.995056	146.060000
346.088470	146.020000
346.181885	146.180000
346.275299	145.740000
346.368713	146.040000
346.462128	146.020000
346.555573	145.800000
346.648987	146.140000
346.742401	146.200000
346.835815	146.480000
346.929260	146.440000
347.022644	146.360000
347.116119	146.300000
347.209503	146.720000
347.302948	147.320000
347.396362	147.860000
347.489807	148.080000
347.583221	148.340000
347.676636	147.700000
347.770050	146.620000
347.863495	146.060000
347.956909	146.060000
348.050323	145.480000
348.143768	146.240000
348.237183	146.080000
348.330597	146.600000
348.424042	146.880000
348.517456	147.160000
348.610901	147.120000
348.704315	147.260000
348.797760	146.580000
348.891174	145.900000
348.984619	145.460000
349.078033	145.700000
349.171448	146.360000
349.264923	146.680000
349.358337	146.680000
349.451782	147.020000
349.545197	146.300000
349.638641	145.340000
349.732086	144.920000
349.825500	145.480000
349.918945	145.140000
350.012390	145.720000
350.105804	146.680000
350.199249	147.060000
350.292664	147.480000
350.386108	148.100000
350.479553	148.180000
350.572968	147.740000
350.666412	148.200000
350.759857	147.540000
350.853302	147.300000
350.946716	147.020000
351.040161	147.160000
351.133606	146.540000
351.227081	146.600000
351.320465	147.520000
351.413940	147.420000
351.507355	147.460000
351.600830	147.880000
351.694244	147.260000
351.787720	146.740000
351.881104	146.940000
351.974579	146.760000
352.067993	147.320000
352.161469	147.600000
352.254883	146.520000
352.348358	146.300000
352.441803	146.360000
352.535248	145.720000
352.628693	146.400000
352.722137	146.860000
352.815582	146.980000
352.909027	147.420000
353.002472	147.020000
353.095917	146.640000
353.189362	146.740000
353.282806	146.540000
353.376251	146.020000
353.469696	146.300000
353.563141	146.460000
353.656586	146.640000
353.750061	146.360000
353.843475	146.460000
353.936981	146.640000
354.030396	146.620000
354.123871	146.420000
354.217285	147.220000
354.310760	147.500000
354.404175	147.420000
354.497681	146.760000
354.591095	146.840000
354.684570	146.040000
354.777985	145.660000
354.871490	145.420000
354.964935	146.100000
355.058380	146.240000
355.151855	146.300000
355.245300	146.640000
355.338745	147.240000
355.432220	147.400000
355.525665	146.960000
355.619110	147.380000
355.712585	147.220000
355.806030	146.740000
355.899475	146.160000
355.992950	146.800000
356.086426	147.000000
356.179871	146.780000
356.273346	146.960000
356.366791	147.380000
356.460266	147.420000
356.553711	147.040000
356.647186	147.220000
356.740631	146.900000
356.834106	146.420000
356.927551	146.360000
357.021027	146.520000
357.114471	146.420000
357.207947	146.280000
357.301422	146.840000
357.394867	146.760000
357.488342	146.740000
357.581818	147.100000
357.675262	147.600000
357.768738	146.860000
357.862213	146.160000
357.955658	146.240000
358.049133	145.880000
358.142609	145.760000
358.236053	146.140000
358.329529	146.500000
358.423035	146.600000
358.516449	146.520000
358.609955	147.120000
358.703400	147.880000
358.796906	148.160000
358.890350	147.420000
358.983826	147.620000
359.077271	147.000000
359.170776	146.300000
359.264221	146.020000
359.357727	146.720000
359.451172	146.900000
359.544647	146.880000
359.638123	146.880000
359.731598	147.380000
359.825073	147.540000
359.918549	147.660000
360.012024	147.680000
360.105499	147.200000
360.198975	147.040000
360.292450	146.840000
360.385925	146.380000
360.479401	146.080000
360.572876	146.620000
360.666351	146.640000
360.759857	146.420000
360.853302	146.720000
360.946808	146.400000
361.040253	146.360000
361.133759	145.900000
361.227203	146.100000
361.320709	145.580000
361.414154	146.520000
361.507660	146.560000
361.601105	147.080000
361.694641	147.720000
361.788086	147.860000
361.881592	148.060000
361.975067	148.020000
362.068542	148.020000
362.162018	147.800000
362.255524	147.340000
362.348999	147.140000
362.442474	147.380000
362.535950	146.660000
362.629456	146.100000
362.722931	146.560000
362.816406	146.660000
362.909882	146.740000
363.003387	146.880000
363.096863	147.140000
363.190338	146.980000
363.283875	146.560000
363.377319	146.180000
363.470825	146.860000
363.564301	146.440000
363.657806	146.920000
363.751282	146.620000
363.844788	147.660000
363.938232	147.040000
364.031769	147.920000
364.125214	148.140000
364.218750	148.780000
364.312225	147.200000
364.405731	147.520000
364.499207	146.760000
364.592712	146.160000
364.686188	145.900000
364.779694	146.600000
364.873169	146.480000
364.966675	146.460000
365.060150	146.500000
365.153656	146.940000
365.247131	146.760000
365.340637	147.020000
365.434143	147.260000
365.527618	147.440000
365.621155	146.420000
365.714600	146.520000
365.808136	146.460000
365.901611	145.740000
365.995117	145.600000
366.088593	146.160000
366.182129	145.980000
366.275604	145.940000
366.369110	146.480000
366.462585	146.400000
366.556122	146.760000
366.649567	147.160000
366.743103	147.080000
366.836609	146.840000
366.930115	147.200000
367.023590	147.200000
367.117096	146.920000
367.210602	146.960000
367.304108	147.740000
367.397614	147.940000
367.491119	147.800000
367.584595	147.840000
367.678101	148.060000
367.771606	147.360000
367.865112	146.560000
367.958649	146.040000
368.052124	146.140000
368.145660	145.760000
368.239136	146.540000
368.332672	147.180000
368.426147	147.440000
368.519684	147.100000
368.613159	147.520000
368.706696	146.600000
368.800171	146.260000
368.893707	146.200000
368.987183	146.340000
369.080719	146.340000
369.174225	146.360000
369.267731	146.580000
369.361237	146.600000
369.454742	146.680000
369.548248	146.720000
369.641754	146.540000
369.735260	146.560000
369.828766	146.040000
369.922272	146.560000
370.015808	146.340000
370.109314	146.400000
370.202820	146.160000
370.296356	147.260000
370.389832	146.680000
370.483368	146.200000
370.576874	146.200000
370.670410	146.480000
370.763885	145.320000
370.857422	145.260000
370.950928	145.360000
371.044464	146.220000
371.137939	146.200000
371.231476	147.000000
371.324982	147.680000
371.418518	147.760000
371.512024	147.340000
371.605560	146.860000
371.699066	146.860000
371.792572	146.120000
371.886108	146.500000
371.979614	146.440000
372.073120	147.160000
372.166656	146.960000
372.260162	147.420000
372.353668	147.300000
372.447205	147.100000
372.540710	146.760000
372.634277	146.860000
372.727753	146.820000
372.821320	146.920000
372.914795	147.080000
373.008362	146.980000
373.101837	147.000000
373.195404	146.600000
373.288879	146.240000
373.382446	147.020000
373.475922	147.040000
373.569489	147.240000
373.662964	147.780000
373.756531	147.920000
373.850037	147.260000
373.943573	147.340000
374.037109	146.400000
374.130615	146.460000
374.224152	146.780000
374.317657	146.520000
374.411194	147.480000
374.504730	148.020000
374.598236	147.680000
374.691772	147.320000
374.785309	147.380000
374.878815	146.000000
374.972351	146.260000
375.065887	146.320000
375.159454	147.260000
375.252930	147.260000
375.346497	147.900000
375.440002	148.120000
375.533569	147.960000
375.627045	146.980000
375.720612	147.100000
375.814117	147.200000
375.907684	146.780000
376.001160	146.620000
376.094727	146.320000
376.188232	147.100000
376.281799	146.940000
376.375336	147.020000
376.468872	148.000000
376.562408	148.120000
376.655914	147.420000
376.749451	147.320000
376.842987	147.540000
376.936523	146.840000
377.030060	147.180000
377.123596	147.320000
377.217133	146.900000
377.310669	146.780000
377.404205	146.920000
377.497772	147.180000
377.591278	147.200000
377.684845	148.300000
377.778351	148.400000
377.871918	148.260000
377.965424	147.440000
378.058990	147.020000
378.152496	146.500000
378.246063	146.540000
378.339569	146.520000
378.433136	146.940000
378.526642	147.300000
378.620209	146.980000
378.713745	146.520000
378.807312	146.840000
378.900848	146.440000
378.994385	146.500000
379.087921	146.260000
379.181458	146.480000
379.274994	145.880000
379.368530	146.440000
379.462097	146.460000
379.555634	146.940000
379.649170	146.600000
379.742706	146.640000
379.836273	146.520000
379.929810	146.240000
380.023376	145.640000
380.116882	146.000000
380.210449	146.220000
380.303986	145.780000
380.397552	145.460000
380.491058	146.280000
380.584656	146.060000
380.678162	146.260000
380.771729	146.240000
380.865265	147.320000
380.958832	147.140000
381.052368	147.220000
381.145935	147.420000
381.239471	148.100000
381.333008	147.560000
381.426575	147.320000
381.520111	147.740000
381.613647	147.840000
381.707214	147.360000
381.800751	146.740000
381.894318	147.020000
381.987854	146.520000
382.081421	146.100000
382.174988	146.560000
382.268524	146.840000
382.362091	146.800000
382.455627	147.580000
382.549194	147.560000
382.642731	146.780000
382.736298	146.580000
382.829834	146.280000
382.923401	146.660000
383.016937	147.100000
383.110504	147.660000
383.204041	148.060000
383.297607	148.420000
383.391174	147.300000
383.484741	147.720000
383.578278	147.420000
383.671844	146.940000
383.765411	146.480000
383.858948	147.020000
383.952515	146.220000
384.046051	146.860000
384.139618	147.440000
384.233185	147.860000
384.326721	147.480000
384.420288	147.980000
384.513855	147.720000
384.607422	147.860000
384.700989	148.040000
384.794525	147.740000
384.888123	147.200000
384.981659	147.400000
385.075226	146.940000
385.168762	146.520000
385.262360	146.480000
385.355896	146.280000
385.449463	146.120000
385.542999	146.240000
385.636597	146.920000
385.730164	147.360000
385.823730	147.340000
385.917267	147.120000
386.010834	147.540000
386.104401	147.160000
386.197968	147.460000
386.291534	148.020000
386.385101	147.860000
386.478668	147.980000
386.572235	147.980000
386.665802	147.320000
386.759338	147.020000
386.852905	147.220000
386.946472	146.560000
387.040070	146.220000
387.133606	146.400000
387.227203	145.920000
387.320740	146.100000
387.414337	146.000000
387.507874	146.320000
387.601471	146.420000
387.695007	146.620000
387.788605	146.120000
387.882141	146.300000
387.975739	146.240000
388.069275	146.020000
388.162872	146.120000
388.256439	146.120000
388.350037	145.840000
388.443604	145.840000
388.537170	146.020000
388.630737	146.320000
388.724304	146.540000
388.817871	146.780000
388.911438	146.780000
389.005005	147.140000
389.098602	147.460000
389.192169	147.140000
389.285736	147.420000
389.379333	147.540000
389.472870	146.900000
389.566467	146.500000
389.660034	146.780000
389.753632	146.340000
389.847168	146.320000
389.940765	146.860000
390.034332	147.060000
390.127930	146.680000
390.221466	146.860000
390.315063	146.600000
390.408630	145.820000
390.502228	145.300000
390.595795	145.620000
390.689362	145.720000
390.782959	146.100000
390.876526	146.740000
390.970093	146.660000
391.063690	147.440000
391.157257	147.440000
391.250824	147.680000
391.344421	147.260000
391.437988	147.920000
391.531555	147.780000
391.625153	148.000000
391.718750	147.740000
391.812317	148.020000
391.905914	147.460000
391.999481	147.400000
392.093079	147.360000
392.186615	147.640000
392.280243	147.640000
392.373779	147.800000
392.467407	148.160000
392.560944	147.600000
392.654572	146.780000
392.748108	146.580000
392.841736	146.460000
392.935303	145.800000
393.028900	145.940000
393.122467	146.160000
393.216064	146.000000
393.309631	145.760000
393.403229	145.120000
393.496796	145.200000
393.590393	144.820000
393.683990	144.920000
393.777557	145.600000
393.871155	146.320000
393.964722	146.700000
394.058350	146.920000
394.151917	147.020000
394.245514	146.580000
394.339081	146.780000
394.432678	146.800000
394.526245	146.920000
394.619873	146.600000
394.713409	146.940000
394.807037	146.360000
394.900604	146.460000
394.994202	146.600000
395.087769	146.960000
395.181396	146.360000
395.274994	147.560000
395.368561	146.780000
395.462158	147.040000
395.555756	146.800000
395.649353	146.880000
395.742920	145.660000
395.836517	146.620000
395.930115	145.900000
396.023712	146.260000
396.117279	146.920000
396.210876	146.700000
396.304474	146.520000
396.398071	146.860000
396.491669	147.100000
396.585266	146.520000
396.678833	146.880000
396.772461	147.020000
396.866028	146.980000
396.959656	147.280000
397.053223	147.920000
397.146851	148.260000
397.240417	149.200000
397.334015	151.380000
397.427582	152.620000
397.521210	155.160000
397.614807	158.820000
397.708405	162.700000
397.802002	167.880000
397.895599	175.780000
397.989197	184.840000
398.082794	195.860000
398.176392	209.640000
398.269989	225.160000
398.363586	243.500000
398.457184	265.340000
398.550781	289.120000
398.644379	313.580000
398.737976	339.360000
398.831573	366.380000
398.925201	393.480000
399.018768	422.760000
399.112396	455.360000
399.205963	491.640000
399.299591	529.400000
399.393158	571.160000
399.486786	613.040000
399.580353	651.340000
399.673981	682.140000
399.767578	707.500000
399.861206	721.040000
399.954773	724.640000
400.048401	717.560000
400.141998	704.280000
400.235596	683.600000
400.329193	661.440000
400.422791	637.080000
400.516418	613.120000
400.610016	587.840000
400.703613	560.300000
400.797211	525.660000
400.890808	489.220000
400.984436	451.020000
401.078033	412.800000
401.171631	376.960000
401.265259	345.940000
401.358826	317.220000
401.452484	291.340000
401.546051	268.640000
401.639679	246.540000
401.733246	228.040000
401.826904	211.440000
401.920471	197.320000
402.014099	185.460000
402.107697	176.420000
402.201324	168.640000
402.294891	163.260000
402.388550	159.040000
402.482147	155.760000
402.575745	153.300000
402.669373	151.260000
402.762970	149.420000
402.856567	148.920000
402.950195	148.360000
403.043793	147.780000
403.137390	148.480000
403.231018	148.020000
403.324615	148.120000
403.418243	147.660000
403.511841	148.000000
403.605469	147.340000
403.699066	147.940000
403.792694	147.600000
403.886292	148.020000
403.979919	148.140000
404.073517	147.700000
404.167145	147.640000
404.260712	147.820000
404.354370	147.160000
404.447937	147.080000
404.541595	147.300000
404.635162	147.200000
404.728821	147.600000
404.822418	147.520000
404.916046	147.180000
405.009644	147.500000
405.103271	147.720000
405.196899	146.880000
405.290497	147.100000
405.384125	147.580000
405.477722	147.180000
405.571350	146.820000
405.664948	147.240000
405.758575	146.900000
405.852203	146.220000
405.945801	146.620000
406.039429	146.720000
406.133057	146.300000
406.226654	146.440000
406.320312	146.700000
406.413879	146.500000
406.507538	146.660000
406.601135	146.460000
406.694763	146.880000
406.788361	146.660000
406.882019	146.120000
406.975586	146.600000
407.069244	147.260000
407.162872	147.240000
407.256470	147.280000
407.350098	147.820000
407.443726	147.040000
407.537323	146.660000
407.630951	146.840000
407.724579	146.500000
407.818207	146.740000
407.911804	146.860000
408.005432	146.660000
408.099060	146.600000
408.192688	147.240000
408.286285	146.940000
408.379913	146.620000
408.473572	146.960000
408.567169	146.120000
408.660828	145.920000
408.754395	145.620000
408.848053	145.860000
408.941650	145.820000
409.035309	146.040000
409.128906	145.920000
409.222565	146.180000
409.316132	146.580000
409.409790	146.280000
409.503387	146.560000
409.597046	146.740000
409.690674	146.820000
409.784302	146.500000
409.877930	146.580000
409.971558	146.440000
410.065186	146.300000
410.158783	145.960000
410.252411	146.040000
410.346039	146.440000
410.439667	146.320000
410.533295	146.620000
410.626923	147.220000
410.720551	147.060000
410.814209	147.540000
410.907806	147.900000
411.001465	147.320000
411.095062	147.180000
411.188721	147.160000
411.282318	146.380000
411.375977	145.860000
411.469574	146.240000
411.563232	146.080000
411.656830	145.940000
411.750488	145.900000
411.844086	145.980000
411.937744	145.940000
412.031372	145.900000
412.125000	146.340000
412.218628	146.320000
412.312256	147.000000
412.405884	147.600000
412.499512	147.320000
412.593170	147.280000
412.686798	147.380000
412.780426	146.660000
412.874054	146.220000
412.967682	146.680000
413.061310	146.960000
413.154968	146.880000
413.248566	147.640000
413.342224	147.620000
413.435852	147.560000
413.529510	147.180000
413.623108	146.800000
413.716766	146.480000
413.810364	146.720000
413.904022	146.280000
413.997650	146.200000
414.091309	147.240000
414.184906	146.960000
414.278564	146.300000
414.372192	146.960000
414.465851	147.000000
414.559479	146.400000
414.653107	147.420000
414.746735	147.640000
414.840393	147.480000
414.934021	148.020000
415.027649	147.780000
415.121277	147.280000
415.214935	147.820000
415.308563	147.460000
415.402191	146.500000
415.495850	146.560000
415.589478	146.020000
415.683136	145.420000
415.776733	145.980000
415.870422	146.880000
415.964020	146.660000
416.057678	146.860000
416.151306	146.960000
416.244965	146.540000
416.338562	146.280000
416.432251	146.860000
416.525848	147.600000
416.619507	147.980000
416.713165	148.380000
416.806793	148.120000
416.900421	148.220000
416.994080	147.140000
417.087708	146.700000
417.181366	145.920000
417.274994	146.000000
417.368622	146.200000
417.462280	147.340000
417.555908	147.640000
417.649567	147.880000
417.743195	147.820000
417.836853	147.460000
417.930481	147.140000
418.024170	147.000000
418.117767	147.320000
418.211426	147.400000
418.305054	147.560000
418.398712	146.880000
418.492340	147.180000
418.585999	147.420000
418.679626	147.500000
418.773285	147.420000
418.866913	148.080000
418.960571	148.100000
419.054230	147.900000
419.147858	147.960000
419.241516	147.940000
419.335144	147.440000
419.428802	147.600000
419.522461	147.740000
419.616089	147.060000
419.709747	146.960000
419.803375	147.040000
419.897034	146.300000
419.990662	146.100000
420.084320	147.020000
420.177979	147.260000
420.271606	147.800000
420.365295	148.340000
420.458893	148.220000
420.552582	148.260000
420.646210	148.000000
420.739868	147.300000
420.833496	146.960000
420.927155	146.840000
421.020782	146.060000
421.114471	145.960000
421.208069	146.140000
421.301758	146.520000
421.395386	146.780000
421.489044	146.800000
421.582703	146.640000
421.676361	147.120000
421.769989	146.420000
421.863647	146.580000
421.957306	147.240000
422.050934	147.640000
422.144592	147.180000
422.238251	147.380000
422.331909	147.000000
422.425537	146.520000
422.519196	146.200000
422.612854	145.940000
422.706543	145.640000
422.800140	146.100000
422.893829	146.000000
422.987457	145.640000
423.081146	145.840000
423.174744	146.600000
423.268433	146.220000
423.362061	146.320000
423.455750	146.380000
423.549347	146.480000
423.643036	145.700000
423.736664	145.800000
423.830353	145.800000
423.924011	146.400000
424.017639	145.880000
424.111298	146.060000
424.204956	146.120000
424.298615	146.140000
424.392273	146.080000
424.485931	146.480000
424.579559	146.420000
424.673218	146.000000
424.766876	146.120000
424.860535	145.800000
424.954193	145.800000
425.047882	146.820000
425.141510	147.180000
425.235199	146.860000
425.328796	146.880000
425.422485	146.940000
425.516113	145.740000
425.609802	145.520000
425.703430	145.800000
425.797119	145.720000
425.890747	145.620000
425.984436	145.860000
426.078064	146.080000
426.171753	146.080000
426.265411	145.800000
426.359070	146.180000
426.452728	145.920000
426.546356	145.880000
426.640015	145.560000
426.733673	145.780000
426.827332	145.420000
426.920990	146.720000
427.014648	146.500000
427.108307	146.600000
427.201965	147.400000
427.295624	147.500000
427.389282	146.600000
427.482941	146.780000
427.576630	147.000000
427.670258	145.980000
427.763947	145.820000
427.857574	145.860000
427.951263	145.800000
428.044922	145.360000
428.138611	145.780000
428.232239	146.120000
428.325928	146.880000
428.419556	147.660000
428.513245	147.780000
428.606903	147.860000
428.700562	147.620000
428.794220	146.320000
428.887878	145.280000
428.981537	145.660000
429.075195	145.700000
429.168854	146.120000
429.262512	146.800000
429.356201	147.400000
429.449860	147.180000
429.543518	147.260000
429.637177	147.240000
429.730835	147.180000
429.824493	147.160000
429.918182	147.280000
430.011810	146.780000
430.105530	146.060000
430.199158	146.020000
430.292847	145.600000
430.386475	145.500000
430.480164	145.020000
430.573792	145.100000
430.667511	145.000000
430.761139	144.980000
430.854828	145.400000
430.948456	145.960000
431.042145	146.440000
431.135834	146.300000
431.229492	146.540000
431.323151	146.560000
431.416809	146.760000
431.510468	146.500000
431.604156	146.220000
431.697815	146.240000
431.791473	145.840000
431.885132	145.440000
431.978821	145.920000
432.072479	146.580000
432.166138	146.900000
432.259827	146.840000
432.353485	147.600000
432.447174	147.260000
432.540802	147.000000
432.634491	147.060000
432.728149	147.440000
432.821838	147.560000
432.915466	147.500000
433.009186	147.580000
433.102814	146.820000
433.196503	146.500000
433.290131	145.880000
433.383850	145.940000
433.477509	145.800000
433.571167	146.520000
433.664856	147.140000
433.758514	147.940000
433.852173	147.760000
433.945862	147.940000
434.039520	148.000000
434.133179	147.060000
434.226868	146.500000
434.320526	146.220000
434.414185	146.680000
434.507874	146.160000
434.601562	146.860000
434.695221	146.800000
434.788910	147.160000
434.882538	147.140000
434.976257	146.680000
435.069885	146.740000
435.163574	146.680000
435.257233	146.000000
435.350922	145.920000
435.444580	145.980000
435.538269	145.620000
435.631897	146.180000
435.725616	147.400000
435.819275	147.320000
435.912964	148.220000
436.006622	148.720000
436.100311	148.220000
436.193970	147.140000
436.287628	147.200000
436.381317	146.600000
436.474976	145.920000
436.568665	145.720000
436.662323	146.180000
436.756012	145.880000
436.849670	145.820000
436.943390	145.660000
437.037018	145.700000
437.130737	145.640000
437.224365	145.520000
437.318085	145.720000
437.411713	146.100000
437.505432	146.620000
437.599060	147.100000
437.692780	148.060000
437.786407	147.820000
437.880127	147.760000
437.973755	147.440000
438.067474	146.780000
438.161133	146.200000
438.254822	146.880000
438.348480	146.580000
438.442169	146.840000
438.535828	147.340000
438.629517	146.840000
438.723175	145.960000
438.816864	146.680000
438.910553	146.160000
439.004211	145.860000
439.097900	145.860000
439.191559	146.180000
439.285248	145.520000
439.378906	146.000000
439.472626	146.000000
439.566284	146.180000
439.659973	146.560000
439.753632	146.440000
439.847321	146.680000
439.940979	146.860000
440.034698	146.940000
440.128326	146.160000
440.222046	146.620000
440.315674	145.860000
440.409393	146.180000
440.503082	146.100000
440.596741	146.660000
440.690430	146.420000
440.784088	146.480000
440.877777	145.380000
440.971466	145.340000
441.065125	145.060000
441.158813	144.980000
441.252502	145.220000
441.346161	145.880000
441.439850	146.140000
441.533539	145.920000
441.627197	146.220000
441.720886	145.980000
441.814606	146.420000
441.908234	146.800000
442.001953	146.880000
442.095612	146.720000
442.189301	146.980000
442.282959	146.920000
442.376678	146.020000
442.470306	146.760000
442.564026	146.600000
442.657684	146.640000
442.751404	146.420000
442.845032	147.480000
442.938751	147.020000
443.032440	147.300000
443.126099	146.820000
443.219788	146.920000
443.313477	146.560000
443.407166	146.620000
443.500824	146.680000
443.594513	147.020000
443.688202	146.680000
443.781891	145.920000
443.875549	145.600000
443.969238	145.300000
444.062927	145.120000
444.156647	145.240000
444.250275	145.720000
444.343994	146.280000
444.437653	146.580000
444.531372	146.720000
444.625031	146.540000
444.718719	146.140000
444.812378	146.060000
444.906097	145.480000
444.999756	145.280000
445.093445	145.340000
445.187103	145.540000
445.280823	146.020000
445.374512	146.300000
445.468201	146.360000
445.561859	146.500000
445.655548	146.640000
445.749237	145.900000
445.842926	146.120000
445.936615	146.900000
446.030304	146.780000
446.123962	147.160000
446.217651	147.000000
446.311340	146.900000
446.405029	146.300000
446.498749	146.000000
446.592407	145.420000
446.686096	146.220000
446.779755	146.240000
446.873474	146.620000
446.967133	147.100000
447.060852	147.220000
447.154510	146.520000
447.248230	146.800000
447.341858	146.520000
447.435577	145.980000
447.529236	145.800000
447.622955	145.920000
447.716644	145.680000
447.810333	145.540000
447.904022	146.280000
447.997711	146.160000
448.091400	146.440000
448.185059	146.520000
448.278748	146.880000
448.372437	146.480000
448.466125	146.880000
448.559814	146.560000
448.653503	146.920000
448.747192	146.960000
448.840912	147.140000
448.934570	147.320000
449.028290	147.940000
449.121948	147.540000
449.215637	147.260000
449.309296	146.880000
449.403015	146.580000
449.496674	146.400000
449.590393	146.220000
449.684052	146.240000
449.777771	147.400000
449.871429	147.200000
449.965149	146.620000
450.058838	147.020000
450.152527	147.180000
450.246216	146.180000
450.339905	146.400000
450.433594	146.340000
450.527283	147.000000
450.620972	146.840000
450.714661	147.100000
450.808350	147.380000
450.902039	148.000000
450.995728	147.080000
451.089417	146.700000
451.183105	146.820000
451.276794	147.040000
451.370514	146.220000
451.464172	145.760000
451.557892	145.840000
451.651550	145.680000
451.745270	145.020000
451.838928	145.000000
451.932648	145.620000
452.026306	146.300000
452.120026	146.120000
452.213684	146.580000
452.307404	146.860000
452.401062	147.000000
452.494781	146.880000
452.588470	147.120000
452.682159	146.700000
452.775848	146.880000
452.869537	146.420000
452.963226	146.060000
453.056915	145.940000
453.150604	146.320000
453.244293	146.340000
453.337982	147.100000
453.431671	147.440000
453.525360	147.960000
453.619049	147.740000
453.712769	148.080000
453.806427	147.220000
453.900146	146.920000
453.993805	146.720000
454.087555	147.120000
454.181213	146.800000
454.274933	146.980000
454.368591	146.960000
454.462311	146.740000
454.555969	146.280000
454.649689	146.800000
454.743347	146.560000
454.837067	147.340000
454.930756	147.540000
455.024445	147.600000
455.118134	147.360000
455.211853	147.520000
455.305542	146.520000
455.399231	146.460000
455.492920	146.360000
455.586609	146.000000
455.680298	146.220000
455.773987	146.180000
455.867676	146.060000
455.961365	146.560000
456.055084	146.600000
456.148773	146.300000
456.242493	146.580000
456.336151	146.560000
456.429871	146.460000
456.523529	146.940000
456.617249	146.960000
456.710907	147.520000
456.804626	147.520000
456.898315	146.720000
456.992035	146.240000
457.085693	146.220000
457.179413	145.280000
457.273102	145.960000
457.366791	146.540000
457.460480	146.760000
457.554199	147.120000
457.647888	147.300000
457.741577	146.760000
457.835266	146.600000
457.928955	147.040000
458.022644	147.140000
458.116364	147.680000
458.210052	147.580000
458.303741	147.960000
458.397461	146.860000
458.491119	146.340000
458.584839	146.080000
458.678528	145.840000
458.772247	145.460000
458.865906	145.900000
458.959625	146.920000
459.053284	146.860000
459.147003	146.680000
459.240692	146.960000
459.334412	147.080000
459.428070	146.420000
459.521790	146.300000
459.615479	146.620000
459.709198	147.020000
459.802887	146.840000
459.896576	146.720000
459.990265	146.980000
460.083954	146.920000
460.177673	146.240000
460.271362	146.340000
460.365051	146.220000
460.458740	146.000000
460.552429	145.640000
460.646149	145.820000
460.739838	145.580000
460.833527	145.860000
460.927246	145.780000
461.020905	146.280000
461.114655	146.100000
461.208313	146.400000
461.302032	146.020000
461.395691	146.320000
461.489441	146.080000
461.583099	146.180000
461.676819	146.000000
461.770477	146.260000
461.864197	145.720000
461.957916	145.680000
462.051605	145.260000
462.145294	145.920000
462.238983	145.500000
462.332703	146.340000
462.426392	146.960000
462.520081	147.180000
462.613770	146.420000
462.707489	147.040000
462.801178	146.560000
462.894867	146.040000
462.988556	146.140000
463.082275	146.380000
463.175964	145.760000
463.269684	145.980000
463.363342	145.940000
463.457092	145.380000
463.550751	146.000000
463.644470	146.420000
463.738129	146.240000
463.831879	146.320000
463.925537	147.220000
464.019257	146.760000
464.112946	146.400000
464.206665	145.980000
464.300323	146.000000
464.394043	145.480000
464.487762	145.240000
464.581451	145.720000
464.675140	145.700000
464.768829	145.800000
464.862549	146.200000
464.956238	146.480000
465.049927	146.320000
465.143646	146.800000
465.237335	146.480000
465.331024	146.980000
465.424713	146.960000
465.518433	147.040000
465.612152	146.880000
465.705811	147.040000
465.799561	146.480000
465.893219	145.960000
465.986938	145.720000
466.080597	145.380000
466.174347	145.400000
466.268005	145.340000
466.361725	145.520000
466.455414	145.620000
466.549133	145.740000
466.642792	146.200000
466.736542	145.600000
466.830231	145.900000
466.923920	145.720000
467.017609	145.960000
467.111328	145.220000
467.205017	145.860000
467.298706	145.860000
467.392426	146.280000
467.486115	146.740000
467.579803	146.600000
467.673523	146.800000
467.767212	146.700000
467.860901	146.300000
467.954651	146.000000
468.048309	146.840000
468.142029	146.560000
468.235718	146.540000
468.329437	146.520000
468.423096	146.460000
468.516846	145.960000
468.610504	145.620000
468.704224	145.420000
468.797913	145.200000
468.891632	145.320000
468.985291	145.460000
469.079010	145.780000
469.172729	145.600000
469.266418	146.260000
469.360107	146.400000
469.453827	146.300000
469.547516	146.420000
469.641205	147.080000
469.734924	147.120000
469.828613	147.200000
469.922302	147.060000
470.016022	147.020000
470.109711	146.440000
470.203430	145.820000
470.297150	144.940000
470.390808	145.400000
470.484558	145.200000
470.578217	146.100000
470.671936	147.000000
470.765625	147.900000
470.859344	147.560000
470.953003	147.800000
471.046753	146.960000
471.140411	146.060000
471.234131	145.880000
471.327820	146.380000
471.421539	146.500000
471.515228	146.240000
471.608948	146.560000
471.702637	146.300000
471.796326	145.760000
471.890045	145.880000
471.983734	146.100000
472.077423	145.620000
472.171143	145.840000
472.264832	145.980000
472.358521	145.360000
472.452240	145.340000
472.545929	146.260000
472.639648	145.980000
472.733337	146.080000
472.827057	146.740000
472.920746	146.740000
473.014465	146.860000
473.108124	147.320000
473.201874	147.280000
473.295532	146.660000
473.389252	147.180000
473.482941	147.180000
473.576660	146.460000
473.670319	146.400000
473.764069	147.000000
473.857727	146.920000
473.951477	146.920000
474.045166	147.680000
474.138855	147.440000
474.232574	147.020000
474.326263	146.900000
474.419952	146.680000
474.513672	146.600000
474.607361	146.840000
474.701050	147.180000
474.794769	147.640000
474.888458	148.080000
474.982178	147.960000
475.075867	148.180000
475.169586	148.100000
475.263275	147.500000
475.356995	146.940000
475.450653	146.580000
475.544403	146.140000
475.638062	147.000000
475.731812	146.880000
475.825470	146.880000
475.919189	147.140000
476.012878	147.540000
476.106598	146.460000
476.200256	147.160000
476.294006	147.120000
476.387695	147.060000
476.481384	146.860000
476.575104	146.860000
476.668793	146.260000
476.762512	146.180000
476.856201	146.740000
476.949890	146.280000
477.043610	146.000000
477.137299	146.040000
477.230988	146.320000
477.324707	145.880000
477.418396	146.460000
477.512146	146.660000
477.605804	146.760000
477.699524	146.780000
477.793213	146.600000
477.886932	146.460000
477.980591	146.480000
478.074341	146.240000
478.167999	145.880000
478.261749	146.020000
478.355408	146.040000
478.449127	146.240000
478.542816	146.860000
478.636536	147.520000
478.730225	147.640000
478.823944	147.960000
478.917633	148.140000
479.011322	148.080000
479.105042	147.620000
479.198730	147.680000
479.292450	147.280000
479.386139	147.320000
479.479828	147.120000
479.573547	147.200000
479.667267	146.980000
479.760925	147.240000
479.854675	147.120000
479.948334	147.160000
480.042084	146.780000
480.135742	147.300000
480.229462	146.560000
480.323151	146.560000
480.416870	146.220000
480.510529	146.300000
480.604279	145.220000
480.697937	145.900000
480.791656	145.140000
480.885345	145.060000
480.979065	145.080000
481.072754	145.920000
481.166473	146.000000
481.260132	146.560000
481.353882	146.700000
481.447540	146.780000
481.541260	146.900000
481.635010	146.340000
481.728668	146.040000
481.822388	146.040000
481.916077	146.160000
482.009796	146.040000
482.103485	146.740000
482.197205	146.980000
482.290863	147.520000
482.384613	147.360000
482.478271	146.920000
482.571991	146.560000
482.665680	146.640000
482.759399	146.540000
482.853058	147.100000
482.946808	147.140000
483.040466	146.920000
483.134216	146.660000
483.227875	146.220000
483.321594	146.680000
483.415283	146.760000
483.509003	146.760000
483.602661	146.640000
483.696411	146.820000
483.790070	146.040000
483.883789	145.960000
483.977478	146.680000
484.071198	146.980000
484.164917	146.800000
484.258606	146.400000
484.352325	146.820000
484.445984	146.420000
484.539734	146.500000
484.633392	146.320000
484.727142	147.000000
484.820801	146.640000
484.914520	146.660000
485.008209	146.800000
485.101929	147.160000
485.195587	146.660000
485.289337	146.620000
485.382996	147.040000
485.476715	147.120000
485.570404	147.520000
485.664124	147.420000
485.757782	147.800000
485.851532	147.260000
485.945190	146.800000
486.038910	146.700000
486.132599	147.000000
486.226318	146.280000
486.319977	146.340000
486.413727	147.080000
486.507446	146.420000
486.601105	145.920000
486.694855	146.020000
486.788513	145.680000
486.882233	145.380000
486.975922	145.680000
487.069641	145.660000
487.163300	145.700000
487.257050	146.780000
487.350708	146.420000
487.444427	146.200000
487.538116	146.160000
487.631836	145.920000
487.725494	145.180000
487.819214	145.140000
487.912903	145.200000
488.006622	146.040000
488.100281	146.740000
488.194031	146.880000
488.287689	147.640000
488.381409	148.380000
488.475098	147.780000
488.568817	147.960000
488.662476	147.540000
488.756226	146.500000
488.849945	145.540000
488.943604	145.800000
489.037354	145.480000
489.131012	145.640000
489.224731	145.720000
489.318390	145.960000
489.412140	145.840000
489.505798	145.880000
489.599518	145.480000
489.693207	145.880000
489.786926	145.680000
489.880585	145.700000
489.974335	145.940000
490.067993	147.100000
490.161713	147.180000
490.255371	148.180000
490.349121	148.240000
490.442780	147.920000
490.536499	147.080000
490.630188	147.020000
490.723907	146.240000
490.817566	146.100000
490.911285	146.240000
491.004974	146.020000
491.098694	145.720000
491.192413	146.320000
491.286102	146.200000
491.379822	146.320000
491.473480	146.820000
491.567200	146.920000
491.660889	146.180000
491.754608	146.120000
491.848267	145.880000
491.941986	145.800000
492.035675	145.860000
492.129395	146.160000
492.223053	146.380000
492.316772	146.520000
492.410461	146.520000
492.504181	146.680000
492.597839	146.380000
492.691559	146.540000
492.785248	146.520000
492.878967	146.560000
492.972626	146.300000
493.066345	146.640000
493.160034	145.960000
493.253754	145.800000
493.347412	145.500000
493.441132	145.640000
493.534882	146.000000
493.628540	146.820000
493.722260	147.420000
493.815918	147.760000
493.909668	148.200000
494.003326	148.000000
494.097046	147.700000
494.190704	147.360000
494.284454	147.340000
494.378113	147.040000
494.471832	146.860000
494.565491	146.460000
494.659210	146.220000
494.752899	146.120000
494.846619	145.800000
494.940277	145.860000
495.033997	145.940000
495.127686	145.700000
495.221405	145.280000
495.315063	145.780000
495.408783	145.720000
495.502441	145.920000
495.596191	146.040000
495.689850	146.260000
495.783569	146.340000
495.877228	146.420000
495.970947	146.040000
496.064697	146.280000
496.158356	147.280000
496.252075	147.040000
496.345734	146.880000
496.439453	148.140000
496.533142	147.920000
496.626862	147.580000
496.720520	147.540000
496.814240	147.660000
496.907898	147.060000
497.001617	147.280000
497.095306	146.540000
497.189026	146.260000
497.282684	146.540000
497.376404	146.280000
497.470062	146.060000
497.563782	146.600000
497.657471	146.620000
497.751190	146.000000
497.844849	146.120000
497.938568	146.320000
498.032227	146.200000
498.125946	146.320000
498.219635	146.260000
498.313354	146.380000
498.407074	146.260000
498.500732	146.340000
498.594452	146.360000
498.688110	146.580000
498.781830	146.260000
498.875519	146.280000
498.969238	146.160000
499.062897	146.400000
499.156616	146.620000
499.250275	146.780000
499.343994	146.080000
499.437653	145.860000
499.531372	145.840000
499.625061	146.160000
499.718781	146.460000
499.812439	147.500000
499.906158	147.460000
499.999817	147.320000
500.093536	146.640000
500.187195	146.320000
500.280914	145.900000
500.374573	146.320000
500.468323	146.140000
500.561981	146.580000
500.655701	146.360000
500.749420	146.400000
500.843079	146.420000
500.936798	146.760000
501.030457	147.140000
501.124176	147.500000
501.217834	147.520000
501.311554	147.280000
501.405212	146.800000
501.498962	146.160000
501.592621	145.960000
501.686340	145.740000
501.779999	145.960000
501.873718	146.400000
501.967377	146.520000
502.061096	146.820000
502.154755	146.840000
502.248474	146.780000
502.342133	146.720000
502.435852	146.580000
502.529510	147.240000
502.623230	147.980000
502.716888	147.260000
502.810608	147.220000
502.904266	147.680000
502.997986	146.640000
503.091705	145.620000
503.185364	145.960000
503.279083	145.800000
503.372772	145.580000
503.466492	145.480000
503.560150	145.800000
503.653870	146.080000
503.747528	146.340000
503.841248	146.020000
503.934906	146.180000
504.028625	145.980000
504.122284	146.080000
504.216003	146.620000
504.309662	146.580000
504.403381	146.840000
504.497040	147.000000
504.590759	146.800000
504.684418	146.480000
504.778137	146.940000
504.871796	147.280000
504.965515	147.080000
505.059174	147.000000
505.152893	146.700000
505.246521	146.060000
505.340240	145.640000
505.433899	146.240000
505.527618	146.500000
505.621338	146.780000
505.714996	147.340000
505.808716	147.280000
505.902374	147.600000
505.996094	147.760000
506.089752	147.400000
506.183472	147.380000
506.277130	147.680000
506.370850	147.060000
506.464508	146.540000
506.558228	146.300000
506.651886	145.780000
506.745605	145.680000
506.839264	145.960000
506.932983	146.520000
507.026611	146.700000
507.120331	147.360000
507.213989	146.840000
507.307709	146.520000
507.401367	146.720000
507.495087	147.420000
507.588745	146.880000
507.682465	148.000000
507.776123	148.000000
507.869843	147.280000
507.963531	147.060000
508.057190	147.720000
508.150909	146.720000
508.244568	147.000000
508.338287	147.020000
508.431946	146.540000
508.525665	146.220000
508.619324	146.160000
508.713013	146.380000
508.806671	146.600000
508.900391	147.420000
508.994049	147.120000
509.087769	147.240000
509.181427	146.980000
509.275146	146.800000
509.368774	146.100000
509.462494	145.900000
509.556152	145.860000
509.649872	146.080000
509.743530	146.460000
509.837250	146.580000
509.930878	147.020000
510.024597	146.960000
510.118256	146.520000
510.211975	146.300000
510.305695	146.100000
510.399353	146.420000
510.493042	147.040000
510.586700	147.540000
510.680420	148.080000
510.774078	148.220000
510.867798	148.000000
510.961426	147.600000
511.055145	147.320000
511.148804	146.860000
511.242523	147.300000
511.336151	147.260000
511.429871	147.580000
511.523529	147.440000
511.617249	146.980000
511.710876	146.180000
511.804596	145.740000
511.898254	145.540000
511.991974	145.840000
512.085632	146.020000
512.179321	146.500000
512.272949	147.140000
512.366699	147.580000
512.460327	147.360000
512.554077	148.180000
512.647766	147.840000
512.741394	147.620000
512.835144	147.780000
512.928772	147.880000
513.022461	147.500000
513.116150	147.380000
513.209839	147.640000
513.303467	146.920000
513.397217	146.420000
513.490845	145.980000
513.584595	146.080000
513.678223	145.640000
513.771912	145.080000
513.865601	145.600000
513.959290	145.620000
514.052917	145.740000
514.146667	146.520000
514.240295	147.120000
514.333984	147.180000
514.427673	146.820000
514.521362	147.040000
514.614990	146.160000
514.708740	146.680000
514.802368	146.800000
514.896057	147.140000
514.989746	147.820000
515.083435	147.780000
515.177124	147.320000
515.270752	147.100000
515.364502	147.500000
515.458130	147.000000
515.551819	146.880000
515.645508	146.920000
515.739197	146.680000
515.832825	146.640000
515.926575	146.300000
516.020203	146.780000
516.113892	147.160000
516.207520	147.140000
516.301270	147.060000
516.394897	147.300000
516.488586	147.580000
516.582275	147.160000
516.675964	147.020000
516.769592	146.520000
516.863281	146.680000
516.956970	146.840000
517.050659	146.880000
517.144287	147.140000
517.238037	147.680000
517.331665	147.040000
517.425354	146.380000
517.519043	146.180000
517.612732	146.540000
517.706421	146.180000
517.800049	146.100000
517.893738	145.860000
517.987427	145.640000
518.081116	145.220000
518.174744	144.940000
518.268433	145.360000
518.362122	146.140000
518.455811	146.680000
518.549438	147.160000
518.643127	148.060000
518.736816	147.760000
518.830505	147.320000
518.924133	147.140000
519.017822	146.960000
519.111511	146.760000
519.205200	147.380000
519.298828	147.520000
519.392517	147.140000
519.486206	147.640000
519.579895	147.400000
519.673523	146.940000
519.767212	146.940000
519.860901	147.120000
519.954590	146.300000
520.048279	146.360000
520.141907	146.280000
520.235596	146.840000
520.329224	147.480000
520.422974	147.580000
520.516602	147.420000
520.610291	147.440000
520.703918	147.120000
520.797607	146.440000
520.891296	146.680000
520.984985	146.920000
521.078613	147.480000
521.172302	146.880000
521.265930	147.740000
521.359680	148.220000
521.453308	147.940000
521.546997	147.360000
521.640625	147.480000
521.734314	146.840000
521.827942	146.300000
521.921692	146.500000
522.015320	146.760000
522.109009	146.480000
522.202698	146.380000
522.296326	146.360000
522.390015	146.740000
522.483704	146.820000
522.577393	147.220000
522.671021	147.160000
522.764709	146.640000
522.858337	146.820000
522.952026	146.500000
523.045654	146.960000
523.139404	147.600000
523.233032	148.320000
523.326721	147.880000
523.420349	148.400000
523.514038	147.920000
523.607666	148.000000
523.701355	147.340000
523.795044	147.140000
523.888733	147.000000
523.982361	147.380000
524.076050	146.640000
524.169678	147.360000
524.263367	147.620000
524.356995	147.340000
524.450684	147.080000
524.544373	147.320000
524.638062	147.140000
524.731750	147.000000
524.825378	147.020000
524.919067	146.420000
525.012695	146.320000
525.106384	145.960000
525.200012	145.920000
525.293701	145.520000
525.387329	146.080000
525.481018	146.100000
525.574646	146.020000
525.668396	145.980000
525.762024	146.660000
525.855713	146.700000
525.949341	146.600000
526.043030	146.940000
526.136658	146.640000
526.230347	146.360000
526.323975	146.260000
526.417664	146.360000
526.511292	146.480000
526.604980	146.880000
526.698608	146.820000
526.792297	146.860000
526.885925	146.940000
526.979614	146.860000
527.073303	146.600000
527.166931	146.640000
527.260620	146.780000
527.354309	147.340000
527.447998	147.260000
527.541626	147.080000
527.635315	147.260000
527.728943	147.580000
527.822632	147.540000
527.916260	147.420000
528.009949	147.640000
528.103577	147.420000
528.197266	146.640000
528.290894	146.080000
528.384583	146.100000
528.478210	146.260000
528.571899	146.580000
528.665527	147.220000
528.759216	147.280000
528.852844	147.780000
528.946533	147.880000
529.040161	147.780000
529.133850	147.320000
529.227478	147.700000
529.321167	147.960000
529.414856	148.220000
529.508484	148.640000
529.602173	148.820000
529.695801	148.600000
529.789490	148.240000
529.883057	148.080000
529.976746	148.040000
530.070374	148.280000
530.164062	148.100000
530.257690	148.040000
530.351379	148.200000
530.445007	147.700000
530.538696	146.980000
530.632324	147.400000
530.726013	147.260000
530.819641	146.760000
530.913330	147.220000
531.006958	147.740000
531.100647	147.400000
531.194275	147.580000
531.287964	147.660000
531.381592	147.140000
531.475220	147.180000
531.568848	147.220000
531.662537	147.000000
531.756226	147.440000
531.849854	147.720000
531.943542	147.560000
532.037170	147.000000
532.130859	147.500000
532.224487	147.000000
532.318176	146.240000
532.411804	146.900000
532.505432	147.440000
532.599060	146.780000
532.692749	146.660000
532.786377	147.420000
532.880066	146.220000
532.973694	145.880000
533.067383	145.740000
533.161011	145.720000
533.254639	145.520000
533.348267	145.820000
533.441956	146.260000
533.535583	146.480000
533.629272	146.660000
533.722900	146.120000
533.816589	146.180000
533.910156	146.120000
534.003845	145.520000
534.097534	145.900000
534.191162	146.920000
534.284851	146.900000
534.378479	146.980000
534.472107	147.480000
534.565735	146.980000
534.659424	146.900000
534.753052	147.280000
534.846741	146.540000
534.940369	147.540000
535.033997	147.600000
535.127625	147.520000
535.221313	147.940000
535.314941	148.080000
535.408630	146.900000
535.502197	147.420000
535.595886	146.800000
535.689514	146.060000
535.783203	146.720000
535.876831	147.420000
535.970459	147.200000
536.064087	147.240000
536.157776	147.380000
536.251404	147.200000
536.345093	146.980000
536.438721	146.920000
536.532349	147.240000
536.626038	147.300000
536.719666	147.480000
536.813293	147.020000
536.906921	146.860000
537.000610	146.860000
537.094238	146.560000
537.187866	146.420000
537.281494	146.520000
537.375183	146.820000
537.468811	146.840000
537.562439	146.940000
537.656067	146.660000
537.749756	146.820000
537.843384	147.020000
537.937012	147.140000
538.030640	147.180000
538.124329	147.320000
538.217896	147.620000
538.311584	147.320000
538.405212	146.980000
538.498901	147.280000
538.592468	148.020000
538.686157	147.440000
538.779785	146.820000
538.873413	147.000000
538.967102	146.600000
539.060730	145.740000
539.154358	146.240000
539.247986	146.780000
539.341675	146.540000
539.435242	146.700000
539.528931	146.940000
539.622559	146.340000
539.716187	146.900000
539.809814	147.160000
539.903503	147.180000
539.997070	147.120000
540.090759	147.340000
540.184387	146.880000
540.278015	147.280000
540.371643	147.540000
540.465332	147.560000
540.558899	147.620000
540.652588	147.540000
540.746216	147.000000
540.839844	147.260000
540.933472	147.240000
541.027100	147.060000
541.120728	147.180000
541.214417	147.320000
541.308044	147.300000
541.401672	146.960000
541.495300	146.880000
541.588928	146.600000
541.682617	146.560000
541.776184	145.820000
541.869873	146.240000
541.963440	146.620000
542.057129	146.760000
542.150757	146.840000
542.244385	146.860000
542.338013	146.340000
542.431641	146.000000
542.525269	146.120000
542.618958	146.560000
542.712524	146.900000
542.806213	147.220000
542.899780	147.780000
542.993469	147.520000
543.087036	146.880000
543.180725	146.600000
543.274292	146.860000
543.367981	146.880000
543.461548	147.440000
543.555237	147.600000
543.648926	148.000000
543.742493	148.420000
543.836182	148.260000
543.929749	147.960000
544.023437	147.920000
544.117004	147.760000
544.210693	147.600000
544.304260	147.540000
544.397949	147.460000
544.491516	147.880000
544.585205	147.760000
544.678772	147.240000
544.772461	147.620000
544.866028	147.260000
544.959717	146.940000
545.053284	146.980000
545.146973	147.080000
545.240540	146.860000
545.334229	147.820000
545.427795	148.180000
545.521423	148.380000
545.615051	149.040000
545.708679	149.380000
545.802307	148.820000
545.895935	149.140000
545.989624	149.480000
546.083191	148.700000
546.176880	148.620000
546.270447	148.560000
546.364136	148.680000
546.457703	148.620000
546.551331	148.780000
546.644958	148.740000
546.738586	149.040000
546.832214	148.020000
546.925842	147.420000
547.019409	147.760000
547.113098	147.220000
547.206665	146.920000
547.300354	147.380000
547.393921	147.800000
547.487549	147.660000
547.581177	147.720000
547.674805	147.540000
547.768433	146.900000
547.862061	146.880000
547.955627	146.280000
548.049316	146.680000
548.142883	147.000000
548.236572	147.680000
548.330139	147.420000
548.423767	147.660000
548.517456	147.520000
548.611023	147.780000
548.704651	147.040000
548.798279	146.880000
548.891907	147.360000
548.985474	147.140000
549.079163	147.100000
549.172729	147.400000
549.266357	147.540000
549.359985	147.540000
549.453613	147.160000
549.547180	147.020000
549.640869	147.280000
549.734436	147.360000
549.828064	147.520000
549.921631	147.740000
550.015320	147.280000
550.108887	147.600000
550.202515	147.440000
550.296143	146.900000
550.389771	146.880000
550.483337	147.080000
550.576965	146.740000
550.670593	147.160000
550.764221	147.240000
550.857849	147.360000
550.951477	147.100000
551.045105	146.820000
551.138672	146.600000
551.232300	146.240000
551.325928	146.440000
551.419556	146.820000
551.513123	146.920000
551.606750	146.740000
551.700378	147.140000
551.794006	147.000000
551.887573	146.680000
551.981201	147.060000
552.074768	147.100000
552.168457	146.540000
552.262024	147.340000
552.355652	147.440000
552.449219	147.600000
552.542847	147.620000
552.636475	147.800000
552.730103	146.920000
552.823669	146.780000
552.917297	146.260000
553.010864	146.380000
553.104553	146.600000
553.198181	146.540000
553.291748	146.800000
553.385376	147.180000
553.478943	147.100000
553.572571	147.200000
553.666199	147.400000
553.759827	147.120000
553.853394	146.640000
553.947021	146.500000
554.040588	146.380000
554.134216	146.540000
554.227783	147.560000
554.321411	148.120000
554.415039	148.060000
554.508667	148.000000
554.602234	148.100000
554.695862	147.120000
554.789429	146.860000
554.883057	146.940000
554.976624	147.060000
555.070251	146.720000
555.163818	146.640000
555.257507	146.700000
555.351074	146.660000
555.444702	147.520000
555.538330	147.040000
555.631897	147.520000
555.725525	147.480000
555.819092	147.200000
555.912720	146.240000
556.006287	147.280000
556.099915	146.940000
556.193481	146.920000
556.287109	147.640000
556.380676	147.300000
556.474304	146.940000
556.567871	147.400000
556.661499	146.600000
556.755066	146.320000
556.848694	146.680000
556.942261	146.340000
557.035889	146.080000
557.129517	146.680000
557.223145	146.800000
557.316711	147.120000
557.410339	147.380000
557.503906	147.120000
557.597473	147.420000
557.691040	147.480000
557.784668	147.000000
557.878296	146.780000
557.971863	147.300000
558.065491	147.340000
558.159058	146.860000
558.252686	147.860000
558.346252	148.280000
558.439880	147.500000
558.533447	146.760000
558.627075	146.640000
558.720642	145.940000
558.814270	145.940000
558.907837	146.120000
559.001465	146.420000
559.095032	147.240000
559.188660	147.520000
559.282227	146.880000
559.375854	147.480000
559.469360	147.220000
559.562988	147.500000
559.656555	147.100000
559.750183	147.600000
559.843750	147.560000
559.937378	147.820000
560.030945	147.140000
560.124573	0.000000
560.218140	0.000000
560.311707	0.000000
560.405334	0.000000
560.498901	0.000000
560.592529	0.000000
560.686096	0.000000
560.779724	0.000000
560.873291	0.000000
560.966858	0.000000
561.060425	0.000000
561.154053	0.000000
561.247620	0.000000
561.341248	0.000000
561.434814	0.000000
561.528381	0.000000
561.621948	0.000000
561.715576	0.000000
561.809143	0.000000
561.902771	0.000000
561.996277	0.000000
562.089905	0.000000
562.183472	0.000000
562.277100	0.000000
