Model Number: SPM-002-B   
Serial Number: 70087108
Firmware Version: 004.15.4
Exposure Time: 100000.000000us
Data Taken on: 11-12-2020 19:28:18.108
Wavelength	Amplitude
221.570786	0.000000
221.663406	0.000000
221.756027	0.000000
221.848648	0.000000
221.941269	0.000000
222.033905	0.000000
222.126526	0.000000
222.219162	0.000000
222.311798	0.000000
222.404419	0.000000
222.497055	0.000000
222.589676	0.000000
222.682312	0.000000
222.774933	0.000000
222.867569	0.000000
222.960205	0.000000
223.052841	0.000000
223.145462	0.000000
223.238098	0.000000
223.330734	0.000000
223.423386	0.000000
223.516022	0.000000
223.608658	0.000000
223.701309	0.000000
223.793945	0.000000
223.886581	0.000000
223.979218	0.000000
224.071869	0.000000
224.164505	0.000000
224.257156	0.000000
224.349792	0.000000
224.442444	0.000000
224.535095	0.000000
224.627747	0.000000
224.720398	0.000000
224.813034	0.000000
224.905685	0.000000
224.998337	144.980000
225.090988	144.700000
225.183640	144.720000
225.276291	144.740000
225.368942	145.460000
225.461594	146.040000
225.554245	146.480000
225.646912	146.240000
225.739578	146.520000
225.832230	146.860000
225.924896	145.920000
226.017548	145.940000
226.110199	146.700000
226.202866	145.980000
226.295532	145.740000
226.388184	145.720000
226.480850	145.320000
226.573517	144.720000
226.666168	145.160000
226.758835	145.520000
226.851501	146.200000
226.944183	146.280000
227.036850	145.660000
227.129517	145.680000
227.222183	145.540000
227.314850	145.800000
227.407516	146.340000
227.500198	147.500000
227.592865	147.140000
227.685532	146.580000
227.778214	146.060000
227.870880	145.820000
227.963562	145.980000
228.056229	146.560000
228.148926	146.780000
228.241592	147.620000
228.334274	147.580000
228.426956	147.040000
228.519638	146.840000
228.612305	146.520000
228.704987	146.080000
228.797668	145.900000
228.890350	145.980000
228.983032	145.560000
229.075714	145.920000
229.168396	145.480000
229.261108	145.440000
229.353790	145.280000
229.446472	145.720000
229.539169	145.500000
229.631851	145.620000
229.724533	145.840000
229.817230	145.940000
229.909912	146.620000
230.002609	146.760000
230.095306	146.760000
230.187988	146.660000
230.280685	146.740000
230.373383	145.720000
230.466095	145.640000
230.558792	145.680000
230.651474	145.660000
230.744171	145.500000
230.836868	145.540000
230.929581	145.520000
231.022278	145.480000
231.114975	145.680000
231.207672	145.440000
231.300369	145.700000
231.393082	146.040000
231.485779	146.040000
231.578506	145.620000
231.671204	145.980000
231.763916	145.980000
231.856613	145.980000
231.949326	146.300000
232.042023	146.200000
232.134735	146.020000
232.227448	145.760000
232.320160	145.820000
232.412872	145.580000
232.505585	146.400000
232.598297	146.680000
232.691010	146.600000
232.783722	146.340000
232.876450	146.660000
232.969162	146.100000
233.061874	145.600000
233.154587	145.340000
233.247314	145.580000
233.340027	144.900000
233.432739	145.320000
233.525467	145.300000
233.618179	145.800000
233.710907	145.400000
233.803635	146.200000
233.896347	146.040000
233.989090	146.760000
234.081818	146.660000
234.174545	146.840000
234.267258	145.960000
234.359985	145.780000
234.452713	145.480000
234.545441	145.220000
234.638168	145.180000
234.730896	145.920000
234.823639	146.000000
234.916367	146.420000
235.009094	146.840000
235.101822	146.740000
235.194580	146.480000
235.287308	146.620000
235.380051	146.020000
235.472778	146.140000
235.565521	146.340000
235.658249	146.060000
235.750992	145.940000
235.843719	145.880000
235.936462	146.100000
236.029205	145.680000
236.121948	145.360000
236.214691	145.880000
236.307449	146.540000
236.400192	146.000000
236.492935	146.200000
236.585678	146.480000
236.678421	146.140000
236.771164	145.900000
236.863907	146.460000
236.956665	146.360000
237.049408	147.940000
237.142151	147.200000
237.234909	147.720000
237.327652	147.460000
237.420410	147.580000
237.513153	146.520000
237.605927	147.020000
237.698669	146.220000
237.791428	145.760000
237.884186	146.260000
237.976944	145.700000
238.069702	145.900000
238.162445	145.720000
238.255203	145.860000
238.347961	146.100000
238.440720	146.380000
238.533478	146.080000
238.626266	145.980000
238.719025	146.380000
238.811783	145.640000
238.904541	145.620000
238.997314	145.580000
239.090073	145.340000
239.182831	145.540000
239.275604	146.420000
239.368362	145.880000
239.461136	145.980000
239.553909	146.180000
239.646667	145.580000
239.739441	144.980000
239.832214	145.660000
239.925003	145.900000
240.017761	146.640000
240.110535	147.220000
240.203308	146.680000
240.296082	146.420000
240.388855	146.100000
240.481628	145.860000
240.574417	146.080000
240.667191	146.680000
240.759964	146.500000
240.852737	146.800000
240.945526	146.320000
241.038315	145.920000
241.131088	145.640000
241.223877	145.940000
241.316650	145.440000
241.409439	146.080000
241.502228	145.380000
241.595001	145.800000
241.687790	145.800000
241.780579	146.140000
241.873367	145.860000
241.966141	146.440000
242.058929	145.940000
242.151718	145.980000
242.244507	146.340000
242.337311	145.760000
242.430099	146.180000
242.522903	146.540000
242.615692	146.280000
242.708481	146.080000
242.801270	146.760000
242.894073	146.540000
242.986862	146.620000
243.079651	147.140000
243.172455	146.660000
243.265244	146.660000
243.358063	146.220000
243.450867	146.200000
243.543655	145.920000
243.636459	146.460000
243.729263	146.600000
243.822067	147.020000
243.914856	147.240000
244.007660	147.400000
244.100464	147.060000
244.193268	146.780000
244.286072	146.480000
244.378876	145.880000
244.471680	145.380000
244.564499	145.840000
244.657318	146.200000
244.750122	146.400000
244.842926	145.880000
244.935745	146.380000
245.028549	145.860000
245.121368	145.680000
245.214172	145.360000
245.306992	146.480000
245.399796	146.220000
245.492615	146.340000
245.585434	146.120000
245.678253	146.380000
245.771072	146.120000
245.863892	146.680000
245.956711	146.660000
246.049530	146.820000
246.142349	146.660000
246.235168	146.740000
246.327988	146.760000
246.420807	146.800000
246.513626	146.580000
246.606445	146.460000
246.699280	146.280000
246.792099	146.000000
246.884918	145.760000
246.977753	145.440000
247.070587	145.560000
247.163422	145.380000
247.256241	145.360000
247.349075	145.700000
247.441895	145.780000
247.534729	145.820000
247.627563	145.760000
247.720383	146.100000
247.813217	145.960000
247.906052	146.060000
247.998886	145.920000
248.091736	146.060000
248.184570	146.000000
248.277405	146.100000
248.370239	147.120000
248.463074	148.080000
248.555908	148.160000
248.648743	147.620000
248.741592	147.720000
248.834427	146.800000
248.927261	145.600000
249.020111	146.120000
249.112946	146.560000
249.205795	146.140000
249.298630	146.200000
249.391495	146.600000
249.484344	146.140000
249.577179	146.180000
249.670029	146.380000
249.762878	146.860000
249.855728	146.740000
249.948563	146.580000
250.041412	145.840000
250.134262	146.220000
250.227112	146.260000
250.319962	146.420000
250.412827	146.460000
250.505692	146.360000
250.598541	146.080000
250.691391	145.600000
250.784241	145.640000
250.877106	145.680000
250.969955	145.460000
251.062805	145.860000
251.155670	146.500000
251.248520	146.180000
251.341385	146.300000
251.434235	146.940000
251.527100	146.320000
251.619965	145.620000
251.712814	146.860000
251.805695	146.640000
251.898560	146.800000
251.991425	147.060000
252.084290	147.100000
252.177155	145.900000
252.270020	145.700000
252.362885	145.560000
252.455750	145.620000
252.548615	145.680000
252.641479	145.680000
252.734360	145.740000
252.827240	145.340000
252.920105	145.200000
253.012970	144.940000
253.105850	145.080000
253.198715	145.100000
253.291595	145.280000
253.384460	144.980000
253.477341	145.120000
253.570221	145.180000
253.663086	145.140000
253.755966	145.780000
253.848846	146.260000
253.941727	146.280000
254.034592	146.200000
254.127472	146.020000
254.220367	145.840000
254.313248	145.880000
254.406128	145.700000
254.499008	146.040000
254.591904	146.800000
254.684784	147.120000
254.777664	147.040000
254.870544	146.580000
254.963440	146.160000
255.056335	145.920000
255.149216	145.220000
255.242111	145.680000
255.334991	146.700000
255.427887	146.680000
255.520767	146.740000
255.613663	147.340000
255.706558	146.340000
255.799438	145.660000
255.892334	145.580000
255.985229	145.260000
256.078125	144.780000
256.171021	145.120000
256.263916	145.800000
256.356812	146.220000
256.449707	146.420000
256.542603	146.260000
256.635498	146.680000
256.728394	146.220000
256.821289	145.860000
256.914215	146.140000
257.007080	146.440000
257.100006	146.380000
257.192932	146.960000
257.285828	147.240000
257.378723	146.700000
257.471619	146.580000
257.564545	146.120000
257.657440	145.900000
257.750336	146.080000
257.843262	145.820000
257.936157	146.700000
258.029053	146.940000
258.121979	147.160000
258.214874	146.700000
258.307800	146.880000
258.400696	145.800000
258.493622	145.900000
258.586517	145.040000
258.679443	145.640000
258.772339	145.240000
258.865265	145.340000
258.958160	145.020000
259.051086	145.840000
259.144012	145.180000
259.236938	146.400000
259.329834	146.560000
259.422791	146.420000
259.515717	145.780000
259.608612	145.760000
259.701538	145.480000
259.794464	145.220000
259.887390	145.200000
259.980316	145.140000
260.073212	145.180000
260.166138	144.240000
260.259064	144.640000
260.351990	145.540000
260.444916	145.620000
260.537842	145.740000
260.630768	146.360000
260.723694	145.920000
260.816620	145.300000
260.909546	145.440000
261.002472	145.160000
261.095398	145.060000
261.188354	145.500000
261.281281	145.220000
261.374207	145.580000
261.467133	146.320000
261.560089	146.500000
261.653015	146.200000
261.745972	146.920000
261.838867	147.180000
261.931824	147.380000
262.024780	146.940000
262.117706	147.140000
262.210663	147.100000
262.303589	146.780000
262.396515	146.300000
262.489471	147.380000
262.582397	147.220000
262.675354	146.560000
262.768280	146.340000
262.861237	146.460000
262.954163	145.780000
263.047119	145.980000
263.140045	146.000000
263.233002	145.800000
263.325958	145.540000
263.418884	145.260000
263.511841	145.100000
263.604797	145.320000
263.697723	145.500000
263.790680	145.580000
263.883636	145.980000
263.976593	146.000000
264.069550	145.900000
264.162476	145.760000
264.255463	145.680000
264.348419	145.280000
264.441376	145.220000
264.534332	145.260000
264.627289	145.320000
264.720245	145.860000
264.813202	145.620000
264.906158	146.020000
264.999115	146.500000
265.092072	146.520000
265.185028	146.720000
265.277985	147.180000
265.370941	146.760000
265.463898	146.400000
265.556854	145.960000
265.649811	145.220000
265.742798	145.280000
265.835754	145.520000
265.928711	146.020000
266.021667	146.420000
266.114655	146.880000
266.207611	147.040000
266.300568	146.320000
266.393585	145.500000
266.486511	145.960000
266.579498	144.980000
266.672485	144.980000
266.765442	145.280000
266.858429	145.980000
266.951385	145.180000
267.044342	145.440000
267.137329	145.040000
267.230316	145.320000
267.323273	144.580000
267.416260	145.600000
267.509216	145.700000
267.602203	145.940000
267.695160	146.640000
267.788147	146.800000
267.881134	145.980000
267.974091	146.480000
268.067078	146.280000
268.160065	145.660000
268.253052	145.520000
268.346008	145.520000
268.438995	145.120000
268.531982	145.220000
268.624969	145.040000
268.717987	145.540000
268.810944	145.840000
268.903961	146.020000
268.996948	145.640000
269.089905	145.900000
269.182892	145.800000
269.275879	145.980000
269.368866	145.700000
269.461853	146.100000
269.554871	146.040000
269.647858	146.000000
269.740845	146.140000
269.833832	146.540000
269.926819	146.320000
270.019806	146.460000
270.112793	146.420000
270.205811	146.280000
270.298798	145.880000
270.391785	146.620000
270.484772	146.300000
270.577789	146.360000
270.670776	146.140000
270.763763	146.080000
270.856750	145.600000
270.949768	145.560000
271.042786	145.660000
271.135773	145.660000
271.228790	146.460000
271.321808	146.320000
271.414795	145.880000
271.507782	145.640000
271.600800	145.420000
271.693817	145.240000
271.786804	145.720000
271.879822	146.200000
271.972809	146.040000
272.065826	146.980000
272.158844	146.380000
272.251831	146.560000
272.344849	146.620000
272.437866	146.300000
272.530853	145.720000
272.623871	146.020000
272.716888	144.960000
272.809906	145.140000
272.902893	145.620000
272.995911	145.220000
273.088928	145.080000
273.181946	145.680000
273.274963	145.520000
273.367981	145.400000
273.460999	145.860000
273.554047	146.300000
273.647003	146.740000
273.740051	146.640000
273.833069	146.900000
273.926086	146.720000
274.019135	146.400000
274.112152	145.940000
274.205170	146.240000
274.298187	146.480000
274.391205	146.480000
274.484222	146.500000
274.577240	146.680000
274.670258	146.180000
274.763306	145.920000
274.856323	146.300000
274.949341	146.420000
275.042358	146.660000
275.135406	147.000000
275.228424	147.040000
275.321442	146.780000
275.414490	146.320000
275.507507	146.400000
275.600525	146.720000
275.693573	146.360000
275.786591	146.100000
275.879669	146.680000
275.972656	146.160000
276.065735	145.900000
276.158752	146.380000
276.251801	147.100000
276.344818	146.860000
276.437866	147.060000
276.530884	146.860000
276.623932	146.120000
276.716980	146.020000
276.809998	146.180000
276.903046	146.340000
276.996094	147.160000
277.089111	148.140000
277.182159	148.480000
277.275208	148.380000
277.368256	148.260000
277.461304	147.740000
277.554321	146.940000
277.647369	146.460000
277.740417	145.960000
277.833466	145.940000
277.926514	145.620000
278.019562	146.440000
278.112610	145.960000
278.205688	146.400000
278.298706	146.660000
278.391785	146.700000
278.484833	145.940000
278.577881	146.020000
278.670929	146.060000
278.763977	145.900000
278.857025	146.160000
278.950073	146.220000
279.043121	146.320000
279.136169	146.400000
279.229248	145.920000
279.322296	145.940000
279.415344	145.700000
279.508392	145.580000
279.601440	145.160000
279.694519	145.000000
279.787567	144.620000
279.880615	144.760000
279.973694	144.680000
280.066742	145.180000
280.159790	145.560000
280.252869	145.420000
280.345917	145.540000
280.438995	145.640000
280.532074	145.360000
280.625122	145.640000
280.718201	146.780000
280.811279	146.980000
280.904327	147.040000
280.997406	147.460000
281.090454	147.420000
281.183533	146.400000
281.276581	146.620000
281.369659	146.340000
281.462738	146.120000
281.555786	145.960000
281.648865	146.080000
281.741943	145.680000
281.835022	146.340000
281.928070	145.740000
282.021149	145.580000
282.114227	145.520000
282.207306	145.340000
282.300385	145.340000
282.393433	145.920000
282.486511	146.080000
282.579590	146.540000
282.672668	146.900000
282.765747	146.240000
282.858856	145.960000
282.951904	146.100000
283.045013	146.140000
283.138062	146.260000
283.231171	146.660000
283.324249	147.080000
283.417328	147.180000
283.510406	146.900000
283.603485	146.800000
283.696564	146.840000
283.789642	146.880000
283.882751	146.540000
283.975830	147.020000
284.068909	146.560000
284.161987	146.880000
284.255066	146.240000
284.348175	146.420000
284.441254	146.040000
284.534332	146.600000
284.627441	146.140000
284.720520	146.140000
284.813599	145.940000
284.906708	146.120000
284.999786	145.560000
285.092896	145.360000
285.185974	146.500000
285.279053	146.220000
285.372192	146.040000
285.465240	147.160000
285.558380	147.300000
285.651459	146.460000
285.744568	147.240000
285.837677	147.020000
285.930756	146.400000
286.023865	146.400000
286.116943	146.040000
286.210052	145.940000
286.303162	145.940000
286.396240	145.900000
286.489349	145.860000
286.582458	146.420000
286.675568	146.080000
286.768646	145.960000
286.861755	146.440000
286.954865	147.120000
287.047974	146.700000
287.141083	146.780000
287.234161	146.600000
287.327271	146.080000
287.420380	145.900000
287.513519	145.660000
287.606598	145.520000
287.699738	146.200000
287.792816	146.140000
287.885956	145.980000
287.979034	146.520000
288.072174	146.560000
288.165283	146.180000
288.258392	146.420000
288.351501	145.880000
288.444611	146.160000
288.537720	146.680000
288.630859	146.620000
288.723969	146.800000
288.817078	147.280000
288.910187	146.960000
289.003296	146.540000
289.096436	146.540000
289.189545	146.180000
289.282654	145.700000
289.375763	146.320000
289.468903	146.620000
289.562012	147.020000
289.655121	147.120000
289.748260	147.480000
289.841400	147.240000
289.934509	147.100000
290.027649	146.820000
290.120728	146.800000
290.213898	146.780000
290.306976	146.220000
290.400146	146.180000
290.493256	146.220000
290.586395	146.140000
290.679535	146.200000
290.772644	146.260000
290.865784	145.580000
290.958893	145.400000
291.052032	145.380000
291.145172	145.500000
291.238281	145.300000
291.331421	145.740000
291.424561	146.380000
291.517670	146.180000
291.610809	146.420000
291.703949	146.480000
291.797089	146.660000
291.890228	146.000000
291.983337	146.020000
292.076477	145.640000
292.169617	146.080000
292.262756	145.940000
292.355927	145.720000
292.449036	145.800000
292.542206	146.120000
292.635315	146.080000
292.728485	146.280000
292.821625	146.260000
292.914764	147.360000
293.007904	147.160000
293.101044	146.860000
293.194183	146.520000
293.287323	146.800000
293.380463	146.000000
293.473602	145.700000
293.566742	146.340000
293.659882	147.080000
293.753021	147.260000
293.846191	147.320000
293.939331	146.980000
294.032471	146.580000
294.125610	145.860000
294.218781	146.220000
294.311920	146.240000
294.405060	146.480000
294.498230	146.360000
294.591370	146.560000
294.684540	145.760000
294.777679	145.240000
294.870850	145.680000
294.963959	145.260000
295.057159	145.120000
295.150299	145.440000
295.243469	145.460000
295.336609	144.880000
295.429779	145.180000
295.522919	145.640000
295.616089	145.780000
295.709229	146.560000
295.802399	146.660000
295.895569	146.620000
295.988708	146.260000
296.081879	146.220000
296.175018	145.540000
296.268188	145.640000
296.361359	146.260000
296.454529	146.320000
296.547668	146.220000
296.640839	146.700000
296.734009	146.680000
296.827179	146.640000
296.920319	147.060000
297.013519	146.660000
297.106659	146.440000
297.199860	146.340000
297.292999	145.900000
297.386200	145.180000
297.479309	145.420000
297.572510	145.160000
297.665680	144.940000
297.758850	145.100000
297.852020	145.100000
297.945190	144.780000
298.038361	144.580000
298.131531	145.460000
298.224701	145.180000
298.317871	145.080000
298.411072	145.040000
298.504242	145.000000
298.597412	144.260000
298.690582	144.860000
298.783752	144.980000
298.876923	145.640000
298.970093	145.900000
299.063293	146.500000
299.156464	146.720000
299.249634	146.860000
299.342834	146.760000
299.436005	147.240000
299.529205	147.000000
299.622345	146.580000
299.715576	146.300000
299.808716	146.040000
299.901917	145.780000
299.995117	145.960000
300.088287	146.080000
300.181488	146.020000
300.274658	146.060000
300.367828	145.800000
300.461029	145.540000
300.554199	145.580000
300.647400	145.900000
300.740601	146.400000
300.833771	146.860000
300.926971	147.140000
301.020142	146.640000
301.113342	146.560000
301.206512	146.380000
301.299713	146.360000
301.392914	146.560000
301.486084	147.120000
301.579285	147.280000
301.672516	147.760000
301.765686	147.540000
301.858887	147.180000
301.952057	146.760000
302.045288	146.480000
302.138458	145.980000
302.231659	145.800000
302.324860	145.400000
302.418060	145.520000
302.511261	145.740000
302.604462	145.920000
302.697662	146.020000
302.790863	146.300000
302.884064	145.720000
302.977264	145.600000
303.070465	145.560000
303.163666	146.180000
303.256866	146.440000
303.350067	146.940000
303.443268	146.860000
303.536469	146.920000
303.629669	146.320000
303.722870	146.420000
303.816071	146.080000
303.909271	146.380000
304.002472	145.580000
304.095673	145.480000
304.188934	144.740000
304.282104	145.920000
304.375336	145.560000
304.468506	145.880000
304.561768	145.620000
304.654968	146.260000
304.748169	145.360000
304.841370	145.320000
304.934601	145.880000
305.027802	145.800000
305.121002	145.720000
305.214233	145.900000
305.307434	146.240000
305.400665	146.640000
305.493866	146.640000
305.587097	146.680000
305.680298	146.580000
305.773499	146.760000
305.866730	146.280000
305.959930	147.000000
306.053162	147.060000
306.146393	146.740000
306.239594	146.320000
306.332825	146.080000
306.426025	146.220000
306.519287	146.000000
306.612488	146.000000
306.705719	145.940000
306.798920	146.060000
306.892181	145.420000
306.985352	144.860000
307.078613	144.700000
307.171844	145.300000
307.265045	144.860000
307.358276	144.720000
307.451508	145.300000
307.544739	145.980000
307.637970	145.200000
307.731201	145.020000
307.824402	145.780000
307.917633	145.820000
308.010864	146.000000
308.104095	146.680000
308.197327	147.260000
308.290558	146.740000
308.383789	146.380000
308.477020	145.980000
308.570251	144.920000
308.663483	144.480000
308.756714	144.260000
308.849976	144.540000
308.943176	145.180000
309.036438	145.240000
309.129639	145.400000
309.222900	145.660000
309.316101	145.320000
309.409393	144.320000
309.502625	144.660000
309.595856	144.720000
309.689087	144.900000
309.782318	145.640000
309.875580	146.240000
309.968811	146.400000
310.062042	146.380000
310.155273	146.260000
310.248535	146.100000
310.341766	145.840000
310.434998	145.720000
310.528259	145.400000
310.621490	145.620000
310.714722	145.120000
310.807983	145.400000
310.901215	145.740000
310.994476	146.140000
311.087708	145.940000
311.181000	146.400000
311.274200	145.700000
311.367462	145.560000
311.460693	145.360000
311.553986	145.860000
311.647186	145.960000
311.740479	146.700000
311.833710	146.500000
311.926971	146.480000
312.020203	145.880000
312.113464	145.460000
312.206726	144.520000
312.299957	144.780000
312.393219	145.280000
312.486481	145.240000
312.579712	145.480000
312.672974	146.040000
312.766235	145.940000
312.859497	145.740000
312.952759	145.780000
313.045990	146.180000
313.139252	145.740000
313.232513	146.180000
313.325775	146.080000
313.419037	146.120000
313.512299	145.460000
313.605530	146.180000
313.698822	146.140000
313.792053	146.360000
313.885345	145.980000
313.978577	146.280000
314.071869	145.880000
314.165131	145.640000
314.258392	145.740000
314.351654	146.360000
314.444916	145.860000
314.538177	146.480000
314.631439	146.580000
314.724701	146.140000
314.817993	145.880000
314.911255	146.140000
315.004517	145.420000
315.097778	145.400000
315.191040	145.840000
315.284302	145.980000
315.377594	146.020000
315.470856	146.260000
315.564117	145.520000
315.657379	145.160000
315.750671	144.700000
315.843933	144.740000
315.937195	144.160000
316.030518	144.360000
316.123749	144.300000
316.217041	145.340000
316.310303	145.340000
316.403595	145.840000
316.496857	146.540000
316.590149	146.860000
316.683411	145.820000
316.776703	145.900000
316.869965	145.840000
316.963257	145.380000
317.056519	144.860000
317.149811	145.000000
317.243073	144.680000
317.336365	144.920000
317.429626	145.300000
317.522919	145.840000
317.616180	146.100000
317.709473	145.960000
317.802765	145.520000
317.896027	145.480000
317.989319	145.640000
318.082611	145.540000
318.175873	145.660000
318.269165	145.980000
318.362488	145.740000
318.455750	145.440000
318.549042	145.920000
318.642303	146.420000
318.735626	146.440000
318.828888	146.580000
318.922211	146.140000
319.015472	146.620000
319.108765	145.740000
319.202057	145.320000
319.295349	145.500000
319.388641	145.880000
319.481934	145.120000
319.575226	145.500000
319.668518	145.740000
319.761810	145.680000
319.855103	145.700000
319.948395	145.680000
320.041687	145.980000
320.134979	146.100000
320.228271	145.760000
320.321564	145.760000
320.414856	145.700000
320.508148	145.320000
320.601440	144.860000
320.694763	144.880000
320.788025	145.240000
320.881348	145.380000
320.974640	145.660000
321.067963	145.680000
321.161224	145.780000
321.254547	145.180000
321.347839	145.500000
321.441162	144.880000
321.534454	145.260000
321.627747	144.960000
321.721069	145.580000
321.814362	145.600000
321.907654	145.920000
322.000946	145.900000
322.094269	146.780000
322.187561	146.400000
322.280884	146.440000
322.374176	146.540000
322.467468	146.800000
322.560791	146.420000
322.654083	146.620000
322.747406	146.440000
322.840698	146.660000
322.934021	146.800000
323.027344	146.860000
323.120636	146.380000
323.213959	146.460000
323.307251	146.020000
323.400574	145.540000
323.493866	145.100000
323.587219	145.720000
323.680511	145.920000
323.773834	146.280000
323.867157	146.480000
323.960449	146.740000
324.053772	146.120000
324.147095	145.580000
324.240387	146.060000
324.333710	146.060000
324.427032	146.180000
324.520355	146.420000
324.613647	146.360000
324.706970	145.600000
324.800293	145.380000
324.893616	145.520000
324.986938	145.780000
325.080231	145.520000
325.173553	146.160000
325.266876	146.900000
325.360199	146.780000
325.453522	146.240000
325.546875	146.340000
325.640167	146.120000
325.733521	146.140000
325.826813	146.360000
325.920166	146.480000
326.013489	146.600000
326.106812	145.740000
326.200134	144.980000
326.293457	144.580000
326.386780	144.860000
326.480103	144.580000
326.573425	145.200000
326.666748	145.560000
326.760071	145.980000
326.853424	146.060000
326.946747	146.220000
327.040070	146.700000
327.133392	146.360000
327.226715	145.580000
327.320068	145.160000
327.413391	145.720000
327.506714	145.040000
327.600037	145.040000
327.693390	145.320000
327.786713	145.320000
327.880066	144.860000
327.973358	145.480000
328.066742	146.060000
328.160034	146.220000
328.253418	146.700000
328.346710	146.500000
328.440063	146.000000
328.533417	145.740000
328.626740	145.880000
328.720093	145.640000
328.813416	145.720000
328.906769	145.700000
329.000092	145.580000
329.093445	145.800000
329.186768	145.640000
329.280121	146.260000
329.373444	146.700000
329.466797	146.720000
329.560120	146.340000
329.653473	146.500000
329.746796	145.820000
329.840149	145.240000
329.933502	145.280000
330.026825	145.300000
330.120178	145.040000
330.213562	145.040000
330.306854	145.300000
330.400238	145.240000
330.493561	145.180000
330.586945	145.800000
330.680237	146.100000
330.773621	146.320000
330.866974	146.140000
330.960327	146.040000
331.053680	145.600000
331.147003	145.880000
331.240356	145.860000
331.333710	145.940000
331.427063	145.920000
331.520416	145.980000
331.613770	145.660000
331.707123	145.480000
331.800476	145.700000
331.893829	146.460000
331.987152	146.500000
332.080505	146.260000
332.173859	146.400000
332.267212	146.000000
332.360565	145.240000
332.453918	144.920000
332.547333	145.100000
332.640656	145.040000
332.734039	145.320000
332.827362	145.340000
332.920746	145.640000
333.014069	145.980000
333.107452	146.420000
333.200806	146.180000
333.294159	146.620000
333.387543	146.100000
333.480896	145.660000
333.574249	145.380000
333.667603	145.400000
333.760956	145.280000
333.854340	145.580000
333.947693	145.560000
334.041046	145.540000
334.134430	146.000000
334.227783	145.440000
334.321136	145.160000
334.414520	144.940000
334.507874	144.820000
334.601227	144.600000
334.694611	145.040000
334.787964	145.600000
334.881348	145.920000
334.974701	146.040000
335.068085	145.840000
335.161438	145.860000
335.254822	145.480000
335.348175	145.800000
335.441559	145.420000
335.534943	146.140000
335.628296	145.860000
335.721680	146.200000
335.815033	146.360000
335.908417	146.620000
336.001770	146.280000
336.095154	146.220000
336.188538	145.980000
336.281891	145.200000
336.375275	144.780000
336.468658	144.640000
336.562012	144.900000
336.655396	145.500000
336.748779	146.180000
336.842133	146.620000
336.935516	146.800000
337.028900	146.500000
337.122284	146.140000
337.215637	146.000000
337.309021	145.940000
337.402435	145.520000
337.495789	145.840000
337.589203	145.580000
337.682526	145.180000
337.775940	145.460000
337.869324	145.680000
337.962708	145.180000
338.056091	145.760000
338.149475	145.840000
338.242859	145.500000
338.336243	145.440000
338.429626	145.720000
338.523010	145.400000
338.616394	145.380000
338.709778	145.640000
338.803162	145.620000
338.896545	145.920000
338.989929	145.500000
339.083313	145.380000
339.176697	145.180000
339.270081	145.220000
339.363464	145.340000
339.456848	145.880000
339.550232	145.720000
339.643616	145.500000
339.737030	145.420000
339.830383	145.020000
339.923828	144.920000
340.017181	145.500000
340.110596	145.680000
340.203949	145.760000
340.297363	145.520000
340.390778	145.400000
340.484161	144.940000
340.577545	145.220000
340.670959	145.240000
340.764343	145.380000
340.857727	145.500000
340.951111	145.560000
341.044525	145.500000
341.137909	145.120000
341.231293	145.300000
341.324707	144.920000
341.418091	145.500000
341.511505	145.300000
341.604889	145.580000
341.698303	145.860000
341.791687	146.000000
341.885071	145.400000
341.978485	145.260000
342.071899	145.500000
342.165283	145.100000
342.258698	145.360000
342.352081	145.580000
342.445496	146.120000
342.538879	145.980000
342.632324	146.120000
342.725708	146.160000
342.819122	145.980000
342.912506	145.480000
343.005920	145.320000
343.099335	146.000000
343.192719	145.860000
343.286133	146.180000
343.379547	146.480000
343.472931	146.580000
343.566345	145.980000
343.659760	146.340000
343.753143	145.860000
343.846558	145.620000
343.939972	145.520000
344.033386	146.060000
344.126770	145.680000
344.220184	146.160000
344.313599	146.540000
344.407043	146.760000
344.500427	145.820000
344.593872	146.020000
344.687225	145.340000
344.780670	144.680000
344.874054	144.440000
344.967499	145.220000
345.060913	145.260000
345.154327	145.600000
345.247742	145.380000
345.341156	145.360000
345.434570	144.740000
345.527985	144.500000
345.621399	144.740000
345.714813	144.980000
345.808228	145.240000
345.901642	145.180000
345.995056	144.960000
346.088470	145.120000
346.181885	145.660000
346.275299	145.340000
346.368713	145.320000
346.462128	145.400000
346.555573	145.180000
346.648987	145.200000
346.742401	144.920000
346.835815	145.540000
346.929260	145.480000
347.022644	145.320000
347.116119	145.060000
347.209503	145.900000
347.302948	146.460000
347.396362	147.020000
347.489807	147.160000
347.583221	147.980000
347.676636	147.480000
347.770050	146.380000
347.863495	145.800000
347.956909	146.100000
348.050323	145.540000
348.143768	145.680000
348.237183	145.660000
348.330597	146.000000
348.424042	146.080000
348.517456	145.940000
348.610901	146.280000
348.704315	146.160000
348.797760	145.720000
348.891174	144.940000
348.984619	144.740000
349.078033	144.840000
349.171448	145.440000
349.264923	145.660000
349.358337	146.060000
349.451782	146.260000
349.545197	145.380000
349.638641	144.880000
349.732086	144.500000
349.825500	144.800000
349.918945	144.420000
350.012390	144.820000
350.105804	145.300000
350.199249	145.820000
350.292664	145.660000
350.386108	145.980000
350.479553	146.680000
350.572968	146.460000
350.666412	146.580000
350.759857	146.660000
350.853302	146.900000
350.946716	146.320000
351.040161	146.380000
351.133606	146.220000
351.227081	146.200000
351.320465	146.840000
351.413940	146.780000
351.507355	147.080000
351.600830	147.160000
351.694244	146.860000
351.787720	146.320000
351.881104	146.200000
351.974579	145.640000
352.067993	146.400000
352.161469	146.460000
352.254883	146.020000
352.348358	146.080000
352.441803	146.240000
352.535248	145.460000
352.628693	145.660000
352.722137	145.620000
352.815582	145.860000
352.909027	146.020000
353.002472	145.900000
353.095917	145.700000
353.189362	146.240000
353.282806	146.120000
353.376251	145.920000
353.469696	145.540000
353.563141	145.920000
353.656586	145.560000
353.750061	145.140000
353.843475	145.140000
353.936981	145.820000
354.030396	145.520000
354.123871	145.720000
354.217285	146.700000
354.310760	146.980000
354.404175	146.720000
354.497681	146.520000
354.591095	146.240000
354.684570	145.300000
354.777985	144.800000
354.871490	144.600000
354.964935	145.180000
355.058380	145.180000
355.151855	145.360000
355.245300	145.960000
355.338745	146.500000
355.432220	146.300000
355.525665	146.000000
355.619110	146.200000
355.712585	145.900000
355.806030	145.520000
355.899475	144.920000
355.992950	145.380000
356.086426	145.740000
356.179871	145.800000
356.273346	145.820000
356.366791	145.860000
356.460266	146.160000
356.553711	145.700000
356.647186	145.560000
356.740631	145.360000
356.834106	145.640000
356.927551	145.160000
357.021027	145.220000
357.114471	145.680000
357.207947	145.800000
357.301422	145.780000
357.394867	145.980000
357.488342	146.160000
357.581818	146.080000
357.675262	146.400000
357.768738	146.200000
357.862213	145.700000
357.955658	145.560000
358.049133	145.000000
358.142609	145.120000
358.236053	145.180000
358.329529	145.320000
358.423035	145.680000
358.516449	145.380000
358.609955	145.520000
358.703400	146.000000
358.796906	146.460000
358.890350	145.720000
358.983826	146.540000
359.077271	145.740000
359.170776	145.580000
359.264221	145.300000
359.357727	145.900000
359.451172	146.020000
359.544647	146.260000
359.638123	146.320000
359.731598	146.620000
359.825073	146.500000
359.918549	146.300000
360.012024	146.600000
360.105499	146.180000
360.198975	146.040000
360.292450	145.960000
360.385925	145.780000
360.479401	145.340000
360.572876	145.560000
360.666351	145.580000
360.759857	145.580000
360.853302	145.540000
360.946808	145.160000
361.040253	145.180000
361.133759	145.180000
361.227203	145.240000
361.320709	145.120000
361.414154	145.980000
361.507660	146.220000
361.601105	146.540000
361.694641	147.180000
361.788086	147.300000
361.881592	147.680000
361.975067	147.260000
362.068542	147.320000
362.162018	146.820000
362.255524	146.620000
362.348999	146.200000
362.442474	146.680000
362.535950	146.180000
362.629456	146.060000
362.722931	145.880000
362.816406	146.000000
362.909882	146.260000
363.003387	146.080000
363.096863	146.420000
363.190338	146.440000
363.283875	146.060000
363.377319	145.480000
363.470825	145.800000
363.564301	145.160000
363.657806	145.380000
363.751282	145.080000
363.844788	146.160000
363.938232	145.820000
364.031769	146.540000
364.125214	146.860000
364.218750	147.560000
364.312225	145.900000
364.405731	146.160000
364.499207	145.520000
364.592712	145.260000
364.686188	144.920000
364.779694	145.900000
364.873169	145.740000
364.966675	145.940000
365.060150	145.960000
365.153656	146.220000
365.247131	145.580000
365.340637	145.720000
365.434143	146.100000
365.527618	146.300000
365.621155	145.860000
365.714600	146.320000
365.808136	146.900000
365.901611	145.720000
365.995117	145.340000
366.088593	145.120000
366.182129	144.940000
366.275604	144.460000
366.369110	144.940000
366.462585	145.080000
366.556122	146.060000
366.649567	146.040000
366.743103	145.860000
366.836609	145.700000
366.930115	146.180000
367.023590	145.720000
367.117096	145.440000
367.210602	145.420000
367.304108	146.040000
367.397614	145.980000
367.491119	146.260000
367.584595	146.760000
367.678101	147.020000
367.771606	146.700000
367.865112	146.160000
367.958649	145.300000
368.052124	145.100000
368.145660	144.940000
368.239136	145.680000
368.332672	146.040000
368.426147	146.400000
368.519684	146.180000
368.613159	146.620000
368.706696	145.840000
368.800171	145.860000
368.893707	145.740000
368.987183	145.840000
369.080719	145.500000
369.174225	145.620000
369.267731	145.660000
369.361237	146.180000
369.454742	146.240000
369.548248	146.640000
369.641754	146.360000
369.735260	146.160000
369.828766	145.460000
369.922272	146.100000
370.015808	145.640000
370.109314	145.480000
370.202820	144.980000
370.296356	145.940000
370.389832	145.300000
370.483368	144.960000
370.576874	145.160000
370.670410	145.620000
370.763885	144.480000
370.857422	144.540000
370.950928	144.840000
371.044464	145.760000
371.137939	146.020000
371.231476	146.740000
371.324982	147.160000
371.418518	147.480000
371.512024	146.640000
371.605560	146.080000
371.699066	146.220000
371.792572	145.840000
371.886108	145.740000
371.979614	145.940000
372.073120	146.800000
372.166656	146.500000
372.260162	146.580000
372.353668	146.100000
372.447205	146.020000
372.540710	145.680000
372.634277	145.500000
372.727753	145.640000
372.821320	146.060000
372.914795	145.980000
373.008362	145.440000
373.101837	145.740000
373.195404	145.380000
373.288879	145.360000
373.382446	146.060000
373.475922	146.360000
373.569489	146.920000
373.662964	147.460000
373.756531	147.260000
373.850037	146.920000
373.943573	146.960000
374.037109	145.920000
374.130615	145.880000
374.224152	146.160000
374.317657	145.960000
374.411194	146.840000
374.504730	147.000000
374.598236	146.380000
374.691772	146.240000
374.785309	146.080000
374.878815	144.940000
374.972351	145.360000
375.065887	145.440000
375.159454	145.940000
375.252930	145.780000
375.346497	146.360000
375.440002	146.680000
375.533569	146.960000
375.627045	146.460000
375.720612	146.700000
375.814117	146.740000
375.907684	146.240000
376.001160	145.900000
376.094727	145.540000
376.188232	146.320000
376.281799	146.380000
376.375336	146.460000
376.468872	147.220000
376.562408	147.440000
376.655914	146.880000
376.749451	146.880000
376.842987	146.760000
376.936523	146.220000
377.030060	146.320000
377.123596	146.480000
377.217133	145.800000
377.310669	145.820000
377.404205	146.400000
377.497772	146.820000
377.591278	146.360000
377.684845	147.320000
377.778351	147.820000
377.871918	147.420000
377.965424	146.500000
378.058990	146.680000
378.152496	146.040000
378.246063	145.800000
378.339569	145.860000
378.433136	146.100000
378.526642	146.280000
378.620209	146.320000
378.713745	146.020000
378.807312	146.480000
378.900848	146.460000
378.994385	146.660000
379.087921	146.200000
379.181458	146.420000
379.274994	145.580000
379.368530	145.760000
379.462097	145.620000
379.555634	146.280000
379.649170	145.720000
379.742706	145.760000
379.836273	145.760000
379.929810	145.240000
380.023376	144.940000
380.116882	145.160000
380.210449	145.140000
380.303986	145.000000
380.397552	144.860000
380.491058	144.660000
380.584656	144.480000
380.678162	144.940000
380.771729	144.820000
380.865265	145.860000
380.958832	146.400000
381.052368	146.580000
381.145935	146.640000
381.239471	147.180000
381.333008	146.540000
381.426575	146.520000
381.520111	146.940000
381.613647	146.920000
381.707214	146.500000
381.800751	146.240000
381.894318	145.860000
381.987854	145.220000
382.081421	144.720000
382.174988	144.920000
382.268524	144.920000
382.362091	145.320000
382.455627	146.440000
382.549194	146.320000
382.642731	145.720000
382.736298	145.800000
382.829834	145.360000
382.923401	145.240000
383.016937	145.820000
383.110504	146.300000
383.204041	146.420000
383.297607	146.900000
383.391174	145.820000
383.484741	146.080000
383.578278	145.700000
383.671844	145.320000
383.765411	144.680000
383.858948	145.580000
383.952515	145.140000
384.046051	145.840000
384.139618	146.240000
384.233185	146.460000
384.326721	146.340000
384.420288	146.540000
384.513855	146.360000
384.607422	146.540000
384.700989	146.920000
384.794525	146.260000
384.888123	146.440000
384.981659	146.400000
385.075226	145.760000
385.168762	145.420000
385.262360	145.720000
385.355896	144.620000
385.449463	144.720000
385.542999	144.780000
385.636597	145.260000
385.730164	145.320000
385.823730	145.380000
385.917267	144.820000
386.010834	145.320000
386.104401	145.160000
386.197968	145.440000
386.291534	146.200000
386.385101	146.700000
386.478668	147.000000
386.572235	147.020000
386.665802	146.360000
386.759338	145.800000
386.852905	145.460000
386.946472	144.580000
387.040070	144.260000
387.133606	144.660000
387.227203	144.640000
387.320740	144.900000
387.414337	145.100000
387.507874	145.120000
387.601471	145.200000
387.695007	145.240000
387.788605	145.000000
387.882141	145.120000
387.975739	145.420000
388.069275	145.080000
388.162872	145.500000
388.256439	145.600000
388.350037	145.320000
388.443604	144.900000
388.537170	145.400000
388.630737	145.620000
388.724304	145.900000
388.817871	146.100000
388.911438	146.520000
389.005005	146.560000
389.098602	146.760000
389.192169	146.120000
389.285736	146.600000
389.379333	146.560000
389.472870	145.860000
389.566467	145.760000
389.660034	146.000000
389.753632	145.260000
389.847168	145.080000
389.940765	145.760000
390.034332	145.660000
390.127930	145.060000
390.221466	145.120000
390.315063	145.000000
390.408630	144.140000
390.502228	143.400000
390.595795	144.200000
390.689362	144.660000
390.782959	145.140000
390.876526	145.740000
390.970093	146.020000
391.063690	146.480000
391.157257	146.380000
391.250824	146.380000
391.344421	146.440000
391.437988	146.840000
391.531555	146.860000
391.625153	146.900000
391.718750	147.060000
391.812317	146.700000
391.905914	146.300000
391.999481	146.020000
392.093079	146.080000
392.186615	146.060000
392.280243	146.120000
392.373779	145.960000
392.467407	146.620000
392.560944	146.520000
392.654572	146.020000
392.748108	146.120000
392.841736	146.360000
392.935303	145.540000
393.028900	145.540000
393.122467	145.560000
393.216064	145.380000
393.309631	145.020000
393.403229	144.780000
393.496796	144.660000
393.590393	144.280000
393.683990	144.920000
393.777557	145.260000
393.871155	145.800000
393.964722	146.100000
394.058350	146.460000
394.151917	145.980000
394.245514	146.160000
394.339081	146.340000
394.432678	146.640000
394.526245	146.740000
394.619873	145.940000
394.713409	146.180000
394.807037	145.580000
394.900604	145.240000
394.994202	144.860000
395.087769	145.640000
395.181396	144.940000
395.274994	145.740000
395.368561	145.280000
395.462158	145.800000
395.555756	145.560000
395.649353	146.120000
395.742920	145.340000
395.836517	146.380000
395.930115	145.760000
396.023712	146.160000
396.117279	146.220000
396.210876	145.960000
396.304474	145.380000
396.398071	145.940000
396.491669	146.140000
396.585266	145.960000
396.678833	146.180000
396.772461	146.340000
396.866028	146.320000
396.959656	146.720000
397.053223	147.160000
397.146851	147.760000
397.240417	148.640000
397.334015	150.100000
397.427582	150.940000
397.521210	152.760000
397.614807	155.280000
397.708405	157.680000
397.802002	160.860000
397.895599	165.720000
397.989197	170.960000
398.082794	177.780000
398.176392	186.740000
398.269989	196.520000
398.363586	208.440000
398.457184	222.360000
398.550781	237.000000
398.644379	251.760000
398.737976	267.540000
398.831573	282.680000
398.925201	297.560000
399.018768	312.760000
399.112396	329.500000
399.205963	348.460000
399.299591	369.900000
399.393158	393.480000
399.486786	419.520000
399.580353	445.180000
399.673981	467.140000
399.767578	486.320000
399.861206	500.540000
399.954773	507.640000
400.048401	507.380000
400.141998	504.000000
400.235596	496.180000
400.329193	487.500000
400.422791	477.420000
400.516418	467.940000
400.610016	457.460000
400.703613	445.340000
400.797211	427.040000
400.890808	407.820000
400.984436	386.320000
401.078033	362.900000
401.171631	340.240000
401.265259	319.660000
401.358826	299.300000
401.452484	279.980000
401.546051	261.920000
401.639679	242.680000
401.733246	226.640000
401.826904	211.400000
401.920471	197.760000
402.014099	186.200000
402.107697	177.480000
402.201324	169.200000
402.294891	163.380000
402.388550	159.100000
402.482147	155.880000
402.575745	153.080000
402.669373	151.060000
402.762970	149.360000
402.856567	148.340000
402.950195	147.660000
403.043793	146.900000
403.137390	147.400000
403.231018	146.700000
403.324615	147.160000
403.418243	146.840000
403.511841	147.520000
403.605469	147.020000
403.699066	147.620000
403.792694	147.420000
403.886292	147.480000
403.979919	147.060000
404.073517	146.540000
404.167145	146.520000
404.260712	146.280000
404.354370	146.040000
404.447937	146.240000
404.541595	146.600000
404.635162	146.840000
404.728821	147.340000
404.822418	147.240000
404.916046	147.020000
405.009644	147.120000
405.103271	147.400000
405.196899	146.780000
405.290497	146.820000
405.384125	147.300000
405.477722	147.060000
405.571350	146.280000
405.664948	146.500000
405.758575	146.160000
405.852203	145.440000
405.945801	145.440000
406.039429	145.660000
406.133057	145.440000
406.226654	145.880000
406.320312	145.980000
406.413879	146.240000
406.507538	146.540000
406.601135	146.300000
406.694763	146.520000
406.788361	146.480000
406.882019	145.880000
406.975586	145.800000
407.069244	146.500000
407.162872	146.360000
407.256470	146.140000
407.350098	146.320000
407.443726	145.880000
407.537323	145.200000
407.630951	145.200000
407.724579	145.200000
407.818207	145.840000
407.911804	145.860000
408.005432	145.880000
408.099060	146.000000
408.192688	146.460000
408.286285	145.920000
408.379913	145.660000
408.473572	146.220000
408.567169	145.640000
408.660828	145.420000
408.754395	145.320000
408.848053	145.500000
408.941650	145.200000
409.035309	145.280000
409.128906	145.400000
409.222565	145.340000
409.316132	145.540000
409.409790	145.040000
409.503387	145.140000
409.597046	145.260000
409.690674	145.500000
409.784302	145.780000
409.877930	146.040000
409.971558	146.320000
410.065186	145.820000
410.158783	145.820000
410.252411	145.320000
410.346039	145.540000
410.439667	145.460000
410.533295	145.920000
410.626923	146.100000
410.720551	145.880000
410.814209	146.240000
410.907806	146.100000
411.001465	145.560000
411.095062	145.580000
411.188721	145.820000
411.282318	145.420000
411.375977	145.460000
411.469574	145.900000
411.563232	145.660000
411.656830	145.420000
411.750488	145.140000
411.844086	144.900000
411.937744	144.720000
412.031372	144.620000
412.125000	144.820000
412.218628	144.920000
412.312256	145.340000
412.405884	145.820000
412.499512	145.840000
412.593170	146.100000
412.686798	146.720000
412.780426	146.400000
412.874054	146.180000
412.967682	146.160000
413.061310	146.540000
413.154968	146.340000
413.248566	146.340000
413.342224	146.420000
413.435852	146.460000
413.529510	146.200000
413.623108	145.500000
413.716766	145.640000
413.810364	145.680000
413.904022	145.420000
413.997650	144.960000
414.091309	145.920000
414.184906	145.760000
414.278564	145.120000
414.372192	145.640000
414.465851	145.980000
414.559479	145.580000
414.653107	146.600000
414.746735	146.800000
414.840393	146.860000
414.934021	147.140000
415.027649	146.600000
415.121277	146.080000
415.214935	146.400000
415.308563	146.160000
415.402191	145.300000
415.495850	145.660000
415.589478	145.200000
415.683136	144.740000
415.776733	145.000000
415.870422	145.780000
415.964020	145.540000
416.057678	145.640000
416.151306	145.880000
416.244965	145.580000
416.338562	145.240000
416.432251	145.820000
416.525848	146.780000
416.619507	147.260000
416.713165	147.500000
416.806793	147.820000
416.900421	147.880000
416.994080	146.740000
417.087708	146.420000
417.181366	146.060000
417.274994	145.500000
417.368622	145.580000
417.462280	146.380000
417.555908	145.980000
417.649567	146.000000
417.743195	146.300000
417.836853	145.860000
417.930481	145.880000
418.024170	146.320000
418.117767	146.580000
418.211426	146.980000
418.305054	147.500000
418.398712	146.600000
418.492340	146.700000
418.585999	147.160000
418.679626	146.840000
418.773285	146.560000
418.866913	147.180000
418.960571	147.160000
419.054230	146.920000
419.147858	147.060000
419.241516	147.000000
419.335144	146.460000
419.428802	146.420000
419.522461	146.040000
419.616089	145.580000
419.709747	145.900000
419.803375	146.400000
419.897034	146.080000
419.990662	146.160000
420.084320	146.880000
420.177979	146.520000
420.271606	146.800000
420.365295	147.360000
420.458893	147.440000
420.552582	147.320000
420.646210	147.360000
420.739868	146.420000
420.833496	146.040000
420.927155	145.780000
421.020782	145.460000
421.114471	145.040000
421.208069	145.360000
421.301758	145.380000
421.395386	145.720000
421.489044	145.780000
421.582703	146.200000
421.676361	146.960000
421.769989	146.640000
421.863647	146.960000
421.957306	146.880000
422.050934	147.060000
422.144592	146.380000
422.238251	146.620000
422.331909	145.960000
422.425537	145.720000
422.519196	145.760000
422.612854	145.300000
422.706543	144.860000
422.800140	145.400000
422.893829	145.340000
422.987457	144.780000
423.081146	145.340000
423.174744	146.140000
423.268433	145.580000
423.362061	145.660000
423.455750	145.540000
423.549347	145.560000
423.643036	144.900000
423.736664	145.360000
423.830353	145.400000
423.924011	146.120000
424.017639	145.680000
424.111298	145.780000
424.204956	145.580000
424.298615	145.780000
424.392273	145.300000
424.485931	145.980000
424.579559	146.280000
424.673218	145.960000
424.766876	145.840000
424.860535	145.380000
424.954193	144.900000
425.047882	145.440000
425.141510	145.480000
425.235199	145.560000
425.328796	145.820000
425.422485	145.820000
425.516113	144.820000
425.609802	145.100000
425.703430	145.260000
425.797119	145.240000
425.890747	145.400000
425.984436	145.560000
426.078064	145.660000
426.171753	145.400000
426.265411	145.340000
426.359070	145.440000
426.452728	145.420000
426.546356	145.280000
426.640015	145.060000
426.733673	145.280000
426.827332	144.900000
426.920990	145.820000
427.014648	145.620000
427.108307	146.100000
427.201965	146.580000
427.295624	146.740000
427.389282	145.740000
427.482941	146.160000
427.576630	146.120000
427.670258	145.200000
427.763947	144.660000
427.857574	145.020000
427.951263	144.720000
428.044922	144.580000
428.138611	145.020000
428.232239	145.700000
428.325928	146.100000
428.419556	146.840000
428.513245	146.520000
428.606903	146.520000
428.700562	146.140000
428.794220	145.300000
428.887878	144.280000
428.981537	144.720000
429.075195	144.940000
429.168854	145.440000
429.262512	145.840000
429.356201	146.020000
429.449860	145.560000
429.543518	145.120000
429.637177	145.000000
429.730835	144.760000
429.824493	144.700000
429.918182	144.920000
430.011810	144.740000
430.105530	144.500000
430.199158	144.740000
430.292847	144.860000
430.386475	144.760000
430.480164	144.860000
430.573792	144.520000
430.667511	144.540000
430.761139	144.560000
430.854828	145.140000
430.948456	145.260000
431.042145	145.740000
431.135834	145.320000
431.229492	145.700000
431.323151	145.300000
431.416809	145.360000
431.510468	145.420000
431.604156	145.540000
431.697815	145.240000
431.791473	145.000000
431.885132	144.460000
431.978821	144.740000
432.072479	145.020000
432.166138	145.440000
432.259827	145.560000
432.353485	146.340000
432.447174	146.400000
432.540802	145.920000
432.634491	145.960000
432.728149	146.200000
432.821838	146.320000
432.915466	145.860000
433.009186	146.440000
433.102814	145.680000
433.196503	145.340000
433.290131	145.040000
433.383850	145.060000
433.477509	145.180000
433.571167	145.780000
433.664856	146.240000
433.758514	147.000000
433.852173	147.140000
433.945862	146.940000
434.039520	147.020000
434.133179	146.460000
434.226868	145.720000
434.320526	145.000000
434.414185	145.460000
434.507874	144.700000
434.601562	145.260000
434.695221	145.020000
434.788910	145.740000
434.882538	145.540000
434.976257	145.720000
435.069885	145.400000
435.163574	145.880000
435.257233	145.160000
435.350922	144.980000
435.444580	144.720000
435.538269	144.460000
435.631897	144.640000
435.725616	145.320000
435.819275	145.780000
435.912964	146.140000
436.006622	146.980000
436.100311	146.820000
436.193970	146.140000
436.287628	145.600000
436.381317	145.580000
436.474976	144.820000
436.568665	144.320000
436.662323	144.640000
436.756012	144.540000
436.849670	144.480000
436.943390	144.560000
437.037018	144.360000
437.130737	144.500000
437.224365	144.500000
437.318085	144.680000
437.411713	145.040000
437.505432	145.640000
437.599060	146.040000
437.692780	146.860000
437.786407	146.620000
437.880127	146.260000
437.973755	146.120000
438.067474	145.640000
438.161133	145.020000
438.254822	145.640000
438.348480	145.580000
438.442169	146.120000
438.535828	146.680000
438.629517	146.420000
438.723175	145.520000
438.816864	146.180000
438.910553	145.700000
439.004211	145.220000
439.097900	145.280000
439.191559	145.680000
439.285248	144.840000
439.378906	145.200000
439.472626	145.240000
439.566284	145.200000
439.659973	145.400000
439.753632	145.480000
439.847321	145.460000
439.940979	145.540000
440.034698	145.600000
440.128326	144.940000
440.222046	145.060000
440.315674	144.500000
440.409393	144.420000
440.503082	144.480000
440.596741	144.820000
440.690430	144.880000
440.784088	145.100000
440.877777	144.860000
440.971466	144.660000
441.065125	144.800000
441.158813	144.640000
441.252502	144.400000
441.346161	144.700000
441.439850	145.160000
441.533539	144.780000
441.627197	145.060000
441.720886	144.900000
441.814606	145.040000
441.908234	145.200000
442.001953	145.540000
442.095612	145.700000
442.189301	146.180000
442.282959	146.120000
442.376678	145.180000
442.470306	145.780000
442.564026	145.700000
442.657684	145.900000
442.751404	145.960000
442.845032	147.320000
442.938751	146.600000
443.032440	146.580000
443.126099	145.900000
443.219788	146.040000
443.313477	145.260000
443.407166	145.500000
443.500824	145.540000
443.594513	146.060000
443.688202	145.980000
443.781891	145.460000
443.875549	145.300000
443.969238	145.060000
444.062927	144.840000
444.156647	144.740000
444.250275	145.420000
444.343994	145.540000
444.437653	145.820000
444.531372	145.900000
444.625031	145.640000
444.718719	145.180000
444.812378	145.240000
444.906097	145.020000
444.999756	144.840000
445.093445	144.820000
445.187103	145.100000
445.280823	145.740000
445.374512	145.500000
445.468201	145.640000
445.561859	145.800000
445.655548	145.800000
445.749237	144.680000
445.842926	145.060000
445.936615	145.640000
446.030304	145.460000
446.123962	145.660000
446.217651	145.880000
446.311340	145.720000
446.405029	144.840000
446.498749	144.600000
446.592407	144.300000
446.686096	144.380000
446.779755	144.660000
446.873474	145.260000
446.967133	145.600000
447.060852	145.600000
447.154510	145.580000
447.248230	145.520000
447.341858	145.340000
447.435577	145.240000
447.529236	145.040000
447.622955	145.020000
447.716644	144.880000
447.810333	145.020000
447.904022	145.560000
447.997711	145.680000
448.091400	146.100000
448.185059	146.040000
448.278748	145.960000
448.372437	145.560000
448.466125	145.600000
448.559814	145.320000
448.653503	145.560000
448.747192	145.680000
448.840912	145.920000
448.934570	146.020000
449.028290	146.100000
449.121948	145.600000
449.215637	145.420000
449.309296	145.160000
449.403015	145.180000
449.496674	145.560000
449.590393	145.820000
449.684052	145.640000
449.777771	146.460000
449.871429	145.740000
449.965149	145.240000
450.058838	145.540000
450.152527	146.220000
450.246216	145.700000
450.339905	146.200000
450.433594	146.280000
450.527283	146.980000
450.620972	146.440000
450.714661	146.240000
450.808350	146.400000
450.902039	146.700000
450.995728	145.900000
451.089417	145.800000
451.183105	145.920000
451.276794	146.480000
451.370514	145.540000
451.464172	145.000000
451.557892	145.040000
451.651550	145.320000
451.745270	144.700000
451.838928	144.860000
451.932648	145.380000
452.026306	145.640000
452.120026	144.880000
452.213684	145.240000
452.307404	145.640000
452.401062	145.940000
452.494781	146.300000
452.588470	146.920000
452.682159	146.440000
452.775848	146.300000
452.869537	145.780000
452.963226	144.900000
453.056915	144.840000
453.150604	144.800000
453.244293	144.960000
453.337982	145.740000
453.431671	146.480000
453.525360	146.740000
453.619049	147.120000
453.712769	147.180000
453.806427	146.500000
453.900146	145.680000
453.993805	145.300000
454.087555	145.540000
454.181213	145.320000
454.274933	145.280000
454.368591	145.340000
454.462311	145.040000
454.555969	144.460000
454.649689	145.440000
454.743347	145.280000
454.837067	146.340000
454.930756	146.860000
455.024445	147.060000
455.118134	146.300000
455.211853	146.640000
455.305542	145.800000
455.399231	145.480000
455.492920	145.320000
455.586609	145.580000
455.680298	145.680000
455.773987	145.540000
455.867676	145.520000
455.961365	145.860000
456.055084	145.680000
456.148773	145.220000
456.242493	145.200000
456.336151	145.320000
456.429871	145.360000
456.523529	145.620000
456.617249	145.440000
456.710907	146.340000
456.804626	146.240000
456.898315	145.540000
456.992035	145.220000
457.085693	145.320000
457.179413	144.420000
457.273102	145.540000
457.366791	146.100000
457.460480	146.220000
457.554199	146.880000
457.647888	147.160000
457.741577	146.180000
457.835266	146.200000
457.928955	146.460000
458.022644	146.400000
458.116364	146.660000
458.210052	146.480000
458.303741	146.440000
458.397461	145.560000
458.491119	145.000000
458.584839	144.760000
458.678528	144.780000
458.772247	144.600000
458.865906	145.100000
458.959625	146.000000
459.053284	146.260000
459.147003	146.200000
459.240692	146.740000
459.334412	146.860000
459.428070	146.240000
459.521790	145.880000
459.615479	145.840000
459.709198	145.800000
459.802887	145.360000
459.896576	145.280000
459.990265	145.440000
460.083954	145.760000
460.177673	145.220000
460.271362	145.740000
460.365051	145.760000
460.458740	145.620000
460.552429	144.900000
460.646149	144.860000
460.739838	144.300000
460.833527	144.380000
460.927246	143.880000
461.020905	144.600000
461.114655	144.880000
461.208313	145.220000
461.302032	144.740000
461.395691	145.480000
461.489441	145.200000
461.583099	145.120000
461.676819	144.940000
461.770477	145.440000
461.864197	144.800000
461.957916	144.640000
462.051605	144.040000
462.145294	145.120000
462.238983	144.920000
462.332703	145.760000
462.426392	146.460000
462.520081	146.620000
462.613770	145.700000
462.707489	145.940000
462.801178	145.420000
462.894867	145.060000
462.988556	145.380000
463.082275	145.340000
463.175964	144.900000
463.269684	145.240000
463.363342	145.520000
463.457092	144.900000
463.550751	145.300000
463.644470	145.680000
463.738129	145.300000
463.831879	145.100000
463.925537	146.220000
464.019257	146.220000
464.112946	146.080000
464.206665	146.160000
464.300323	146.060000
464.394043	145.780000
464.487762	145.440000
464.581451	145.920000
464.675140	145.980000
464.768829	146.160000
464.862549	146.240000
464.956238	146.620000
465.049927	146.340000
465.143646	146.360000
465.237335	145.900000
465.331024	146.120000
465.424713	145.880000
465.518433	145.940000
465.612152	145.600000
465.705811	145.840000
465.799561	145.580000
465.893219	145.400000
465.986938	145.220000
466.080597	145.440000
466.174347	145.720000
466.268005	145.700000
466.361725	145.760000
466.455414	145.680000
466.549133	145.440000
466.642792	145.540000
466.736542	145.260000
466.830231	145.320000
466.923920	145.280000
467.017609	145.360000
467.111328	144.680000
467.205017	144.780000
467.298706	144.760000
467.392426	144.900000
467.486115	145.740000
467.579803	145.660000
467.673523	145.940000
467.767212	146.260000
467.860901	146.340000
467.954651	145.980000
468.048309	146.600000
468.142029	146.360000
468.235718	146.280000
468.329437	146.260000
468.423096	145.940000
468.516846	145.460000
468.610504	145.240000
468.704224	144.780000
468.797913	144.720000
468.891632	145.000000
468.985291	145.040000
469.079010	145.180000
469.172729	144.880000
469.266418	145.380000
469.360107	145.260000
469.453827	145.520000
469.547516	145.600000
469.641205	146.060000
469.734924	145.840000
469.828613	146.320000
469.922302	146.500000
470.016022	146.520000
470.109711	146.280000
470.203430	145.760000
470.297150	145.060000
470.390808	145.140000
470.484558	144.860000
470.578217	145.420000
470.671936	145.900000
470.765625	146.320000
470.859344	145.740000
470.953003	146.260000
471.046753	145.960000
471.140411	145.380000
471.234131	145.440000
471.327820	146.240000
471.421539	145.860000
471.515228	145.320000
471.608948	145.520000
471.702637	144.880000
471.796326	144.020000
471.890045	144.160000
471.983734	144.640000
472.077423	144.360000
472.171143	144.820000
472.264832	145.000000
472.358521	144.740000
472.452240	144.500000
472.545929	145.140000
472.639648	145.420000
472.733337	146.020000
472.827057	146.460000
472.920746	146.600000
473.014465	146.780000
473.108124	146.480000
473.201874	146.000000
473.295532	145.740000
473.389252	146.400000
473.482941	146.440000
473.576660	146.020000
473.670319	145.880000
473.764069	146.160000
473.857727	145.800000
473.951477	145.780000
474.045166	146.520000
474.138855	146.460000
474.232574	146.120000
474.326263	146.020000
474.419952	145.960000
474.513672	145.940000
474.607361	145.960000
474.701050	146.160000
474.794769	146.640000
474.888458	146.760000
474.982178	146.580000
475.075867	146.900000
475.169586	146.800000
475.263275	146.080000
475.356995	145.940000
475.450653	145.700000
475.544403	145.260000
475.638062	145.940000
475.731812	145.680000
475.825470	145.300000
475.919189	145.700000
476.012878	146.080000
476.106598	145.520000
476.200256	146.360000
476.294006	146.760000
476.387695	146.380000
476.481384	146.200000
476.575104	145.960000
476.668793	145.520000
476.762512	145.060000
476.856201	145.460000
476.949890	145.160000
477.043610	145.160000
477.137299	145.000000
477.230988	145.340000
477.324707	144.880000
477.418396	145.720000
477.512146	145.740000
477.605804	145.660000
477.699524	145.480000
477.793213	145.660000
477.886932	145.280000
477.980591	145.000000
478.074341	144.980000
478.167999	144.800000
478.261749	144.840000
478.355408	144.860000
478.449127	145.480000
478.542816	146.440000
478.636536	147.140000
478.730225	147.300000
478.823944	147.620000
478.917633	147.520000
479.011322	147.080000
479.105042	146.920000
479.198730	147.000000
479.292450	146.260000
479.386139	146.300000
479.479828	146.180000
479.573547	146.340000
479.667267	146.140000
479.760925	146.540000
479.854675	146.720000
479.948334	146.960000
480.042084	146.060000
480.135742	146.360000
480.229462	146.060000
480.323151	145.900000
480.416870	145.300000
480.510529	145.760000
480.604279	145.020000
480.697937	145.680000
480.791656	144.940000
480.885345	144.860000
480.979065	144.800000
481.072754	145.480000
481.166473	145.740000
481.260132	146.180000
481.353882	146.320000
481.447540	146.240000
481.541260	146.140000
481.635010	145.380000
481.728668	145.360000
481.822388	145.520000
481.916077	145.800000
482.009796	145.560000
482.103485	145.860000
482.197205	146.200000
482.290863	146.120000
482.384613	145.860000
482.478271	145.360000
482.571991	144.980000
482.665680	144.620000
482.759399	145.360000
482.853058	145.600000
482.946808	145.980000
483.040466	146.340000
483.134216	146.240000
483.227875	145.500000
483.321594	146.000000
483.415283	145.980000
483.509003	145.840000
483.602661	145.880000
483.696411	146.000000
483.790070	145.480000
483.883789	145.700000
483.977478	145.780000
484.071198	146.040000
484.164917	145.920000
484.258606	145.660000
484.352325	146.060000
484.445984	146.140000
484.539734	145.800000
484.633392	145.520000
484.727142	146.000000
484.820801	145.460000
484.914520	145.380000
485.008209	146.040000
485.101929	146.580000
485.195587	146.060000
485.289337	146.140000
485.382996	146.140000
485.476715	145.880000
485.570404	146.200000
485.664124	145.940000
485.757782	146.520000
485.851532	146.200000
485.945190	145.940000
486.038910	145.760000
486.132599	146.580000
486.226318	145.580000
486.319977	145.740000
486.413727	146.060000
486.507446	145.440000
486.601105	144.860000
486.694855	144.900000
486.788513	144.740000
486.882233	144.740000
486.975922	145.040000
487.069641	144.920000
487.163300	145.000000
487.257050	145.880000
487.350708	145.320000
487.444427	145.020000
487.538116	145.340000
487.631836	145.260000
487.725494	144.660000
487.819214	144.960000
487.912903	144.940000
488.006622	145.200000
488.100281	145.520000
488.194031	145.660000
488.287689	146.040000
488.381409	146.960000
488.475098	146.600000
488.568817	147.000000
488.662476	146.840000
488.756226	145.900000
488.849945	144.640000
488.943604	144.660000
489.037354	144.500000
489.131012	144.340000
489.224731	144.720000
489.318390	145.140000
489.412140	145.160000
489.505798	144.580000
489.599518	144.040000
489.693207	144.460000
489.786926	144.240000
489.880585	143.920000
489.974335	144.560000
490.067993	146.060000
490.161713	146.020000
490.255371	146.920000
490.349121	147.300000
490.442780	146.740000
490.536499	145.520000
490.630188	145.480000
490.723907	144.620000
490.817566	144.560000
490.911285	144.740000
491.004974	144.800000
491.098694	144.420000
491.192413	145.380000
491.286102	145.360000
491.379822	145.620000
491.473480	145.880000
491.567200	146.120000
491.660889	145.360000
491.754608	145.560000
491.848267	145.180000
491.941986	145.400000
492.035675	145.660000
492.129395	145.800000
492.223053	145.500000
492.316772	145.660000
492.410461	145.340000
492.504181	145.080000
492.597839	145.140000
492.691559	145.600000
492.785248	145.820000
492.878967	145.920000
492.972626	145.760000
493.066345	146.060000
493.160034	145.160000
493.253754	144.760000
493.347412	144.380000
493.441132	144.640000
493.534882	144.880000
493.628540	145.800000
493.722260	146.360000
493.815918	146.940000
493.909668	147.460000
494.003326	147.400000
494.097046	146.920000
494.190704	146.380000
494.284454	146.240000
494.378113	146.160000
494.471832	146.080000
494.565491	146.220000
494.659210	146.520000
494.752899	146.860000
494.846619	146.360000
494.940277	146.340000
495.033997	146.440000
495.127686	146.000000
495.221405	145.420000
495.315063	145.600000
495.408783	145.380000
495.502441	145.360000
495.596191	146.180000
495.689850	145.920000
495.783569	145.960000
495.877228	145.980000
495.970947	145.560000
496.064697	145.040000
496.158356	145.880000
496.252075	145.880000
496.345734	145.780000
496.439453	146.840000
496.533142	146.800000
496.626862	146.860000
496.720520	146.840000
496.814240	146.940000
496.907898	146.280000
497.001617	146.520000
497.095306	145.780000
497.189026	145.700000
497.282684	145.820000
497.376404	146.120000
497.470062	145.840000
497.563782	146.400000
497.657471	146.200000
497.751190	145.860000
497.844849	145.800000
497.938568	145.920000
498.032227	145.460000
498.125946	145.760000
498.219635	145.700000
498.313354	145.540000
498.407074	145.520000
498.500732	145.980000
498.594452	146.040000
498.688110	146.100000
498.781830	145.820000
498.875519	145.720000
498.969238	145.280000
499.062897	144.760000
499.156616	145.060000
499.250275	145.240000
499.343994	145.460000
499.437653	145.640000
499.531372	146.260000
499.625061	146.500000
499.718781	146.560000
499.812439	146.460000
499.906158	146.600000
499.999817	146.340000
500.093536	146.060000
500.187195	146.140000
500.280914	146.200000
500.374573	146.280000
500.468323	146.000000
500.561981	146.140000
500.655701	145.820000
500.749420	145.660000
500.843079	145.620000
500.936798	145.920000
501.030457	146.260000
501.124176	146.660000
501.217834	146.540000
501.311554	146.420000
501.405212	145.900000
501.498962	145.120000
501.592621	144.680000
501.686340	145.180000
501.779999	145.420000
501.873718	145.800000
501.967377	145.940000
502.061096	146.160000
502.154755	145.520000
502.248474	145.300000
502.342133	145.280000
502.435852	145.440000
502.529510	146.200000
502.623230	147.020000
502.716888	146.600000
502.810608	146.780000
502.904266	147.060000
502.997986	146.600000
503.091705	145.940000
503.185364	146.200000
503.279083	145.940000
503.372772	145.440000
503.466492	145.060000
503.560150	145.260000
503.653870	145.100000
503.747528	145.080000
503.841248	145.280000
503.934906	145.220000
504.028625	144.820000
504.122284	145.240000
504.216003	146.140000
504.309662	145.860000
504.403381	146.320000
504.497040	146.440000
504.590759	146.200000
504.684418	145.760000
504.778137	146.400000
504.871796	146.560000
504.965515	146.580000
505.059174	146.800000
505.152893	146.560000
505.246521	145.700000
505.340240	145.040000
505.433899	145.460000
505.527618	145.520000
505.621338	145.720000
505.714996	145.920000
505.808716	145.940000
505.902374	146.120000
505.996094	146.160000
506.089752	145.980000
506.183472	146.240000
506.277130	146.480000
506.370850	146.400000
506.464508	145.940000
506.558228	146.060000
506.651886	145.740000
506.745605	145.920000
506.839264	145.880000
506.932983	146.200000
507.026611	145.780000
507.120331	146.240000
507.213989	145.560000
507.307709	145.460000
507.401367	145.780000
507.495087	146.960000
507.588745	146.420000
507.682465	147.700000
507.776123	147.560000
507.869843	147.240000
507.963531	146.740000
508.057190	147.520000
508.150909	146.380000
508.244568	146.500000
508.338287	145.980000
508.431946	145.300000
508.525665	144.720000
508.619324	144.820000
508.713013	145.000000
508.806671	145.820000
508.900391	146.760000
508.994049	146.960000
509.087769	146.800000
509.181427	146.620000
509.275146	146.000000
509.368774	145.320000
509.462494	145.140000
509.556152	145.320000
509.649872	145.560000
509.743530	145.740000
509.837250	145.880000
509.930878	146.160000
510.024597	146.080000
510.118256	145.540000
510.211975	145.400000
510.305695	145.020000
510.399353	145.180000
510.493042	145.540000
510.586700	145.720000
510.680420	146.280000
510.774078	146.540000
510.867798	146.360000
510.961426	146.020000
511.055145	146.220000
511.148804	145.880000
511.242523	146.100000
511.336151	146.200000
511.429871	146.420000
511.523529	146.220000
511.617249	146.020000
511.710876	145.780000
511.804596	145.400000
511.898254	145.620000
511.991974	145.920000
512.085632	145.760000
512.179321	145.840000
512.272949	146.420000
512.366699	146.420000
512.460327	146.280000
512.554077	147.200000
512.647766	147.160000
512.741394	146.820000
512.835144	147.060000
512.928772	146.760000
513.022461	146.600000
513.116150	146.460000
513.209839	146.740000
513.303467	146.280000
513.397217	146.120000
513.490845	145.740000
513.584595	145.740000
513.678223	145.300000
513.771912	144.740000
513.865601	144.920000
513.959290	144.540000
514.052917	144.380000
514.146667	145.080000
514.240295	145.640000
514.333984	146.100000
514.427673	146.180000
514.521362	146.920000
514.614990	146.040000
514.708740	146.300000
514.802368	146.420000
514.896057	146.580000
514.989746	147.200000
515.083435	147.380000
515.177124	147.200000
515.270752	146.540000
515.364502	146.320000
515.458130	145.680000
515.551819	145.620000
515.645508	145.360000
515.739197	145.460000
515.832825	145.900000
515.926575	145.520000
516.020203	146.140000
516.113892	146.720000
516.207520	146.600000
516.301270	146.660000
516.394897	146.760000
516.488586	146.640000
516.582275	146.480000
516.675964	146.200000
516.769592	145.700000
516.863281	146.260000
516.956970	146.760000
517.050659	146.620000
517.144287	147.060000
517.238037	147.420000
517.331665	146.700000
517.425354	145.820000
517.519043	145.620000
517.612732	145.940000
517.706421	145.900000
517.800049	145.680000
517.893738	145.560000
517.987427	145.460000
518.081116	145.280000
518.174744	144.900000
518.268433	145.300000
518.362122	146.120000
518.455811	146.280000
518.549438	146.800000
518.643127	148.060000
518.736816	147.840000
518.830505	147.040000
518.924133	146.900000
519.017822	146.680000
519.111511	145.860000
519.205200	146.520000
519.298828	146.500000
519.392517	146.140000
519.486206	146.220000
519.579895	146.420000
519.673523	145.580000
519.767212	145.560000
519.860901	146.300000
519.954590	145.720000
520.048279	145.360000
520.141907	145.680000
520.235596	146.540000
520.329224	146.580000
520.422974	146.720000
520.516602	146.640000
520.610291	146.320000
520.703918	146.020000
520.797607	145.840000
520.891296	145.880000
520.984985	146.320000
521.078613	146.780000
521.172302	146.140000
521.265930	146.600000
521.359680	147.080000
521.453308	146.760000
521.546997	146.720000
521.640625	147.180000
521.734314	146.660000
521.827942	146.340000
521.921692	146.400000
522.015320	146.480000
522.109009	146.200000
522.202698	146.060000
522.296326	146.060000
522.390015	146.440000
522.483704	146.460000
522.577393	146.580000
522.671021	146.480000
522.764709	146.160000
522.858337	146.400000
522.952026	146.260000
523.045654	146.500000
523.139404	147.340000
523.233032	147.740000
523.326721	147.080000
523.420349	147.100000
523.514038	146.880000
523.607666	146.880000
523.701355	146.460000
523.795044	146.340000
523.888733	146.280000
523.982361	146.380000
524.076050	146.000000
524.169678	146.360000
524.263367	146.360000
524.356995	146.200000
524.450684	145.860000
524.544373	145.780000
524.638062	145.400000
524.731750	145.500000
524.825378	145.680000
524.919067	145.560000
525.012695	145.140000
525.106384	145.000000
525.200012	145.240000
525.293701	144.920000
525.387329	145.320000
525.481018	145.640000
525.574646	146.160000
525.668396	146.040000
525.762024	146.520000
525.855713	146.360000
525.949341	146.140000
526.043030	145.960000
526.136658	145.500000
526.230347	145.360000
526.323975	145.300000
526.417664	145.300000
526.511292	145.460000
526.604980	145.740000
526.698608	145.320000
526.792297	145.660000
526.885925	146.080000
526.979614	146.040000
527.073303	146.080000
527.166931	146.280000
527.260620	146.140000
527.354309	146.360000
527.447998	146.120000
527.541626	146.040000
527.635315	146.200000
527.728943	146.640000
527.822632	146.700000
527.916260	147.220000
528.009949	147.200000
528.103577	146.860000
528.197266	146.380000
528.290894	146.140000
528.384583	145.740000
528.478210	146.060000
528.571899	146.520000
528.665527	146.760000
528.759216	146.960000
528.852844	147.380000
528.946533	147.160000
529.040161	147.020000
529.133850	146.480000
529.227478	146.400000
529.321167	146.420000
529.414856	147.000000
529.508484	147.520000
529.602173	147.460000
529.695801	147.120000
529.789490	147.000000
529.883057	146.540000
529.976746	146.460000
530.070374	146.840000
530.164062	146.840000
530.257690	146.700000
530.351379	146.580000
530.445007	146.140000
530.538696	145.600000
530.632324	146.020000
530.726013	146.280000
530.819641	146.380000
530.913330	146.620000
531.006958	146.960000
531.100647	146.840000
531.194275	146.440000
531.287964	146.180000
531.381592	145.800000
531.475220	146.080000
531.568848	146.060000
531.662537	146.040000
531.756226	146.820000
531.849854	147.000000
531.943542	146.920000
532.037170	146.440000
532.130859	146.920000
532.224487	146.440000
532.318176	145.940000
532.411804	146.600000
532.505432	147.000000
532.599060	146.420000
532.692749	146.400000
532.786377	146.840000
532.880066	145.560000
532.973694	145.020000
533.067383	145.320000
533.161011	145.160000
533.254639	145.240000
533.348267	145.820000
533.441956	146.260000
533.535583	146.000000
533.629272	146.020000
533.722900	145.680000
533.816589	145.840000
533.910156	145.780000
534.003845	145.520000
534.097534	145.760000
534.191162	146.460000
534.284851	146.360000
534.378479	145.940000
534.472107	146.020000
534.565735	145.820000
534.659424	145.460000
534.753052	145.300000
534.846741	145.120000
534.940369	146.060000
535.033997	145.860000
535.127625	145.780000
535.221313	146.380000
535.314941	146.660000
535.408630	145.760000
535.502197	146.560000
535.595886	146.460000
535.689514	145.780000
535.783203	146.700000
535.876831	147.260000
535.970459	146.920000
536.064087	146.840000
536.157776	147.100000
536.251404	146.360000
536.345093	146.220000
536.438721	146.460000
536.532349	146.600000
536.626038	146.400000
536.719666	146.940000
536.813293	146.240000
536.906921	146.180000
537.000610	146.960000
537.094238	147.080000
537.187866	146.640000
537.281494	146.900000
537.375183	146.580000
537.468811	145.920000
537.562439	145.840000
537.656067	145.720000
537.749756	146.040000
537.843384	146.600000
537.937012	146.900000
538.030640	146.880000
538.124329	147.120000
538.217896	147.340000
538.311584	146.920000
538.405212	146.400000
538.498901	146.700000
538.592468	147.200000
538.686157	146.560000
538.779785	145.980000
538.873413	146.340000
538.967102	145.840000
539.060730	145.180000
539.154358	145.680000
539.247986	146.180000
539.341675	146.160000
539.435242	146.380000
539.528931	146.840000
539.622559	146.480000
539.716187	146.980000
539.809814	146.780000
539.903503	146.800000
539.997070	146.340000
540.090759	146.600000
540.184387	146.020000
540.278015	146.700000
540.371643	146.820000
540.465332	146.960000
540.558899	146.580000
540.652588	146.480000
540.746216	145.840000
540.839844	146.120000
540.933472	146.160000
541.027100	146.400000
541.120728	146.880000
541.214417	147.260000
541.308044	147.480000
541.401672	147.280000
541.495300	147.020000
541.588928	146.860000
541.682617	146.620000
541.776184	146.080000
541.869873	146.520000
541.963440	147.160000
542.057129	146.780000
542.150757	146.660000
542.244385	146.240000
542.338013	145.720000
542.431641	145.260000
542.525269	145.440000
542.618958	145.840000
542.712524	146.640000
542.806213	146.620000
542.899780	146.700000
542.993469	146.300000
543.087036	145.760000
543.180725	145.040000
543.274292	145.580000
543.367981	145.960000
543.461548	146.720000
543.555237	146.740000
543.648926	147.320000
543.742493	147.540000
543.836182	147.240000
543.929749	147.060000
544.023437	147.200000
544.117004	146.940000
544.210693	147.000000
544.304260	147.120000
544.397949	146.860000
544.491516	147.080000
544.585205	147.040000
544.678772	146.320000
544.772461	146.640000
544.866028	146.400000
544.959717	146.500000
545.053284	146.520000
545.146973	146.940000
545.240540	146.780000
545.334229	147.900000
545.427795	147.960000
545.521423	147.980000
545.615051	148.020000
545.708679	148.540000
545.802307	147.980000
545.895935	148.140000
545.989624	148.940000
546.083191	148.660000
546.176880	148.420000
546.270447	148.400000
546.364136	148.420000
546.457703	147.840000
546.551331	147.720000
546.644958	147.520000
546.738586	147.520000
546.832214	146.940000
546.925842	146.420000
547.019409	146.820000
547.113098	146.340000
547.206665	146.060000
547.300354	146.100000
547.393921	146.700000
547.487549	146.560000
547.581177	146.500000
547.674805	146.400000
547.768433	145.920000
547.862061	145.800000
547.955627	145.100000
548.049316	145.800000
548.142883	146.040000
548.236572	146.760000
548.330139	146.880000
548.423767	147.340000
548.517456	147.060000
548.611023	147.340000
548.704651	146.740000
548.798279	146.660000
548.891907	147.040000
548.985474	146.940000
549.079163	146.840000
549.172729	146.740000
549.266357	146.040000
549.359985	145.880000
549.453613	145.220000
549.547180	145.080000
549.640869	145.780000
549.734436	146.000000
549.828064	146.440000
549.921631	146.560000
550.015320	146.000000
550.108887	146.080000
550.202515	145.880000
550.296143	144.920000
550.389771	145.300000
550.483337	145.780000
550.576965	145.380000
550.670593	146.160000
550.764221	146.780000
550.857849	146.660000
550.951477	146.140000
551.045105	145.880000
551.138672	145.480000
551.232300	144.720000
551.325928	145.220000
551.419556	145.720000
551.513123	146.160000
551.606750	146.200000
551.700378	146.740000
551.794006	146.200000
551.887573	146.200000
551.981201	146.240000
552.074768	146.200000
552.168457	145.760000
552.262024	146.620000
552.355652	146.280000
552.449219	146.720000
552.542847	146.820000
552.636475	146.960000
552.730103	145.880000
552.823669	145.860000
552.917297	145.240000
553.010864	144.900000
553.104553	145.140000
553.198181	144.900000
553.291748	145.700000
553.385376	145.700000
553.478943	145.980000
553.572571	145.980000
553.666199	146.260000
553.759827	145.540000
553.853394	145.120000
553.947021	144.940000
554.040588	144.840000
554.134216	145.240000
554.227783	146.040000
554.321411	146.920000
554.415039	146.520000
554.508667	146.720000
554.602234	146.820000
554.695862	146.180000
554.789429	145.820000
554.883057	146.320000
554.976624	146.140000
555.070251	145.920000
555.163818	145.880000
555.257507	146.000000
555.351074	145.800000
555.444702	146.780000
555.538330	146.380000
555.631897	146.580000
555.725525	146.320000
555.819092	146.460000
555.912720	145.360000
556.006287	146.260000
556.099915	146.120000
556.193481	145.960000
556.287109	146.260000
556.380676	146.060000
556.474304	145.700000
556.567871	145.740000
556.661499	145.360000
556.755066	144.940000
556.848694	145.340000
556.942261	145.260000
557.035889	145.400000
557.129517	146.200000
557.223145	146.640000
557.316711	146.540000
557.410339	146.660000
557.503906	146.300000
557.597473	146.220000
557.691040	146.240000
557.784668	146.220000
557.878296	146.020000
557.971863	146.560000
558.065491	146.640000
558.159058	146.160000
558.252686	146.840000
558.346252	147.360000
558.439880	146.700000
558.533447	146.300000
558.627075	146.280000
558.720642	145.820000
558.814270	145.780000
558.907837	146.020000
559.001465	145.680000
559.095032	146.640000
559.188660	146.760000
559.282227	145.920000
559.375854	146.500000
559.469360	146.400000
559.562988	146.140000
559.656555	146.200000
559.750183	146.500000
559.843750	146.440000
559.937378	146.860000
560.030945	146.600000
560.124573	0.000000
560.218140	0.000000
560.311707	0.000000
560.405334	0.000000
560.498901	0.000000
560.592529	0.000000
560.686096	0.000000
560.779724	0.000000
560.873291	0.000000
560.966858	0.000000
561.060425	0.000000
561.154053	0.000000
561.247620	0.000000
561.341248	0.000000
561.434814	0.000000
561.528381	0.000000
561.621948	0.000000
561.715576	0.000000
561.809143	0.000000
561.902771	0.000000
561.996277	0.000000
562.089905	0.000000
562.183472	0.000000
562.277100	0.000000
