Model Number: SPM-002-B   
Serial Number: 70087108
Firmware Version: 004.15.4
Exposure Time: 100000.000000us
Data Taken on: 11-12-2020 19:28:43.817
Wavelength	Amplitude
221.570786	0.000000
221.663406	0.000000
221.756027	0.000000
221.848648	0.000000
221.941269	0.000000
222.033905	0.000000
222.126526	0.000000
222.219162	0.000000
222.311798	0.000000
222.404419	0.000000
222.497055	0.000000
222.589676	0.000000
222.682312	0.000000
222.774933	0.000000
222.867569	0.000000
222.960205	0.000000
223.052841	0.000000
223.145462	0.000000
223.238098	0.000000
223.330734	0.000000
223.423386	0.000000
223.516022	0.000000
223.608658	0.000000
223.701309	0.000000
223.793945	0.000000
223.886581	0.000000
223.979218	0.000000
224.071869	0.000000
224.164505	0.000000
224.257156	0.000000
224.349792	0.000000
224.442444	0.000000
224.535095	0.000000
224.627747	0.000000
224.720398	0.000000
224.813034	0.000000
224.905685	0.000000
224.998337	144.980000
225.090988	144.620000
225.183640	144.680000
225.276291	144.420000
225.368942	144.860000
225.461594	145.480000
225.554245	145.540000
225.646912	145.680000
225.739578	146.560000
225.832230	146.860000
225.924896	146.020000
226.017548	146.700000
226.110199	147.140000
226.202866	145.940000
226.295532	145.820000
226.388184	145.640000
226.480850	144.560000
226.573517	144.080000
226.666168	144.960000
226.758835	145.300000
226.851501	145.980000
226.944183	146.440000
227.036850	146.140000
227.129517	145.720000
227.222183	145.900000
227.314850	145.620000
227.407516	146.020000
227.500198	146.880000
227.592865	146.760000
227.685532	146.100000
227.778214	146.060000
227.870880	146.220000
227.963562	146.260000
228.056229	146.860000
228.148926	146.860000
228.241592	147.500000
228.334274	147.140000
228.426956	146.660000
228.519638	146.340000
228.612305	146.220000
228.704987	146.060000
228.797668	145.900000
228.890350	145.580000
228.983032	145.280000
229.075714	146.080000
229.168396	145.680000
229.261108	145.400000
229.353790	145.740000
229.446472	145.920000
229.539169	145.400000
229.631851	145.000000
229.724533	145.380000
229.817230	145.480000
229.909912	146.440000
230.002609	146.440000
230.095306	146.820000
230.187988	146.940000
230.280685	146.920000
230.373383	145.760000
230.466095	145.580000
230.558792	145.940000
230.651474	145.880000
230.744171	145.620000
230.836868	145.800000
230.929581	146.080000
231.022278	146.280000
231.114975	146.040000
231.207672	146.200000
231.300369	146.700000
231.393082	146.660000
231.485779	146.140000
231.578506	146.180000
231.671204	146.000000
231.763916	145.700000
231.856613	145.460000
231.949326	145.700000
232.042023	145.760000
232.134735	145.720000
232.227448	145.620000
232.320160	146.020000
232.412872	145.880000
232.505585	146.500000
232.598297	147.120000
232.691010	146.760000
232.783722	146.600000
232.876450	147.120000
232.969162	146.800000
233.061874	145.880000
233.154587	145.700000
233.247314	145.960000
233.340027	145.240000
233.432739	145.360000
233.525467	145.700000
233.618179	146.220000
233.710907	145.740000
233.803635	146.020000
233.896347	145.760000
233.989090	146.600000
234.081818	146.460000
234.174545	146.560000
234.267258	146.300000
234.359985	146.580000
234.452713	145.720000
234.545441	145.460000
234.638168	145.480000
234.730896	145.760000
234.823639	145.340000
234.916367	145.960000
235.009094	146.380000
235.101822	146.380000
235.194580	146.420000
235.287308	146.260000
235.380051	145.420000
235.472778	145.540000
235.565521	145.900000
235.658249	145.560000
235.750992	146.020000
235.843719	146.100000
235.936462	146.100000
236.029205	145.700000
236.121948	145.540000
236.214691	145.520000
236.307449	146.260000
236.400192	145.920000
236.492935	145.640000
236.585678	145.940000
236.678421	145.880000
236.771164	145.720000
236.863907	146.140000
236.956665	146.680000
237.049408	148.180000
237.142151	147.640000
237.234909	148.060000
237.327652	148.040000
237.420410	147.720000
237.513153	146.540000
237.605927	146.700000
237.698669	146.280000
237.791428	145.680000
237.884186	146.160000
237.976944	145.680000
238.069702	146.180000
238.162445	145.560000
238.255203	145.700000
238.347961	145.720000
238.440720	145.740000
238.533478	145.520000
238.626266	145.380000
238.719025	145.700000
238.811783	145.740000
238.904541	145.340000
238.997314	145.020000
239.090073	145.020000
239.182831	145.000000
239.275604	145.480000
239.368362	146.000000
239.461136	146.300000
239.553909	146.240000
239.646667	146.240000
239.739441	145.540000
239.832214	145.760000
239.925003	145.880000
240.017761	146.800000
240.110535	146.960000
240.203308	146.440000
240.296082	146.320000
240.388855	146.000000
240.481628	145.740000
240.574417	145.860000
240.667191	146.240000
240.759964	145.780000
240.852737	145.800000
240.945526	145.620000
241.038315	145.440000
241.131088	145.520000
241.223877	145.900000
241.316650	145.660000
241.409439	145.900000
241.502228	145.440000
241.595001	145.860000
241.687790	145.840000
241.780579	145.880000
241.873367	146.180000
241.966141	146.540000
242.058929	145.960000
242.151718	146.300000
242.244507	147.080000
242.337311	146.000000
242.430099	146.220000
242.522903	146.400000
242.615692	145.800000
242.708481	145.480000
242.801270	146.280000
242.894073	146.260000
242.986862	146.280000
243.079651	147.080000
243.172455	146.960000
243.265244	147.040000
243.358063	146.640000
243.450867	146.800000
243.543655	146.460000
243.636459	146.240000
243.729263	146.260000
243.822067	146.520000
243.914856	146.760000
244.007660	146.520000
244.100464	146.820000
244.193268	146.060000
244.286072	145.580000
244.378876	145.120000
244.471680	145.060000
244.564499	145.380000
244.657318	146.400000
244.750122	146.780000
244.842926	146.160000
244.935745	146.640000
245.028549	145.820000
245.121368	145.340000
245.214172	145.740000
245.306992	146.480000
245.399796	145.940000
245.492615	146.480000
245.585434	146.400000
245.678253	146.020000
245.771072	145.920000
245.863892	146.780000
245.956711	146.960000
246.049530	146.780000
246.142349	146.720000
246.235168	146.700000
246.327988	146.460000
246.420807	145.940000
246.513626	146.100000
246.606445	146.140000
246.699280	146.080000
246.792099	145.760000
246.884918	145.700000
246.977753	145.300000
247.070587	145.060000
247.163422	144.920000
247.256241	144.740000
247.349075	145.180000
247.441895	145.540000
247.534729	145.660000
247.627563	145.740000
247.720383	146.660000
247.813217	146.420000
247.906052	146.500000
247.998886	146.540000
248.091736	146.520000
248.184570	146.100000
248.277405	146.200000
248.370239	146.900000
248.463074	147.660000
248.555908	147.880000
248.648743	147.420000
248.741592	147.420000
248.834427	146.460000
248.927261	145.320000
249.020111	145.560000
249.112946	146.320000
249.205795	145.740000
249.298630	146.140000
249.391495	146.200000
249.484344	145.800000
249.577179	145.460000
249.670029	146.000000
249.762878	146.300000
249.855728	146.780000
249.948563	146.620000
250.041412	145.960000
250.134262	145.980000
250.227112	145.820000
250.319962	145.720000
250.412827	145.860000
250.505692	145.940000
250.598541	145.620000
250.691391	145.120000
250.784241	145.200000
250.877106	145.520000
250.969955	145.540000
251.062805	146.340000
251.155670	146.900000
251.248520	146.540000
251.341385	146.620000
251.434235	146.540000
251.527100	146.260000
251.619965	145.640000
251.712814	146.360000
251.805695	146.200000
251.898560	146.280000
251.991425	146.500000
252.084290	146.940000
252.177155	146.200000
252.270020	145.740000
252.362885	145.820000
252.455750	145.580000
252.548615	145.000000
252.641479	144.900000
252.734360	144.880000
252.827240	144.880000
252.920105	144.920000
253.012970	145.040000
253.105850	145.240000
253.198715	145.180000
253.291595	145.480000
253.384460	144.840000
253.477341	144.800000
253.570221	144.960000
253.663086	144.580000
253.755966	145.020000
253.848846	145.480000
253.941727	146.040000
254.034592	146.200000
254.127472	146.400000
254.220367	146.020000
254.313248	146.340000
254.406128	145.740000
254.499008	145.980000
254.591904	147.020000
254.684784	147.620000
254.777664	147.120000
254.870544	147.300000
254.963440	147.060000
255.056335	146.540000
255.149216	145.700000
255.242111	146.120000
255.334991	146.220000
255.427887	146.220000
255.520767	146.460000
255.613663	146.440000
255.706558	145.900000
255.799438	145.880000
255.892334	145.780000
255.985229	145.580000
256.078125	145.780000
256.171021	145.960000
256.263916	146.060000
256.356812	146.180000
256.449707	146.300000
256.542603	146.040000
256.635498	146.620000
256.728394	146.280000
256.821289	146.080000
256.914215	146.440000
257.007080	146.660000
257.100006	146.340000
257.192932	147.040000
257.285828	147.100000
257.378723	146.680000
257.471619	146.580000
257.564545	146.180000
257.657440	145.760000
257.750336	146.420000
257.843262	146.140000
257.936157	147.100000
258.029053	147.700000
258.121979	147.860000
258.214874	147.180000
258.307800	147.040000
258.400696	146.020000
258.493622	145.640000
258.586517	145.060000
258.679443	145.540000
258.772339	145.460000
258.865265	145.480000
258.958160	145.140000
259.051086	146.060000
259.144012	145.660000
259.236938	146.420000
259.329834	146.520000
259.422791	146.640000
259.515717	146.000000
259.608612	145.760000
259.701538	145.640000
259.794464	145.220000
259.887390	145.360000
259.980316	145.340000
260.073212	145.060000
260.166138	144.140000
260.259064	144.760000
260.351990	145.160000
260.444916	145.060000
260.537842	145.680000
260.630768	146.560000
260.723694	146.260000
260.816620	146.240000
260.909546	146.220000
261.002472	145.780000
261.095398	145.320000
261.188354	145.200000
261.281281	144.460000
261.374207	144.800000
261.467133	145.500000
261.560089	145.860000
261.653015	145.620000
261.745972	146.500000
261.838867	146.700000
261.931824	146.740000
262.024780	146.180000
262.117706	146.640000
262.210663	146.500000
262.303589	146.120000
262.396515	146.340000
262.489471	147.400000
262.582397	147.180000
262.675354	146.840000
262.768280	147.020000
262.861237	146.520000
262.954163	146.100000
263.047119	146.060000
263.140045	145.720000
263.233002	145.620000
263.325958	145.780000
263.418884	145.280000
263.511841	145.600000
263.604797	146.240000
263.697723	146.040000
263.790680	145.800000
263.883636	146.400000
263.976593	146.080000
264.069550	145.940000
264.162476	146.100000
264.255463	146.220000
264.348419	145.700000
264.441376	146.360000
264.534332	145.940000
264.627289	146.140000
264.720245	146.480000
264.813202	146.380000
264.906158	146.320000
264.999115	146.920000
265.092072	146.680000
265.185028	146.760000
265.277985	146.980000
265.370941	146.620000
265.463898	146.340000
265.556854	146.200000
265.649811	145.460000
265.742798	145.460000
265.835754	145.580000
265.928711	145.640000
266.021667	145.600000
266.114655	145.900000
266.207611	146.180000
266.300568	145.680000
266.393585	145.240000
266.486511	145.680000
266.579498	144.860000
266.672485	144.700000
266.765442	145.120000
266.858429	145.940000
266.951385	145.540000
267.044342	146.100000
267.137329	146.180000
267.230316	146.160000
267.323273	145.360000
267.416260	145.960000
267.509216	145.920000
267.602203	145.840000
267.695160	146.180000
267.788147	146.580000
267.881134	145.900000
267.974091	146.280000
268.067078	146.160000
268.160065	145.920000
268.253052	145.560000
268.346008	145.940000
268.438995	145.520000
268.531982	145.520000
268.624969	145.140000
268.717987	145.620000
268.810944	145.620000
268.903961	145.740000
268.996948	145.560000
269.089905	146.340000
269.182892	146.340000
269.275879	146.400000
269.368866	146.100000
269.461853	146.540000
269.554871	146.160000
269.647858	146.020000
269.740845	146.420000
269.833832	147.020000
269.926819	146.460000
270.019806	146.580000
270.112793	146.220000
270.205811	146.420000
270.298798	146.000000
270.391785	146.700000
270.484772	146.200000
270.577789	146.360000
270.670776	145.460000
270.763763	145.560000
270.856750	145.480000
270.949768	145.260000
271.042786	145.420000
271.135773	145.580000
271.228790	145.760000
271.321808	145.180000
271.414795	145.340000
271.507782	144.960000
271.600800	144.740000
271.693817	144.800000
271.786804	145.320000
271.879822	145.580000
271.972809	145.840000
272.065826	146.300000
272.158844	145.720000
272.251831	146.100000
272.344849	145.960000
272.437866	145.740000
272.530853	145.920000
272.623871	146.080000
272.716888	145.080000
272.809906	145.400000
272.902893	145.820000
272.995911	144.940000
273.088928	144.900000
273.181946	145.420000
273.274963	144.900000
273.367981	144.680000
273.460999	145.080000
273.554047	145.680000
273.647003	146.180000
273.740051	146.400000
273.833069	146.700000
273.926086	146.880000
274.019135	146.300000
274.112152	145.760000
274.205170	146.040000
274.298187	146.220000
274.391205	146.120000
274.484222	146.440000
274.577240	146.580000
274.670258	146.000000
274.763306	145.760000
274.856323	145.840000
274.949341	145.800000
275.042358	146.140000
275.135406	146.340000
275.228424	145.880000
275.321442	146.000000
275.414490	145.640000
275.507507	145.800000
275.600525	146.300000
275.693573	146.400000
275.786591	146.240000
275.879669	146.600000
275.972656	146.180000
276.065735	145.980000
276.158752	146.680000
276.251801	147.200000
276.344818	147.240000
276.437866	147.160000
276.530884	146.780000
276.623932	146.220000
276.716980	146.220000
276.809998	146.240000
276.903046	146.120000
276.996094	147.160000
277.089111	147.560000
277.182159	147.980000
277.275208	147.740000
277.368256	147.640000
277.461304	147.020000
277.554321	146.000000
277.647369	145.400000
277.740417	145.700000
277.833466	145.960000
277.926514	145.940000
278.019562	146.760000
278.112610	146.220000
278.205688	146.140000
278.298706	146.240000
278.391785	145.980000
278.484833	145.720000
278.577881	145.740000
278.670929	145.940000
278.763977	145.800000
278.857025	146.060000
278.950073	146.180000
279.043121	146.140000
279.136169	145.980000
279.229248	145.720000
279.322296	145.500000
279.415344	145.360000
279.508392	145.260000
279.601440	144.900000
279.694519	144.720000
279.787567	144.920000
279.880615	144.760000
279.973694	144.980000
280.066742	145.200000
280.159790	145.560000
280.252869	145.240000
280.345917	145.620000
280.438995	145.360000
280.532074	145.300000
280.625122	145.560000
280.718201	146.320000
280.811279	146.020000
280.904327	146.000000
280.997406	146.420000
281.090454	146.200000
281.183533	145.680000
281.276581	145.660000
281.369659	145.740000
281.462738	145.400000
281.555786	145.520000
281.648865	145.340000
281.741943	145.400000
281.835022	146.000000
281.928070	145.800000
282.021149	145.700000
282.114227	145.920000
282.207306	145.640000
282.300385	145.700000
282.393433	146.120000
282.486511	145.940000
282.579590	146.460000
282.672668	146.780000
282.765747	146.020000
282.858856	145.700000
282.951904	145.800000
283.045013	145.720000
283.138062	146.260000
283.231171	146.920000
283.324249	147.080000
283.417328	147.180000
283.510406	146.880000
283.603485	146.360000
283.696564	146.220000
283.789642	146.380000
283.882751	146.380000
283.975830	146.700000
284.068909	146.600000
284.161987	146.960000
284.255066	146.700000
284.348175	146.460000
284.441254	146.020000
284.534332	146.320000
284.627441	145.940000
284.720520	145.620000
284.813599	146.000000
284.906708	146.200000
284.999786	145.380000
285.092896	145.240000
285.185974	146.360000
285.279053	145.700000
285.372192	145.760000
285.465240	146.840000
285.558380	146.580000
285.651459	145.680000
285.744568	146.800000
285.837677	146.260000
285.930756	146.120000
286.023865	146.360000
286.116943	146.080000
286.210052	145.840000
286.303162	146.160000
286.396240	146.040000
286.489349	145.900000
286.582458	146.720000
286.675568	146.220000
286.768646	146.440000
286.861755	146.720000
286.954865	147.380000
287.047974	146.580000
287.141083	146.560000
287.234161	146.020000
287.327271	145.680000
287.420380	145.960000
287.513519	146.040000
287.606598	145.700000
287.699738	146.000000
287.792816	145.840000
287.885956	145.220000
287.979034	145.320000
288.072174	145.960000
288.165283	145.940000
288.258392	146.300000
288.351501	145.760000
288.444611	146.260000
288.537720	146.400000
288.630859	146.300000
288.723969	146.320000
288.817078	146.800000
288.910187	146.580000
289.003296	146.420000
289.096436	146.320000
289.189545	146.140000
289.282654	145.700000
289.375763	145.860000
289.468903	146.100000
289.562012	146.420000
289.655121	146.400000
289.748260	146.600000
289.841400	146.700000
289.934509	146.340000
290.027649	146.400000
290.120728	146.440000
290.213898	146.620000
290.306976	146.300000
290.400146	146.500000
290.493256	145.940000
290.586395	145.980000
290.679535	146.360000
290.772644	146.160000
290.865784	145.460000
290.958893	145.580000
291.052032	145.400000
291.145172	145.060000
291.238281	144.960000
291.331421	145.240000
291.424561	145.720000
291.517670	145.380000
291.610809	145.500000
291.703949	145.600000
291.797089	145.900000
291.890228	145.520000
291.983337	145.620000
292.076477	145.560000
292.169617	145.820000
292.262756	145.640000
292.355927	145.460000
292.449036	145.220000
292.542206	145.220000
292.635315	145.480000
292.728485	145.760000
292.821625	145.700000
292.914764	146.820000
293.007904	147.140000
293.101044	146.940000
293.194183	146.720000
293.287323	147.080000
293.380463	146.460000
293.473602	145.900000
293.566742	145.960000
293.659882	146.300000
293.753021	146.300000
293.846191	146.180000
293.939331	146.140000
294.032471	145.860000
294.125610	145.640000
294.218781	145.900000
294.311920	146.400000
294.405060	146.720000
294.498230	146.820000
294.591370	146.660000
294.684540	145.980000
294.777679	145.400000
294.870850	145.680000
294.963959	145.600000
295.057159	145.280000
295.150299	145.960000
295.243469	145.900000
295.336609	145.300000
295.429779	145.500000
295.522919	146.520000
295.616089	146.240000
295.709229	147.060000
295.802399	147.200000
295.895569	146.960000
295.988708	146.480000
296.081879	146.380000
296.175018	145.480000
296.268188	145.180000
296.361359	145.840000
296.454529	145.720000
296.547668	145.780000
296.640839	146.300000
296.734009	146.300000
296.827179	145.780000
296.920319	145.760000
297.013519	145.560000
297.106659	145.380000
297.199860	145.620000
297.292999	145.660000
297.386200	145.900000
297.479309	146.060000
297.572510	146.140000
297.665680	146.120000
297.758850	145.960000
297.852020	145.380000
297.945190	145.020000
298.038361	144.880000
298.131531	145.860000
298.224701	145.840000
298.317871	145.740000
298.411072	145.560000
298.504242	145.740000
298.597412	144.640000
298.690582	145.200000
298.783752	145.420000
298.876923	146.020000
298.970093	145.800000
299.063293	146.380000
299.156464	146.380000
299.249634	146.600000
299.342834	146.520000
299.436005	146.920000
299.529205	146.640000
299.622345	146.540000
299.715576	146.040000
299.808716	146.020000
299.901917	145.840000
299.995117	145.960000
300.088287	145.880000
300.181488	145.960000
300.274658	145.560000
300.367828	145.440000
300.461029	145.220000
300.554199	145.360000
300.647400	145.640000
300.740601	146.400000
300.833771	146.520000
300.926971	146.640000
301.020142	145.960000
301.113342	146.020000
301.206512	145.880000
301.299713	145.860000
301.392914	145.820000
301.486084	146.200000
301.579285	146.180000
301.672516	146.360000
301.765686	146.240000
301.858887	146.160000
301.952057	146.160000
302.045288	145.840000
302.138458	145.420000
302.231659	145.200000
302.324860	145.200000
302.418060	145.160000
302.511261	145.180000
302.604462	145.620000
302.697662	145.940000
302.790863	145.960000
302.884064	145.640000
302.977264	146.140000
303.070465	146.140000
303.163666	146.440000
303.256866	146.540000
303.350067	146.720000
303.443268	146.400000
303.536469	146.200000
303.629669	145.660000
303.722870	145.800000
303.816071	145.540000
303.909271	145.420000
304.002472	145.000000
304.095673	145.040000
304.188934	144.360000
304.282104	145.520000
304.375336	145.600000
304.468506	145.820000
304.561768	145.840000
304.654968	146.760000
304.748169	145.920000
304.841370	145.860000
304.934601	146.040000
305.027802	145.820000
305.121002	145.180000
305.214233	145.300000
305.307434	145.280000
305.400665	146.020000
305.493866	146.140000
305.587097	146.240000
305.680298	146.200000
305.773499	146.800000
305.866730	145.980000
305.959930	146.420000
306.053162	146.740000
306.146393	146.460000
306.239594	145.540000
306.332825	145.400000
306.426025	145.600000
306.519287	145.000000
306.612488	145.000000
306.705719	145.360000
306.798920	145.560000
306.892181	144.840000
306.985352	144.540000
307.078613	144.380000
307.171844	144.620000
307.265045	144.260000
307.358276	144.180000
307.451508	145.300000
307.544739	146.060000
307.637970	145.760000
307.731201	145.940000
307.824402	146.660000
307.917633	146.660000
308.010864	146.940000
308.104095	147.300000
308.197327	147.320000
308.290558	147.140000
308.383789	146.280000
308.477020	145.580000
308.570251	144.860000
308.663483	144.540000
308.756714	144.460000
308.849976	145.040000
308.943176	145.460000
309.036438	145.700000
309.129639	145.760000
309.222900	145.440000
309.316101	145.000000
309.409393	144.680000
309.502625	144.520000
309.595856	144.880000
309.689087	145.220000
309.782318	145.160000
309.875580	145.280000
309.968811	145.620000
310.062042	145.160000
310.155273	145.060000
310.248535	145.720000
310.341766	145.560000
310.434998	145.440000
310.528259	145.700000
310.621490	146.060000
310.714722	145.220000
310.807983	145.300000
310.901215	145.240000
310.994476	145.500000
311.087708	144.860000
311.181000	145.420000
311.274200	144.960000
311.367462	144.880000
311.460693	144.400000
311.553986	145.060000
311.647186	145.460000
311.740479	146.040000
311.833710	145.800000
311.926971	146.060000
312.020203	145.460000
312.113464	144.820000
312.206726	144.180000
312.299957	144.860000
312.393219	145.460000
312.486481	145.680000
312.579712	145.960000
312.672974	146.280000
312.766235	146.060000
312.859497	145.500000
312.952759	145.320000
313.045990	145.980000
313.139252	145.600000
313.232513	146.020000
313.325775	146.360000
313.419037	146.240000
313.512299	145.200000
313.605530	146.020000
313.698822	145.660000
313.792053	145.100000
313.885345	144.800000
313.978577	145.000000
314.071869	144.400000
314.165131	144.620000
314.258392	145.180000
314.351654	145.800000
314.444916	145.380000
314.538177	145.860000
314.631439	146.000000
314.724701	145.720000
314.817993	145.560000
314.911255	145.960000
315.004517	145.460000
315.097778	145.120000
315.191040	145.980000
315.284302	146.400000
315.377594	146.180000
315.470856	146.120000
315.564117	145.600000
315.657379	144.720000
315.750671	143.900000
315.843933	144.360000
315.937195	144.300000
316.030518	144.560000
316.123749	144.440000
316.217041	145.340000
316.310303	145.220000
316.403595	145.620000
316.496857	146.020000
316.590149	146.580000
316.683411	146.140000
316.776703	145.820000
316.869965	145.620000
316.963257	145.220000
317.056519	144.300000
317.149811	143.920000
317.243073	143.900000
317.336365	144.060000
317.429626	144.500000
317.522919	145.060000
317.616180	145.300000
317.709473	145.400000
317.802765	145.520000
317.896027	145.280000
317.989319	145.760000
318.082611	145.860000
318.175873	145.780000
318.269165	145.400000
318.362488	145.540000
318.455750	145.100000
318.549042	145.380000
318.642303	145.920000
318.735626	145.900000
318.828888	145.920000
318.922211	145.720000
319.015472	146.140000
319.108765	145.280000
319.202057	145.480000
319.295349	145.500000
319.388641	145.440000
319.481934	144.900000
319.575226	145.280000
319.668518	145.500000
319.761810	145.720000
319.855103	146.080000
319.948395	146.200000
320.041687	146.460000
320.134979	146.320000
320.228271	145.960000
320.321564	145.620000
320.414856	145.560000
320.508148	145.380000
320.601440	145.400000
320.694763	145.240000
320.788025	146.120000
320.881348	146.100000
320.974640	145.940000
321.067963	145.440000
321.161224	145.820000
321.254547	144.580000
321.347839	145.140000
321.441162	145.240000
321.534454	145.460000
321.627747	145.240000
321.721069	146.280000
321.814362	146.060000
321.907654	145.920000
322.000946	145.960000
322.094269	146.320000
322.187561	145.640000
322.280884	145.760000
322.374176	146.000000
322.467468	146.440000
322.560791	146.300000
322.654083	146.660000
322.747406	146.400000
322.840698	146.740000
322.934021	147.060000
323.027344	147.480000
323.120636	147.480000
323.213959	147.160000
323.307251	146.440000
323.400574	145.880000
323.493866	145.120000
323.587219	144.880000
323.680511	145.380000
323.773834	145.700000
323.867157	145.540000
323.960449	145.860000
324.053772	145.760000
324.147095	145.760000
324.240387	146.120000
324.333710	145.940000
324.427032	145.840000
324.520355	146.120000
324.613647	145.560000
324.706970	145.220000
324.800293	145.360000
324.893616	145.580000
324.986938	145.640000
325.080231	145.780000
325.173553	146.020000
325.266876	146.700000
325.360199	146.560000
325.453522	146.100000
325.546875	145.660000
325.640167	145.780000
325.733521	145.860000
325.826813	146.100000
325.920166	146.120000
326.013489	146.520000
326.106812	145.680000
326.200134	145.340000
326.293457	144.840000
326.386780	145.120000
326.480103	145.080000
326.573425	145.280000
326.666748	144.840000
326.760071	145.240000
326.853424	145.160000
326.946747	145.120000
327.040070	145.880000
327.133392	146.000000
327.226715	145.480000
327.320068	145.120000
327.413391	145.780000
327.506714	144.960000
327.600037	144.820000
327.693390	145.160000
327.786713	145.300000
327.880066	144.920000
327.973358	145.500000
328.066742	146.060000
328.160034	146.020000
328.253418	146.500000
328.346710	146.160000
328.440063	145.740000
328.533417	145.340000
328.626740	145.580000
328.720093	145.120000
328.813416	145.080000
328.906769	145.400000
329.000092	145.440000
329.093445	145.320000
329.186768	145.580000
329.280121	146.200000
329.373444	146.280000
329.466797	146.440000
329.560120	146.620000
329.653473	146.540000
329.746796	145.900000
329.840149	145.520000
329.933502	145.500000
330.026825	145.280000
330.120178	145.480000
330.213562	145.460000
330.306854	145.620000
330.400238	145.700000
330.493561	145.220000
330.586945	145.460000
330.680237	145.940000
330.773621	146.280000
330.866974	146.200000
330.960327	146.820000
331.053680	146.480000
331.147003	146.360000
331.240356	146.440000
331.333710	146.240000
331.427063	145.740000
331.520416	145.500000
331.613770	145.740000
331.707123	145.560000
331.800476	145.940000
331.893829	146.860000
331.987152	147.100000
332.080505	146.700000
332.173859	146.440000
332.267212	145.860000
332.360565	145.020000
332.453918	144.820000
332.547333	144.640000
332.640656	144.840000
332.734039	145.000000
332.827362	145.260000
332.920746	145.860000
333.014069	146.240000
333.107452	146.580000
333.200806	146.900000
333.294159	146.960000
333.387543	146.160000
333.480896	145.840000
333.574249	145.280000
333.667603	145.080000
333.760956	145.200000
333.854340	145.400000
333.947693	145.520000
334.041046	145.620000
334.134430	145.720000
334.227783	145.260000
334.321136	145.160000
334.414520	144.860000
334.507874	145.020000
334.601227	144.960000
334.694611	144.720000
334.787964	144.820000
334.881348	145.660000
334.974701	145.760000
335.068085	145.520000
335.161438	146.080000
335.254822	146.060000
335.348175	145.760000
335.441559	145.220000
335.534943	146.000000
335.628296	145.640000
335.721680	145.560000
335.815033	145.560000
335.908417	146.000000
336.001770	145.540000
336.095154	145.680000
336.188538	145.540000
336.281891	145.540000
336.375275	145.040000
336.468658	144.840000
336.562012	144.900000
336.655396	145.420000
336.748779	145.420000
336.842133	145.880000
336.935516	145.900000
337.028900	145.540000
337.122284	145.200000
337.215637	145.320000
337.309021	144.940000
337.402435	144.840000
337.495789	144.960000
337.589203	144.860000
337.682526	144.380000
337.775940	144.860000
337.869324	145.420000
337.962708	145.480000
338.056091	146.280000
338.149475	146.240000
338.242859	146.180000
338.336243	145.500000
338.429626	145.780000
338.523010	145.180000
338.616394	145.160000
338.709778	145.120000
338.803162	145.740000
338.896545	145.760000
338.989929	145.640000
339.083313	145.820000
339.176697	145.700000
339.270081	145.280000
339.363464	145.340000
339.456848	145.640000
339.550232	145.180000
339.643616	144.960000
339.737030	145.060000
339.830383	145.060000
339.923828	145.000000
340.017181	145.380000
340.110596	145.580000
340.203949	145.720000
340.297363	145.400000
340.390778	145.420000
340.484161	145.600000
340.577545	145.420000
340.670959	145.240000
340.764343	145.360000
340.857727	145.140000
340.951111	144.540000
341.044525	145.100000
341.137909	144.680000
341.231293	144.520000
341.324707	144.200000
341.418091	145.260000
341.511505	145.100000
341.604889	145.420000
341.698303	145.600000
341.791687	146.240000
341.885071	145.440000
341.978485	145.140000
342.071899	145.320000
342.165283	145.440000
342.258698	145.300000
342.352081	145.960000
342.445496	146.360000
342.538879	146.260000
342.632324	145.860000
342.725708	146.060000
342.819122	145.380000
342.912506	144.980000
343.005920	145.000000
343.099335	145.860000
343.192719	145.820000
343.286133	145.940000
343.379547	146.240000
343.472931	146.140000
343.566345	145.400000
343.659760	145.480000
343.753143	145.280000
343.846558	144.880000
343.939972	145.180000
344.033386	145.980000
344.126770	145.560000
344.220184	145.680000
344.313599	146.160000
344.407043	146.220000
344.500427	145.200000
344.593872	145.740000
344.687225	145.880000
344.780670	145.400000
344.874054	145.220000
344.967499	145.780000
345.060913	145.580000
345.154327	145.680000
345.247742	145.560000
345.341156	145.220000
345.434570	144.980000
345.527985	144.940000
345.621399	144.600000
345.714813	145.220000
345.808228	145.800000
345.901642	145.580000
345.995056	145.560000
346.088470	145.820000
346.181885	145.680000
346.275299	145.200000
346.368713	145.300000
346.462128	144.740000
346.555573	144.860000
346.648987	144.840000
346.742401	144.920000
346.835815	145.640000
346.929260	145.700000
347.022644	145.680000
347.116119	145.720000
347.209503	145.980000
347.302948	145.980000
347.396362	146.760000
347.489807	146.360000
347.583221	146.700000
347.676636	146.220000
347.770050	145.240000
347.863495	144.540000
347.956909	144.860000
348.050323	144.360000
348.143768	144.440000
348.237183	144.460000
348.330597	145.260000
348.424042	145.460000
348.517456	145.700000
348.610901	145.940000
348.704315	146.200000
348.797760	145.460000
348.891174	145.100000
348.984619	144.560000
349.078033	144.820000
349.171448	145.440000
349.264923	145.300000
349.358337	145.140000
349.451782	145.260000
349.545197	144.700000
349.638641	144.020000
349.732086	144.060000
349.825500	144.580000
349.918945	144.380000
350.012390	145.200000
350.105804	145.620000
350.199249	145.780000
350.292664	145.900000
350.386108	146.200000
350.479553	146.340000
350.572968	146.180000
350.666412	146.400000
350.759857	146.480000
350.853302	146.820000
350.946716	145.960000
351.040161	146.040000
351.133606	145.680000
351.227081	145.240000
351.320465	145.920000
351.413940	146.500000
351.507355	146.620000
351.600830	146.860000
351.694244	146.740000
351.787720	146.100000
351.881104	145.700000
351.974579	145.480000
352.067993	146.100000
352.161469	146.420000
352.254883	145.820000
352.348358	145.620000
352.441803	145.640000
352.535248	145.300000
352.628693	145.340000
352.722137	145.540000
352.815582	145.720000
352.909027	145.960000
353.002472	145.660000
353.095917	145.580000
353.189362	145.900000
353.282806	146.160000
353.376251	145.960000
353.469696	145.560000
353.563141	145.840000
353.656586	145.720000
353.750061	145.080000
353.843475	144.800000
353.936981	145.700000
354.030396	145.140000
354.123871	145.020000
354.217285	146.120000
354.310760	146.600000
354.404175	146.320000
354.497681	146.200000
354.591095	146.300000
354.684570	145.320000
354.777985	144.900000
354.871490	144.620000
354.964935	144.960000
355.058380	145.260000
355.151855	145.180000
355.245300	145.800000
355.338745	146.040000
355.432220	146.160000
355.525665	145.480000
355.619110	146.040000
355.712585	145.640000
355.806030	145.460000
355.899475	144.860000
355.992950	145.520000
356.086426	145.660000
356.179871	145.860000
356.273346	146.020000
356.366791	146.660000
356.460266	146.680000
356.553711	146.260000
356.647186	145.940000
356.740631	145.760000
356.834106	145.480000
356.927551	145.520000
357.021027	145.680000
357.114471	145.940000
357.207947	146.000000
357.301422	146.100000
357.394867	145.860000
357.488342	145.980000
357.581818	146.160000
357.675262	146.400000
357.768738	146.340000
357.862213	145.900000
357.955658	146.060000
358.049133	145.560000
358.142609	145.520000
358.236053	145.340000
358.329529	145.340000
358.423035	145.400000
358.516449	145.300000
358.609955	145.820000
358.703400	146.520000
358.796906	147.040000
358.890350	146.280000
358.983826	146.820000
359.077271	145.760000
359.170776	145.380000
359.264221	145.140000
359.357727	145.740000
359.451172	145.740000
359.544647	146.060000
359.638123	145.960000
359.731598	146.240000
359.825073	146.160000
359.918549	145.920000
360.012024	146.100000
360.105499	145.600000
360.198975	145.540000
360.292450	145.760000
360.385925	145.840000
360.479401	145.580000
360.572876	146.060000
360.666351	146.320000
360.759857	146.260000
360.853302	146.460000
360.946808	145.980000
361.040253	145.920000
361.133759	145.360000
361.227203	145.160000
361.320709	144.540000
361.414154	144.940000
361.507660	145.300000
361.601105	145.700000
361.694641	146.140000
361.788086	146.340000
361.881592	146.860000
361.975067	146.240000
362.068542	146.140000
362.162018	145.680000
362.255524	145.320000
362.348999	145.200000
362.442474	145.680000
362.535950	145.120000
362.629456	145.220000
362.722931	145.100000
362.816406	145.480000
362.909882	145.820000
363.003387	145.840000
363.096863	146.320000
363.190338	146.220000
363.283875	145.680000
363.377319	145.280000
363.470825	145.960000
363.564301	145.400000
363.657806	146.060000
363.751282	145.960000
363.844788	146.440000
363.938232	145.760000
364.031769	146.280000
364.125214	146.200000
364.218750	146.600000
364.312225	145.960000
364.405731	146.200000
364.499207	145.600000
364.592712	145.540000
364.686188	145.340000
364.779694	145.800000
364.873169	145.820000
364.966675	145.780000
365.060150	145.680000
365.153656	146.120000
365.247131	145.700000
365.340637	145.900000
365.434143	146.340000
365.527618	146.460000
365.621155	145.400000
365.714600	145.680000
365.808136	145.820000
365.901611	144.980000
365.995117	144.780000
366.088593	145.320000
366.182129	145.160000
366.275604	145.060000
366.369110	145.140000
366.462585	145.260000
366.556122	145.840000
366.649567	145.880000
366.743103	145.860000
366.836609	145.880000
366.930115	146.340000
367.023590	146.180000
367.117096	146.040000
367.210602	145.980000
367.304108	146.640000
367.397614	147.060000
367.491119	146.960000
367.584595	147.060000
367.678101	147.660000
367.771606	146.920000
367.865112	146.080000
367.958649	145.640000
368.052124	145.720000
368.145660	144.960000
368.239136	146.020000
368.332672	146.400000
368.426147	146.560000
368.519684	146.460000
368.613159	146.820000
368.706696	145.900000
368.800171	145.680000
368.893707	145.720000
368.987183	145.460000
369.080719	145.620000
369.174225	145.660000
369.267731	145.940000
369.361237	145.840000
369.454742	145.920000
369.548248	146.080000
369.641754	146.240000
369.735260	146.020000
369.828766	145.480000
369.922272	146.120000
370.015808	145.560000
370.109314	145.440000
370.202820	145.020000
370.296356	146.060000
370.389832	145.420000
370.483368	145.080000
370.576874	145.220000
370.670410	145.600000
370.763885	144.800000
370.857422	144.980000
370.950928	145.220000
371.044464	146.020000
371.137939	146.040000
371.231476	146.560000
371.324982	146.780000
371.418518	146.900000
371.512024	146.400000
371.605560	146.220000
371.699066	146.300000
371.792572	146.080000
371.886108	146.380000
371.979614	146.040000
372.073120	146.660000
372.166656	146.440000
372.260162	146.920000
372.353668	146.680000
372.447205	146.500000
372.540710	146.000000
372.634277	145.820000
372.727753	145.540000
372.821320	145.460000
372.914795	145.720000
373.008362	145.600000
373.101837	145.640000
373.195404	145.500000
373.288879	145.740000
373.382446	146.460000
373.475922	146.720000
373.569489	147.400000
373.662964	147.680000
373.756531	147.380000
373.850037	147.060000
373.943573	146.600000
374.037109	145.440000
374.130615	145.400000
374.224152	145.820000
374.317657	145.480000
374.411194	146.460000
374.504730	146.380000
374.598236	146.040000
374.691772	145.720000
374.785309	145.680000
374.878815	144.720000
374.972351	145.780000
375.065887	145.700000
375.159454	146.160000
375.252930	146.160000
375.346497	146.600000
375.440002	146.720000
375.533569	146.720000
375.627045	146.080000
375.720612	145.820000
375.814117	145.960000
375.907684	145.440000
376.001160	145.260000
376.094727	145.140000
376.188232	145.940000
376.281799	146.020000
376.375336	145.880000
376.468872	146.740000
376.562408	146.960000
376.655914	146.240000
376.749451	146.160000
376.842987	146.540000
376.936523	146.000000
377.030060	145.580000
377.123596	146.020000
377.217133	145.240000
377.310669	145.080000
377.404205	145.280000
377.497772	146.040000
377.591278	145.660000
377.684845	146.920000
377.778351	147.120000
377.871918	146.820000
377.965424	146.160000
378.058990	146.280000
378.152496	145.700000
378.246063	145.700000
378.339569	146.200000
378.433136	146.420000
378.526642	146.480000
378.620209	146.280000
378.713745	145.940000
378.807312	146.060000
378.900848	146.300000
378.994385	146.540000
379.087921	145.980000
379.181458	146.400000
379.274994	145.460000
379.368530	145.300000
379.462097	145.600000
379.555634	146.300000
379.649170	145.740000
379.742706	146.060000
379.836273	146.100000
379.929810	145.360000
380.023376	145.120000
380.116882	145.200000
380.210449	145.140000
380.303986	144.760000
380.397552	144.740000
380.491058	144.760000
380.584656	144.560000
380.678162	144.720000
380.771729	144.940000
380.865265	145.720000
380.958832	146.280000
381.052368	146.740000
381.145935	147.060000
381.239471	147.560000
381.333008	147.300000
381.426575	146.920000
381.520111	147.020000
381.613647	146.820000
381.707214	146.320000
381.800751	145.520000
381.894318	145.580000
381.987854	145.080000
382.081421	144.860000
382.174988	145.220000
382.268524	145.320000
382.362091	145.580000
382.455627	146.640000
382.549194	146.780000
382.642731	146.000000
382.736298	145.940000
382.829834	145.460000
382.923401	145.380000
383.016937	145.500000
383.110504	146.260000
383.204041	146.520000
383.297607	147.100000
383.391174	146.420000
383.484741	146.900000
383.578278	146.440000
383.671844	146.260000
383.765411	145.260000
383.858948	145.640000
383.952515	145.220000
384.046051	145.620000
384.139618	146.060000
384.233185	146.600000
384.326721	146.220000
384.420288	146.860000
384.513855	147.140000
384.607422	147.300000
384.700989	147.520000
384.794525	147.220000
384.888123	146.540000
384.981659	146.520000
385.075226	146.260000
385.168762	145.760000
385.262360	146.200000
385.355896	145.640000
385.449463	145.280000
385.542999	145.060000
385.636597	145.760000
385.730164	145.840000
385.823730	146.000000
385.917267	145.660000
386.010834	145.960000
386.104401	146.000000
386.197968	146.240000
386.291534	146.740000
386.385101	147.300000
386.478668	147.660000
386.572235	147.420000
386.665802	146.480000
386.759338	146.080000
386.852905	145.540000
386.946472	145.000000
387.040070	145.040000
387.133606	145.460000
387.227203	145.160000
387.320740	145.680000
387.414337	145.600000
387.507874	145.440000
387.601471	145.560000
387.695007	145.840000
387.788605	145.460000
387.882141	145.780000
387.975739	145.600000
388.069275	145.320000
388.162872	145.660000
388.256439	145.600000
388.350037	145.020000
388.443604	145.280000
388.537170	145.660000
388.630737	145.960000
388.724304	146.140000
388.817871	146.220000
388.911438	146.200000
389.005005	146.420000
389.098602	146.460000
389.192169	146.160000
389.285736	146.860000
389.379333	146.640000
389.472870	145.880000
389.566467	145.720000
389.660034	145.860000
389.753632	145.180000
389.847168	145.520000
389.940765	145.800000
390.034332	145.740000
390.127930	145.320000
390.221466	145.520000
390.315063	145.080000
390.408630	144.520000
390.502228	143.620000
390.595795	144.040000
390.689362	144.220000
390.782959	144.860000
390.876526	145.560000
390.970093	146.000000
391.063690	146.500000
391.157257	146.420000
391.250824	146.400000
391.344421	146.120000
391.437988	146.300000
391.531555	146.040000
391.625153	146.180000
391.718750	146.100000
391.812317	146.220000
391.905914	145.920000
391.999481	146.100000
392.093079	146.120000
392.186615	146.100000
392.280243	146.120000
392.373779	146.720000
392.467407	146.860000
392.560944	146.760000
392.654572	146.420000
392.748108	146.300000
392.841736	146.080000
392.935303	145.580000
393.028900	145.340000
393.122467	145.580000
393.216064	145.480000
393.309631	144.980000
393.403229	144.900000
393.496796	144.880000
393.590393	144.160000
393.683990	144.760000
393.777557	145.600000
393.871155	145.860000
393.964722	146.400000
394.058350	146.760000
394.151917	146.500000
394.245514	146.140000
394.339081	146.400000
394.432678	146.620000
394.526245	147.020000
394.619873	146.640000
394.713409	146.800000
394.807037	146.460000
394.900604	146.340000
394.994202	146.020000
395.087769	146.460000
395.181396	146.000000
395.274994	146.680000
395.368561	145.880000
395.462158	146.260000
395.555756	145.800000
395.649353	146.300000
395.742920	145.760000
395.836517	146.500000
395.930115	145.740000
396.023712	146.280000
396.117279	146.440000
396.210876	146.040000
396.304474	146.000000
396.398071	146.420000
396.491669	146.420000
396.585266	145.840000
396.678833	145.980000
396.772461	146.280000
396.866028	146.200000
396.959656	146.400000
397.053223	146.900000
397.146851	147.520000
397.240417	147.880000
397.334015	149.640000
397.427582	150.540000
397.521210	152.740000
397.614807	155.200000
397.708405	158.320000
397.802002	161.900000
397.895599	167.760000
397.989197	173.880000
398.082794	181.340000
398.176392	190.760000
398.269989	201.920000
398.363586	214.620000
398.457184	229.760000
398.550781	247.060000
398.644379	264.540000
398.737976	283.000000
398.831573	302.360000
398.925201	322.140000
399.018768	343.120000
399.112396	366.560000
399.205963	392.680000
399.299591	421.040000
399.393158	450.720000
399.486786	482.220000
399.580353	512.420000
399.673981	538.660000
399.767578	561.640000
399.861206	579.200000
399.954773	589.020000
400.048401	590.720000
400.141998	587.260000
400.235596	578.200000
400.329193	565.800000
400.422791	551.400000
400.516418	536.860000
400.610016	520.560000
400.703613	502.000000
400.797211	478.100000
400.890808	452.080000
400.984436	423.840000
401.078033	394.700000
401.171631	365.500000
401.265259	339.980000
401.358826	315.760000
401.452484	292.760000
401.546051	272.000000
401.639679	251.680000
401.733246	233.520000
401.826904	216.160000
401.920471	201.420000
402.014099	188.520000
402.107697	178.500000
402.201324	170.020000
402.294891	164.000000
402.388550	159.580000
402.482147	156.000000
402.575745	153.060000
402.669373	150.880000
402.762970	149.560000
402.856567	148.360000
402.950195	147.820000
403.043793	147.440000
403.137390	147.980000
403.231018	147.120000
403.324615	147.640000
403.418243	146.940000
403.511841	147.640000
403.605469	147.140000
403.699066	147.840000
403.792694	147.920000
403.886292	148.460000
403.979919	148.020000
404.073517	147.720000
404.167145	147.420000
404.260712	147.000000
404.354370	146.540000
404.447937	146.760000
404.541595	146.920000
404.635162	147.080000
404.728821	147.520000
404.822418	147.200000
404.916046	146.860000
405.009644	147.140000
405.103271	147.260000
405.196899	146.820000
405.290497	146.980000
405.384125	147.200000
405.477722	146.780000
405.571350	146.180000
405.664948	146.220000
405.758575	146.340000
405.852203	145.580000
405.945801	145.460000
406.039429	145.680000
406.133057	145.560000
406.226654	145.440000
406.320312	146.000000
406.413879	146.180000
406.507538	146.500000
406.601135	145.980000
406.694763	146.500000
406.788361	146.040000
406.882019	145.860000
406.975586	146.180000
407.069244	147.040000
407.162872	146.800000
407.256470	147.100000
407.350098	147.080000
407.443726	146.280000
407.537323	145.700000
407.630951	146.160000
407.724579	145.520000
407.818207	145.880000
407.911804	145.780000
408.005432	145.580000
408.099060	145.700000
408.192688	146.400000
408.286285	146.060000
408.379913	146.180000
408.473572	146.500000
408.567169	145.580000
408.660828	145.540000
408.754395	145.440000
408.848053	145.280000
408.941650	145.100000
409.035309	144.740000
409.128906	144.460000
409.222565	144.920000
409.316132	145.360000
409.409790	145.160000
409.503387	145.440000
409.597046	145.840000
409.690674	145.460000
409.784302	145.480000
409.877930	145.560000
409.971558	146.100000
410.065186	145.760000
410.158783	145.900000
410.252411	145.840000
410.346039	146.420000
410.439667	146.120000
410.533295	146.300000
410.626923	146.320000
410.720551	145.580000
410.814209	145.620000
410.907806	145.840000
411.001465	145.300000
411.095062	145.500000
411.188721	146.220000
411.282318	145.960000
411.375977	145.480000
411.469574	145.880000
411.563232	145.540000
411.656830	145.220000
411.750488	144.680000
411.844086	145.000000
411.937744	145.080000
412.031372	145.160000
412.125000	145.000000
412.218628	145.300000
412.312256	145.920000
412.405884	146.500000
412.499512	146.440000
412.593170	147.000000
412.686798	147.100000
412.780426	146.740000
412.874054	146.480000
412.967682	146.680000
413.061310	147.220000
413.154968	147.220000
413.248566	147.000000
413.342224	146.840000
413.435852	146.820000
413.529510	146.100000
413.623108	145.820000
413.716766	145.600000
413.810364	145.780000
413.904022	145.300000
413.997650	144.900000
414.091309	145.780000
414.184906	146.060000
414.278564	145.480000
414.372192	146.260000
414.465851	146.800000
414.559479	146.060000
414.653107	146.700000
414.746735	146.680000
414.840393	146.300000
414.934021	146.460000
415.027649	146.200000
415.121277	145.780000
415.214935	146.500000
415.308563	146.680000
415.402191	146.060000
415.495850	146.280000
415.589478	145.800000
415.683136	145.400000
415.776733	145.420000
415.870422	146.260000
415.964020	145.940000
416.057678	146.200000
416.151306	146.280000
416.244965	146.120000
416.338562	145.640000
416.432251	146.380000
416.525848	146.940000
416.619507	147.100000
416.713165	147.620000
416.806793	147.500000
416.900421	147.300000
416.994080	146.480000
417.087708	146.340000
417.181366	145.700000
417.274994	145.960000
417.368622	146.360000
417.462280	147.260000
417.555908	146.800000
417.649567	146.740000
417.743195	146.700000
417.836853	146.580000
417.930481	146.580000
418.024170	146.920000
418.117767	147.260000
418.211426	147.560000
418.305054	147.580000
418.398712	146.660000
418.492340	146.800000
418.585999	147.400000
418.679626	147.400000
418.773285	147.360000
418.866913	147.580000
418.960571	147.980000
419.054230	147.480000
419.147858	147.300000
419.241516	147.400000
419.335144	147.280000
419.428802	146.700000
419.522461	146.380000
419.616089	145.940000
419.709747	145.960000
419.803375	146.420000
419.897034	146.300000
419.990662	146.240000
420.084320	146.460000
420.177979	146.600000
420.271606	146.580000
420.365295	147.340000
420.458893	147.700000
420.552582	148.000000
420.646210	147.940000
420.739868	147.400000
420.833496	146.720000
420.927155	146.180000
421.020782	145.640000
421.114471	144.760000
421.208069	145.080000
421.301758	145.640000
421.395386	145.720000
421.489044	145.620000
421.582703	146.020000
421.676361	146.580000
421.769989	145.660000
421.863647	146.360000
421.957306	146.700000
422.050934	146.980000
422.144592	146.500000
422.238251	146.540000
422.331909	145.920000
422.425537	146.140000
422.519196	145.920000
422.612854	145.720000
422.706543	145.840000
422.800140	146.180000
422.893829	145.620000
422.987457	145.360000
423.081146	145.360000
423.174744	145.900000
423.268433	145.500000
423.362061	145.560000
423.455750	145.600000
423.549347	145.880000
423.643036	145.220000
423.736664	145.680000
423.830353	145.540000
423.924011	146.080000
424.017639	145.420000
424.111298	145.720000
424.204956	145.520000
424.298615	145.520000
424.392273	144.880000
424.485931	145.220000
424.579559	145.220000
424.673218	145.100000
424.766876	145.400000
424.860535	145.220000
424.954193	144.880000
425.047882	145.140000
425.141510	144.900000
425.235199	145.100000
425.328796	145.200000
425.422485	145.400000
425.516113	144.680000
425.609802	144.920000
425.703430	144.920000
425.797119	144.940000
425.890747	144.980000
425.984436	145.280000
426.078064	145.400000
426.171753	145.320000
426.265411	145.340000
426.359070	145.540000
426.452728	145.560000
426.546356	145.700000
426.640015	145.560000
426.733673	145.500000
426.827332	145.080000
426.920990	145.960000
427.014648	145.200000
427.108307	145.280000
427.201965	145.900000
427.295624	146.420000
427.389282	145.480000
427.482941	146.280000
427.576630	146.100000
427.670258	145.420000
427.763947	144.940000
427.857574	145.220000
427.951263	145.080000
428.044922	144.920000
428.138611	145.380000
428.232239	146.100000
428.325928	146.500000
428.419556	146.940000
428.513245	147.220000
428.606903	147.340000
428.700562	146.680000
428.794220	146.060000
428.887878	145.000000
428.981537	144.960000
429.075195	144.740000
429.168854	145.260000
429.262512	145.380000
429.356201	146.040000
429.449860	146.060000
429.543518	145.840000
429.637177	145.740000
429.730835	145.500000
429.824493	145.500000
429.918182	145.720000
430.011810	145.680000
430.105530	145.180000
430.199158	145.580000
430.292847	145.180000
430.386475	144.820000
430.480164	144.460000
430.573792	144.400000
430.667511	144.180000
430.761139	144.040000
430.854828	144.520000
430.948456	145.060000
431.042145	145.740000
431.135834	145.700000
431.229492	146.140000
431.323151	146.240000
431.416809	146.020000
431.510468	145.720000
431.604156	145.700000
431.697815	145.800000
431.791473	145.320000
431.885132	145.420000
431.978821	145.800000
432.072479	146.160000
432.166138	146.820000
432.259827	146.560000
432.353485	146.820000
432.447174	146.820000
432.540802	146.480000
432.634491	145.960000
432.728149	146.400000
432.821838	146.740000
432.915466	146.060000
433.009186	146.220000
433.102814	145.640000
433.196503	145.400000
433.290131	145.100000
433.383850	145.640000
433.477509	145.600000
433.571167	146.580000
433.664856	147.040000
433.758514	147.140000
433.852173	147.040000
433.945862	146.980000
434.039520	146.520000
434.133179	146.000000
434.226868	145.980000
434.320526	145.720000
434.414185	146.240000
434.507874	146.100000
434.601562	146.520000
434.695221	145.940000
434.788910	146.200000
434.882538	146.080000
434.976257	145.640000
435.069885	145.480000
435.163574	145.860000
435.257233	145.560000
435.350922	145.500000
435.444580	145.380000
435.538269	145.220000
435.631897	145.520000
435.725616	145.980000
435.819275	146.140000
435.912964	147.020000
436.006622	147.360000
436.100311	147.120000
436.193970	146.260000
436.287628	146.040000
436.381317	145.560000
436.474976	145.380000
436.568665	145.120000
436.662323	145.560000
436.756012	145.280000
436.849670	145.080000
436.943390	144.840000
437.037018	144.620000
437.130737	145.020000
437.224365	144.900000
437.318085	145.180000
437.411713	145.420000
437.505432	146.280000
437.599060	146.220000
437.692780	147.080000
437.786407	147.100000
437.880127	147.260000
437.973755	146.500000
438.067474	145.920000
438.161133	145.720000
438.254822	145.780000
438.348480	145.280000
438.442169	146.000000
438.535828	146.700000
438.629517	146.000000
438.723175	145.720000
438.816864	146.400000
438.910553	145.840000
439.004211	145.160000
439.097900	145.200000
439.191559	145.440000
439.285248	144.680000
439.378906	145.140000
439.472626	145.340000
439.566284	145.260000
439.659973	145.460000
439.753632	145.500000
439.847321	145.620000
439.940979	145.920000
440.034698	146.240000
440.128326	145.820000
440.222046	145.680000
440.315674	144.720000
440.409393	144.680000
440.503082	144.340000
440.596741	144.880000
440.690430	145.320000
440.784088	145.600000
440.877777	145.020000
440.971466	145.340000
441.065125	144.880000
441.158813	144.700000
441.252502	144.840000
441.346161	145.280000
441.439850	145.680000
441.533539	145.480000
441.627197	145.920000
441.720886	146.120000
441.814606	146.460000
441.908234	146.540000
442.001953	146.600000
442.095612	146.500000
442.189301	146.380000
442.282959	146.360000
442.376678	145.720000
442.470306	146.540000
442.564026	146.440000
442.657684	146.740000
442.751404	146.660000
442.845032	147.600000
442.938751	146.660000
443.032440	146.860000
443.126099	146.500000
443.219788	147.040000
443.313477	146.780000
443.407166	147.340000
443.500824	147.320000
443.594513	147.740000
443.688202	147.240000
443.781891	146.280000
443.875549	145.800000
443.969238	145.700000
444.062927	145.340000
444.156647	145.120000
444.250275	145.900000
444.343994	146.340000
444.437653	146.320000
444.531372	146.540000
444.625031	146.480000
444.718719	145.980000
444.812378	145.760000
444.906097	145.460000
444.999756	144.860000
445.093445	144.860000
445.187103	145.160000
445.280823	145.600000
445.374512	145.400000
445.468201	145.660000
445.561859	145.620000
445.655548	145.480000
445.749237	144.780000
445.842926	145.100000
445.936615	145.500000
446.030304	145.380000
446.123962	145.540000
446.217651	145.560000
446.311340	145.780000
446.405029	145.460000
446.498749	145.580000
446.592407	145.720000
446.686096	146.100000
446.779755	145.720000
446.873474	146.160000
446.967133	146.120000
447.060852	145.660000
447.154510	145.620000
447.248230	145.780000
447.341858	145.280000
447.435577	145.060000
447.529236	144.740000
447.622955	144.500000
447.716644	144.700000
447.810333	145.100000
447.904022	145.740000
447.997711	146.120000
448.091400	146.540000
448.185059	146.380000
448.278748	146.480000
448.372437	145.820000
448.466125	145.980000
448.559814	145.800000
448.653503	146.160000
448.747192	146.420000
448.840912	147.020000
448.934570	146.900000
449.028290	146.940000
449.121948	146.320000
449.215637	145.260000
449.309296	144.760000
449.403015	144.920000
449.496674	144.800000
449.590393	145.120000
449.684052	145.520000
449.777771	146.260000
449.871429	145.680000
449.965149	145.900000
450.058838	146.160000
450.152527	146.540000
450.246216	146.100000
450.339905	146.320000
450.433594	145.700000
450.527283	145.900000
450.620972	145.200000
450.714661	145.120000
450.808350	145.180000
450.902039	145.720000
450.995728	145.040000
451.089417	145.180000
451.183105	145.640000
451.276794	146.040000
451.370514	145.440000
451.464172	144.960000
451.557892	144.900000
451.651550	144.880000
451.745270	144.260000
451.838928	144.000000
451.932648	144.800000
452.026306	145.380000
452.120026	144.940000
452.213684	145.540000
452.307404	145.960000
452.401062	145.720000
452.494781	145.800000
452.588470	145.640000
452.682159	144.940000
452.775848	144.880000
452.869537	144.660000
452.963226	144.020000
453.056915	143.860000
453.150604	144.280000
453.244293	144.780000
453.337982	145.680000
453.431671	146.120000
453.525360	146.780000
453.619049	146.780000
453.712769	146.580000
453.806427	145.660000
453.900146	145.480000
453.993805	145.280000
454.087555	145.700000
454.181213	145.760000
454.274933	145.820000
454.368591	145.580000
454.462311	145.500000
454.555969	144.860000
454.649689	145.460000
454.743347	145.420000
454.837067	146.060000
454.930756	146.480000
455.024445	146.920000
455.118134	146.660000
455.211853	147.040000
455.305542	146.520000
455.399231	146.400000
455.492920	146.040000
455.586609	146.200000
455.680298	146.380000
455.773987	146.300000
455.867676	146.240000
455.961365	146.500000
456.055084	145.860000
456.148773	145.620000
456.242493	145.520000
456.336151	145.460000
456.429871	145.700000
456.523529	145.940000
456.617249	145.840000
456.710907	146.680000
456.804626	146.480000
456.898315	145.900000
456.992035	145.860000
457.085693	145.560000
457.179413	144.580000
457.273102	145.760000
457.366791	145.660000
457.460480	145.980000
457.554199	146.860000
457.647888	147.220000
457.741577	146.080000
457.835266	146.440000
457.928955	146.560000
458.022644	146.260000
458.116364	146.660000
458.210052	146.620000
458.303741	146.660000
458.397461	145.860000
458.491119	145.160000
458.584839	144.880000
458.678528	144.880000
458.772247	144.600000
458.865906	144.860000
458.959625	145.940000
459.053284	145.940000
459.147003	145.740000
459.240692	146.360000
459.334412	146.560000
459.428070	145.860000
459.521790	145.500000
459.615479	145.480000
459.709198	145.740000
459.802887	145.380000
459.896576	145.320000
459.990265	145.960000
460.083954	146.500000
460.177673	145.920000
460.271362	145.920000
460.365051	146.160000
460.458740	145.600000
460.552429	144.800000
460.646149	144.720000
460.739838	144.640000
460.833527	144.480000
460.927246	144.240000
461.020905	144.480000
461.114655	144.800000
461.208313	145.140000
461.302032	144.820000
461.395691	145.340000
461.489441	145.580000
461.583099	145.280000
461.676819	144.900000
461.770477	145.540000
461.864197	144.980000
461.957916	144.780000
462.051605	144.340000
462.145294	145.120000
462.238983	144.420000
462.332703	145.320000
462.426392	145.660000
462.520081	145.960000
462.613770	145.440000
462.707489	145.980000
462.801178	145.680000
462.894867	145.560000
462.988556	145.900000
463.082275	146.380000
463.175964	145.820000
463.269684	146.040000
463.363342	146.120000
463.457092	145.420000
463.550751	145.460000
463.644470	145.740000
463.738129	145.440000
463.831879	145.520000
463.925537	146.340000
464.019257	146.280000
464.112946	146.300000
464.206665	146.240000
464.300323	145.960000
464.394043	145.720000
464.487762	145.560000
464.581451	145.700000
464.675140	145.760000
464.768829	146.320000
464.862549	146.420000
464.956238	146.460000
465.049927	146.340000
465.143646	146.420000
465.237335	145.760000
465.331024	146.000000
465.424713	146.020000
465.518433	146.300000
465.612152	146.020000
465.705811	146.620000
465.799561	146.400000
465.893219	146.040000
465.986938	146.020000
466.080597	146.140000
466.174347	146.040000
466.268005	145.860000
466.361725	146.020000
466.455414	145.740000
466.549133	145.600000
466.642792	145.620000
466.736542	145.480000
466.830231	145.520000
466.923920	145.640000
467.017609	145.800000
467.111328	145.220000
467.205017	145.360000
467.298706	145.060000
467.392426	145.260000
467.486115	145.320000
467.579803	145.100000
467.673523	145.720000
467.767212	146.000000
467.860901	145.700000
467.954651	145.940000
468.048309	146.600000
468.142029	146.000000
468.235718	145.860000
468.329437	145.680000
468.423096	145.460000
468.516846	145.160000
468.610504	144.940000
468.704224	144.660000
468.797913	144.760000
468.891632	144.940000
468.985291	145.140000
469.079010	145.220000
469.172729	145.120000
469.266418	145.720000
469.360107	145.620000
469.453827	145.120000
469.547516	145.320000
469.641205	146.100000
469.734924	145.820000
469.828613	146.300000
469.922302	146.680000
470.016022	146.480000
470.109711	145.940000
470.203430	145.740000
470.297150	144.820000
470.390808	145.140000
470.484558	145.220000
470.578217	145.460000
470.671936	145.940000
470.765625	146.920000
470.859344	145.960000
470.953003	146.040000
471.046753	146.160000
471.140411	145.240000
471.234131	144.860000
471.327820	146.020000
471.421539	145.840000
471.515228	145.320000
471.608948	145.700000
471.702637	145.140000
471.796326	144.300000
471.890045	144.580000
471.983734	144.720000
472.077423	144.580000
472.171143	145.120000
472.264832	145.600000
472.358521	145.380000
472.452240	145.080000
472.545929	145.520000
472.639648	145.560000
472.733337	145.900000
472.827057	146.080000
472.920746	146.360000
473.014465	146.600000
473.108124	146.360000
473.201874	146.020000
473.295532	145.820000
473.389252	146.420000
473.482941	146.400000
473.576660	146.020000
473.670319	145.880000
473.764069	145.920000
473.857727	145.900000
473.951477	146.020000
474.045166	146.860000
474.138855	146.840000
474.232574	146.900000
474.326263	146.620000
474.419952	146.720000
474.513672	146.520000
474.607361	146.600000
474.701050	147.020000
474.794769	147.340000
474.888458	147.160000
474.982178	147.300000
475.075867	147.280000
475.169586	147.060000
475.263275	146.560000
475.356995	146.360000
475.450653	145.940000
475.544403	145.740000
475.638062	146.120000
475.731812	146.040000
475.825470	145.700000
475.919189	145.880000
476.012878	146.180000
476.106598	145.360000
476.200256	145.620000
476.294006	145.720000
476.387695	146.000000
476.481384	145.700000
476.575104	146.060000
476.668793	145.780000
476.762512	145.660000
476.856201	145.700000
476.949890	145.380000
477.043610	144.820000
477.137299	144.940000
477.230988	145.320000
477.324707	144.740000
477.418396	145.520000
477.512146	145.920000
477.605804	146.080000
477.699524	146.220000
477.793213	146.060000
477.886932	145.700000
477.980591	145.540000
478.074341	145.180000
478.167999	144.680000
478.261749	145.000000
478.355408	144.880000
478.449127	145.260000
478.542816	146.200000
478.636536	146.680000
478.730225	146.640000
478.823944	147.060000
478.917633	146.980000
479.011322	146.760000
479.105042	146.660000
479.198730	146.960000
479.292450	146.320000
479.386139	146.320000
479.479828	146.420000
479.573547	146.480000
479.667267	146.180000
479.760925	146.660000
479.854675	146.600000
479.948334	146.300000
480.042084	145.600000
480.135742	145.600000
480.229462	145.080000
480.323151	145.120000
480.416870	144.560000
480.510529	145.020000
480.604279	144.980000
480.697937	145.700000
480.791656	145.420000
480.885345	145.340000
480.979065	145.380000
481.072754	145.940000
481.166473	146.100000
481.260132	146.260000
481.353882	146.640000
481.447540	146.660000
481.541260	146.340000
481.635010	145.960000
481.728668	145.940000
481.822388	145.840000
481.916077	145.900000
482.009796	145.860000
482.103485	146.000000
482.197205	146.260000
482.290863	146.380000
482.384613	146.360000
482.478271	145.920000
482.571991	145.700000
482.665680	145.720000
482.759399	146.300000
482.853058	146.620000
482.946808	146.640000
483.040466	146.600000
483.134216	146.300000
483.227875	145.700000
483.321594	146.080000
483.415283	146.000000
483.509003	145.800000
483.602661	145.400000
483.696411	145.640000
483.790070	145.040000
483.883789	145.440000
483.977478	145.920000
484.071198	146.080000
484.164917	145.540000
484.258606	145.120000
484.352325	145.280000
484.445984	145.000000
484.539734	145.180000
484.633392	145.140000
484.727142	145.600000
484.820801	145.540000
484.914520	145.560000
485.008209	145.660000
485.101929	146.200000
485.195587	145.940000
485.289337	145.800000
485.382996	145.860000
485.476715	146.060000
485.570404	146.340000
485.664124	146.080000
485.757782	146.580000
485.851532	146.040000
485.945190	145.520000
486.038910	145.100000
486.132599	145.820000
486.226318	145.100000
486.319977	145.460000
486.413727	146.100000
486.507446	145.840000
486.601105	145.020000
486.694855	144.960000
486.788513	144.860000
486.882233	144.420000
486.975922	144.400000
487.069641	144.520000
487.163300	144.480000
487.257050	145.620000
487.350708	145.500000
487.444427	145.460000
487.538116	145.700000
487.631836	145.980000
487.725494	145.420000
487.819214	145.460000
487.912903	145.720000
488.006622	146.120000
488.100281	146.280000
488.194031	146.300000
488.287689	146.820000
488.381409	147.440000
488.475098	147.200000
488.568817	147.340000
488.662476	147.200000
488.756226	146.540000
488.849945	145.220000
488.943604	145.460000
489.037354	145.380000
489.131012	145.200000
489.224731	145.300000
489.318390	145.960000
489.412140	145.560000
489.505798	145.420000
489.599518	145.140000
489.693207	145.480000
489.786926	145.360000
489.880585	145.440000
489.974335	145.400000
490.067993	146.320000
490.161713	146.280000
490.255371	146.920000
490.349121	146.820000
490.442780	146.640000
490.536499	145.800000
490.630188	146.000000
490.723907	145.320000
490.817566	145.540000
490.911285	145.760000
491.004974	145.900000
491.098694	145.580000
491.192413	146.320000
491.286102	146.260000
491.379822	146.140000
491.473480	146.460000
491.567200	146.340000
491.660889	145.720000
491.754608	145.600000
491.848267	145.860000
491.941986	145.620000
492.035675	145.980000
492.129395	146.140000
492.223053	146.040000
492.316772	146.060000
492.410461	146.200000
492.504181	145.680000
492.597839	145.580000
492.691559	146.160000
492.785248	146.100000
492.878967	146.260000
492.972626	146.480000
493.066345	146.580000
493.160034	145.540000
493.253754	145.420000
493.347412	144.640000
493.441132	144.740000
493.534882	144.940000
493.628540	145.760000
493.722260	145.920000
493.815918	146.320000
493.909668	146.860000
494.003326	147.180000
494.097046	146.880000
494.190704	146.580000
494.284454	146.760000
494.378113	146.480000
494.471832	145.960000
494.565491	145.860000
494.659210	146.300000
494.752899	146.360000
494.846619	146.380000
494.940277	146.360000
495.033997	146.320000
495.127686	145.460000
495.221405	145.220000
495.315063	145.040000
495.408783	145.080000
495.502441	145.380000
495.596191	146.060000
495.689850	145.620000
495.783569	145.740000
495.877228	145.800000
495.970947	145.520000
496.064697	145.200000
496.158356	146.540000
496.252075	146.260000
496.345734	146.200000
496.439453	146.720000
496.533142	146.920000
496.626862	146.860000
496.720520	147.020000
496.814240	147.420000
496.907898	147.100000
497.001617	147.620000
497.095306	146.700000
497.189026	146.640000
497.282684	146.400000
497.376404	146.940000
497.470062	146.460000
497.563782	146.400000
497.657471	146.500000
497.751190	146.240000
497.844849	145.660000
497.938568	145.800000
498.032227	146.100000
498.125946	146.000000
498.219635	146.000000
498.313354	146.140000
498.407074	145.780000
498.500732	145.720000
498.594452	146.220000
498.688110	145.860000
498.781830	145.500000
498.875519	145.300000
498.969238	144.920000
499.062897	144.400000
499.156616	144.980000
499.250275	145.200000
499.343994	144.960000
499.437653	145.280000
499.531372	145.560000
499.625061	146.000000
499.718781	146.220000
499.812439	146.840000
499.906158	146.740000
499.999817	146.320000
500.093536	145.620000
500.187195	145.480000
500.280914	145.640000
500.374573	145.920000
500.468323	145.760000
500.561981	146.040000
500.655701	145.680000
500.749420	145.480000
500.843079	145.720000
500.936798	145.940000
501.030457	146.320000
501.124176	146.960000
501.217834	147.180000
501.311554	146.780000
501.405212	146.320000
501.498962	145.440000
501.592621	145.140000
501.686340	145.380000
501.779999	145.560000
501.873718	146.040000
501.967377	146.460000
502.061096	146.640000
502.154755	145.760000
502.248474	145.700000
502.342133	145.700000
502.435852	145.380000
502.529510	145.920000
502.623230	146.860000
502.716888	146.280000
502.810608	146.580000
502.904266	147.220000
502.997986	146.440000
503.091705	145.520000
503.185364	145.780000
503.279083	145.700000
503.372772	145.540000
503.466492	145.140000
503.560150	145.500000
503.653870	145.820000
503.747528	145.560000
503.841248	145.320000
503.934906	146.040000
504.028625	145.620000
504.122284	145.780000
504.216003	146.660000
504.309662	146.280000
504.403381	145.880000
504.497040	146.180000
504.590759	145.760000
504.684418	145.460000
504.778137	146.100000
504.871796	146.660000
504.965515	146.420000
505.059174	146.600000
505.152893	145.880000
505.246521	145.280000
505.340240	144.960000
505.433899	145.340000
505.527618	145.420000
505.621338	145.800000
505.714996	145.920000
505.808716	145.860000
505.902374	146.140000
505.996094	146.400000
506.089752	146.360000
506.183472	146.260000
506.277130	146.480000
506.370850	146.280000
506.464508	145.900000
506.558228	145.980000
506.651886	145.820000
506.745605	145.700000
506.839264	145.560000
506.932983	145.800000
507.026611	145.480000
507.120331	146.220000
507.213989	145.580000
507.307709	145.560000
507.401367	145.500000
507.495087	146.600000
507.588745	146.360000
507.682465	147.440000
507.776123	147.820000
507.869843	147.600000
507.963531	146.760000
508.057190	147.240000
508.150909	146.120000
508.244568	146.060000
508.338287	146.080000
508.431946	145.980000
508.525665	145.340000
508.619324	145.700000
508.713013	145.660000
508.806671	146.000000
508.900391	146.920000
508.994049	147.140000
509.087769	146.800000
509.181427	146.720000
509.275146	146.440000
509.368774	145.160000
509.462494	144.740000
509.556152	145.020000
509.649872	145.240000
509.743530	145.540000
509.837250	146.000000
509.930878	146.320000
510.024597	146.280000
510.118256	146.000000
510.211975	145.800000
510.305695	145.900000
510.399353	146.120000
510.493042	146.660000
510.586700	146.740000
510.680420	147.080000
510.774078	146.620000
510.867798	146.900000
510.961426	146.400000
511.055145	146.440000
511.148804	145.940000
511.242523	146.500000
511.336151	146.040000
511.429871	146.440000
511.523529	146.160000
511.617249	145.840000
511.710876	145.600000
511.804596	145.200000
511.898254	144.920000
511.991974	145.420000
512.085632	145.740000
512.179321	145.680000
512.272949	146.300000
512.366699	146.700000
512.460327	146.220000
512.554077	146.900000
512.647766	146.740000
512.741394	146.360000
512.835144	146.560000
512.928772	146.320000
513.022461	145.960000
513.116150	145.960000
513.209839	146.620000
513.303467	146.040000
513.397217	146.160000
513.490845	145.840000
513.584595	145.980000
513.678223	145.320000
513.771912	144.800000
513.865601	144.700000
513.959290	144.500000
514.052917	144.440000
514.146667	144.960000
514.240295	145.440000
514.333984	145.900000
514.427673	145.720000
514.521362	146.080000
514.614990	145.480000
514.708740	145.840000
514.802368	146.040000
514.896057	146.400000
514.989746	146.980000
515.083435	147.060000
515.177124	146.980000
515.270752	146.800000
515.364502	146.800000
515.458130	146.360000
515.551819	146.000000
515.645508	145.740000
515.739197	145.560000
515.832825	145.580000
515.926575	145.120000
516.020203	145.780000
516.113892	146.260000
516.207520	145.980000
516.301270	146.040000
516.394897	146.260000
516.488586	146.440000
516.582275	146.160000
516.675964	145.800000
516.769592	145.820000
516.863281	146.340000
516.956970	146.720000
517.050659	146.300000
517.144287	146.680000
517.238037	146.660000
517.331665	145.940000
517.425354	145.140000
517.519043	145.380000
517.612732	145.580000
517.706421	145.560000
517.800049	145.540000
517.893738	145.200000
517.987427	145.140000
518.081116	144.900000
518.174744	144.280000
518.268433	144.420000
518.362122	145.380000
518.455811	145.220000
518.549438	145.720000
518.643127	147.060000
518.736816	146.940000
518.830505	146.060000
518.924133	146.320000
519.017822	146.520000
519.111511	145.920000
519.205200	146.400000
519.298828	146.760000
519.392517	146.140000
519.486206	146.000000
519.579895	145.900000
519.673523	145.680000
519.767212	145.660000
519.860901	146.520000
519.954590	146.300000
520.048279	145.920000
520.141907	145.720000
520.235596	146.460000
520.329224	146.760000
520.422974	146.880000
520.516602	147.160000
520.610291	146.760000
520.703918	146.320000
520.797607	145.700000
520.891296	145.360000
520.984985	145.480000
521.078613	146.200000
521.172302	145.440000
521.265930	146.320000
521.359680	146.760000
521.453308	146.580000
521.546997	146.480000
521.640625	146.880000
521.734314	146.100000
521.827942	145.780000
521.921692	146.300000
522.015320	146.240000
522.109009	145.800000
522.202698	145.940000
522.296326	145.940000
522.390015	145.880000
522.483704	145.820000
522.577393	146.040000
522.671021	145.900000
522.764709	145.960000
522.858337	146.060000
522.952026	146.060000
523.045654	146.880000
523.139404	147.560000
523.233032	147.740000
523.326721	147.660000
523.420349	147.440000
523.514038	146.780000
523.607666	146.860000
523.701355	146.040000
523.795044	145.700000
523.888733	146.060000
523.982361	146.360000
524.076050	145.780000
524.169678	146.940000
524.263367	146.620000
524.356995	146.060000
524.450684	145.760000
524.544373	145.360000
524.638062	144.840000
524.731750	145.160000
524.825378	145.440000
524.919067	145.080000
525.012695	145.240000
525.106384	144.720000
525.200012	144.860000
525.293701	144.820000
525.387329	145.380000
525.481018	145.640000
525.574646	146.460000
525.668396	146.380000
525.762024	146.860000
525.855713	147.320000
525.949341	146.720000
526.043030	146.480000
526.136658	146.260000
526.230347	145.580000
526.323975	145.080000
526.417664	145.300000
526.511292	145.360000
526.604980	145.680000
526.698608	146.020000
526.792297	146.040000
526.885925	146.560000
526.979614	146.700000
527.073303	146.360000
527.166931	146.240000
527.260620	146.460000
527.354309	146.560000
527.447998	146.460000
527.541626	146.320000
527.635315	146.620000
527.728943	147.060000
527.822632	146.940000
527.916260	147.000000
528.009949	147.520000
528.103577	147.220000
528.197266	146.240000
528.290894	146.180000
528.384583	145.820000
528.478210	145.480000
528.571899	146.040000
528.665527	146.640000
528.759216	146.820000
528.852844	147.620000
528.946533	147.660000
529.040161	147.420000
529.133850	146.940000
529.227478	147.000000
529.321167	146.900000
529.414856	147.280000
529.508484	147.560000
529.602173	147.340000
529.695801	147.040000
529.789490	146.620000
529.883057	146.280000
529.976746	146.560000
530.070374	147.440000
530.164062	147.140000
530.257690	147.200000
530.351379	147.640000
530.445007	147.100000
530.538696	146.420000
530.632324	146.920000
530.726013	147.020000
530.819641	146.820000
530.913330	146.960000
531.006958	146.920000
531.100647	146.820000
531.194275	146.380000
531.287964	146.080000
531.381592	145.500000
531.475220	145.720000
531.568848	145.540000
531.662537	145.940000
531.756226	146.540000
531.849854	147.000000
531.943542	147.220000
532.037170	146.660000
532.130859	146.780000
532.224487	146.240000
532.318176	145.900000
532.411804	146.200000
532.505432	146.780000
532.599060	146.300000
532.692749	146.360000
532.786377	146.780000
532.880066	145.880000
532.973694	145.560000
533.067383	145.460000
533.161011	145.440000
533.254639	145.300000
533.348267	145.340000
533.441956	146.040000
533.535583	146.220000
533.629272	146.280000
533.722900	145.600000
533.816589	145.960000
533.910156	145.820000
534.003845	145.560000
534.097534	145.800000
534.191162	146.560000
534.284851	146.480000
534.378479	146.040000
534.472107	146.520000
534.565735	146.160000
534.659424	146.080000
534.753052	146.500000
534.846741	146.180000
534.940369	146.520000
535.033997	146.560000
535.127625	146.400000
535.221313	146.320000
535.314941	146.580000
535.408630	145.940000
535.502197	146.260000
535.595886	145.980000
535.689514	145.780000
535.783203	146.240000
535.876831	146.720000
535.970459	146.340000
536.064087	146.240000
536.157776	146.420000
536.251404	146.240000
536.345093	145.860000
536.438721	145.900000
536.532349	146.360000
536.626038	145.800000
536.719666	145.940000
536.813293	145.400000
536.906921	145.280000
537.000610	145.600000
537.094238	145.660000
537.187866	145.440000
537.281494	145.800000
537.375183	146.160000
537.468811	145.760000
537.562439	145.760000
537.656067	145.880000
537.749756	145.740000
537.843384	145.920000
537.937012	146.360000
538.030640	146.460000
538.124329	146.300000
538.217896	147.100000
538.311584	147.020000
538.405212	146.400000
538.498901	146.720000
538.592468	147.160000
538.686157	146.320000
538.779785	145.780000
538.873413	145.940000
538.967102	145.660000
539.060730	145.400000
539.154358	146.020000
539.247986	146.720000
539.341675	146.840000
539.435242	146.800000
539.528931	146.800000
539.622559	146.360000
539.716187	146.600000
539.809814	146.260000
539.903503	146.440000
539.997070	146.260000
540.090759	146.480000
540.184387	145.840000
540.278015	146.380000
540.371643	146.480000
540.465332	146.640000
540.558899	146.560000
540.652588	146.680000
540.746216	146.380000
540.839844	146.600000
540.933472	146.400000
541.027100	146.460000
541.120728	146.660000
541.214417	146.800000
541.308044	146.740000
541.401672	146.400000
541.495300	146.240000
541.588928	145.880000
541.682617	145.560000
541.776184	145.320000
541.869873	146.000000
541.963440	146.360000
542.057129	146.540000
542.150757	146.820000
542.244385	146.700000
542.338013	146.380000
542.431641	146.040000
542.525269	146.040000
542.618958	146.580000
542.712524	146.960000
542.806213	146.680000
542.899780	147.060000
542.993469	146.800000
543.087036	146.140000
543.180725	145.460000
543.274292	146.100000
543.367981	146.200000
543.461548	146.540000
543.555237	146.380000
543.648926	147.100000
543.742493	147.660000
543.836182	147.420000
543.929749	147.180000
544.023437	147.400000
544.117004	147.100000
544.210693	146.360000
544.304260	146.340000
544.397949	146.460000
544.491516	146.700000
544.585205	146.560000
544.678772	146.300000
544.772461	146.600000
544.866028	146.620000
544.959717	146.840000
545.053284	146.460000
545.146973	146.760000
545.240540	146.660000
545.334229	147.040000
545.427795	146.800000
545.521423	147.260000
545.615051	147.480000
545.708679	147.740000
545.802307	147.240000
545.895935	147.700000
545.989624	148.540000
546.083191	148.340000
546.176880	147.940000
546.270447	147.720000
546.364136	147.740000
546.457703	146.960000
546.551331	147.100000
546.644958	147.420000
546.738586	147.780000
546.832214	147.000000
546.925842	146.980000
547.019409	146.920000
547.113098	146.220000
547.206665	145.900000
547.300354	146.020000
547.393921	146.300000
547.487549	146.620000
547.581177	146.620000
547.674805	146.760000
547.768433	146.180000
547.862061	145.740000
547.955627	144.800000
548.049316	145.560000
548.142883	145.720000
548.236572	146.480000
548.330139	146.840000
548.423767	146.900000
548.517456	146.260000
548.611023	146.540000
548.704651	146.020000
548.798279	145.740000
548.891907	146.360000
548.985474	146.120000
549.079163	145.920000
549.172729	145.900000
549.266357	145.460000
549.359985	145.200000
549.453613	145.120000
549.547180	144.700000
549.640869	144.980000
549.734436	145.280000
549.828064	145.620000
549.921631	145.580000
550.015320	145.520000
550.108887	145.780000
550.202515	145.500000
550.296143	145.180000
550.389771	145.720000
550.483337	145.980000
550.576965	145.500000
550.670593	146.160000
550.764221	146.160000
550.857849	145.860000
550.951477	145.480000
551.045105	145.220000
551.138672	145.280000
551.232300	145.100000
551.325928	145.520000
551.419556	146.180000
551.513123	146.540000
551.606750	145.860000
551.700378	145.920000
551.794006	145.500000
551.887573	145.200000
551.981201	145.640000
552.074768	145.560000
552.168457	145.440000
552.262024	146.560000
552.355652	146.460000
552.449219	146.580000
552.542847	147.160000
552.636475	146.940000
552.730103	145.500000
552.823669	145.380000
552.917297	144.860000
553.010864	144.860000
553.104553	145.160000
553.198181	145.260000
553.291748	145.680000
553.385376	146.020000
553.478943	145.740000
553.572571	145.980000
553.666199	146.200000
553.759827	145.580000
553.853394	145.040000
553.947021	145.040000
554.040588	144.600000
554.134216	144.780000
554.227783	145.800000
554.321411	146.560000
554.415039	146.020000
554.508667	146.240000
554.602234	146.380000
554.695862	145.440000
554.789429	145.160000
554.883057	145.580000
554.976624	145.660000
555.070251	145.520000
555.163818	145.780000
555.257507	145.480000
555.351074	145.400000
555.444702	146.340000
555.538330	146.120000
555.631897	146.300000
555.725525	146.440000
555.819092	146.460000
555.912720	145.240000
556.006287	145.720000
556.099915	145.600000
556.193481	145.740000
556.287109	146.120000
556.380676	145.960000
556.474304	146.020000
556.567871	146.160000
556.661499	145.740000
556.755066	145.700000
556.848694	146.000000
556.942261	145.740000
557.035889	145.700000
557.129517	146.040000
557.223145	146.180000
557.316711	146.380000
557.410339	146.340000
557.503906	146.080000
557.597473	146.180000
557.691040	145.800000
557.784668	145.620000
557.878296	145.480000
557.971863	145.660000
558.065491	145.320000
558.159058	145.120000
558.252686	146.120000
558.346252	146.860000
558.439880	146.500000
558.533447	146.260000
558.627075	146.260000
558.720642	145.280000
558.814270	144.720000
558.907837	144.880000
559.001465	145.120000
559.095032	145.960000
559.188660	146.200000
559.282227	146.060000
559.375854	146.660000
559.469360	146.600000
559.562988	146.820000
559.656555	146.520000
559.750183	146.640000
559.843750	146.780000
559.937378	146.900000
560.030945	146.540000
560.124573	0.000000
560.218140	0.000000
560.311707	0.000000
560.405334	0.000000
560.498901	0.000000
560.592529	0.000000
560.686096	0.000000
560.779724	0.000000
560.873291	0.000000
560.966858	0.000000
561.060425	0.000000
561.154053	0.000000
561.247620	0.000000
561.341248	0.000000
561.434814	0.000000
561.528381	0.000000
561.621948	0.000000
561.715576	0.000000
561.809143	0.000000
561.902771	0.000000
561.996277	0.000000
562.089905	0.000000
562.183472	0.000000
562.277100	0.000000
