Model Number: SPM-002-B   
Serial Number: 70087108
Firmware Version: 004.15.4
Exposure Time: 100000.000000us
Data Taken on: 11-12-2020 19:28:48.701
Wavelength	Amplitude
221.570786	0.000000
221.663406	0.000000
221.756027	0.000000
221.848648	0.000000
221.941269	0.000000
222.033905	0.000000
222.126526	0.000000
222.219162	0.000000
222.311798	0.000000
222.404419	0.000000
222.497055	0.000000
222.589676	0.000000
222.682312	0.000000
222.774933	0.000000
222.867569	0.000000
222.960205	0.000000
223.052841	0.000000
223.145462	0.000000
223.238098	0.000000
223.330734	0.000000
223.423386	0.000000
223.516022	0.000000
223.608658	0.000000
223.701309	0.000000
223.793945	0.000000
223.886581	0.000000
223.979218	0.000000
224.071869	0.000000
224.164505	0.000000
224.257156	0.000000
224.349792	0.000000
224.442444	0.000000
224.535095	0.000000
224.627747	0.000000
224.720398	0.000000
224.813034	0.000000
224.905685	0.000000
224.998337	145.440000
225.090988	145.200000
225.183640	145.700000
225.276291	145.340000
225.368942	145.600000
225.461594	146.340000
225.554245	146.440000
225.646912	145.920000
225.739578	146.660000
225.832230	146.700000
225.924896	145.480000
226.017548	145.660000
226.110199	146.240000
226.202866	145.560000
226.295532	145.160000
226.388184	145.400000
226.480850	145.000000
226.573517	144.520000
226.666168	144.840000
226.758835	145.260000
226.851501	145.880000
226.944183	146.180000
227.036850	146.020000
227.129517	145.960000
227.222183	145.920000
227.314850	145.960000
227.407516	146.180000
227.500198	146.940000
227.592865	146.480000
227.685532	146.220000
227.778214	145.700000
227.870880	145.900000
227.963562	146.120000
228.056229	146.780000
228.148926	146.900000
228.241592	147.580000
228.334274	146.900000
228.426956	146.440000
228.519638	146.220000
228.612305	145.920000
228.704987	145.700000
228.797668	145.840000
228.890350	145.560000
228.983032	144.820000
229.075714	145.500000
229.168396	145.480000
229.261108	145.500000
229.353790	145.600000
229.446472	146.260000
229.539169	145.920000
229.631851	145.460000
229.724533	145.480000
229.817230	145.640000
229.909912	146.240000
230.002609	146.380000
230.095306	146.420000
230.187988	146.520000
230.280685	146.320000
230.373383	145.380000
230.466095	144.880000
230.558792	145.200000
230.651474	145.280000
230.744171	145.480000
230.836868	145.580000
230.929581	146.300000
231.022278	146.360000
231.114975	146.400000
231.207672	146.280000
231.300369	146.960000
231.393082	146.800000
231.485779	146.440000
231.578506	146.040000
231.671204	146.160000
231.763916	146.020000
231.856613	145.940000
231.949326	146.280000
232.042023	146.460000
232.134735	146.140000
232.227448	145.500000
232.320160	145.700000
232.412872	145.460000
232.505585	146.220000
232.598297	147.060000
232.691010	147.200000
232.783722	146.620000
232.876450	147.420000
232.969162	146.820000
233.061874	145.820000
233.154587	145.560000
233.247314	145.780000
233.340027	144.840000
233.432739	145.240000
233.525467	145.280000
233.618179	145.780000
233.710907	145.860000
233.803635	146.700000
233.896347	146.220000
233.989090	147.160000
234.081818	147.080000
234.174545	146.900000
234.267258	146.180000
234.359985	146.400000
234.452713	145.900000
234.545441	145.660000
234.638168	145.420000
234.730896	145.940000
234.823639	145.760000
234.916367	146.120000
235.009094	146.060000
235.101822	146.520000
235.194580	146.320000
235.287308	146.200000
235.380051	145.660000
235.472778	146.100000
235.565521	146.460000
235.658249	146.120000
235.750992	146.580000
235.843719	146.580000
235.936462	146.760000
236.029205	146.160000
236.121948	145.900000
236.214691	145.840000
236.307449	146.660000
236.400192	146.140000
236.492935	145.900000
236.585678	146.620000
236.678421	146.840000
236.771164	146.540000
236.863907	147.160000
236.956665	147.480000
237.049408	148.580000
237.142151	148.040000
237.234909	148.620000
237.327652	148.380000
237.420410	148.140000
237.513153	147.200000
237.605927	146.880000
237.698669	145.960000
237.791428	145.380000
237.884186	145.960000
237.976944	145.320000
238.069702	145.900000
238.162445	145.840000
238.255203	146.240000
238.347961	146.320000
238.440720	146.480000
238.533478	146.300000
238.626266	146.080000
238.719025	146.220000
238.811783	145.920000
238.904541	145.740000
238.997314	145.460000
239.090073	145.480000
239.182831	145.580000
239.275604	146.580000
239.368362	146.640000
239.461136	147.020000
239.553909	146.920000
239.646667	146.720000
239.739441	145.960000
239.832214	146.360000
239.925003	146.520000
240.017761	147.500000
240.110535	148.200000
240.203308	147.980000
240.296082	147.760000
240.388855	147.540000
240.481628	146.960000
240.574417	146.800000
240.667191	146.740000
240.759964	146.340000
240.852737	146.260000
240.945526	146.140000
241.038315	145.480000
241.131088	145.400000
241.223877	145.840000
241.316650	145.300000
241.409439	145.680000
241.502228	145.720000
241.595001	146.420000
241.687790	146.060000
241.780579	146.560000
241.873367	146.360000
241.966141	146.480000
242.058929	146.060000
242.151718	146.660000
242.244507	147.140000
242.337311	146.480000
242.430099	146.920000
242.522903	146.940000
242.615692	146.420000
242.708481	146.140000
242.801270	146.420000
242.894073	146.240000
242.986862	146.200000
243.079651	146.640000
243.172455	146.240000
243.265244	146.680000
243.358063	146.000000
243.450867	146.200000
243.543655	146.260000
243.636459	146.500000
243.729263	146.560000
243.822067	147.040000
243.914856	147.400000
244.007660	147.260000
244.100464	147.180000
244.193268	146.600000
244.286072	146.520000
244.378876	145.600000
244.471680	145.360000
244.564499	145.760000
244.657318	146.680000
244.750122	147.180000
244.842926	146.680000
244.935745	147.000000
245.028549	146.320000
245.121368	145.860000
245.214172	145.400000
245.306992	146.140000
245.399796	145.740000
245.492615	146.240000
245.585434	146.040000
245.678253	146.060000
245.771072	146.160000
245.863892	146.780000
245.956711	146.980000
246.049530	146.980000
246.142349	146.720000
246.235168	146.860000
246.327988	146.920000
246.420807	146.420000
246.513626	146.680000
246.606445	146.700000
246.699280	146.440000
246.792099	146.140000
246.884918	146.020000
246.977753	145.360000
247.070587	145.340000
247.163422	145.600000
247.256241	145.500000
247.349075	146.160000
247.441895	146.540000
247.534729	146.680000
247.627563	146.220000
247.720383	146.860000
247.813217	146.080000
247.906052	145.980000
247.998886	146.000000
248.091736	145.880000
248.184570	145.360000
248.277405	145.540000
248.370239	146.180000
248.463074	147.020000
248.555908	147.520000
248.648743	147.300000
248.741592	147.620000
248.834427	147.160000
248.927261	146.200000
249.020111	146.760000
249.112946	147.280000
249.205795	146.840000
249.298630	146.820000
249.391495	146.680000
249.484344	145.920000
249.577179	145.700000
249.670029	146.040000
249.762878	146.460000
249.855728	146.840000
249.948563	147.140000
250.041412	146.500000
250.134262	146.520000
250.227112	146.520000
250.319962	146.140000
250.412827	145.860000
250.505692	145.780000
250.598541	145.860000
250.691391	145.380000
250.784241	145.880000
250.877106	145.940000
250.969955	146.000000
251.062805	146.480000
251.155670	147.240000
251.248520	146.780000
251.341385	147.180000
251.434235	147.520000
251.527100	147.040000
251.619965	146.460000
251.712814	147.320000
251.805695	146.960000
251.898560	147.120000
251.991425	147.260000
252.084290	147.340000
252.177155	146.740000
252.270020	146.560000
252.362885	146.380000
252.455750	146.440000
252.548615	146.140000
252.641479	145.920000
252.734360	146.140000
252.827240	145.680000
252.920105	145.340000
253.012970	145.340000
253.105850	145.420000
253.198715	145.020000
253.291595	145.420000
253.384460	145.040000
253.477341	144.940000
253.570221	145.400000
253.663086	145.440000
253.755966	146.160000
253.848846	146.440000
253.941727	146.660000
254.034592	146.180000
254.127472	145.640000
254.220367	145.200000
254.313248	145.380000
254.406128	145.080000
254.499008	145.400000
254.591904	146.700000
254.684784	147.160000
254.777664	147.160000
254.870544	146.980000
254.963440	146.960000
255.056335	146.640000
255.149216	146.000000
255.242111	146.220000
255.334991	146.680000
255.427887	146.580000
255.520767	146.780000
255.613663	147.060000
255.706558	146.520000
255.799438	146.260000
255.892334	145.900000
255.985229	145.480000
256.078125	145.280000
256.171021	145.340000
256.263916	145.920000
256.356812	146.660000
256.449707	146.680000
256.542603	146.540000
256.635498	147.420000
256.728394	147.020000
256.821289	146.320000
256.914215	146.600000
257.007080	146.780000
257.100006	146.700000
257.192932	147.180000
257.285828	147.320000
257.378723	146.820000
257.471619	146.760000
257.564545	145.820000
257.657440	145.560000
257.750336	146.260000
257.843262	146.220000
257.936157	147.400000
258.029053	147.960000
258.121979	147.980000
258.214874	147.480000
258.307800	147.680000
258.400696	146.260000
258.493622	146.120000
258.586517	145.460000
258.679443	145.700000
258.772339	145.180000
258.865265	145.260000
258.958160	144.820000
259.051086	145.820000
259.144012	145.580000
259.236938	146.660000
259.329834	146.960000
259.422791	147.120000
259.515717	146.240000
259.608612	145.940000
259.701538	145.620000
259.794464	145.280000
259.887390	145.300000
259.980316	145.600000
260.073212	145.580000
260.166138	144.820000
260.259064	145.340000
260.351990	146.060000
260.444916	146.100000
260.537842	146.720000
260.630768	147.720000
260.723694	147.540000
260.816620	146.860000
260.909546	146.880000
261.002472	146.260000
261.095398	145.580000
261.188354	145.600000
261.281281	145.560000
261.374207	145.700000
261.467133	146.420000
261.560089	146.980000
261.653015	146.580000
261.745972	147.220000
261.838867	147.460000
261.931824	147.700000
262.024780	147.040000
262.117706	147.440000
262.210663	147.560000
262.303589	147.220000
262.396515	146.820000
262.489471	147.780000
262.582397	147.480000
262.675354	146.900000
262.768280	146.920000
262.861237	146.860000
262.954163	146.400000
263.047119	146.540000
263.140045	146.140000
263.233002	146.020000
263.325958	145.660000
263.418884	145.200000
263.511841	145.540000
263.604797	145.980000
263.697723	146.200000
263.790680	146.360000
263.883636	146.920000
263.976593	146.440000
264.069550	146.440000
264.162476	145.880000
264.255463	145.760000
264.348419	145.100000
264.441376	145.740000
264.534332	145.300000
264.627289	145.580000
264.720245	146.180000
264.813202	146.040000
264.906158	145.860000
264.999115	146.480000
265.092072	146.660000
265.185028	146.680000
265.277985	147.320000
265.370941	147.220000
265.463898	146.880000
265.556854	146.420000
265.649811	146.040000
265.742798	146.040000
265.835754	145.980000
265.928711	146.560000
266.021667	146.840000
266.114655	146.700000
266.207611	146.540000
266.300568	145.940000
266.393585	145.400000
266.486511	145.780000
266.579498	145.140000
266.672485	145.320000
266.765442	145.500000
266.858429	146.020000
266.951385	145.680000
267.044342	146.280000
267.137329	146.280000
267.230316	146.660000
267.323273	146.000000
267.416260	146.440000
267.509216	146.440000
267.602203	146.340000
267.695160	146.700000
267.788147	146.620000
267.881134	146.060000
267.974091	146.180000
268.067078	146.240000
268.160065	145.680000
268.253052	145.840000
268.346008	145.940000
268.438995	145.640000
268.531982	145.540000
268.624969	145.400000
268.717987	145.680000
268.810944	145.960000
268.903961	146.060000
268.996948	145.560000
269.089905	146.140000
269.182892	146.180000
269.275879	146.160000
269.368866	145.640000
269.461853	146.360000
269.554871	146.100000
269.647858	145.780000
269.740845	146.260000
269.833832	147.040000
269.926819	146.600000
270.019806	146.720000
270.112793	146.440000
270.205811	146.200000
270.298798	145.900000
270.391785	146.520000
270.484772	146.300000
270.577789	146.740000
270.670776	145.840000
270.763763	145.880000
270.856750	145.940000
270.949768	145.620000
271.042786	145.520000
271.135773	146.220000
271.228790	146.560000
271.321808	145.920000
271.414795	145.560000
271.507782	145.560000
271.600800	145.020000
271.693817	145.040000
271.786804	145.660000
271.879822	146.240000
271.972809	146.100000
272.065826	146.660000
272.158844	146.300000
272.251831	146.320000
272.344849	146.400000
272.437866	146.400000
272.530853	146.520000
272.623871	146.500000
272.716888	145.440000
272.809906	146.080000
272.902893	145.780000
272.995911	144.800000
273.088928	144.800000
273.181946	145.380000
273.274963	144.520000
273.367981	144.860000
273.460999	145.580000
273.554047	146.080000
273.647003	146.540000
273.740051	146.360000
273.833069	146.880000
273.926086	147.180000
274.019135	146.540000
274.112152	146.240000
274.205170	146.720000
274.298187	146.660000
274.391205	146.020000
274.484222	146.200000
274.577240	146.060000
274.670258	146.000000
274.763306	145.880000
274.856323	146.280000
274.949341	146.460000
275.042358	146.860000
275.135406	146.620000
275.228424	146.420000
275.321442	146.340000
275.414490	146.020000
275.507507	146.000000
275.600525	146.500000
275.693573	146.200000
275.786591	145.900000
275.879669	145.880000
275.972656	145.740000
276.065735	145.400000
276.158752	146.060000
276.251801	146.960000
276.344818	147.080000
276.437866	146.900000
276.530884	146.860000
276.623932	146.060000
276.716980	146.040000
276.809998	146.200000
276.903046	146.420000
276.996094	147.320000
277.089111	148.060000
277.182159	148.040000
277.275208	147.740000
277.368256	147.420000
277.461304	146.780000
277.554321	146.160000
277.647369	145.880000
277.740417	146.140000
277.833466	146.280000
277.926514	145.960000
278.019562	146.580000
278.112610	145.760000
278.205688	145.780000
278.298706	145.740000
278.391785	145.680000
278.484833	145.160000
278.577881	145.320000
278.670929	145.700000
278.763977	145.680000
278.857025	146.080000
278.950073	146.280000
279.043121	146.180000
279.136169	145.760000
279.229248	145.580000
279.322296	145.600000
279.415344	145.400000
279.508392	145.580000
279.601440	145.560000
279.694519	145.460000
279.787567	145.120000
279.880615	144.920000
279.973694	144.880000
280.066742	144.840000
280.159790	145.000000
280.252869	144.940000
280.345917	145.360000
280.438995	145.200000
280.532074	145.280000
280.625122	145.680000
280.718201	146.340000
280.811279	146.280000
280.904327	146.580000
280.997406	146.660000
281.090454	146.360000
281.183533	145.900000
281.276581	145.800000
281.369659	145.380000
281.462738	145.420000
281.555786	145.800000
281.648865	145.920000
281.741943	146.160000
281.835022	147.300000
281.928070	147.060000
282.021149	146.860000
282.114227	146.760000
282.207306	146.620000
282.300385	146.560000
282.393433	146.860000
282.486511	146.740000
282.579590	147.180000
282.672668	147.340000
282.765747	146.600000
282.858856	146.260000
282.951904	146.420000
283.045013	146.300000
283.138062	146.660000
283.231171	146.880000
283.324249	147.140000
283.417328	147.260000
283.510406	146.780000
283.603485	146.300000
283.696564	146.200000
283.789642	146.260000
283.882751	145.920000
283.975830	146.500000
284.068909	146.380000
284.161987	147.040000
284.255066	146.540000
284.348175	146.720000
284.441254	146.520000
284.534332	147.080000
284.627441	146.560000
284.720520	146.400000
284.813599	146.280000
284.906708	146.140000
284.999786	145.020000
285.092896	144.880000
285.185974	145.880000
285.279053	145.360000
285.372192	145.760000
285.465240	146.920000
285.558380	146.980000
285.651459	146.460000
285.744568	147.560000
285.837677	147.300000
285.930756	146.960000
286.023865	147.100000
286.116943	147.040000
286.210052	146.760000
286.303162	146.500000
286.396240	146.240000
286.489349	145.840000
286.582458	145.980000
286.675568	145.680000
286.768646	146.000000
286.861755	146.580000
286.954865	147.300000
287.047974	146.860000
287.141083	146.940000
287.234161	146.460000
287.327271	146.020000
287.420380	146.040000
287.513519	146.300000
287.606598	146.420000
287.699738	146.700000
287.792816	146.720000
287.885956	146.520000
287.979034	146.520000
288.072174	146.520000
288.165283	146.520000
288.258392	146.480000
288.351501	146.000000
288.444611	146.260000
288.537720	146.520000
288.630859	146.380000
288.723969	146.640000
288.817078	147.180000
288.910187	147.020000
289.003296	146.480000
289.096436	146.280000
289.189545	145.880000
289.282654	145.160000
289.375763	145.420000
289.468903	145.640000
289.562012	146.060000
289.655121	146.320000
289.748260	146.800000
289.841400	146.900000
289.934509	146.760000
290.027649	146.900000
290.120728	146.880000
290.213898	146.680000
290.306976	146.440000
290.400146	146.600000
290.493256	146.080000
290.586395	146.000000
290.679535	146.300000
290.772644	145.960000
290.865784	145.080000
290.958893	145.240000
291.052032	144.780000
291.145172	144.820000
291.238281	144.720000
291.331421	145.400000
291.424561	145.740000
291.517670	145.920000
291.610809	145.780000
291.703949	145.940000
291.797089	146.180000
291.890228	145.660000
291.983337	145.900000
292.076477	145.760000
292.169617	145.760000
292.262756	145.680000
292.355927	145.740000
292.449036	145.460000
292.542206	145.700000
292.635315	146.240000
292.728485	146.280000
292.821625	146.260000
292.914764	147.600000
293.007904	147.640000
293.101044	147.380000
293.194183	147.120000
293.287323	147.500000
293.380463	146.620000
293.473602	146.540000
293.566742	146.640000
293.659882	147.340000
293.753021	147.360000
293.846191	147.300000
293.939331	146.680000
294.032471	146.560000
294.125610	145.680000
294.218781	145.880000
294.311920	146.260000
294.405060	146.840000
294.498230	146.740000
294.591370	147.280000
294.684540	146.640000
294.777679	146.120000
294.870850	146.460000
294.963959	146.200000
295.057159	145.920000
295.150299	146.460000
295.243469	146.320000
295.336609	145.580000
295.429779	145.860000
295.522919	146.000000
295.616089	145.940000
295.709229	146.500000
295.802399	146.600000
295.895569	146.280000
295.988708	146.240000
296.081879	146.060000
296.175018	145.400000
296.268188	145.740000
296.361359	146.220000
296.454529	146.480000
296.547668	146.120000
296.640839	146.520000
296.734009	146.060000
296.827179	146.080000
296.920319	145.940000
297.013519	146.220000
297.106659	146.400000
297.199860	146.540000
297.292999	146.360000
297.386200	146.160000
297.479309	146.020000
297.572510	145.900000
297.665680	145.680000
297.758850	145.760000
297.852020	145.760000
297.945190	145.760000
298.038361	145.120000
298.131531	146.020000
298.224701	145.800000
298.317871	145.640000
298.411072	145.160000
298.504242	145.480000
298.597412	144.880000
298.690582	145.380000
298.783752	145.720000
298.876923	146.720000
298.970093	146.640000
299.063293	147.180000
299.156464	147.260000
299.249634	147.240000
299.342834	147.040000
299.436005	147.460000
299.529205	147.200000
299.622345	147.060000
299.715576	146.660000
299.808716	146.240000
299.901917	146.060000
299.995117	146.120000
300.088287	146.420000
300.181488	146.580000
300.274658	146.780000
300.367828	146.680000
300.461029	146.500000
300.554199	146.220000
300.647400	146.080000
300.740601	146.480000
300.833771	146.400000
300.926971	146.660000
301.020142	146.040000
301.113342	146.040000
301.206512	145.980000
301.299713	146.460000
301.392914	146.320000
301.486084	146.720000
301.579285	146.860000
301.672516	147.060000
301.765686	146.840000
301.858887	146.980000
301.952057	147.080000
302.045288	147.040000
302.138458	146.680000
302.231659	146.300000
302.324860	146.020000
302.418060	145.460000
302.511261	145.420000
302.604462	145.840000
302.697662	145.900000
302.790863	145.720000
302.884064	146.000000
302.977264	146.200000
303.070465	145.820000
303.163666	146.500000
303.256866	147.000000
303.350067	147.020000
303.443268	147.080000
303.536469	147.520000
303.629669	147.040000
303.722870	146.800000
303.816071	146.800000
303.909271	146.800000
304.002472	145.820000
304.095673	145.820000
304.188934	145.100000
304.282104	145.900000
304.375336	145.900000
304.468506	146.060000
304.561768	145.940000
304.654968	146.720000
304.748169	145.960000
304.841370	145.760000
304.934601	146.120000
305.027802	146.020000
305.121002	145.580000
305.214233	145.960000
305.307434	146.000000
305.400665	146.520000
305.493866	146.300000
305.587097	146.800000
305.680298	146.240000
305.773499	146.620000
305.866730	146.080000
305.959930	146.780000
306.053162	146.860000
306.146393	146.680000
306.239594	146.060000
306.332825	146.180000
306.426025	146.220000
306.519287	145.900000
306.612488	146.320000
306.705719	146.280000
306.798920	146.120000
306.892181	145.760000
306.985352	145.440000
307.078613	144.800000
307.171844	145.200000
307.265045	144.660000
307.358276	144.260000
307.451508	144.840000
307.544739	145.580000
307.637970	145.060000
307.731201	145.480000
307.824402	146.400000
307.917633	146.200000
308.010864	146.500000
308.104095	147.200000
308.197327	147.500000
308.290558	147.180000
308.383789	147.040000
308.477020	146.540000
308.570251	145.760000
308.663483	145.160000
308.756714	144.940000
308.849976	145.180000
308.943176	145.840000
309.036438	146.100000
309.129639	146.180000
309.222900	146.220000
309.316101	146.180000
309.409393	145.460000
309.502625	145.400000
309.595856	145.760000
309.689087	145.920000
309.782318	145.820000
309.875580	145.840000
309.968811	146.180000
310.062042	145.840000
310.155273	145.740000
310.248535	146.160000
310.341766	146.440000
310.434998	146.020000
310.528259	145.920000
310.621490	146.220000
310.714722	145.420000
310.807983	145.280000
310.901215	145.400000
310.994476	145.780000
311.087708	145.340000
311.181000	145.820000
311.274200	145.420000
311.367462	145.680000
311.460693	145.240000
311.553986	145.900000
311.647186	146.320000
311.740479	146.960000
311.833710	146.420000
311.926971	146.600000
312.020203	145.740000
312.113464	145.220000
312.206726	144.580000
312.299957	145.300000
312.393219	145.820000
312.486481	146.280000
312.579712	146.300000
312.672974	146.820000
312.766235	146.520000
312.859497	146.280000
312.952759	146.000000
313.045990	146.680000
313.139252	146.180000
313.232513	146.600000
313.325775	146.620000
313.419037	146.540000
313.512299	146.020000
313.605530	146.640000
313.698822	146.480000
313.792053	146.520000
313.885345	146.640000
313.978577	146.400000
314.071869	145.980000
314.165131	145.780000
314.258392	145.920000
314.351654	146.100000
314.444916	145.800000
314.538177	146.160000
314.631439	146.480000
314.724701	146.040000
314.817993	145.900000
314.911255	146.560000
315.004517	146.080000
315.097778	145.820000
315.191040	146.360000
315.284302	146.280000
315.377594	145.620000
315.470856	145.860000
315.564117	145.420000
315.657379	144.660000
315.750671	144.440000
315.843933	145.000000
315.937195	144.800000
316.030518	144.940000
316.123749	145.200000
316.217041	145.720000
316.310303	145.520000
316.403595	145.820000
316.496857	145.920000
316.590149	146.140000
316.683411	145.720000
316.776703	145.740000
316.869965	145.600000
316.963257	145.740000
317.056519	145.100000
317.149811	145.140000
317.243073	145.180000
317.336365	145.100000
317.429626	145.180000
317.522919	146.020000
317.616180	146.180000
317.709473	145.840000
317.802765	145.980000
317.896027	145.820000
317.989319	145.980000
318.082611	145.920000
318.175873	146.040000
318.269165	146.000000
318.362488	146.040000
318.455750	145.400000
318.549042	146.080000
318.642303	146.480000
318.735626	146.140000
318.828888	146.260000
318.922211	146.320000
319.015472	146.540000
319.108765	145.780000
319.202057	145.700000
319.295349	145.680000
319.388641	145.720000
319.481934	145.140000
319.575226	145.360000
319.668518	145.660000
319.761810	145.780000
319.855103	146.060000
319.948395	145.840000
320.041687	146.220000
320.134979	146.260000
320.228271	146.160000
320.321564	145.780000
320.414856	145.780000
320.508148	145.240000
320.601440	145.440000
320.694763	145.220000
320.788025	145.880000
320.881348	145.860000
320.974640	146.240000
321.067963	145.780000
321.161224	146.140000
321.254547	145.360000
321.347839	146.100000
321.441162	145.720000
321.534454	146.080000
321.627747	145.860000
321.721069	146.800000
321.814362	146.660000
321.907654	146.720000
322.000946	146.480000
322.094269	146.840000
322.187561	146.140000
322.280884	146.180000
322.374176	146.440000
322.467468	147.000000
322.560791	146.820000
322.654083	147.320000
322.747406	147.200000
322.840698	147.440000
322.934021	147.560000
323.027344	147.680000
323.120636	147.240000
323.213959	147.080000
323.307251	146.600000
323.400574	146.040000
323.493866	145.460000
323.587219	145.720000
323.680511	145.940000
323.773834	146.160000
323.867157	146.180000
323.960449	146.460000
324.053772	146.160000
324.147095	146.100000
324.240387	146.840000
324.333710	146.860000
324.427032	147.100000
324.520355	147.180000
324.613647	146.640000
324.706970	145.880000
324.800293	145.880000
324.893616	145.660000
324.986938	145.720000
325.080231	145.880000
325.173553	146.380000
325.266876	146.480000
325.360199	146.680000
325.453522	146.300000
325.546875	145.880000
325.640167	145.680000
325.733521	146.100000
325.826813	146.280000
325.920166	146.320000
326.013489	146.500000
326.106812	145.580000
326.200134	145.140000
326.293457	144.320000
326.386780	144.640000
326.480103	144.620000
326.573425	145.020000
326.666748	145.140000
326.760071	145.960000
326.853424	145.860000
326.946747	146.420000
327.040070	147.520000
327.133392	147.160000
327.226715	146.180000
327.320068	146.020000
327.413391	146.040000
327.506714	144.840000
327.600037	144.780000
327.693390	145.260000
327.786713	145.300000
327.880066	145.380000
327.973358	146.300000
328.066742	146.820000
328.160034	147.200000
328.253418	147.620000
328.346710	147.040000
328.440063	146.340000
328.533417	145.840000
328.626740	146.060000
328.720093	145.900000
328.813416	145.940000
328.906769	146.060000
329.000092	146.520000
329.093445	146.140000
329.186768	145.940000
329.280121	146.320000
329.373444	146.640000
329.466797	146.460000
329.560120	146.360000
329.653473	146.360000
329.746796	145.860000
329.840149	145.620000
329.933502	145.740000
330.026825	145.540000
330.120178	145.380000
330.213562	145.500000
330.306854	145.660000
330.400238	145.640000
330.493561	145.620000
330.586945	146.460000
330.680237	146.880000
330.773621	146.900000
330.866974	146.980000
330.960327	147.420000
331.053680	146.820000
331.147003	146.860000
331.240356	147.260000
331.333710	147.000000
331.427063	146.600000
331.520416	146.360000
331.613770	145.840000
331.707123	145.600000
331.800476	146.020000
331.893829	147.320000
331.987152	148.000000
332.080505	148.180000
332.173859	148.000000
332.267212	147.520000
332.360565	146.400000
332.453918	145.740000
332.547333	145.720000
332.640656	145.540000
332.734039	145.700000
332.827362	145.920000
332.920746	146.380000
333.014069	146.780000
333.107452	147.320000
333.200806	147.460000
333.294159	147.320000
333.387543	146.980000
333.480896	146.440000
333.574249	146.020000
333.667603	145.620000
333.760956	145.680000
333.854340	145.620000
333.947693	146.000000
334.041046	145.820000
334.134430	146.080000
334.227783	145.960000
334.321136	145.880000
334.414520	145.400000
334.507874	145.760000
334.601227	145.800000
334.694611	145.700000
334.787964	145.840000
334.881348	146.300000
334.974701	146.060000
335.068085	145.820000
335.161438	146.200000
335.254822	146.380000
335.348175	146.300000
335.441559	145.920000
335.534943	146.520000
335.628296	146.140000
335.721680	145.780000
335.815033	145.920000
335.908417	146.540000
336.001770	146.260000
336.095154	146.340000
336.188538	146.260000
336.281891	145.920000
336.375275	145.400000
336.468658	145.100000
336.562012	145.280000
336.655396	145.720000
336.748779	146.040000
336.842133	146.420000
336.935516	146.580000
337.028900	146.120000
337.122284	146.320000
337.215637	146.340000
337.309021	145.960000
337.402435	145.900000
337.495789	145.820000
337.589203	145.300000
337.682526	145.000000
337.775940	145.220000
337.869324	145.160000
337.962708	145.000000
338.056091	145.480000
338.149475	145.320000
338.242859	145.540000
338.336243	145.260000
338.429626	145.800000
338.523010	145.320000
338.616394	145.180000
338.709778	145.340000
338.803162	146.100000
338.896545	146.000000
338.989929	145.860000
339.083313	146.320000
339.176697	145.820000
339.270081	144.980000
339.363464	145.060000
339.456848	145.580000
339.550232	145.060000
339.643616	144.960000
339.737030	145.380000
339.830383	145.360000
339.923828	145.360000
340.017181	145.600000
340.110596	146.040000
340.203949	146.120000
340.297363	145.540000
340.390778	145.260000
340.484161	145.280000
340.577545	145.300000
340.670959	145.200000
340.764343	145.420000
340.857727	145.580000
340.951111	145.080000
341.044525	145.100000
341.137909	144.900000
341.231293	145.140000
341.324707	144.700000
341.418091	145.940000
341.511505	145.560000
341.604889	145.840000
341.698303	145.720000
341.791687	146.140000
341.885071	145.180000
341.978485	145.240000
342.071899	145.460000
342.165283	146.100000
342.258698	146.180000
342.352081	146.980000
342.445496	147.360000
342.538879	147.000000
342.632324	146.220000
342.725708	146.120000
342.819122	145.240000
342.912506	145.200000
343.005920	145.360000
343.099335	146.300000
343.192719	146.340000
343.286133	146.380000
343.379547	146.320000
343.472931	146.040000
343.566345	145.400000
343.659760	145.380000
343.753143	145.420000
343.846558	144.700000
343.939972	144.660000
344.033386	145.040000
344.126770	144.880000
344.220184	145.220000
344.313599	145.820000
344.407043	146.200000
344.500427	145.700000
344.593872	145.840000
344.687225	145.580000
344.780670	145.200000
344.874054	144.640000
344.967499	145.120000
345.060913	145.180000
345.154327	145.260000
345.247742	145.120000
345.341156	145.320000
345.434570	145.000000
345.527985	144.980000
345.621399	145.240000
345.714813	145.420000
345.808228	145.800000
345.901642	145.600000
345.995056	145.500000
346.088470	145.360000
346.181885	145.420000
346.275299	145.120000
346.368713	144.920000
346.462128	144.500000
346.555573	144.520000
346.648987	144.820000
346.742401	144.940000
346.835815	145.900000
346.929260	145.880000
347.022644	146.120000
347.116119	146.120000
347.209503	146.160000
347.302948	146.500000
347.396362	147.300000
347.489807	147.180000
347.583221	147.640000
347.676636	147.300000
347.770050	146.060000
347.863495	145.300000
347.956909	145.380000
348.050323	144.860000
348.143768	144.960000
348.237183	144.960000
348.330597	145.720000
348.424042	145.840000
348.517456	146.060000
348.610901	146.320000
348.704315	146.460000
348.797760	145.780000
348.891174	145.080000
348.984619	144.600000
349.078033	144.780000
349.171448	145.300000
349.264923	145.520000
349.358337	146.000000
349.451782	146.320000
349.545197	145.620000
349.638641	145.100000
349.732086	144.580000
349.825500	144.740000
349.918945	144.720000
350.012390	145.660000
350.105804	146.140000
350.199249	146.960000
350.292664	147.180000
350.386108	146.880000
350.479553	146.940000
350.572968	146.600000
350.666412	146.440000
350.759857	146.140000
350.853302	146.940000
350.946716	146.080000
351.040161	146.180000
351.133606	146.260000
351.227081	145.880000
351.320465	146.260000
351.413940	146.880000
351.507355	147.000000
351.600830	146.960000
351.694244	146.920000
351.787720	146.160000
351.881104	145.800000
351.974579	145.640000
352.067993	146.260000
352.161469	146.480000
352.254883	146.180000
352.348358	145.940000
352.441803	145.820000
352.535248	145.100000
352.628693	145.260000
352.722137	145.000000
352.815582	145.540000
352.909027	145.820000
353.002472	145.660000
353.095917	145.600000
353.189362	146.180000
353.282806	146.120000
353.376251	146.280000
353.469696	146.200000
353.563141	146.580000
353.656586	146.340000
353.750061	145.960000
353.843475	145.460000
353.936981	146.040000
354.030396	145.300000
354.123871	145.400000
354.217285	146.480000
354.310760	146.760000
354.404175	146.860000
354.497681	146.540000
354.591095	146.320000
354.684570	145.180000
354.777985	144.800000
354.871490	144.160000
354.964935	144.800000
355.058380	144.960000
355.151855	144.940000
355.245300	145.540000
355.338745	145.900000
355.432220	145.840000
355.525665	145.440000
355.619110	146.160000
355.712585	145.640000
355.806030	145.360000
355.899475	144.860000
355.992950	145.260000
356.086426	145.200000
356.179871	145.360000
356.273346	145.260000
356.366791	145.540000
356.460266	145.720000
356.553711	145.140000
356.647186	145.160000
356.740631	145.180000
356.834106	145.160000
356.927551	145.360000
357.021027	145.440000
357.114471	145.660000
357.207947	145.880000
357.301422	146.340000
357.394867	146.100000
357.488342	146.380000
357.581818	146.440000
357.675262	146.580000
357.768738	146.100000
357.862213	145.560000
357.955658	145.280000
358.049133	144.880000
358.142609	145.240000
358.236053	145.200000
358.329529	145.540000
358.423035	145.940000
358.516449	145.620000
358.609955	145.760000
358.703400	146.380000
358.796906	146.600000
358.890350	146.220000
358.983826	147.060000
359.077271	146.160000
359.170776	145.780000
359.264221	145.220000
359.357727	145.480000
359.451172	145.420000
359.544647	145.580000
359.638123	145.400000
359.731598	145.900000
359.825073	146.280000
359.918549	146.060000
360.012024	146.280000
360.105499	146.140000
360.198975	146.480000
360.292450	146.220000
360.385925	146.200000
360.479401	145.760000
360.572876	146.000000
360.666351	145.900000
360.759857	145.720000
360.853302	145.640000
360.946808	145.620000
361.040253	145.700000
361.133759	145.220000
361.227203	145.440000
361.320709	145.280000
361.414154	146.140000
361.507660	146.560000
361.601105	147.260000
361.694641	147.740000
361.788086	147.600000
361.881592	147.460000
361.975067	147.040000
362.068542	146.980000
362.162018	146.540000
362.255524	146.600000
362.348999	146.460000
362.442474	146.380000
362.535950	145.880000
362.629456	145.760000
362.722931	146.120000
362.816406	146.140000
362.909882	146.640000
363.003387	146.360000
363.096863	146.580000
363.190338	146.360000
363.283875	146.120000
363.377319	145.900000
363.470825	146.620000
363.564301	146.080000
363.657806	146.340000
363.751282	146.120000
363.844788	146.700000
363.938232	146.080000
364.031769	146.880000
364.125214	146.840000
364.218750	147.600000
364.312225	146.700000
364.405731	146.820000
364.499207	146.100000
364.592712	145.880000
364.686188	145.360000
364.779694	145.420000
364.873169	145.600000
364.966675	145.660000
365.060150	145.620000
365.153656	146.100000
365.247131	146.020000
365.340637	146.320000
365.434143	146.740000
365.527618	146.820000
365.621155	145.760000
365.714600	145.960000
365.808136	145.600000
365.901611	144.600000
365.995117	144.440000
366.088593	144.880000
366.182129	144.500000
366.275604	144.620000
366.369110	145.140000
366.462585	144.960000
366.556122	145.620000
366.649567	146.000000
366.743103	146.020000
366.836609	145.780000
366.930115	146.340000
367.023590	145.920000
367.117096	145.780000
367.210602	145.520000
367.304108	146.360000
367.397614	147.140000
367.491119	147.300000
367.584595	147.280000
367.678101	147.560000
367.771606	146.920000
367.865112	145.980000
367.958649	145.380000
368.052124	145.480000
368.145660	145.300000
368.239136	145.940000
368.332672	145.940000
368.426147	146.480000
368.519684	146.160000
368.613159	146.560000
368.706696	145.940000
368.800171	145.700000
368.893707	145.360000
368.987183	145.760000
369.080719	145.800000
369.174225	145.580000
369.267731	145.840000
369.361237	145.960000
369.454742	145.640000
369.548248	145.660000
369.641754	145.640000
369.735260	145.540000
369.828766	144.640000
369.922272	145.240000
370.015808	144.640000
370.109314	144.620000
370.202820	144.580000
370.296356	146.040000
370.389832	145.820000
370.483368	145.700000
370.576874	145.620000
370.670410	145.700000
370.763885	144.860000
370.857422	144.480000
370.950928	144.680000
371.044464	145.760000
371.137939	145.740000
371.231476	145.940000
371.324982	146.620000
371.418518	146.900000
371.512024	146.400000
371.605560	146.380000
371.699066	146.360000
371.792572	145.880000
371.886108	145.880000
371.979614	145.440000
372.073120	146.100000
372.166656	146.320000
372.260162	146.540000
372.353668	146.640000
372.447205	146.780000
372.540710	146.520000
372.634277	146.420000
372.727753	146.580000
372.821320	146.520000
372.914795	146.800000
373.008362	146.320000
373.101837	146.420000
373.195404	146.060000
373.288879	145.900000
373.382446	146.460000
373.475922	146.560000
373.569489	147.040000
373.662964	147.640000
373.756531	147.440000
373.850037	147.040000
373.943573	147.200000
374.037109	146.020000
374.130615	146.300000
374.224152	146.780000
374.317657	146.520000
374.411194	147.100000
374.504730	147.540000
374.598236	146.600000
374.691772	145.960000
374.785309	145.880000
374.878815	144.840000
374.972351	145.300000
375.065887	145.320000
375.159454	146.360000
375.252930	146.200000
375.346497	146.680000
375.440002	146.760000
375.533569	146.800000
375.627045	145.840000
375.720612	145.840000
375.814117	146.020000
375.907684	145.600000
376.001160	145.420000
376.094727	145.060000
376.188232	145.840000
376.281799	146.020000
376.375336	145.900000
376.468872	146.660000
376.562408	147.180000
376.655914	146.860000
376.749451	146.580000
376.842987	146.780000
376.936523	146.340000
377.030060	146.040000
377.123596	146.080000
377.217133	145.680000
377.310669	145.600000
377.404205	146.000000
377.497772	146.600000
377.591278	146.140000
377.684845	146.900000
377.778351	147.400000
377.871918	146.980000
377.965424	146.360000
378.058990	146.480000
378.152496	146.000000
378.246063	145.640000
378.339569	145.780000
378.433136	146.000000
378.526642	146.060000
378.620209	145.980000
378.713745	145.560000
378.807312	145.840000
378.900848	145.860000
378.994385	145.880000
379.087921	145.340000
379.181458	145.880000
379.274994	145.020000
379.368530	144.940000
379.462097	145.260000
379.555634	146.000000
379.649170	145.560000
379.742706	145.660000
379.836273	146.120000
379.929810	145.620000
380.023376	145.280000
380.116882	145.320000
380.210449	145.640000
380.303986	145.000000
380.397552	144.780000
380.491058	144.960000
380.584656	144.940000
380.678162	145.000000
380.771729	144.900000
380.865265	145.820000
380.958832	145.580000
381.052368	145.760000
381.145935	146.000000
381.239471	146.940000
381.333008	146.380000
381.426575	146.380000
381.520111	146.880000
381.613647	147.040000
381.707214	146.360000
381.800751	145.860000
381.894318	146.460000
381.987854	145.700000
382.081421	145.160000
382.174988	145.600000
382.268524	145.760000
382.362091	145.460000
382.455627	146.360000
382.549194	146.320000
382.642731	145.620000
382.736298	145.660000
382.829834	145.480000
382.923401	145.560000
383.016937	145.920000
383.110504	146.600000
383.204041	146.820000
383.297607	146.980000
383.391174	145.980000
383.484741	146.540000
383.578278	145.720000
383.671844	145.580000
383.765411	145.140000
383.858948	145.680000
383.952515	144.980000
384.046051	145.940000
384.139618	146.320000
384.233185	146.800000
384.326721	146.560000
384.420288	147.120000
384.513855	146.820000
384.607422	147.020000
384.700989	147.280000
384.794525	147.060000
384.888123	146.880000
384.981659	147.000000
385.075226	146.260000
385.168762	145.760000
385.262360	145.860000
385.355896	144.760000
385.449463	144.420000
385.542999	144.520000
385.636597	144.960000
385.730164	145.220000
385.823730	145.440000
385.917267	145.080000
386.010834	145.120000
386.104401	145.020000
386.197968	145.180000
386.291534	145.480000
386.385101	146.000000
386.478668	146.480000
386.572235	146.320000
386.665802	145.800000
386.759338	145.840000
386.852905	145.640000
386.946472	145.380000
387.040070	145.520000
387.133606	145.840000
387.227203	145.700000
387.320740	145.920000
387.414337	145.460000
387.507874	145.280000
387.601471	145.480000
387.695007	145.380000
387.788605	145.140000
387.882141	145.520000
387.975739	145.480000
388.069275	145.060000
388.162872	145.460000
388.256439	145.500000
388.350037	145.200000
388.443604	145.240000
388.537170	145.100000
388.630737	145.440000
388.724304	145.880000
388.817871	146.020000
388.911438	145.960000
389.005005	146.300000
389.098602	146.380000
389.192169	145.640000
389.285736	146.200000
389.379333	146.300000
389.472870	146.000000
389.566467	145.680000
389.660034	146.020000
389.753632	145.440000
389.847168	145.660000
389.940765	145.780000
390.034332	145.980000
390.127930	145.780000
390.221466	145.740000
390.315063	145.300000
390.408630	145.080000
390.502228	144.260000
390.595795	144.500000
390.689362	144.800000
390.782959	145.360000
390.876526	145.900000
390.970093	146.180000
391.063690	146.500000
391.157257	146.460000
391.250824	146.560000
391.344421	146.140000
391.437988	146.180000
391.531555	146.220000
391.625153	146.500000
391.718750	146.340000
391.812317	146.440000
391.905914	146.320000
391.999481	146.080000
392.093079	145.900000
392.186615	146.200000
392.280243	146.180000
392.373779	146.400000
392.467407	146.700000
392.560944	146.360000
392.654572	145.560000
392.748108	145.120000
392.841736	145.400000
392.935303	144.940000
393.028900	144.920000
393.122467	145.340000
393.216064	145.400000
393.309631	145.220000
393.403229	145.060000
393.496796	145.160000
393.590393	144.320000
393.683990	144.780000
393.777557	144.980000
393.871155	144.960000
393.964722	145.220000
394.058350	145.960000
394.151917	145.580000
394.245514	145.100000
394.339081	145.580000
394.432678	145.880000
394.526245	145.760000
394.619873	145.680000
394.713409	145.780000
394.807037	145.460000
394.900604	145.480000
394.994202	145.280000
395.087769	145.680000
395.181396	145.560000
395.274994	146.500000
395.368561	145.740000
395.462158	146.200000
395.555756	145.700000
395.649353	146.180000
395.742920	145.360000
395.836517	146.000000
395.930115	145.220000
396.023712	146.060000
396.117279	145.780000
396.210876	145.580000
396.304474	145.560000
396.398071	146.040000
396.491669	146.040000
396.585266	146.060000
396.678833	146.220000
396.772461	146.440000
396.866028	146.760000
396.959656	147.080000
397.053223	147.640000
397.146851	147.800000
397.240417	148.360000
397.334015	149.580000
397.427582	150.620000
397.521210	152.560000
397.614807	155.360000
397.708405	158.260000
397.802002	161.820000
397.895599	167.300000
397.989197	173.540000
398.082794	181.160000
398.176392	191.360000
398.269989	202.520000
398.363586	215.120000
398.457184	230.220000
398.550781	247.320000
398.644379	263.640000
398.737976	281.160000
398.831573	298.840000
398.925201	316.280000
399.018768	335.260000
399.112396	356.240000
399.205963	380.360000
399.299591	406.920000
399.393158	435.820000
399.486786	464.920000
399.580353	492.480000
399.673981	515.260000
399.767578	535.020000
399.861206	548.820000
399.954773	554.740000
400.048401	553.820000
400.141998	548.460000
400.235596	538.000000
400.329193	525.060000
400.422791	512.240000
400.516418	499.500000
400.610016	485.800000
400.703613	469.940000
400.797211	449.620000
400.890808	426.300000
400.984436	401.120000
401.078033	374.840000
401.171631	348.320000
401.265259	324.420000
401.358826	302.260000
401.452484	280.760000
401.546051	261.800000
401.639679	242.980000
401.733246	226.480000
401.826904	210.360000
401.920471	197.040000
402.014099	185.200000
402.107697	176.740000
402.201324	168.860000
402.294891	163.400000
402.388550	159.200000
402.482147	155.760000
402.575745	152.620000
402.669373	150.320000
402.762970	149.180000
402.856567	148.300000
402.950195	147.740000
403.043793	147.340000
403.137390	147.900000
403.231018	147.160000
403.324615	147.600000
403.418243	147.000000
403.511841	147.360000
403.605469	147.040000
403.699066	147.300000
403.792694	146.900000
403.886292	147.180000
403.979919	147.000000
404.073517	146.400000
404.167145	146.440000
404.260712	146.300000
404.354370	146.020000
404.447937	146.240000
404.541595	146.480000
404.635162	146.620000
404.728821	147.080000
404.822418	146.820000
404.916046	146.140000
405.009644	146.540000
405.103271	146.500000
405.196899	146.200000
405.290497	146.720000
405.384125	147.240000
405.477722	146.500000
405.571350	146.560000
405.664948	146.580000
405.758575	146.300000
405.852203	145.880000
405.945801	146.000000
406.039429	145.660000
406.133057	145.180000
406.226654	145.300000
406.320312	145.380000
406.413879	145.800000
406.507538	145.860000
406.601135	145.840000
406.694763	146.160000
406.788361	146.060000
406.882019	145.600000
406.975586	146.120000
407.069244	146.660000
407.162872	146.180000
407.256470	146.100000
407.350098	146.320000
407.443726	145.860000
407.537323	145.140000
407.630951	145.320000
407.724579	145.280000
407.818207	145.960000
407.911804	145.680000
408.005432	146.080000
408.099060	146.400000
408.192688	146.880000
408.286285	146.200000
408.379913	146.260000
408.473572	146.300000
408.567169	145.540000
408.660828	145.200000
408.754395	145.360000
408.848053	145.320000
408.941650	145.440000
409.035309	145.380000
409.128906	145.280000
409.222565	145.140000
409.316132	145.420000
409.409790	145.040000
409.503387	145.260000
409.597046	145.240000
409.690674	145.340000
409.784302	145.200000
409.877930	145.240000
409.971558	145.560000
410.065186	145.640000
410.158783	145.520000
410.252411	145.560000
410.346039	145.980000
410.439667	146.080000
410.533295	146.340000
410.626923	146.440000
410.720551	146.320000
410.814209	146.800000
410.907806	146.980000
411.001465	146.560000
411.095062	146.800000
411.188721	147.000000
411.282318	146.400000
411.375977	145.740000
411.469574	146.020000
411.563232	145.420000
411.656830	145.140000
411.750488	144.920000
411.844086	144.760000
411.937744	144.900000
412.031372	145.180000
412.125000	145.080000
412.218628	145.320000
412.312256	146.440000
412.405884	146.800000
412.499512	146.780000
412.593170	147.280000
412.686798	147.420000
412.780426	146.780000
412.874054	146.600000
412.967682	146.480000
413.061310	146.940000
413.154968	146.780000
413.248566	146.800000
413.342224	146.740000
413.435852	146.840000
413.529510	146.000000
413.623108	145.500000
413.716766	145.380000
413.810364	145.740000
413.904022	145.600000
413.997650	145.400000
414.091309	146.640000
414.184906	146.780000
414.278564	146.140000
414.372192	146.680000
414.465851	147.040000
414.559479	145.980000
414.653107	146.500000
414.746735	146.560000
414.840393	146.320000
414.934021	146.740000
415.027649	146.660000
415.121277	146.140000
415.214935	146.640000
415.308563	146.360000
415.402191	145.720000
415.495850	145.800000
415.589478	145.780000
415.683136	145.400000
415.776733	145.880000
415.870422	146.280000
415.964020	146.040000
416.057678	145.840000
416.151306	145.620000
416.244965	145.600000
416.338562	145.520000
416.432251	146.260000
416.525848	147.100000
416.619507	147.420000
416.713165	147.340000
416.806793	147.200000
416.900421	147.180000
416.994080	146.300000
417.087708	146.200000
417.181366	145.600000
417.274994	145.700000
417.368622	145.860000
417.462280	146.540000
417.555908	146.460000
417.649567	146.740000
417.743195	146.880000
417.836853	146.640000
417.930481	146.460000
418.024170	146.760000
418.117767	147.260000
418.211426	147.400000
418.305054	147.520000
418.398712	147.180000
418.492340	147.060000
418.585999	147.260000
418.679626	147.380000
418.773285	147.520000
418.866913	147.960000
418.960571	148.260000
419.054230	148.260000
419.147858	148.140000
419.241516	148.040000
419.335144	147.600000
419.428802	147.320000
419.522461	146.660000
419.616089	146.000000
419.709747	145.940000
419.803375	146.220000
419.897034	146.080000
419.990662	146.020000
420.084320	146.740000
420.177979	146.900000
420.271606	146.800000
420.365295	147.400000
420.458893	147.700000
420.552582	147.760000
420.646210	147.740000
420.739868	147.420000
420.833496	146.600000
420.927155	146.240000
421.020782	145.780000
421.114471	144.940000
421.208069	145.240000
421.301758	145.740000
421.395386	145.740000
421.489044	145.480000
421.582703	146.140000
421.676361	146.680000
421.769989	146.300000
421.863647	146.860000
421.957306	147.380000
422.050934	147.360000
422.144592	146.940000
422.238251	146.640000
422.331909	146.240000
422.425537	145.860000
422.519196	145.820000
422.612854	145.680000
422.706543	145.820000
422.800140	145.980000
422.893829	145.960000
422.987457	145.800000
423.081146	145.800000
423.174744	146.360000
423.268433	146.100000
423.362061	146.020000
423.455750	145.820000
423.549347	145.880000
423.643036	144.860000
423.736664	145.340000
423.830353	145.200000
423.924011	145.600000
424.017639	144.920000
424.111298	145.560000
424.204956	145.120000
424.298615	145.360000
424.392273	145.260000
424.485931	145.980000
424.579559	146.060000
424.673218	146.160000
424.766876	146.300000
424.860535	146.080000
424.954193	145.700000
425.047882	145.920000
425.141510	145.780000
425.235199	145.900000
425.328796	145.620000
425.422485	145.640000
425.516113	145.040000
425.609802	145.160000
425.703430	145.180000
425.797119	145.320000
425.890747	145.540000
425.984436	145.940000
426.078064	145.880000
426.171753	146.120000
426.265411	146.120000
426.359070	146.120000
426.452728	145.720000
426.546356	145.700000
426.640015	145.100000
426.733673	145.180000
426.827332	144.560000
426.920990	145.460000
427.014648	145.280000
427.108307	145.720000
427.201965	146.520000
427.295624	147.140000
427.389282	146.300000
427.482941	146.560000
427.576630	146.340000
427.670258	145.540000
427.763947	145.160000
427.857574	145.040000
427.951263	145.300000
428.044922	145.060000
428.138611	145.000000
428.232239	145.640000
428.325928	146.400000
428.419556	146.700000
428.513245	146.600000
428.606903	146.720000
428.700562	145.940000
428.794220	145.140000
428.887878	144.580000
428.981537	144.980000
429.075195	144.840000
429.168854	145.600000
429.262512	145.640000
429.356201	145.920000
429.449860	145.720000
429.543518	145.680000
429.637177	145.520000
429.730835	145.620000
429.824493	145.100000
429.918182	145.440000
430.011810	145.220000
430.105530	144.540000
430.199158	145.000000
430.292847	145.040000
430.386475	144.520000
430.480164	144.620000
430.573792	144.800000
430.667511	144.260000
430.761139	144.380000
430.854828	144.940000
430.948456	144.940000
431.042145	145.400000
431.135834	145.420000
431.229492	145.740000
431.323151	145.800000
431.416809	145.920000
431.510468	145.940000
431.604156	146.000000
431.697815	145.680000
431.791473	145.220000
431.885132	145.080000
431.978821	145.320000
432.072479	145.640000
432.166138	145.820000
432.259827	145.860000
432.353485	146.140000
432.447174	146.180000
432.540802	145.980000
432.634491	146.000000
432.728149	146.140000
432.821838	146.620000
432.915466	145.820000
433.009186	145.680000
433.102814	145.100000
433.196503	144.760000
433.290131	144.380000
433.383850	145.200000
433.477509	145.220000
433.571167	146.300000
433.664856	146.980000
433.758514	147.300000
433.852173	146.960000
433.945862	146.920000
434.039520	146.440000
434.133179	145.940000
434.226868	145.540000
434.320526	144.720000
434.414185	145.440000
434.507874	145.020000
434.601562	145.040000
434.695221	144.940000
434.788910	145.480000
434.882538	145.140000
434.976257	145.100000
435.069885	145.420000
435.163574	145.940000
435.257233	145.680000
435.350922	145.580000
435.444580	145.580000
435.538269	145.080000
435.631897	145.140000
435.725616	145.900000
435.819275	146.220000
435.912964	146.760000
436.006622	147.220000
436.100311	146.660000
436.193970	145.660000
436.287628	145.320000
436.381317	145.320000
436.474976	144.940000
436.568665	144.640000
436.662323	144.860000
436.756012	144.900000
436.849670	144.400000
436.943390	144.420000
437.037018	144.740000
437.130737	145.120000
437.224365	144.840000
437.318085	145.220000
437.411713	145.480000
437.505432	145.940000
437.599060	146.160000
437.692780	146.920000
437.786407	146.640000
437.880127	146.740000
437.973755	146.260000
438.067474	145.860000
438.161133	145.580000
438.254822	146.000000
438.348480	145.560000
438.442169	145.940000
438.535828	146.300000
438.629517	145.840000
438.723175	145.120000
438.816864	145.660000
438.910553	145.180000
439.004211	144.960000
439.097900	145.060000
439.191559	145.260000
439.285248	144.600000
439.378906	145.120000
439.472626	145.100000
439.566284	145.020000
439.659973	145.260000
439.753632	145.360000
439.847321	145.520000
439.940979	145.660000
440.034698	145.640000
440.128326	145.440000
440.222046	145.680000
440.315674	145.000000
440.409393	145.160000
440.503082	144.900000
440.596741	144.960000
440.690430	145.020000
440.784088	145.060000
440.877777	144.500000
440.971466	144.740000
441.065125	144.560000
441.158813	144.160000
441.252502	144.120000
441.346161	144.400000
441.439850	144.580000
441.533539	144.600000
441.627197	145.220000
441.720886	145.200000
441.814606	145.500000
441.908234	145.600000
442.001953	145.600000
442.095612	145.600000
442.189301	146.060000
442.282959	145.840000
442.376678	145.460000
442.470306	146.240000
442.564026	146.160000
442.657684	146.260000
442.751404	146.360000
442.845032	147.440000
442.938751	146.620000
443.032440	146.420000
443.126099	145.760000
443.219788	146.060000
443.313477	145.280000
443.407166	145.620000
443.500824	145.680000
443.594513	146.000000
443.688202	145.700000
443.781891	145.380000
443.875549	144.920000
443.969238	144.820000
444.062927	144.660000
444.156647	144.460000
444.250275	144.940000
444.343994	145.480000
444.437653	145.520000
444.531372	145.620000
444.625031	145.800000
444.718719	145.500000
444.812378	145.600000
444.906097	145.420000
444.999756	145.200000
445.093445	145.100000
445.187103	145.140000
445.280823	145.180000
445.374512	144.760000
445.468201	145.280000
445.561859	145.160000
445.655548	145.540000
445.749237	145.360000
445.842926	145.560000
445.936615	145.980000
446.030304	145.980000
446.123962	146.200000
446.217651	146.080000
446.311340	146.420000
446.405029	145.500000
446.498749	145.260000
446.592407	144.700000
446.686096	144.620000
446.779755	144.860000
446.873474	145.360000
446.967133	145.960000
447.060852	145.920000
447.154510	145.960000
447.248230	145.960000
447.341858	145.740000
447.435577	145.040000
447.529236	144.800000
447.622955	144.660000
447.716644	144.440000
447.810333	144.600000
447.904022	145.280000
447.997711	145.540000
448.091400	145.980000
448.185059	145.980000
448.278748	145.860000
448.372437	145.480000
448.466125	145.780000
448.559814	145.640000
448.653503	146.020000
448.747192	146.520000
448.840912	147.060000
448.934570	146.860000
449.028290	147.160000
449.121948	146.920000
449.215637	146.340000
449.309296	146.000000
449.403015	146.140000
449.496674	145.920000
449.590393	145.900000
449.684052	145.520000
449.777771	145.980000
449.871429	145.280000
449.965149	145.320000
450.058838	145.240000
450.152527	146.100000
450.246216	145.640000
450.339905	145.720000
450.433594	145.420000
450.527283	146.160000
450.620972	146.040000
450.714661	146.280000
450.808350	146.680000
450.902039	146.880000
450.995728	146.280000
451.089417	145.540000
451.183105	145.440000
451.276794	145.880000
451.370514	145.200000
451.464172	144.540000
451.557892	144.760000
451.651550	144.900000
451.745270	144.440000
451.838928	144.480000
451.932648	144.960000
452.026306	145.360000
452.120026	144.800000
452.213684	145.120000
452.307404	145.280000
452.401062	145.560000
452.494781	145.740000
452.588470	146.100000
452.682159	145.480000
452.775848	145.840000
452.869537	145.320000
452.963226	144.860000
453.056915	144.880000
453.150604	145.180000
453.244293	145.340000
453.337982	145.860000
453.431671	146.120000
453.525360	146.400000
453.619049	146.500000
453.712769	146.420000
453.806427	146.060000
453.900146	145.600000
453.993805	145.360000
454.087555	145.800000
454.181213	145.760000
454.274933	145.580000
454.368591	145.340000
454.462311	145.140000
454.555969	144.440000
454.649689	145.100000
454.743347	145.220000
454.837067	146.300000
454.930756	146.700000
455.024445	146.760000
455.118134	146.240000
455.211853	146.560000
455.305542	145.800000
455.399231	145.560000
455.492920	145.640000
455.586609	145.720000
455.680298	145.720000
455.773987	145.640000
455.867676	145.700000
455.961365	145.780000
456.055084	145.440000
456.148773	145.180000
456.242493	145.560000
456.336151	145.540000
456.429871	145.780000
456.523529	146.320000
456.617249	146.000000
456.710907	146.400000
456.804626	146.380000
456.898315	145.840000
456.992035	145.640000
457.085693	145.920000
457.179413	145.180000
457.273102	146.100000
457.366791	146.620000
457.460480	146.820000
457.554199	147.640000
457.647888	147.900000
457.741577	146.840000
457.835266	146.480000
457.928955	146.220000
458.022644	145.860000
458.116364	146.320000
458.210052	146.460000
458.303741	146.840000
458.397461	146.700000
458.491119	146.180000
458.584839	145.840000
458.678528	145.740000
458.772247	145.340000
458.865906	145.460000
458.959625	146.580000
459.053284	146.640000
459.147003	146.480000
459.240692	147.200000
459.334412	147.020000
459.428070	146.220000
459.521790	146.080000
459.615479	146.260000
459.709198	146.560000
459.802887	146.480000
459.896576	146.120000
459.990265	146.080000
460.083954	146.220000
460.177673	145.340000
460.271362	145.540000
460.365051	145.740000
460.458740	145.540000
460.552429	145.000000
460.646149	145.060000
460.739838	144.540000
460.833527	144.620000
460.927246	144.660000
461.020905	144.860000
461.114655	145.060000
461.208313	145.540000
461.302032	145.000000
461.395691	145.120000
461.489441	145.380000
461.583099	144.840000
461.676819	144.660000
461.770477	145.320000
461.864197	144.940000
461.957916	144.820000
462.051605	144.500000
462.145294	145.400000
462.238983	144.860000
462.332703	145.940000
462.426392	146.360000
462.520081	146.860000
462.613770	145.920000
462.707489	146.260000
462.801178	145.760000
462.894867	145.320000
462.988556	145.360000
463.082275	145.580000
463.175964	145.040000
463.269684	145.040000
463.363342	145.040000
463.457092	144.600000
463.550751	144.860000
463.644470	145.600000
463.738129	145.480000
463.831879	145.580000
463.925537	146.460000
464.019257	146.560000
464.112946	146.040000
464.206665	145.840000
464.300323	145.840000
464.394043	145.340000
464.487762	145.000000
464.581451	145.380000
464.675140	145.300000
464.768829	145.400000
464.862549	145.400000
464.956238	145.620000
465.049927	145.540000
465.143646	145.820000
465.237335	145.740000
465.331024	146.480000
465.424713	146.440000
465.518433	146.520000
465.612152	146.520000
465.705811	146.480000
465.799561	145.860000
465.893219	145.720000
465.986938	145.620000
466.080597	145.320000
466.174347	145.600000
466.268005	145.860000
466.361725	145.880000
466.455414	145.840000
466.549133	145.800000
466.642792	145.720000
466.736542	145.180000
466.830231	145.060000
466.923920	144.900000
467.017609	145.060000
467.111328	144.660000
467.205017	144.780000
467.298706	144.960000
467.392426	145.420000
467.486115	145.800000
467.579803	145.800000
467.673523	146.160000
467.767212	146.240000
467.860901	145.820000
467.954651	145.800000
468.048309	146.120000
468.142029	146.000000
468.235718	146.020000
468.329437	146.000000
468.423096	145.900000
468.516846	145.680000
468.610504	145.360000
468.704224	144.920000
468.797913	144.940000
468.891632	144.920000
468.985291	144.860000
469.079010	145.180000
469.172729	145.040000
469.266418	145.740000
469.360107	145.760000
469.453827	145.760000
469.547516	145.900000
469.641205	146.520000
469.734924	146.420000
469.828613	146.640000
469.922302	146.680000
470.016022	146.500000
470.109711	146.280000
470.203430	145.640000
470.297150	144.800000
470.390808	145.020000
470.484558	144.940000
470.578217	145.160000
470.671936	145.380000
470.765625	146.280000
470.859344	145.940000
470.953003	146.040000
471.046753	145.800000
471.140411	145.480000
471.234131	145.320000
471.327820	145.900000
471.421539	146.020000
471.515228	145.760000
471.608948	146.120000
471.702637	145.700000
471.796326	145.180000
471.890045	145.200000
471.983734	145.240000
472.077423	144.940000
472.171143	145.060000
472.264832	144.940000
472.358521	144.580000
472.452240	144.100000
472.545929	144.900000
472.639648	145.220000
472.733337	145.960000
472.827057	146.460000
472.920746	147.080000
473.014465	147.220000
473.108124	147.060000
473.201874	146.920000
473.295532	146.580000
473.389252	146.880000
473.482941	146.380000
473.576660	145.860000
473.670319	145.420000
473.764069	145.740000
473.857727	145.720000
473.951477	145.940000
474.045166	146.940000
474.138855	147.160000
474.232574	146.820000
474.326263	146.700000
474.419952	146.720000
474.513672	146.100000
474.607361	145.940000
474.701050	146.200000
474.794769	146.360000
474.888458	146.820000
474.982178	146.780000
475.075867	147.000000
475.169586	146.740000
475.263275	146.500000
475.356995	145.800000
475.450653	145.400000
475.544403	144.860000
475.638062	145.460000
475.731812	145.320000
475.825470	145.160000
475.919189	145.460000
476.012878	146.060000
476.106598	145.720000
476.200256	146.020000
476.294006	146.000000
476.387695	146.280000
476.481384	145.880000
476.575104	145.460000
476.668793	145.420000
476.762512	145.000000
476.856201	145.740000
476.949890	145.560000
477.043610	145.480000
477.137299	145.260000
477.230988	145.860000
477.324707	145.000000
477.418396	145.600000
477.512146	146.020000
477.605804	145.860000
477.699524	145.840000
477.793213	145.780000
477.886932	145.420000
477.980591	144.980000
478.074341	144.660000
478.167999	144.300000
478.261749	144.500000
478.355408	144.660000
478.449127	145.040000
478.542816	146.260000
478.636536	147.100000
478.730225	147.080000
478.823944	147.120000
478.917633	147.200000
479.011322	146.960000
479.105042	146.540000
479.198730	146.680000
479.292450	146.400000
479.386139	146.520000
479.479828	146.440000
479.573547	146.780000
479.667267	146.560000
479.760925	146.700000
479.854675	146.680000
479.948334	146.360000
480.042084	145.580000
480.135742	145.820000
480.229462	145.460000
480.323151	145.320000
480.416870	144.940000
480.510529	145.280000
480.604279	144.800000
480.697937	145.220000
480.791656	144.720000
480.885345	144.640000
480.979065	144.400000
481.072754	144.900000
481.166473	145.300000
481.260132	145.440000
481.353882	145.780000
481.447540	145.820000
481.541260	145.460000
481.635010	144.840000
481.728668	145.180000
481.822388	145.200000
481.916077	145.540000
482.009796	145.640000
482.103485	145.920000
482.197205	145.760000
482.290863	145.780000
482.384613	145.460000
482.478271	145.280000
482.571991	145.200000
482.665680	145.020000
482.759399	145.440000
482.853058	145.980000
482.946808	145.660000
483.040466	145.680000
483.134216	145.720000
483.227875	145.160000
483.321594	145.100000
483.415283	145.780000
483.509003	145.400000
483.602661	145.680000
483.696411	146.420000
483.790070	146.140000
483.883789	145.860000
483.977478	146.420000
484.071198	146.220000
484.164917	145.460000
484.258606	145.320000
484.352325	145.520000
484.445984	145.520000
484.539734	145.400000
484.633392	144.980000
484.727142	145.460000
484.820801	145.380000
484.914520	145.160000
485.008209	145.380000
485.101929	146.260000
485.195587	146.000000
485.289337	145.880000
485.382996	145.820000
485.476715	145.700000
485.570404	146.000000
485.664124	146.100000
485.757782	146.740000
485.851532	146.540000
485.945190	146.380000
486.038910	145.940000
486.132599	146.000000
486.226318	145.300000
486.319977	145.300000
486.413727	146.040000
486.507446	145.880000
486.601105	145.340000
486.694855	145.140000
486.788513	145.120000
486.882233	144.780000
486.975922	144.640000
487.069641	144.740000
487.163300	144.880000
487.257050	145.980000
487.350708	145.800000
487.444427	145.580000
487.538116	145.700000
487.631836	145.700000
487.725494	145.140000
487.819214	145.320000
487.912903	145.660000
488.006622	145.900000
488.100281	146.360000
488.194031	146.340000
488.287689	146.540000
488.381409	147.320000
488.475098	147.040000
488.568817	146.740000
488.662476	146.440000
488.756226	145.920000
488.849945	144.580000
488.943604	144.800000
489.037354	144.800000
489.131012	144.740000
489.224731	144.780000
489.318390	145.120000
489.412140	145.000000
489.505798	144.940000
489.599518	144.900000
489.693207	145.240000
489.786926	145.340000
489.880585	145.500000
489.974335	146.040000
490.067993	147.000000
490.161713	147.240000
490.255371	147.840000
490.349121	147.440000
490.442780	147.040000
490.536499	146.080000
490.630188	146.140000
490.723907	145.720000
490.817566	146.080000
490.911285	146.140000
491.004974	145.920000
491.098694	145.220000
491.192413	145.840000
491.286102	145.580000
491.379822	145.600000
491.473480	145.980000
491.567200	146.280000
491.660889	145.400000
491.754608	145.420000
491.848267	145.240000
491.941986	145.180000
492.035675	145.060000
492.129395	145.600000
492.223053	145.620000
492.316772	145.920000
492.410461	146.200000
492.504181	146.340000
492.597839	145.840000
492.691559	145.840000
492.785248	146.000000
492.878967	145.980000
492.972626	145.800000
493.066345	145.880000
493.160034	145.640000
493.253754	145.280000
493.347412	144.640000
493.441132	144.400000
493.534882	144.940000
493.628540	145.600000
493.722260	145.800000
493.815918	145.900000
493.909668	146.620000
494.003326	146.800000
494.097046	146.480000
494.190704	146.060000
494.284454	146.660000
494.378113	146.680000
494.471832	146.100000
494.565491	145.720000
494.659210	146.000000
494.752899	145.580000
494.846619	145.220000
494.940277	145.360000
495.033997	145.460000
495.127686	145.380000
495.221405	145.580000
495.315063	145.660000
495.408783	145.740000
495.502441	146.100000
495.596191	146.040000
495.689850	145.580000
495.783569	146.000000
495.877228	145.700000
495.970947	145.180000
496.064697	145.100000
496.158356	145.960000
496.252075	145.380000
496.345734	145.280000
496.439453	146.420000
496.533142	146.700000
496.626862	146.880000
496.720520	147.100000
496.814240	147.640000
496.907898	146.880000
497.001617	146.940000
497.095306	145.920000
497.189026	145.720000
497.282684	145.540000
497.376404	146.160000
497.470062	145.880000
497.563782	146.320000
497.657471	146.260000
497.751190	146.040000
497.844849	145.640000
497.938568	145.800000
498.032227	145.900000
498.125946	146.120000
498.219635	145.940000
498.313354	146.040000
498.407074	145.720000
498.500732	145.760000
498.594452	145.820000
498.688110	145.700000
498.781830	145.260000
498.875519	145.360000
498.969238	144.980000
499.062897	144.520000
499.156616	144.980000
499.250275	145.280000
499.343994	144.840000
499.437653	145.240000
499.531372	145.640000
499.625061	146.280000
499.718781	146.120000
499.812439	147.000000
499.906158	146.760000
499.999817	146.320000
500.093536	145.500000
500.187195	145.720000
500.280914	145.360000
500.374573	145.560000
500.468323	145.580000
500.561981	145.800000
500.655701	145.420000
500.749420	145.520000
500.843079	145.760000
500.936798	146.100000
501.030457	146.620000
501.124176	146.780000
501.217834	146.600000
501.311554	146.200000
501.405212	145.880000
501.498962	144.880000
501.592621	144.660000
501.686340	145.040000
501.779999	145.080000
501.873718	145.420000
501.967377	146.000000
502.061096	146.220000
502.154755	145.840000
502.248474	146.040000
502.342133	146.160000
502.435852	146.180000
502.529510	146.780000
502.623230	147.380000
502.716888	146.820000
502.810608	146.680000
502.904266	146.920000
502.997986	146.300000
503.091705	145.540000
503.185364	145.640000
503.279083	145.700000
503.372772	145.480000
503.466492	145.340000
503.560150	145.600000
503.653870	145.920000
503.747528	146.040000
503.841248	145.740000
503.934906	145.860000
504.028625	145.680000
504.122284	145.760000
504.216003	146.200000
504.309662	145.680000
504.403381	145.900000
504.497040	145.960000
504.590759	145.620000
504.684418	145.700000
504.778137	146.600000
504.871796	146.820000
504.965515	146.700000
505.059174	147.100000
505.152893	146.180000
505.246521	145.360000
505.340240	144.980000
505.433899	145.360000
505.527618	145.060000
505.621338	145.560000
505.714996	145.840000
505.808716	146.120000
505.902374	146.340000
505.996094	146.540000
506.089752	146.080000
506.183472	146.340000
506.277130	146.240000
506.370850	146.220000
506.464508	145.820000
506.558228	145.880000
506.651886	145.420000
506.745605	145.640000
506.839264	145.280000
506.932983	145.820000
507.026611	145.540000
507.120331	146.300000
507.213989	145.520000
507.307709	145.880000
507.401367	145.840000
507.495087	146.840000
507.588745	146.360000
507.682465	147.660000
507.776123	147.420000
507.869843	147.220000
507.963531	146.640000
508.057190	147.140000
508.150909	146.100000
508.244568	146.140000
508.338287	145.960000
508.431946	145.760000
508.525665	145.260000
508.619324	145.020000
508.713013	145.280000
508.806671	145.700000
508.900391	146.560000
508.994049	146.700000
509.087769	146.740000
509.181427	146.600000
509.275146	146.140000
509.368774	145.160000
509.462494	145.360000
509.556152	145.460000
509.649872	145.660000
509.743530	145.920000
509.837250	146.200000
509.930878	146.140000
510.024597	146.360000
510.118256	146.040000
510.211975	145.780000
510.305695	145.620000
510.399353	145.600000
510.493042	145.960000
510.586700	146.000000
510.680420	146.820000
510.774078	146.840000
510.867798	146.900000
510.961426	146.220000
511.055145	146.300000
511.148804	145.540000
511.242523	146.080000
511.336151	146.100000
511.429871	146.640000
511.523529	146.360000
511.617249	146.120000
511.710876	145.940000
511.804596	145.440000
511.898254	145.440000
511.991974	145.800000
512.085632	146.180000
512.179321	146.000000
512.272949	146.540000
512.366699	146.440000
512.460327	146.280000
512.554077	146.940000
512.647766	147.020000
512.741394	146.720000
512.835144	147.300000
512.928772	146.880000
513.022461	146.520000
513.116150	146.180000
513.209839	146.580000
513.303467	145.700000
513.397217	145.820000
513.490845	145.400000
513.584595	145.220000
513.678223	144.740000
513.771912	144.420000
513.865601	144.820000
513.959290	144.780000
514.052917	145.400000
514.146667	146.200000
514.240295	146.940000
514.333984	147.000000
514.427673	146.840000
514.521362	147.120000
514.614990	146.140000
514.708740	146.140000
514.802368	145.860000
514.896057	146.240000
514.989746	146.480000
515.083435	146.700000
515.177124	146.520000
515.270752	146.460000
515.364502	146.580000
515.458130	146.340000
515.551819	146.060000
515.645508	145.920000
515.739197	146.100000
515.832825	145.920000
515.926575	145.540000
516.020203	146.140000
516.113892	146.860000
516.207520	146.580000
516.301270	146.520000
516.394897	146.540000
516.488586	146.660000
516.582275	146.520000
516.675964	146.120000
516.769592	146.120000
516.863281	146.760000
516.956970	146.740000
517.050659	146.380000
517.144287	146.920000
517.238037	146.920000
517.331665	146.100000
517.425354	146.000000
517.519043	145.680000
517.612732	145.940000
517.706421	146.140000
517.800049	145.920000
517.893738	145.300000
517.987427	145.300000
518.081116	144.860000
518.174744	144.500000
518.268433	145.060000
518.362122	146.060000
518.455811	146.140000
518.549438	146.720000
518.643127	147.680000
518.736816	147.420000
518.830505	146.540000
518.924133	146.620000
519.017822	146.660000
519.111511	146.120000
519.205200	146.360000
519.298828	146.800000
519.392517	146.400000
519.486206	146.240000
519.579895	146.380000
519.673523	146.220000
519.767212	146.040000
519.860901	146.680000
519.954590	146.400000
520.048279	145.820000
520.141907	145.660000
520.235596	146.680000
520.329224	146.820000
520.422974	146.560000
520.516602	146.760000
520.610291	146.600000
520.703918	145.860000
520.797607	145.480000
520.891296	145.860000
520.984985	146.060000
521.078613	147.020000
521.172302	146.300000
521.265930	147.380000
521.359680	148.020000
521.453308	147.800000
521.546997	147.220000
521.640625	147.940000
521.734314	146.840000
521.827942	146.260000
521.921692	146.400000
522.015320	146.680000
522.109009	146.480000
522.202698	146.760000
522.296326	146.920000
522.390015	147.240000
522.483704	147.000000
522.577393	146.580000
522.671021	146.420000
522.764709	146.140000
522.858337	146.120000
522.952026	145.920000
523.045654	147.000000
523.139404	147.280000
523.233032	147.340000
523.326721	147.480000
523.420349	147.800000
523.514038	147.080000
523.607666	147.600000
523.701355	147.040000
523.795044	146.820000
523.888733	146.700000
523.982361	147.020000
524.076050	146.480000
524.169678	147.440000
524.263367	147.040000
524.356995	146.760000
524.450684	146.660000
524.544373	146.220000
524.638062	145.860000
524.731750	146.280000
524.825378	146.260000
524.919067	145.860000
525.012695	146.000000
525.106384	145.700000
525.200012	145.600000
525.293701	145.760000
525.387329	145.940000
525.481018	146.200000
525.574646	146.740000
525.668396	146.520000
525.762024	146.740000
525.855713	147.020000
525.949341	146.260000
526.043030	145.920000
526.136658	145.940000
526.230347	145.820000
526.323975	145.640000
526.417664	146.100000
526.511292	146.320000
526.604980	146.580000
526.698608	146.360000
526.792297	146.400000
526.885925	146.560000
526.979614	146.680000
527.073303	146.180000
527.166931	146.600000
527.260620	146.900000
527.354309	147.280000
527.447998	147.300000
527.541626	147.400000
527.635315	147.080000
527.728943	147.180000
527.822632	146.880000
527.916260	146.620000
528.009949	146.880000
528.103577	146.920000
528.197266	146.300000
528.290894	146.520000
528.384583	146.380000
528.478210	146.460000
528.571899	146.700000
528.665527	147.060000
528.759216	146.980000
528.852844	147.520000
528.946533	147.400000
529.040161	147.440000
529.133850	147.100000
529.227478	147.380000
529.321167	147.200000
529.414856	147.640000
529.508484	147.920000
529.602173	147.540000
529.695801	147.060000
529.789490	146.900000
529.883057	146.660000
529.976746	146.680000
530.070374	147.320000
530.164062	147.460000
530.257690	147.500000
530.351379	147.400000
530.445007	146.800000
530.538696	146.340000
530.632324	146.540000
530.726013	146.640000
530.819641	146.680000
530.913330	147.020000
531.006958	147.180000
531.100647	147.140000
531.194275	146.860000
531.287964	146.640000
531.381592	146.240000
531.475220	146.640000
531.568848	146.340000
531.662537	146.320000
531.756226	146.820000
531.849854	146.920000
531.943542	146.460000
532.037170	145.820000
532.130859	146.100000
532.224487	145.520000
532.318176	145.340000
532.411804	145.920000
532.505432	146.720000
532.599060	146.160000
532.692749	146.180000
532.786377	146.740000
532.880066	146.220000
532.973694	145.400000
533.067383	145.500000
533.161011	145.540000
533.254639	145.320000
533.348267	145.260000
533.441956	146.100000
533.535583	146.260000
533.629272	146.320000
533.722900	145.620000
533.816589	145.800000
533.910156	146.020000
534.003845	145.700000
534.097534	145.840000
534.191162	147.080000
534.284851	147.100000
534.378479	146.300000
534.472107	146.720000
534.565735	146.500000
534.659424	146.180000
534.753052	146.160000
534.846741	146.220000
534.940369	146.580000
535.033997	146.580000
535.127625	146.340000
535.221313	146.760000
535.314941	146.820000
535.408630	146.140000
535.502197	146.500000
535.595886	146.320000
535.689514	145.920000
535.783203	146.660000
535.876831	147.000000
535.970459	147.040000
536.064087	146.780000
536.157776	146.700000
536.251404	146.300000
536.345093	146.000000
536.438721	145.920000
536.532349	146.440000
536.626038	146.500000
536.719666	146.620000
536.813293	146.840000
536.906921	146.460000
537.000610	146.440000
537.094238	146.520000
537.187866	146.500000
537.281494	146.500000
537.375183	146.700000
537.468811	146.460000
537.562439	146.220000
537.656067	146.060000
537.749756	145.960000
537.843384	146.620000
537.937012	147.060000
538.030640	146.940000
538.124329	146.860000
538.217896	147.180000
538.311584	146.680000
538.405212	146.100000
538.498901	146.700000
538.592468	147.540000
538.686157	146.960000
538.779785	146.420000
538.873413	146.320000
538.967102	145.820000
539.060730	144.720000
539.154358	145.440000
539.247986	146.000000
539.341675	146.500000
539.435242	146.740000
539.528931	147.200000
539.622559	146.540000
539.716187	146.620000
539.809814	146.340000
539.903503	146.160000
539.997070	145.820000
540.090759	146.040000
540.184387	145.920000
540.278015	146.480000
540.371643	146.880000
540.465332	147.340000
540.558899	147.320000
540.652588	146.980000
540.746216	146.480000
540.839844	146.440000
540.933472	146.300000
541.027100	146.320000
541.120728	146.640000
541.214417	147.000000
541.308044	147.380000
541.401672	146.960000
541.495300	146.680000
541.588928	146.240000
541.682617	145.820000
541.776184	145.160000
541.869873	145.560000
541.963440	145.840000
542.057129	145.920000
542.150757	145.980000
542.244385	145.780000
542.338013	145.200000
542.431641	145.340000
542.525269	145.460000
542.618958	146.100000
542.712524	146.560000
542.806213	146.360000
542.899780	146.140000
542.993469	145.880000
543.087036	145.220000
543.180725	144.420000
543.274292	145.520000
543.367981	145.980000
543.461548	146.700000
543.555237	146.900000
543.648926	147.760000
543.742493	147.960000
543.836182	147.800000
543.929749	147.500000
544.023437	147.440000
544.117004	147.580000
544.210693	147.560000
544.304260	147.580000
544.397949	147.340000
544.491516	147.440000
544.585205	147.000000
544.678772	146.140000
544.772461	146.520000
544.866028	146.780000
544.959717	146.900000
545.053284	146.560000
545.146973	147.260000
545.240540	146.960000
545.334229	147.440000
545.427795	147.640000
545.521423	148.300000
545.615051	147.960000
545.708679	148.560000
545.802307	148.380000
545.895935	148.520000
545.989624	149.320000
546.083191	149.380000
546.176880	148.960000
546.270447	148.620000
546.364136	148.700000
546.457703	147.920000
546.551331	147.900000
546.644958	148.000000
546.738586	148.320000
546.832214	147.720000
546.925842	147.420000
547.019409	147.480000
547.113098	146.840000
547.206665	146.820000
547.300354	146.520000
547.393921	146.740000
547.487549	146.960000
547.581177	147.020000
547.674805	146.520000
547.768433	146.300000
547.862061	146.160000
547.955627	145.380000
548.049316	145.780000
548.142883	146.200000
548.236572	146.680000
548.330139	146.960000
548.423767	147.060000
548.517456	146.720000
548.611023	146.920000
548.704651	146.460000
548.798279	146.300000
548.891907	146.940000
548.985474	146.940000
549.079163	146.720000
549.172729	146.540000
549.266357	146.280000
549.359985	146.340000
549.453613	146.240000
549.547180	146.060000
549.640869	146.640000
549.734436	146.560000
549.828064	146.340000
549.921631	146.080000
550.015320	145.700000
550.108887	145.960000
550.202515	146.040000
550.296143	145.760000
550.389771	146.000000
550.483337	146.240000
550.576965	146.120000
550.670593	146.480000
550.764221	146.580000
550.857849	146.440000
550.951477	145.960000
551.045105	145.640000
551.138672	145.440000
551.232300	145.000000
551.325928	145.340000
551.419556	145.700000
551.513123	145.700000
551.606750	145.300000
551.700378	145.620000
551.794006	145.400000
551.887573	145.360000
551.981201	145.980000
552.074768	146.140000
552.168457	145.920000
552.262024	146.900000
552.355652	146.740000
552.449219	146.920000
552.542847	147.260000
552.636475	147.160000
552.730103	146.020000
552.823669	146.220000
552.917297	145.500000
553.010864	145.400000
553.104553	145.820000
553.198181	145.680000
553.291748	146.380000
553.385376	146.640000
553.478943	146.280000
553.572571	146.440000
553.666199	146.800000
553.759827	146.060000
553.853394	145.580000
553.947021	145.820000
554.040588	145.500000
554.134216	145.480000
554.227783	146.200000
554.321411	147.160000
554.415039	146.680000
554.508667	146.660000
554.602234	147.100000
554.695862	146.320000
554.789429	145.980000
554.883057	146.080000
554.976624	146.040000
555.070251	145.520000
555.163818	145.600000
555.257507	145.340000
555.351074	145.600000
555.444702	146.560000
555.538330	146.440000
555.631897	146.640000
555.725525	146.700000
555.819092	146.420000
555.912720	145.140000
556.006287	145.780000
556.099915	145.800000
556.193481	145.900000
556.287109	146.340000
556.380676	146.620000
556.474304	146.620000
556.567871	146.640000
556.661499	145.720000
556.755066	145.540000
556.848694	145.880000
556.942261	145.600000
557.035889	145.860000
557.129517	146.600000
557.223145	147.060000
557.316711	146.960000
557.410339	147.020000
557.503906	146.600000
557.597473	146.640000
557.691040	146.000000
557.784668	145.660000
557.878296	145.660000
557.971863	146.000000
558.065491	145.900000
558.159058	145.960000
558.252686	146.880000
558.346252	147.280000
558.439880	146.840000
558.533447	146.480000
558.627075	146.040000
558.720642	145.380000
558.814270	144.940000
558.907837	145.120000
559.001465	145.140000
559.095032	146.180000
559.188660	146.180000
559.282227	145.740000
559.375854	146.280000
559.469360	146.400000
559.562988	146.420000
559.656555	146.420000
559.750183	146.900000
559.843750	146.560000
559.937378	146.520000
560.030945	146.300000
560.124573	0.000000
560.218140	0.000000
560.311707	0.000000
560.405334	0.000000
560.498901	0.000000
560.592529	0.000000
560.686096	0.000000
560.779724	0.000000
560.873291	0.000000
560.966858	0.000000
561.060425	0.000000
561.154053	0.000000
561.247620	0.000000
561.341248	0.000000
561.434814	0.000000
561.528381	0.000000
561.621948	0.000000
561.715576	0.000000
561.809143	0.000000
561.902771	0.000000
561.996277	0.000000
562.089905	0.000000
562.183472	0.000000
562.277100	0.000000
