Model Number: SPM-002-B   
Serial Number: 70087108
Firmware Version: 004.15.4
Exposure Time: 100000.000000us
Data Taken on: 11-12-2020 19:28:31.692
Wavelength	Amplitude
221.570786	0.000000
221.663406	0.000000
221.756027	0.000000
221.848648	0.000000
221.941269	0.000000
222.033905	0.000000
222.126526	0.000000
222.219162	0.000000
222.311798	0.000000
222.404419	0.000000
222.497055	0.000000
222.589676	0.000000
222.682312	0.000000
222.774933	0.000000
222.867569	0.000000
222.960205	0.000000
223.052841	0.000000
223.145462	0.000000
223.238098	0.000000
223.330734	0.000000
223.423386	0.000000
223.516022	0.000000
223.608658	0.000000
223.701309	0.000000
223.793945	0.000000
223.886581	0.000000
223.979218	0.000000
224.071869	0.000000
224.164505	0.000000
224.257156	0.000000
224.349792	0.000000
224.442444	0.000000
224.535095	0.000000
224.627747	0.000000
224.720398	0.000000
224.813034	0.000000
224.905685	0.000000
224.998337	145.700000
225.090988	145.220000
225.183640	144.980000
225.276291	144.700000
225.368942	144.800000
225.461594	145.560000
225.554245	146.080000
225.646912	146.260000
225.739578	146.820000
225.832230	147.420000
225.924896	146.560000
226.017548	146.680000
226.110199	146.960000
226.202866	146.220000
226.295532	145.980000
226.388184	145.820000
226.480850	145.260000
226.573517	144.960000
226.666168	145.360000
226.758835	145.480000
226.851501	146.320000
226.944183	146.440000
227.036850	146.300000
227.129517	146.320000
227.222183	146.120000
227.314850	145.760000
227.407516	146.220000
227.500198	146.740000
227.592865	146.400000
227.685532	146.420000
227.778214	146.200000
227.870880	146.100000
227.963562	146.440000
228.056229	146.960000
228.148926	146.920000
228.241592	147.720000
228.334274	147.300000
228.426956	146.940000
228.519638	146.860000
228.612305	146.380000
228.704987	146.260000
228.797668	146.340000
228.890350	146.160000
228.983032	145.620000
229.075714	146.280000
229.168396	146.120000
229.261108	146.000000
229.353790	145.900000
229.446472	146.080000
229.539169	145.800000
229.631851	145.540000
229.724533	145.620000
229.817230	145.900000
229.909912	146.860000
230.002609	147.000000
230.095306	146.920000
230.187988	146.760000
230.280685	146.480000
230.373383	145.420000
230.466095	145.500000
230.558792	145.760000
230.651474	146.000000
230.744171	145.700000
230.836868	145.620000
230.929581	145.540000
231.022278	145.420000
231.114975	145.320000
231.207672	145.460000
231.300369	146.040000
231.393082	146.060000
231.485779	145.840000
231.578506	145.880000
231.671204	145.980000
231.763916	145.820000
231.856613	145.820000
231.949326	146.080000
232.042023	145.880000
232.134735	145.960000
232.227448	145.680000
232.320160	145.980000
232.412872	146.060000
232.505585	146.860000
232.598297	147.500000
232.691010	147.460000
232.783722	146.800000
232.876450	147.360000
232.969162	146.880000
233.061874	146.000000
233.154587	145.840000
233.247314	146.520000
233.340027	145.600000
233.432739	146.000000
233.525467	145.840000
233.618179	146.340000
233.710907	145.940000
233.803635	146.600000
233.896347	146.280000
233.989090	147.300000
234.081818	147.120000
234.174545	147.460000
234.267258	146.760000
234.359985	147.080000
234.452713	146.560000
234.545441	146.420000
234.638168	146.040000
234.730896	146.680000
234.823639	146.200000
234.916367	146.380000
235.009094	146.580000
235.101822	146.820000
235.194580	146.700000
235.287308	147.000000
235.380051	146.480000
235.472778	146.740000
235.565521	146.860000
235.658249	146.600000
235.750992	146.400000
235.843719	146.340000
235.936462	146.340000
236.029205	145.940000
236.121948	145.580000
236.214691	145.760000
236.307449	146.640000
236.400192	146.180000
236.492935	146.060000
236.585678	146.360000
236.678421	146.340000
236.771164	145.820000
236.863907	146.560000
236.956665	146.560000
237.049408	148.000000
237.142151	147.720000
237.234909	148.340000
237.327652	148.100000
237.420410	148.080000
237.513153	147.200000
237.605927	147.060000
237.698669	146.500000
237.791428	145.680000
237.884186	146.320000
237.976944	145.760000
238.069702	146.240000
238.162445	146.020000
238.255203	146.540000
238.347961	146.580000
238.440720	146.820000
238.533478	146.760000
238.626266	146.440000
238.719025	146.840000
238.811783	146.660000
238.904541	146.160000
238.997314	146.040000
239.090073	145.960000
239.182831	146.040000
239.275604	146.760000
239.368362	147.000000
239.461136	146.980000
239.553909	147.340000
239.646667	146.900000
239.739441	145.720000
239.832214	145.840000
239.925003	146.160000
240.017761	146.800000
240.110535	146.880000
240.203308	146.660000
240.296082	146.760000
240.388855	146.520000
240.481628	146.120000
240.574417	146.340000
240.667191	146.920000
240.759964	146.440000
240.852737	146.380000
240.945526	146.220000
241.038315	146.120000
241.131088	146.100000
241.223877	146.700000
241.316650	146.320000
241.409439	146.340000
241.502228	145.660000
241.595001	146.080000
241.687790	145.700000
241.780579	145.880000
241.873367	146.120000
241.966141	146.780000
242.058929	146.220000
242.151718	146.500000
242.244507	146.900000
242.337311	146.200000
242.430099	146.500000
242.522903	146.580000
242.615692	145.880000
242.708481	145.860000
242.801270	146.380000
242.894073	146.300000
242.986862	146.580000
243.079651	147.300000
243.172455	146.740000
243.265244	147.080000
243.358063	146.440000
243.450867	146.460000
243.543655	146.540000
243.636459	146.760000
243.729263	146.720000
243.822067	146.940000
243.914856	147.220000
244.007660	147.180000
244.100464	147.360000
244.193268	146.560000
244.286072	146.520000
244.378876	145.820000
244.471680	145.360000
244.564499	145.360000
244.657318	146.420000
244.750122	146.760000
244.842926	146.420000
244.935745	147.160000
245.028549	146.880000
245.121368	146.140000
245.214172	146.020000
245.306992	146.400000
245.399796	145.900000
245.492615	146.160000
245.585434	146.260000
245.678253	146.260000
245.771072	146.420000
245.863892	146.840000
245.956711	146.940000
246.049530	147.020000
246.142349	146.620000
246.235168	146.640000
246.327988	146.860000
246.420807	146.680000
246.513626	146.640000
246.606445	146.740000
246.699280	146.560000
246.792099	146.240000
246.884918	146.000000
246.977753	145.800000
247.070587	145.560000
247.163422	145.520000
247.256241	145.320000
247.349075	145.640000
247.441895	145.720000
247.534729	145.980000
247.627563	145.800000
247.720383	146.320000
247.813217	146.200000
247.906052	146.300000
247.998886	146.580000
248.091736	146.540000
248.184570	145.900000
248.277405	146.040000
248.370239	146.780000
248.463074	147.580000
248.555908	148.060000
248.648743	148.260000
248.741592	148.280000
248.834427	147.320000
248.927261	145.680000
249.020111	146.160000
249.112946	146.500000
249.205795	145.960000
249.298630	146.520000
249.391495	147.220000
249.484344	146.500000
249.577179	146.380000
249.670029	146.780000
249.762878	146.820000
249.855728	146.860000
249.948563	147.060000
250.041412	146.620000
250.134262	147.120000
250.227112	147.160000
250.319962	147.160000
250.412827	147.020000
250.505692	146.720000
250.598541	146.160000
250.691391	145.980000
250.784241	145.740000
250.877106	146.080000
250.969955	145.860000
251.062805	146.280000
251.155670	146.880000
251.248520	146.780000
251.341385	146.560000
251.434235	146.940000
251.527100	146.440000
251.619965	145.660000
251.712814	146.340000
251.805695	146.340000
251.898560	146.440000
251.991425	146.780000
252.084290	147.160000
252.177155	146.640000
252.270020	146.400000
252.362885	146.420000
252.455750	146.420000
252.548615	145.840000
252.641479	145.980000
252.734360	146.200000
252.827240	146.000000
252.920105	146.040000
253.012970	146.020000
253.105850	145.820000
253.198715	145.280000
253.291595	145.540000
253.384460	145.180000
253.477341	145.220000
253.570221	145.440000
253.663086	145.700000
253.755966	146.280000
253.848846	146.240000
253.941727	146.600000
254.034592	146.360000
254.127472	145.960000
254.220367	145.660000
254.313248	145.920000
254.406128	145.280000
254.499008	145.580000
254.591904	146.480000
254.684784	147.080000
254.777664	147.060000
254.870544	147.120000
254.963440	147.200000
255.056335	147.240000
255.149216	146.500000
255.242111	147.080000
255.334991	147.520000
255.427887	147.640000
255.520767	147.520000
255.613663	147.720000
255.706558	146.820000
255.799438	146.820000
255.892334	146.300000
255.985229	146.060000
256.078125	145.900000
256.171021	146.200000
256.263916	146.440000
256.356812	147.000000
256.449707	147.280000
256.542603	146.980000
256.635498	147.380000
256.728394	147.360000
256.821289	146.960000
256.914215	147.240000
257.007080	147.760000
257.100006	147.660000
257.192932	148.000000
257.285828	148.220000
257.378723	147.960000
257.471619	147.700000
257.564545	147.360000
257.657440	147.200000
257.750336	147.740000
257.843262	147.340000
257.936157	148.380000
258.029053	148.760000
258.121979	148.320000
258.214874	147.280000
258.307800	147.200000
258.400696	146.020000
258.493622	145.900000
258.586517	145.540000
258.679443	146.280000
258.772339	146.160000
258.865265	146.340000
258.958160	145.580000
259.051086	146.380000
259.144012	146.060000
259.236938	146.660000
259.329834	146.440000
259.422791	146.500000
259.515717	145.660000
259.608612	145.220000
259.701538	145.340000
259.794464	145.520000
259.887390	145.900000
259.980316	146.380000
260.073212	146.520000
260.166138	145.520000
260.259064	145.820000
260.351990	146.320000
260.444916	146.180000
260.537842	146.660000
260.630768	147.680000
260.723694	147.360000
260.816620	147.080000
260.909546	147.140000
261.002472	146.780000
261.095398	145.880000
261.188354	145.800000
261.281281	145.380000
261.374207	145.420000
261.467133	146.020000
261.560089	146.540000
261.653015	146.360000
261.745972	147.060000
261.838867	147.480000
261.931824	147.240000
262.024780	146.800000
262.117706	147.020000
262.210663	146.980000
262.303589	146.440000
262.396515	146.740000
262.489471	147.640000
262.582397	147.660000
262.675354	146.900000
262.768280	146.960000
262.861237	146.340000
262.954163	145.920000
263.047119	145.800000
263.140045	145.900000
263.233002	146.000000
263.325958	145.980000
263.418884	145.740000
263.511841	145.760000
263.604797	145.900000
263.697723	145.580000
263.790680	145.540000
263.883636	145.960000
263.976593	145.800000
264.069550	145.840000
264.162476	145.940000
264.255463	146.140000
264.348419	145.840000
264.441376	146.480000
264.534332	146.240000
264.627289	146.620000
264.720245	147.140000
264.813202	147.080000
264.906158	146.940000
264.999115	147.500000
265.092072	147.340000
265.185028	147.640000
265.277985	147.780000
265.370941	147.400000
265.463898	147.000000
265.556854	147.040000
265.649811	145.700000
265.742798	145.500000
265.835754	145.760000
265.928711	146.120000
266.021667	146.100000
266.114655	146.500000
266.207611	146.860000
266.300568	146.300000
266.393585	145.980000
266.486511	145.940000
266.579498	145.260000
266.672485	145.240000
266.765442	145.380000
266.858429	145.960000
266.951385	145.440000
267.044342	145.740000
267.137329	145.600000
267.230316	145.960000
267.323273	145.520000
267.416260	146.500000
267.509216	147.060000
267.602203	146.920000
267.695160	146.980000
267.788147	147.040000
267.881134	146.400000
267.974091	146.400000
268.067078	146.200000
268.160065	146.080000
268.253052	146.100000
268.346008	146.240000
268.438995	146.140000
268.531982	146.640000
268.624969	146.580000
268.717987	146.740000
268.810944	146.760000
268.903961	146.580000
268.996948	146.160000
269.089905	146.520000
269.182892	146.440000
269.275879	146.540000
269.368866	146.460000
269.461853	146.960000
269.554871	146.640000
269.647858	146.580000
269.740845	146.940000
269.833832	147.360000
269.926819	146.540000
270.019806	146.680000
270.112793	146.240000
270.205811	146.240000
270.298798	145.960000
270.391785	146.740000
270.484772	146.500000
270.577789	146.680000
270.670776	146.360000
270.763763	146.560000
270.856750	146.520000
270.949768	146.340000
271.042786	146.500000
271.135773	146.060000
271.228790	146.220000
271.321808	145.620000
271.414795	145.540000
271.507782	145.540000
271.600800	145.420000
271.693817	145.120000
271.786804	145.840000
271.879822	146.320000
271.972809	146.300000
272.065826	147.000000
272.158844	146.960000
272.251831	147.300000
272.344849	147.220000
272.437866	147.000000
272.530853	146.960000
272.623871	147.100000
272.716888	145.900000
272.809906	146.520000
272.902893	146.340000
272.995911	145.780000
273.088928	145.620000
273.181946	146.180000
273.274963	145.420000
273.367981	145.880000
273.460999	146.040000
273.554047	146.520000
273.647003	147.020000
273.740051	146.740000
273.833069	146.840000
273.926086	147.260000
274.019135	146.760000
274.112152	146.160000
274.205170	146.740000
274.298187	147.040000
274.391205	146.360000
274.484222	146.420000
274.577240	146.260000
274.670258	146.020000
274.763306	145.700000
274.856323	146.460000
274.949341	146.640000
275.042358	147.200000
275.135406	146.720000
275.228424	146.520000
275.321442	146.140000
275.414490	146.000000
275.507507	146.200000
275.600525	147.140000
275.693573	146.860000
275.786591	146.460000
275.879669	146.520000
275.972656	146.000000
276.065735	145.520000
276.158752	146.100000
276.251801	146.980000
276.344818	146.940000
276.437866	147.000000
276.530884	146.980000
276.623932	146.280000
276.716980	146.380000
276.809998	146.440000
276.903046	146.660000
276.996094	147.360000
277.089111	148.200000
277.182159	148.460000
277.275208	148.060000
277.368256	147.920000
277.461304	147.360000
277.554321	146.420000
277.647369	145.980000
277.740417	146.120000
277.833466	146.140000
277.926514	145.860000
278.019562	146.820000
278.112610	146.320000
278.205688	146.780000
278.298706	146.820000
278.391785	146.740000
278.484833	146.020000
278.577881	145.820000
278.670929	145.880000
278.763977	145.880000
278.857025	146.780000
278.950073	147.280000
279.043121	147.320000
279.136169	147.040000
279.229248	146.720000
279.322296	146.220000
279.415344	145.980000
279.508392	145.900000
279.601440	145.820000
279.694519	145.760000
279.787567	145.820000
279.880615	145.600000
279.973694	146.160000
280.066742	146.440000
280.159790	146.760000
280.252869	146.140000
280.345917	146.360000
280.438995	146.120000
280.532074	145.960000
280.625122	146.320000
280.718201	147.540000
280.811279	147.600000
280.904327	147.520000
280.997406	147.460000
281.090454	147.220000
281.183533	146.600000
281.276581	146.440000
281.369659	146.380000
281.462738	146.540000
281.555786	146.600000
281.648865	146.600000
281.741943	146.480000
281.835022	146.980000
281.928070	146.900000
282.021149	146.580000
282.114227	146.480000
282.207306	146.520000
282.300385	146.580000
282.393433	146.520000
282.486511	146.640000
282.579590	147.180000
282.672668	147.360000
282.765747	146.840000
282.858856	146.720000
282.951904	146.840000
283.045013	146.580000
283.138062	146.960000
283.231171	147.200000
283.324249	147.700000
283.417328	147.420000
283.510406	146.960000
283.603485	146.640000
283.696564	146.520000
283.789642	146.260000
283.882751	146.280000
283.975830	147.120000
284.068909	147.060000
284.161987	147.480000
284.255066	147.160000
284.348175	147.180000
284.441254	146.760000
284.534332	146.980000
284.627441	146.480000
284.720520	146.420000
284.813599	146.640000
284.906708	146.520000
284.999786	145.960000
285.092896	146.060000
285.185974	147.060000
285.279053	146.460000
285.372192	146.720000
285.465240	147.320000
285.558380	147.320000
285.651459	146.800000
285.744568	148.180000
285.837677	147.920000
285.930756	147.580000
286.023865	147.560000
286.116943	147.120000
286.210052	146.580000
286.303162	146.200000
286.396240	146.400000
286.489349	146.140000
286.582458	146.380000
286.675568	146.100000
286.768646	146.380000
286.861755	146.720000
286.954865	147.600000
287.047974	147.320000
287.141083	147.440000
287.234161	147.120000
287.327271	146.840000
287.420380	146.800000
287.513519	146.880000
287.606598	146.640000
287.699738	146.960000
287.792816	146.680000
287.885956	146.400000
287.979034	146.440000
288.072174	146.700000
288.165283	146.760000
288.258392	147.220000
288.351501	146.540000
288.444611	146.640000
288.537720	146.940000
288.630859	147.080000
288.723969	147.060000
288.817078	147.660000
288.910187	147.540000
289.003296	146.900000
289.096436	146.540000
289.189545	146.100000
289.282654	145.860000
289.375763	146.520000
289.468903	147.020000
289.562012	147.580000
289.655121	147.660000
289.748260	147.600000
289.841400	147.540000
289.934509	147.220000
290.027649	146.840000
290.120728	146.900000
290.213898	146.980000
290.306976	146.580000
290.400146	146.720000
290.493256	146.440000
290.586395	146.680000
290.679535	147.000000
290.772644	146.840000
290.865784	146.080000
290.958893	146.180000
291.052032	145.980000
291.145172	145.760000
291.238281	145.700000
291.331421	146.100000
291.424561	146.780000
291.517670	146.620000
291.610809	147.040000
291.703949	146.680000
291.797089	146.980000
291.890228	145.860000
291.983337	145.880000
292.076477	145.540000
292.169617	146.200000
292.262756	145.980000
292.355927	146.440000
292.449036	146.280000
292.542206	146.380000
292.635315	146.420000
292.728485	146.780000
292.821625	146.620000
292.914764	147.720000
293.007904	147.760000
293.101044	147.640000
293.194183	147.460000
293.287323	147.580000
293.380463	146.880000
293.473602	146.580000
293.566742	146.720000
293.659882	147.020000
293.753021	147.200000
293.846191	146.920000
293.939331	146.640000
294.032471	146.120000
294.125610	145.660000
294.218781	146.120000
294.311920	146.620000
294.405060	147.160000
294.498230	147.260000
294.591370	147.080000
294.684540	145.940000
294.777679	145.300000
294.870850	145.040000
294.963959	145.020000
295.057159	145.040000
295.150299	145.940000
295.243469	146.280000
295.336609	145.900000
295.429779	146.060000
295.522919	146.480000
295.616089	146.460000
295.709229	146.800000
295.802399	147.180000
295.895569	147.060000
295.988708	146.740000
296.081879	146.640000
296.175018	146.060000
296.268188	145.960000
296.361359	146.240000
296.454529	146.540000
296.547668	146.320000
296.640839	146.720000
296.734009	146.400000
296.827179	146.700000
296.920319	146.840000
297.013519	146.900000
297.106659	147.120000
297.199860	147.500000
297.292999	146.900000
297.386200	146.440000
297.479309	146.160000
297.572510	145.760000
297.665680	145.300000
297.758850	145.420000
297.852020	145.520000
297.945190	145.500000
298.038361	145.160000
298.131531	146.080000
298.224701	146.220000
298.317871	146.040000
298.411072	145.840000
298.504242	145.900000
298.597412	145.400000
298.690582	145.620000
298.783752	145.660000
298.876923	146.220000
298.970093	146.420000
299.063293	146.600000
299.156464	146.680000
299.249634	147.120000
299.342834	147.380000
299.436005	147.800000
299.529205	147.740000
299.622345	147.560000
299.715576	146.720000
299.808716	146.060000
299.901917	145.820000
299.995117	146.340000
300.088287	146.620000
300.181488	146.900000
300.274658	147.020000
300.367828	146.800000
300.461029	146.240000
300.554199	146.180000
300.647400	146.260000
300.740601	146.660000
300.833771	146.640000
300.926971	147.080000
301.020142	146.360000
301.113342	146.400000
301.206512	146.280000
301.299713	146.600000
301.392914	146.340000
301.486084	146.780000
301.579285	146.900000
301.672516	147.160000
301.765686	146.720000
301.858887	146.640000
301.952057	146.680000
302.045288	146.640000
302.138458	146.520000
302.231659	146.260000
302.324860	146.180000
302.418060	145.900000
302.511261	146.080000
302.604462	146.140000
302.697662	146.720000
302.790863	146.660000
302.884064	146.780000
302.977264	146.760000
303.070465	146.680000
303.163666	147.420000
303.256866	147.660000
303.350067	147.500000
303.443268	147.260000
303.536469	147.520000
303.629669	146.480000
303.722870	146.520000
303.816071	146.400000
303.909271	146.300000
304.002472	145.640000
304.095673	145.520000
304.188934	144.720000
304.282104	145.600000
304.375336	145.680000
304.468506	145.780000
304.561768	145.740000
304.654968	146.500000
304.748169	145.840000
304.841370	145.580000
304.934601	146.000000
305.027802	146.100000
305.121002	145.760000
305.214233	145.720000
305.307434	146.140000
305.400665	146.520000
305.493866	146.340000
305.587097	146.720000
305.680298	146.840000
305.773499	147.260000
305.866730	146.700000
305.959930	147.440000
306.053162	147.560000
306.146393	147.100000
306.239594	146.120000
306.332825	146.060000
306.426025	146.240000
306.519287	145.520000
306.612488	146.180000
306.705719	146.380000
306.798920	146.520000
306.892181	145.560000
306.985352	145.540000
307.078613	144.800000
307.171844	145.260000
307.265045	145.040000
307.358276	145.000000
307.451508	145.520000
307.544739	146.260000
307.637970	145.880000
307.731201	145.800000
307.824402	146.560000
307.917633	146.900000
308.010864	147.260000
308.104095	147.840000
308.197327	147.960000
308.290558	147.900000
308.383789	147.440000
308.477020	146.980000
308.570251	146.360000
308.663483	146.260000
308.756714	145.900000
308.849976	146.080000
308.943176	146.680000
309.036438	146.640000
309.129639	146.340000
309.222900	146.440000
309.316101	145.940000
309.409393	145.160000
309.502625	145.000000
309.595856	145.400000
309.689087	145.740000
309.782318	145.860000
309.875580	145.800000
309.968811	146.040000
310.062042	145.520000
310.155273	145.140000
310.248535	145.660000
310.341766	145.960000
310.434998	146.000000
310.528259	146.200000
310.621490	146.520000
310.714722	145.860000
310.807983	145.800000
310.901215	145.440000
310.994476	145.640000
311.087708	145.140000
311.181000	145.920000
311.274200	145.200000
311.367462	145.740000
311.460693	145.580000
311.553986	146.400000
311.647186	146.160000
311.740479	147.080000
311.833710	146.400000
311.926971	146.340000
312.020203	145.360000
312.113464	145.060000
312.206726	144.260000
312.299957	145.000000
312.393219	145.600000
312.486481	146.200000
312.579712	146.280000
312.672974	146.620000
312.766235	146.560000
312.859497	146.320000
312.952759	146.100000
313.045990	146.840000
313.139252	146.420000
313.232513	146.520000
313.325775	146.300000
313.419037	146.140000
313.512299	145.000000
313.605530	145.640000
313.698822	145.400000
313.792053	145.460000
313.885345	145.340000
313.978577	145.660000
314.071869	145.080000
314.165131	145.180000
314.258392	145.340000
314.351654	145.480000
314.444916	145.160000
314.538177	145.860000
314.631439	146.020000
314.724701	145.780000
314.817993	145.980000
314.911255	146.440000
315.004517	145.780000
315.097778	145.500000
315.191040	145.900000
315.284302	145.800000
315.377594	145.640000
315.470856	146.300000
315.564117	145.860000
315.657379	145.320000
315.750671	145.020000
315.843933	145.440000
315.937195	144.840000
316.030518	145.100000
316.123749	145.260000
316.217041	146.220000
316.310303	146.000000
316.403595	146.280000
316.496857	146.500000
316.590149	147.000000
316.683411	146.240000
316.776703	145.920000
316.869965	146.040000
316.963257	145.860000
317.056519	145.180000
317.149811	145.240000
317.243073	145.480000
317.336365	145.100000
317.429626	145.440000
317.522919	146.060000
317.616180	145.920000
317.709473	145.560000
317.802765	145.720000
317.896027	145.520000
317.989319	145.480000
318.082611	145.480000
318.175873	145.380000
318.269165	145.560000
318.362488	145.380000
318.455750	145.140000
318.549042	145.640000
318.642303	146.480000
318.735626	146.100000
318.828888	146.600000
318.922211	146.480000
319.015472	146.900000
319.108765	146.080000
319.202057	146.000000
319.295349	145.840000
319.388641	146.140000
319.481934	145.760000
319.575226	145.740000
319.668518	146.220000
319.761810	146.520000
319.855103	146.540000
319.948395	146.360000
320.041687	146.740000
320.134979	146.600000
320.228271	146.020000
320.321564	145.900000
320.414856	145.720000
320.508148	145.400000
320.601440	145.300000
320.694763	145.300000
320.788025	145.800000
320.881348	146.140000
320.974640	146.440000
321.067963	146.200000
321.161224	146.280000
321.254547	145.120000
321.347839	145.540000
321.441162	145.060000
321.534454	145.240000
321.627747	145.140000
321.721069	146.220000
321.814362	146.020000
321.907654	146.240000
322.000946	146.260000
322.094269	146.820000
322.187561	146.260000
322.280884	146.260000
322.374176	146.300000
322.467468	147.000000
322.560791	146.700000
322.654083	147.260000
322.747406	147.100000
322.840698	147.360000
322.934021	147.240000
323.027344	147.620000
323.120636	146.900000
323.213959	146.680000
323.307251	146.180000
323.400574	145.920000
323.493866	145.260000
323.587219	145.640000
323.680511	145.940000
323.773834	146.340000
323.867157	146.220000
323.960449	146.360000
324.053772	146.460000
324.147095	146.160000
324.240387	146.580000
324.333710	146.620000
324.427032	146.800000
324.520355	146.660000
324.613647	146.600000
324.706970	146.200000
324.800293	145.900000
324.893616	146.300000
324.986938	146.460000
325.080231	146.400000
325.173553	146.880000
325.266876	147.580000
325.360199	147.460000
325.453522	146.920000
325.546875	146.740000
325.640167	146.580000
325.733521	146.580000
325.826813	146.460000
325.920166	146.400000
326.013489	146.540000
326.106812	145.700000
326.200134	145.300000
326.293457	144.860000
326.386780	145.020000
326.480103	145.060000
326.573425	145.120000
326.666748	144.820000
326.760071	145.160000
326.853424	145.180000
326.946747	145.240000
327.040070	146.440000
327.133392	146.540000
327.226715	145.900000
327.320068	145.800000
327.413391	145.980000
327.506714	144.880000
327.600037	144.880000
327.693390	145.340000
327.786713	145.420000
327.880066	145.320000
327.973358	146.020000
328.066742	146.400000
328.160034	146.400000
328.253418	146.680000
328.346710	146.560000
328.440063	145.840000
328.533417	145.460000
328.626740	145.920000
328.720093	145.560000
328.813416	145.480000
328.906769	145.780000
329.000092	146.180000
329.093445	145.840000
329.186768	146.160000
329.280121	146.820000
329.373444	147.140000
329.466797	146.700000
329.560120	146.580000
329.653473	146.400000
329.746796	145.720000
329.840149	145.300000
329.933502	145.620000
330.026825	145.400000
330.120178	145.340000
330.213562	145.500000
330.306854	145.580000
330.400238	145.680000
330.493561	146.000000
330.586945	146.480000
330.680237	146.640000
330.773621	146.740000
330.866974	146.780000
330.960327	147.080000
331.053680	146.720000
331.147003	146.680000
331.240356	147.000000
331.333710	147.180000
331.427063	146.780000
331.520416	146.860000
331.613770	146.560000
331.707123	146.420000
331.800476	146.020000
331.893829	146.920000
331.987152	147.140000
332.080505	147.500000
332.173859	147.020000
332.267212	146.760000
332.360565	145.880000
332.453918	145.320000
332.547333	145.160000
332.640656	145.860000
332.734039	146.100000
332.827362	146.060000
332.920746	146.560000
333.014069	146.860000
333.107452	146.700000
333.200806	147.020000
333.294159	147.400000
333.387543	147.020000
333.480896	146.380000
333.574249	146.100000
333.667603	145.640000
333.760956	145.620000
333.854340	145.580000
333.947693	145.740000
334.041046	145.860000
334.134430	146.120000
334.227783	145.600000
334.321136	145.680000
334.414520	145.720000
334.507874	146.140000
334.601227	145.820000
334.694611	145.860000
334.787964	146.060000
334.881348	146.400000
334.974701	146.100000
335.068085	146.040000
335.161438	146.540000
335.254822	146.300000
335.348175	146.100000
335.441559	145.780000
335.534943	146.420000
335.628296	146.080000
335.721680	146.280000
335.815033	146.500000
335.908417	146.840000
336.001770	146.820000
336.095154	147.040000
336.188538	146.780000
336.281891	146.420000
336.375275	145.860000
336.468658	145.420000
336.562012	145.600000
336.655396	145.900000
336.748779	146.220000
336.842133	146.480000
336.935516	146.740000
337.028900	146.120000
337.122284	145.980000
337.215637	146.060000
337.309021	145.900000
337.402435	145.600000
337.495789	145.680000
337.589203	145.580000
337.682526	145.240000
337.775940	145.680000
337.869324	145.860000
337.962708	145.600000
338.056091	146.160000
338.149475	145.940000
338.242859	145.820000
338.336243	145.720000
338.429626	146.220000
338.523010	145.680000
338.616394	145.720000
338.709778	145.980000
338.803162	146.400000
338.896545	146.380000
338.989929	146.280000
339.083313	146.620000
339.176697	146.080000
339.270081	145.420000
339.363464	145.540000
339.456848	145.740000
339.550232	145.040000
339.643616	144.960000
339.737030	145.320000
339.830383	145.460000
339.923828	145.640000
340.017181	146.060000
340.110596	146.420000
340.203949	146.420000
340.297363	145.600000
340.390778	145.720000
340.484161	145.620000
340.577545	145.460000
340.670959	145.440000
340.764343	145.760000
340.857727	145.500000
340.951111	145.260000
341.044525	145.400000
341.137909	144.820000
341.231293	144.900000
341.324707	144.700000
341.418091	145.740000
341.511505	145.720000
341.604889	146.520000
341.698303	147.020000
341.791687	147.060000
341.885071	146.380000
341.978485	146.340000
342.071899	146.240000
342.165283	146.240000
342.258698	146.480000
342.352081	146.820000
342.445496	147.440000
342.538879	147.360000
342.632324	146.660000
342.725708	146.680000
342.819122	146.380000
342.912506	145.840000
343.005920	145.880000
343.099335	147.040000
343.192719	146.880000
343.286133	146.980000
343.379547	147.380000
343.472931	146.980000
343.566345	146.040000
343.659760	146.220000
343.753143	145.860000
343.846558	145.320000
343.939972	145.580000
344.033386	146.000000
344.126770	145.700000
344.220184	145.840000
344.313599	146.040000
344.407043	146.080000
344.500427	145.580000
344.593872	146.100000
344.687225	145.940000
344.780670	145.480000
344.874054	145.520000
344.967499	146.240000
345.060913	145.880000
345.154327	146.020000
345.247742	146.260000
345.341156	145.980000
345.434570	145.420000
345.527985	145.380000
345.621399	145.260000
345.714813	145.260000
345.808228	145.640000
345.901642	145.480000
345.995056	145.440000
346.088470	145.880000
346.181885	145.980000
346.275299	145.560000
346.368713	145.680000
346.462128	145.500000
346.555573	145.460000
346.648987	145.860000
346.742401	146.060000
346.835815	146.460000
346.929260	146.640000
347.022644	146.580000
347.116119	146.600000
347.209503	146.640000
347.302948	147.260000
347.396362	147.820000
347.489807	148.020000
347.583221	148.300000
347.676636	148.120000
347.770050	147.000000
347.863495	146.300000
347.956909	146.260000
348.050323	145.540000
348.143768	145.900000
348.237183	145.940000
348.330597	146.540000
348.424042	146.620000
348.517456	147.100000
348.610901	146.900000
348.704315	146.800000
348.797760	146.240000
348.891174	145.820000
348.984619	145.180000
349.078033	145.400000
349.171448	146.140000
349.264923	146.100000
349.358337	146.040000
349.451782	146.700000
349.545197	146.280000
349.638641	145.320000
349.732086	145.120000
349.825500	145.720000
349.918945	145.020000
350.012390	145.540000
350.105804	146.200000
350.199249	146.420000
350.292664	146.560000
350.386108	146.580000
350.479553	146.900000
350.572968	146.560000
350.666412	146.940000
350.759857	146.660000
350.853302	146.980000
350.946716	146.120000
351.040161	146.020000
351.133606	145.760000
351.227081	145.560000
351.320465	146.500000
351.413940	146.960000
351.507355	147.380000
351.600830	147.400000
351.694244	147.140000
351.787720	146.420000
351.881104	146.240000
351.974579	146.200000
352.067993	146.960000
352.161469	147.080000
352.254883	146.580000
352.348358	146.620000
352.441803	146.520000
352.535248	146.000000
352.628693	146.500000
352.722137	146.400000
352.815582	146.520000
352.909027	146.620000
353.002472	146.400000
353.095917	145.900000
353.189362	146.280000
353.282806	146.340000
353.376251	146.200000
353.469696	145.900000
353.563141	146.740000
353.656586	146.620000
353.750061	146.080000
353.843475	146.180000
353.936981	146.720000
354.030396	145.560000
354.123871	145.620000
354.217285	146.520000
354.310760	146.380000
354.404175	146.080000
354.497681	146.200000
354.591095	146.000000
354.684570	145.100000
354.777985	144.760000
354.871490	144.760000
354.964935	145.440000
355.058380	145.800000
355.151855	145.520000
355.245300	146.360000
355.338745	146.660000
355.432220	146.460000
355.525665	145.920000
355.619110	146.880000
355.712585	146.340000
355.806030	145.800000
355.899475	145.600000
355.992950	145.980000
356.086426	145.980000
356.179871	146.280000
356.273346	146.560000
356.366791	146.480000
356.460266	146.840000
356.553711	146.160000
356.647186	146.260000
356.740631	145.980000
356.834106	145.840000
356.927551	145.600000
357.021027	145.940000
357.114471	145.560000
357.207947	145.880000
357.301422	146.560000
357.394867	146.520000
357.488342	146.760000
357.581818	146.820000
357.675262	147.060000
357.768738	146.420000
357.862213	145.640000
357.955658	145.280000
358.049133	145.100000
358.142609	144.980000
358.236053	144.940000
358.329529	145.540000
358.423035	145.880000
358.516449	145.800000
358.609955	145.960000
358.703400	146.760000
358.796906	147.060000
358.890350	146.600000
358.983826	147.160000
359.077271	146.580000
359.170776	145.880000
359.264221	145.300000
359.357727	145.400000
359.451172	145.540000
359.544647	145.780000
359.638123	145.680000
359.731598	146.300000
359.825073	146.900000
359.918549	146.380000
360.012024	146.340000
360.105499	146.120000
360.198975	145.660000
360.292450	145.380000
360.385925	145.860000
360.479401	145.600000
360.572876	145.920000
360.666351	146.540000
360.759857	146.320000
360.853302	146.140000
360.946808	146.000000
361.040253	146.340000
361.133759	145.600000
361.227203	145.920000
361.320709	145.400000
361.414154	145.980000
361.507660	146.080000
361.601105	146.840000
361.694641	147.180000
361.788086	147.220000
361.881592	147.480000
361.975067	147.120000
362.068542	146.940000
362.162018	146.340000
362.255524	146.140000
362.348999	146.100000
362.442474	146.420000
362.535950	146.100000
362.629456	146.160000
362.722931	146.360000
362.816406	146.600000
362.909882	146.680000
363.003387	146.460000
363.096863	146.740000
363.190338	146.800000
363.283875	146.100000
363.377319	145.880000
363.470825	146.560000
363.564301	145.620000
363.657806	145.660000
363.751282	145.500000
363.844788	146.180000
363.938232	145.360000
364.031769	146.300000
364.125214	146.540000
364.218750	147.280000
364.312225	145.720000
364.405731	146.020000
364.499207	145.560000
364.592712	145.300000
364.686188	144.960000
364.779694	145.860000
364.873169	145.980000
364.966675	145.980000
365.060150	146.020000
365.153656	146.660000
365.247131	146.340000
365.340637	146.400000
365.434143	146.900000
365.527618	146.760000
365.621155	145.540000
365.714600	145.740000
365.808136	145.780000
365.901611	144.940000
365.995117	144.880000
366.088593	145.340000
366.182129	145.300000
366.275604	145.340000
366.369110	145.300000
366.462585	145.520000
366.556122	146.120000
366.649567	146.140000
366.743103	146.420000
366.836609	146.840000
366.930115	146.960000
367.023590	146.760000
367.117096	146.580000
367.210602	146.380000
367.304108	146.960000
367.397614	147.600000
367.491119	147.540000
367.584595	147.680000
367.678101	148.020000
367.771606	147.460000
367.865112	146.760000
367.958649	146.140000
368.052124	145.900000
368.145660	145.720000
368.239136	146.360000
368.332672	146.400000
368.426147	146.740000
368.519684	146.760000
368.613159	146.540000
368.706696	145.580000
368.800171	145.800000
368.893707	145.600000
368.987183	145.960000
369.080719	146.020000
369.174225	146.080000
369.267731	146.060000
369.361237	146.200000
369.454742	146.060000
369.548248	146.540000
369.641754	146.580000
369.735260	145.920000
369.828766	145.300000
369.922272	145.780000
370.015808	145.220000
370.109314	144.920000
370.202820	145.260000
370.296356	146.400000
370.389832	145.740000
370.483368	145.580000
370.576874	145.880000
370.670410	146.160000
370.763885	145.100000
370.857422	145.380000
370.950928	145.400000
371.044464	146.260000
371.137939	146.180000
371.231476	147.100000
371.324982	147.380000
371.418518	147.660000
371.512024	147.200000
371.605560	146.780000
371.699066	146.500000
371.792572	145.900000
371.886108	146.120000
371.979614	145.860000
372.073120	146.460000
372.166656	146.520000
372.260162	146.960000
372.353668	146.700000
372.447205	146.460000
372.540710	146.320000
372.634277	145.980000
372.727753	146.020000
372.821320	145.920000
372.914795	146.160000
373.008362	146.000000
373.101837	146.400000
373.195404	146.040000
373.288879	145.860000
373.382446	146.300000
373.475922	146.420000
373.569489	146.680000
373.662964	147.200000
373.756531	147.400000
373.850037	147.420000
373.943573	147.140000
374.037109	146.060000
374.130615	146.160000
374.224152	146.080000
374.317657	145.680000
374.411194	146.680000
374.504730	147.080000
374.598236	146.320000
374.691772	146.300000
374.785309	146.360000
374.878815	145.320000
374.972351	145.700000
375.065887	145.900000
375.159454	146.440000
375.252930	146.260000
375.346497	146.340000
375.440002	146.760000
375.533569	146.700000
375.627045	145.920000
375.720612	146.000000
375.814117	146.420000
375.907684	145.860000
376.001160	145.740000
376.094727	145.500000
376.188232	146.200000
376.281799	146.100000
376.375336	146.040000
376.468872	146.640000
376.562408	147.260000
376.655914	146.700000
376.749451	146.540000
376.842987	147.000000
376.936523	146.660000
377.030060	146.440000
377.123596	146.460000
377.217133	146.200000
377.310669	145.920000
377.404205	146.060000
377.497772	146.520000
377.591278	146.280000
377.684845	146.980000
377.778351	146.720000
377.871918	146.480000
377.965424	145.640000
378.058990	145.420000
378.152496	145.040000
378.246063	145.440000
378.339569	145.580000
378.433136	145.720000
378.526642	146.320000
378.620209	146.460000
378.713745	145.980000
378.807312	146.620000
378.900848	146.800000
378.994385	146.780000
379.087921	146.040000
379.181458	146.500000
379.274994	145.380000
379.368530	145.360000
379.462097	145.260000
379.555634	145.820000
379.649170	145.200000
379.742706	145.500000
379.836273	145.400000
379.929810	145.000000
380.023376	144.500000
380.116882	144.700000
380.210449	144.780000
380.303986	144.620000
380.397552	144.400000
380.491058	144.940000
380.584656	144.900000
380.678162	145.060000
380.771729	145.600000
380.865265	146.520000
380.958832	146.360000
381.052368	146.780000
381.145935	146.920000
381.239471	147.100000
381.333008	146.880000
381.426575	146.800000
381.520111	146.900000
381.613647	147.220000
381.707214	146.820000
381.800751	146.220000
381.894318	146.740000
381.987854	146.340000
382.081421	145.740000
382.174988	145.720000
382.268524	145.700000
382.362091	145.500000
382.455627	146.360000
382.549194	146.360000
382.642731	146.020000
382.736298	146.280000
382.829834	145.880000
382.923401	145.780000
383.016937	145.920000
383.110504	146.280000
383.204041	146.260000
383.297607	146.840000
383.391174	145.960000
383.484741	146.720000
383.578278	146.400000
383.671844	146.320000
383.765411	145.600000
383.858948	146.160000
383.952515	145.700000
384.046051	146.160000
384.139618	146.520000
384.233185	147.000000
384.326721	146.880000
384.420288	147.260000
384.513855	147.100000
384.607422	147.320000
384.700989	147.520000
384.794525	147.000000
384.888123	146.620000
384.981659	146.640000
385.075226	146.020000
385.168762	145.400000
385.262360	145.760000
385.355896	145.080000
385.449463	144.880000
385.542999	145.040000
385.636597	146.100000
385.730164	146.340000
385.823730	146.420000
385.917267	146.420000
386.010834	146.420000
386.104401	146.160000
386.197968	146.280000
386.291534	146.640000
386.385101	146.580000
386.478668	147.080000
386.572235	146.680000
386.665802	145.960000
386.759338	145.480000
386.852905	145.660000
386.946472	145.040000
387.040070	145.460000
387.133606	145.740000
387.227203	145.900000
387.320740	145.880000
387.414337	146.020000
387.507874	145.700000
387.601471	145.700000
387.695007	145.640000
387.788605	145.500000
387.882141	145.580000
387.975739	145.500000
388.069275	145.540000
388.162872	145.840000
388.256439	145.940000
388.350037	145.920000
388.443604	145.640000
388.537170	145.820000
388.630737	146.100000
388.724304	146.440000
388.817871	146.040000
388.911438	146.340000
389.005005	146.460000
389.098602	146.500000
389.192169	146.140000
389.285736	146.720000
389.379333	146.900000
389.472870	146.320000
389.566467	146.360000
389.660034	146.180000
389.753632	145.900000
389.847168	146.040000
389.940765	146.400000
390.034332	146.220000
390.127930	146.140000
390.221466	145.880000
390.315063	145.400000
390.408630	144.740000
390.502228	143.960000
390.595795	144.320000
390.689362	144.640000
390.782959	145.040000
390.876526	145.620000
390.970093	146.080000
391.063690	146.360000
391.157257	146.380000
391.250824	146.340000
391.344421	145.860000
391.437988	146.120000
391.531555	146.200000
391.625153	146.060000
391.718750	146.040000
391.812317	146.160000
391.905914	145.700000
391.999481	145.720000
392.093079	145.800000
392.186615	146.100000
392.280243	146.240000
392.373779	146.540000
392.467407	146.660000
392.560944	146.720000
392.654572	146.340000
392.748108	146.300000
392.841736	146.140000
392.935303	145.680000
393.028900	145.640000
393.122467	145.840000
393.216064	145.760000
393.309631	145.560000
393.403229	145.160000
393.496796	144.960000
393.590393	144.060000
393.683990	144.640000
393.777557	145.260000
393.871155	145.660000
393.964722	146.020000
394.058350	146.620000
394.151917	146.000000
394.245514	145.760000
394.339081	146.440000
394.432678	146.540000
394.526245	146.420000
394.619873	146.520000
394.713409	146.420000
394.807037	145.700000
394.900604	145.620000
394.994202	145.660000
395.087769	145.980000
395.181396	145.600000
395.274994	146.300000
395.368561	145.660000
395.462158	145.940000
395.555756	145.360000
395.649353	146.220000
395.742920	145.560000
395.836517	146.460000
395.930115	145.800000
396.023712	146.400000
396.117279	146.400000
396.210876	146.240000
396.304474	145.940000
396.398071	146.120000
396.491669	146.500000
396.585266	146.060000
396.678833	145.960000
396.772461	146.300000
396.866028	146.700000
396.959656	146.760000
397.053223	147.600000
397.146851	148.400000
397.240417	149.380000
397.334015	150.720000
397.427582	152.060000
397.521210	154.120000
397.614807	157.380000
397.708405	160.920000
397.802002	166.080000
397.895599	173.140000
397.989197	181.500000
398.082794	191.200000
398.176392	204.240000
398.269989	218.320000
398.363586	235.200000
398.457184	254.120000
398.550781	275.780000
398.644379	296.220000
398.737976	318.980000
398.831573	340.980000
398.925201	363.380000
399.018768	387.120000
399.112396	413.840000
399.205963	443.560000
399.299591	476.320000
399.393158	511.760000
399.486786	548.060000
399.580353	582.480000
399.673981	608.520000
399.767578	628.880000
399.861206	639.180000
399.954773	639.040000
400.048401	627.900000
400.141998	612.280000
400.235596	590.560000
400.329193	566.280000
400.422791	540.500000
400.516418	516.680000
400.610016	491.920000
400.703613	465.880000
400.797211	437.040000
400.890808	406.960000
400.984436	376.020000
401.078033	345.840000
401.171631	317.720000
401.265259	293.440000
401.358826	272.280000
401.452484	252.840000
401.546051	236.320000
401.639679	220.160000
401.733246	206.920000
401.826904	194.460000
401.920471	184.020000
402.014099	174.800000
402.107697	168.540000
402.201324	162.700000
402.294891	158.660000
402.388550	155.900000
402.482147	153.620000
402.575745	151.520000
402.669373	149.760000
402.762970	148.300000
402.856567	147.660000
402.950195	147.420000
403.043793	147.260000
403.137390	147.700000
403.231018	147.200000
403.324615	147.520000
403.418243	146.920000
403.511841	147.040000
403.605469	147.020000
403.699066	147.700000
403.792694	147.360000
403.886292	147.880000
403.979919	147.400000
404.073517	146.940000
404.167145	147.040000
404.260712	146.960000
404.354370	146.540000
404.447937	146.920000
404.541595	147.000000
404.635162	147.100000
404.728821	147.460000
404.822418	147.220000
404.916046	146.980000
405.009644	147.020000
405.103271	146.960000
405.196899	146.840000
405.290497	147.360000
405.384125	147.560000
405.477722	147.000000
405.571350	146.560000
405.664948	146.460000
405.758575	145.940000
405.852203	145.600000
405.945801	145.880000
406.039429	145.980000
406.133057	145.640000
406.226654	145.680000
406.320312	145.640000
406.413879	145.720000
406.507538	145.840000
406.601135	145.420000
406.694763	145.920000
406.788361	145.760000
406.882019	145.900000
406.975586	146.500000
407.069244	147.500000
407.162872	147.600000
407.256470	147.620000
407.350098	147.260000
407.443726	146.440000
407.537323	145.780000
407.630951	145.680000
407.724579	145.580000
407.818207	146.100000
407.911804	146.160000
408.005432	146.160000
408.099060	146.500000
408.192688	146.800000
408.286285	146.620000
408.379913	146.580000
408.473572	146.840000
408.567169	145.780000
408.660828	145.760000
408.754395	145.420000
408.848053	145.340000
408.941650	145.280000
409.035309	145.240000
409.128906	145.140000
409.222565	145.500000
409.316132	145.760000
409.409790	145.560000
409.503387	145.880000
409.597046	146.180000
409.690674	146.220000
409.784302	146.480000
409.877930	146.560000
409.971558	146.620000
410.065186	146.100000
410.158783	145.900000
410.252411	145.440000
410.346039	145.680000
410.439667	145.900000
410.533295	146.440000
410.626923	146.680000
410.720551	146.620000
410.814209	147.020000
410.907806	146.980000
411.001465	146.440000
411.095062	146.440000
411.188721	147.120000
411.282318	146.420000
411.375977	146.180000
411.469574	146.560000
411.563232	146.320000
411.656830	145.640000
411.750488	145.600000
411.844086	145.420000
411.937744	145.280000
412.031372	145.100000
412.125000	145.280000
412.218628	145.360000
412.312256	146.140000
412.405884	146.580000
412.499512	146.680000
412.593170	146.700000
412.686798	147.020000
412.780426	146.340000
412.874054	146.340000
412.967682	146.420000
413.061310	147.000000
413.154968	147.060000
413.248566	147.140000
413.342224	146.680000
413.435852	146.720000
413.529510	146.120000
413.623108	145.260000
413.716766	145.080000
413.810364	145.440000
413.904022	145.160000
413.997650	144.940000
414.091309	146.060000
414.184906	146.240000
414.278564	145.780000
414.372192	146.280000
414.465851	146.580000
414.559479	145.940000
414.653107	146.480000
414.746735	146.840000
414.840393	146.760000
414.934021	146.860000
415.027649	146.540000
415.121277	146.360000
415.214935	146.560000
415.308563	146.500000
415.402191	145.940000
415.495850	146.280000
415.589478	145.980000
415.683136	145.340000
415.776733	145.520000
415.870422	146.360000
415.964020	145.920000
416.057678	145.860000
416.151306	146.140000
416.244965	146.140000
416.338562	145.700000
416.432251	146.560000
416.525848	147.600000
416.619507	147.920000
416.713165	148.240000
416.806793	148.140000
416.900421	148.160000
416.994080	147.120000
417.087708	146.920000
417.181366	146.080000
417.274994	146.080000
417.368622	146.080000
417.462280	146.700000
417.555908	146.820000
417.649567	146.800000
417.743195	146.940000
417.836853	146.820000
417.930481	146.760000
418.024170	146.680000
418.117767	147.560000
418.211426	147.820000
418.305054	147.680000
418.398712	147.160000
418.492340	147.020000
418.585999	146.940000
418.679626	146.800000
418.773285	146.980000
418.866913	147.160000
418.960571	147.480000
419.054230	147.220000
419.147858	147.400000
419.241516	147.420000
419.335144	147.500000
419.428802	147.000000
419.522461	146.560000
419.616089	145.940000
419.709747	145.620000
419.803375	145.660000
419.897034	145.920000
419.990662	146.080000
420.084320	146.780000
420.177979	147.380000
420.271606	147.360000
420.365295	147.820000
420.458893	148.260000
420.552582	148.020000
420.646210	147.560000
420.739868	147.480000
420.833496	147.080000
420.927155	146.640000
421.020782	146.280000
421.114471	145.860000
421.208069	146.060000
421.301758	146.180000
421.395386	146.080000
421.489044	146.120000
421.582703	146.200000
421.676361	146.440000
421.769989	146.040000
421.863647	146.660000
421.957306	147.020000
422.050934	147.420000
422.144592	147.080000
422.238251	146.980000
422.331909	146.580000
422.425537	146.620000
422.519196	146.400000
422.612854	146.200000
422.706543	146.040000
422.800140	146.140000
422.893829	145.600000
422.987457	145.600000
423.081146	145.520000
423.174744	146.440000
423.268433	145.860000
423.362061	146.020000
423.455750	145.800000
423.549347	145.940000
423.643036	144.940000
423.736664	145.720000
423.830353	145.740000
423.924011	145.980000
424.017639	145.500000
424.111298	145.840000
424.204956	145.560000
424.298615	145.620000
424.392273	145.680000
424.485931	146.080000
424.579559	146.320000
424.673218	146.280000
424.766876	146.240000
424.860535	146.000000
424.954193	145.900000
425.047882	146.160000
425.141510	146.060000
425.235199	146.260000
425.328796	146.120000
425.422485	146.040000
425.516113	145.280000
425.609802	145.280000
425.703430	145.260000
425.797119	145.180000
425.890747	145.240000
425.984436	145.540000
426.078064	145.620000
426.171753	145.400000
426.265411	145.360000
426.359070	145.900000
426.452728	145.780000
426.546356	145.820000
426.640015	145.780000
426.733673	145.920000
426.827332	145.220000
426.920990	146.000000
427.014648	145.660000
427.108307	145.980000
427.201965	146.640000
427.295624	147.160000
427.389282	146.200000
427.482941	146.620000
427.576630	146.360000
427.670258	145.480000
427.763947	145.120000
427.857574	145.260000
427.951263	144.980000
428.044922	144.920000
428.138611	145.460000
428.232239	146.020000
428.325928	146.800000
428.419556	147.320000
428.513245	147.300000
428.606903	147.420000
428.700562	146.480000
428.794220	145.640000
428.887878	144.980000
428.981537	145.180000
429.075195	144.900000
429.168854	145.720000
429.262512	145.840000
429.356201	146.360000
429.449860	146.180000
429.543518	146.240000
429.637177	146.020000
429.730835	145.900000
429.824493	145.580000
429.918182	145.760000
430.011810	145.300000
430.105530	144.820000
430.199158	145.420000
430.292847	145.340000
430.386475	145.180000
430.480164	145.120000
430.573792	145.040000
430.667511	144.560000
430.761139	144.780000
430.854828	145.380000
430.948456	145.760000
431.042145	146.200000
431.135834	146.200000
431.229492	146.240000
431.323151	146.060000
431.416809	145.900000
431.510468	145.900000
431.604156	146.020000
431.697815	146.140000
431.791473	145.700000
431.885132	145.500000
431.978821	145.820000
432.072479	146.040000
432.166138	146.380000
432.259827	146.160000
432.353485	146.700000
432.447174	146.640000
432.540802	146.440000
432.634491	146.020000
432.728149	146.420000
432.821838	146.580000
432.915466	146.440000
433.009186	146.400000
433.102814	145.820000
433.196503	145.520000
433.290131	145.340000
433.383850	145.420000
433.477509	145.500000
433.571167	146.520000
433.664856	147.280000
433.758514	147.540000
433.852173	147.400000
433.945862	147.120000
434.039520	146.840000
434.133179	145.960000
434.226868	145.520000
434.320526	145.140000
434.414185	145.820000
434.507874	145.760000
434.601562	145.860000
434.695221	145.980000
434.788910	146.280000
434.882538	145.880000
434.976257	145.280000
435.069885	145.620000
435.163574	145.940000
435.257233	145.960000
435.350922	146.140000
435.444580	146.080000
435.538269	145.900000
435.631897	145.700000
435.725616	145.840000
435.819275	145.960000
435.912964	146.580000
436.006622	147.180000
436.100311	147.320000
436.193970	146.620000
436.287628	146.280000
436.381317	145.880000
436.474976	145.320000
436.568665	144.740000
436.662323	145.260000
436.756012	144.980000
436.849670	145.100000
436.943390	145.000000
437.037018	145.240000
437.130737	145.320000
437.224365	145.620000
437.318085	145.900000
437.411713	146.000000
437.505432	146.140000
437.599060	146.420000
437.692780	147.140000
437.786407	146.820000
437.880127	146.960000
437.973755	146.900000
438.067474	146.280000
438.161133	145.680000
438.254822	146.300000
438.348480	146.120000
438.442169	147.060000
438.535828	147.620000
438.629517	147.320000
438.723175	146.760000
438.816864	147.460000
438.910553	146.080000
439.004211	145.740000
439.097900	145.660000
439.191559	145.780000
439.285248	144.840000
439.378906	145.640000
439.472626	145.640000
439.566284	145.860000
439.659973	145.940000
439.753632	145.960000
439.847321	146.120000
439.940979	145.920000
440.034698	145.840000
440.128326	145.520000
440.222046	145.900000
440.315674	145.160000
440.409393	145.560000
440.503082	145.440000
440.596741	145.980000
440.690430	146.180000
440.784088	145.900000
440.877777	145.380000
440.971466	145.660000
441.065125	145.340000
441.158813	144.800000
441.252502	145.240000
441.346161	145.560000
441.439850	145.660000
441.533539	145.280000
441.627197	145.440000
441.720886	145.440000
441.814606	145.840000
441.908234	146.160000
442.001953	146.360000
442.095612	146.580000
442.189301	146.840000
442.282959	146.500000
442.376678	145.760000
442.470306	146.320000
442.564026	146.120000
442.657684	146.040000
442.751404	146.140000
442.845032	147.180000
442.938751	146.460000
443.032440	146.340000
443.126099	145.980000
443.219788	146.540000
443.313477	145.920000
443.407166	146.160000
443.500824	146.320000
443.594513	146.800000
443.688202	146.360000
443.781891	145.880000
443.875549	145.520000
443.969238	145.460000
444.062927	145.240000
444.156647	145.120000
444.250275	145.680000
444.343994	146.080000
444.437653	146.200000
444.531372	145.920000
444.625031	146.080000
444.718719	145.700000
444.812378	145.320000
444.906097	145.240000
444.999756	144.860000
445.093445	144.580000
445.187103	144.660000
445.280823	145.460000
445.374512	145.040000
445.468201	145.800000
445.561859	145.900000
445.655548	146.060000
445.749237	145.520000
445.842926	146.120000
445.936615	146.340000
446.030304	146.140000
446.123962	146.540000
446.217651	146.320000
446.311340	146.300000
446.405029	145.920000
446.498749	146.040000
446.592407	145.420000
446.686096	145.780000
446.779755	145.680000
446.873474	145.840000
446.967133	145.900000
447.060852	145.740000
447.154510	145.740000
447.248230	145.680000
447.341858	145.680000
447.435577	145.400000
447.529236	145.340000
447.622955	145.180000
447.716644	145.300000
447.810333	145.260000
447.904022	145.760000
447.997711	146.020000
448.091400	146.500000
448.185059	146.380000
448.278748	146.320000
448.372437	145.880000
448.466125	146.020000
448.559814	146.080000
448.653503	146.720000
448.747192	147.020000
448.840912	147.700000
448.934570	147.440000
449.028290	147.500000
449.121948	146.620000
449.215637	146.220000
449.309296	145.560000
449.403015	146.020000
449.496674	145.660000
449.590393	145.960000
449.684052	145.840000
449.777771	146.760000
449.871429	145.920000
449.965149	145.880000
450.058838	146.100000
450.152527	146.560000
450.246216	146.000000
450.339905	146.400000
450.433594	146.040000
450.527283	146.440000
450.620972	146.120000
450.714661	145.960000
450.808350	146.060000
450.902039	146.400000
450.995728	145.900000
451.089417	145.740000
451.183105	145.800000
451.276794	146.280000
451.370514	145.800000
451.464172	145.020000
451.557892	145.260000
451.651550	145.340000
451.745270	144.640000
451.838928	144.560000
451.932648	145.480000
452.026306	145.740000
452.120026	145.500000
452.213684	146.400000
452.307404	146.740000
452.401062	146.820000
452.494781	147.120000
452.588470	147.140000
452.682159	146.140000
452.775848	146.340000
452.869537	145.480000
452.963226	144.820000
453.056915	144.620000
453.150604	144.940000
453.244293	144.920000
453.337982	145.640000
453.431671	146.220000
453.525360	146.880000
453.619049	147.000000
453.712769	146.780000
453.806427	146.480000
453.900146	145.720000
453.993805	145.340000
454.087555	145.800000
454.181213	145.960000
454.274933	145.640000
454.368591	145.580000
454.462311	145.560000
454.555969	145.040000
454.649689	146.000000
454.743347	146.100000
454.837067	146.900000
454.930756	147.300000
455.024445	147.480000
455.118134	146.740000
455.211853	147.080000
455.305542	146.500000
455.399231	146.140000
455.492920	145.960000
455.586609	145.880000
455.680298	146.100000
455.773987	145.980000
455.867676	146.240000
455.961365	146.320000
456.055084	145.900000
456.148773	145.640000
456.242493	146.020000
456.336151	145.780000
456.429871	145.960000
456.523529	146.740000
456.617249	146.620000
456.710907	147.020000
456.804626	147.140000
456.898315	146.860000
456.992035	146.720000
457.085693	146.620000
457.179413	145.700000
457.273102	146.320000
457.366791	146.400000
457.460480	146.500000
457.554199	147.120000
457.647888	147.500000
457.741577	147.220000
457.835266	147.360000
457.928955	147.420000
458.022644	147.320000
458.116364	147.440000
458.210052	146.960000
458.303741	146.920000
458.397461	146.100000
458.491119	145.300000
458.584839	145.340000
458.678528	145.240000
458.772247	144.800000
458.865906	145.220000
458.959625	146.540000
459.053284	146.460000
459.147003	146.160000
459.240692	146.880000
459.334412	146.920000
459.428070	145.900000
459.521790	145.720000
459.615479	146.120000
459.709198	146.460000
459.802887	146.160000
459.896576	146.300000
459.990265	146.500000
460.083954	146.700000
460.177673	145.780000
460.271362	146.020000
460.365051	145.900000
460.458740	145.660000
460.552429	145.020000
460.646149	145.100000
460.739838	144.620000
460.833527	144.900000
460.927246	144.780000
461.020905	144.900000
461.114655	145.140000
461.208313	145.820000
461.302032	145.280000
461.395691	145.580000
461.489441	145.600000
461.583099	145.180000
461.676819	144.700000
461.770477	145.560000
461.864197	145.000000
461.957916	144.920000
462.051605	144.700000
462.145294	145.860000
462.238983	145.340000
462.332703	146.100000
462.426392	147.140000
462.520081	147.540000
462.613770	146.740000
462.707489	146.860000
462.801178	146.680000
462.894867	146.020000
462.988556	145.880000
463.082275	146.100000
463.175964	145.920000
463.269684	146.220000
463.363342	146.280000
463.457092	146.180000
463.550751	146.120000
463.644470	146.240000
463.738129	146.020000
463.831879	146.180000
463.925537	146.780000
464.019257	146.940000
464.112946	146.880000
464.206665	146.760000
464.300323	146.340000
464.394043	145.960000
464.487762	145.620000
464.581451	145.920000
464.675140	145.980000
464.768829	146.580000
464.862549	146.960000
464.956238	147.160000
465.049927	147.140000
465.143646	147.440000
465.237335	146.660000
465.331024	146.840000
465.424713	146.960000
465.518433	146.740000
465.612152	146.220000
465.705811	146.560000
465.799561	146.280000
465.893219	146.020000
465.986938	146.080000
466.080597	146.120000
466.174347	146.420000
466.268005	146.400000
466.361725	146.200000
466.455414	146.300000
466.549133	145.880000
466.642792	145.560000
466.736542	145.200000
466.830231	145.640000
466.923920	145.460000
467.017609	145.860000
467.111328	145.660000
467.205017	145.780000
467.298706	145.380000
467.392426	145.560000
467.486115	145.900000
467.579803	145.700000
467.673523	146.280000
467.767212	146.520000
467.860901	146.160000
467.954651	146.260000
468.048309	146.840000
468.142029	146.440000
468.235718	146.320000
468.329437	146.000000
468.423096	145.780000
468.516846	145.540000
468.610504	145.100000
468.704224	145.020000
468.797913	145.440000
468.891632	145.500000
468.985291	145.540000
469.079010	145.760000
469.172729	145.520000
469.266418	146.080000
469.360107	145.920000
469.453827	145.680000
469.547516	145.980000
469.641205	146.440000
469.734924	146.520000
469.828613	147.040000
469.922302	147.560000
470.016022	147.060000
470.109711	146.740000
470.203430	146.100000
470.297150	145.360000
470.390808	145.480000
470.484558	145.560000
470.578217	145.920000
470.671936	146.120000
470.765625	147.020000
470.859344	146.760000
470.953003	147.320000
471.046753	146.920000
471.140411	146.520000
471.234131	146.140000
471.327820	146.520000
471.421539	146.320000
471.515228	146.340000
471.608948	146.660000
471.702637	146.360000
471.796326	145.860000
471.890045	146.040000
471.983734	145.940000
472.077423	145.700000
472.171143	145.840000
472.264832	145.920000
472.358521	145.420000
472.452240	145.600000
472.545929	146.340000
472.639648	146.500000
472.733337	146.660000
472.827057	146.940000
472.920746	147.040000
473.014465	146.920000
473.108124	146.640000
473.201874	146.460000
473.295532	146.300000
473.389252	146.660000
473.482941	146.620000
473.576660	146.340000
473.670319	146.440000
473.764069	146.480000
473.857727	146.220000
473.951477	146.340000
474.045166	147.200000
474.138855	146.860000
474.232574	147.060000
474.326263	147.000000
474.419952	147.100000
474.513672	146.640000
474.607361	146.480000
474.701050	146.480000
474.794769	146.840000
474.888458	146.940000
474.982178	147.280000
475.075867	147.760000
475.169586	147.820000
475.263275	147.500000
475.356995	147.360000
475.450653	147.040000
475.544403	146.800000
475.638062	147.380000
475.731812	147.000000
475.825470	146.680000
475.919189	146.420000
476.012878	146.620000
476.106598	145.720000
476.200256	146.320000
476.294006	146.120000
476.387695	146.380000
476.481384	146.280000
476.575104	146.420000
476.668793	146.000000
476.762512	145.840000
476.856201	146.080000
476.949890	145.820000
477.043610	145.240000
477.137299	145.160000
477.230988	145.360000
477.324707	144.980000
477.418396	145.660000
477.512146	146.060000
477.605804	145.920000
477.699524	146.040000
477.793213	146.180000
477.886932	145.720000
477.980591	145.640000
478.074341	145.720000
478.167999	145.280000
478.261749	145.360000
478.355408	145.240000
478.449127	145.540000
478.542816	146.360000
478.636536	147.360000
478.730225	147.320000
478.823944	147.680000
478.917633	147.700000
479.011322	147.380000
479.105042	146.780000
479.198730	146.960000
479.292450	146.760000
479.386139	147.120000
479.479828	147.200000
479.573547	147.660000
479.667267	147.500000
479.760925	147.680000
479.854675	147.460000
479.948334	147.220000
480.042084	146.460000
480.135742	146.520000
480.229462	145.880000
480.323151	145.860000
480.416870	145.440000
480.510529	145.480000
480.604279	145.120000
480.697937	145.800000
480.791656	145.120000
480.885345	145.280000
480.979065	145.380000
481.072754	146.180000
481.166473	146.560000
481.260132	146.880000
481.353882	147.040000
481.447540	147.200000
481.541260	146.920000
481.635010	145.920000
481.728668	146.020000
481.822388	145.840000
481.916077	145.820000
482.009796	145.440000
482.103485	146.160000
482.197205	146.320000
482.290863	146.460000
482.384613	146.280000
482.478271	145.920000
482.571991	145.700000
482.665680	145.420000
482.759399	145.860000
482.853058	146.560000
482.946808	146.700000
483.040466	146.560000
483.134216	146.660000
483.227875	146.000000
483.321594	146.160000
483.415283	146.280000
483.509003	146.080000
483.602661	145.900000
483.696411	146.360000
483.790070	145.520000
483.883789	145.880000
483.977478	146.100000
484.071198	145.980000
484.164917	145.420000
484.258606	145.000000
484.352325	145.000000
484.445984	145.100000
484.539734	145.220000
484.633392	145.180000
484.727142	145.780000
484.820801	145.600000
484.914520	145.520000
485.008209	145.780000
485.101929	146.500000
485.195587	146.440000
485.289337	146.180000
485.382996	145.960000
485.476715	146.100000
485.570404	146.300000
485.664124	146.180000
485.757782	146.720000
485.851532	146.780000
485.945190	146.380000
486.038910	145.980000
486.132599	146.500000
486.226318	145.940000
486.319977	145.960000
486.413727	146.720000
486.507446	146.300000
486.601105	145.580000
486.694855	145.540000
486.788513	145.420000
486.882233	144.860000
486.975922	144.980000
487.069641	144.920000
487.163300	144.680000
487.257050	145.660000
487.350708	145.640000
487.444427	145.680000
487.538116	146.000000
487.631836	146.280000
487.725494	146.000000
487.819214	145.920000
487.912903	145.880000
488.006622	146.180000
488.100281	146.580000
488.194031	146.340000
488.287689	146.760000
488.381409	147.300000
488.475098	147.160000
488.568817	147.160000
488.662476	146.980000
488.756226	146.320000
488.849945	145.380000
488.943604	145.240000
489.037354	145.020000
489.131012	144.940000
489.224731	145.160000
489.318390	145.400000
489.412140	145.460000
489.505798	145.420000
489.599518	145.240000
489.693207	145.560000
489.786926	145.760000
489.880585	145.540000
489.974335	145.560000
490.067993	146.640000
490.161713	146.860000
490.255371	147.620000
490.349121	147.820000
490.442780	147.700000
490.536499	146.560000
490.630188	146.480000
490.723907	145.620000
490.817566	145.880000
490.911285	145.940000
491.004974	146.020000
491.098694	145.680000
491.192413	146.440000
491.286102	146.000000
491.379822	146.300000
491.473480	146.700000
491.567200	146.800000
491.660889	145.960000
491.754608	145.760000
491.848267	145.660000
491.941986	145.260000
492.035675	145.200000
492.129395	145.680000
492.223053	145.960000
492.316772	145.780000
492.410461	145.620000
492.504181	145.720000
492.597839	145.320000
492.691559	145.440000
492.785248	145.740000
492.878967	146.560000
492.972626	146.160000
493.066345	146.340000
493.160034	145.880000
493.253754	145.940000
493.347412	145.020000
493.441132	145.540000
493.534882	146.120000
493.628540	146.580000
493.722260	146.560000
493.815918	147.060000
493.909668	147.200000
494.003326	147.080000
494.097046	146.820000
494.190704	146.600000
494.284454	146.540000
494.378113	146.560000
494.471832	146.240000
494.565491	146.200000
494.659210	146.360000
494.752899	146.460000
494.846619	146.000000
494.940277	146.140000
495.033997	146.320000
495.127686	145.900000
495.221405	145.820000
495.315063	146.020000
495.408783	145.720000
495.502441	145.940000
495.596191	146.380000
495.689850	146.240000
495.783569	146.440000
495.877228	146.720000
495.970947	146.640000
496.064697	146.280000
496.158356	147.040000
496.252075	146.840000
496.345734	146.620000
496.439453	147.260000
496.533142	147.400000
496.626862	147.580000
496.720520	147.720000
496.814240	147.860000
496.907898	147.120000
497.001617	146.900000
497.095306	145.960000
497.189026	145.520000
497.282684	145.560000
497.376404	145.840000
497.470062	145.960000
497.563782	145.920000
497.657471	145.980000
497.751190	145.400000
497.844849	145.280000
497.938568	145.400000
498.032227	145.600000
498.125946	145.620000
498.219635	145.720000
498.313354	145.840000
498.407074	145.600000
498.500732	145.820000
498.594452	146.160000
498.688110	146.260000
498.781830	145.840000
498.875519	145.760000
498.969238	145.420000
499.062897	145.020000
499.156616	145.480000
499.250275	145.960000
499.343994	145.900000
499.437653	146.040000
499.531372	146.120000
499.625061	146.600000
499.718781	146.540000
499.812439	147.140000
499.906158	146.940000
499.999817	147.040000
500.093536	146.220000
500.187195	146.160000
500.280914	145.880000
500.374573	146.220000
500.468323	146.000000
500.561981	146.420000
500.655701	146.120000
500.749420	146.060000
500.843079	145.940000
500.936798	146.100000
501.030457	146.360000
501.124176	146.460000
501.217834	146.480000
501.311554	146.360000
501.405212	146.140000
501.498962	145.100000
501.592621	145.180000
501.686340	145.600000
501.779999	145.760000
501.873718	146.000000
501.967377	146.560000
502.061096	146.780000
502.154755	146.140000
502.248474	146.280000
502.342133	146.480000
502.435852	146.120000
502.529510	146.620000
502.623230	147.360000
502.716888	146.860000
502.810608	147.020000
502.904266	147.800000
502.997986	147.120000
503.091705	146.060000
503.185364	146.160000
503.279083	145.920000
503.372772	145.480000
503.466492	145.040000
503.560150	145.480000
503.653870	145.720000
503.747528	145.420000
503.841248	145.040000
503.934906	145.460000
504.028625	145.360000
504.122284	145.720000
504.216003	146.500000
504.309662	146.200000
504.403381	146.180000
504.497040	146.040000
504.590759	145.500000
504.684418	145.160000
504.778137	146.140000
504.871796	146.440000
504.965515	146.420000
505.059174	146.280000
505.152893	145.640000
505.246521	145.040000
505.340240	144.480000
505.433899	144.920000
505.527618	145.360000
505.621338	145.980000
505.714996	146.280000
505.808716	146.500000
505.902374	146.960000
505.996094	146.840000
506.089752	146.560000
506.183472	146.680000
506.277130	146.980000
506.370850	146.400000
506.464508	146.120000
506.558228	146.200000
506.651886	145.840000
506.745605	145.480000
506.839264	145.620000
506.932983	146.000000
507.026611	145.840000
507.120331	146.240000
507.213989	145.920000
507.307709	145.720000
507.401367	145.920000
507.495087	146.860000
507.588745	146.580000
507.682465	147.540000
507.776123	147.720000
507.869843	147.200000
507.963531	146.440000
508.057190	146.680000
508.150909	145.820000
508.244568	145.680000
508.338287	145.060000
508.431946	144.820000
508.525665	144.660000
508.619324	144.720000
508.713013	145.140000
508.806671	146.300000
508.900391	147.240000
508.994049	147.120000
509.087769	147.060000
509.181427	147.080000
509.275146	146.560000
509.368774	145.460000
509.462494	145.400000
509.556152	145.380000
509.649872	145.280000
509.743530	145.340000
509.837250	145.880000
509.930878	145.960000
510.024597	145.920000
510.118256	145.840000
510.211975	145.880000
510.305695	145.600000
510.399353	145.920000
510.493042	146.740000
510.586700	146.520000
510.680420	147.060000
510.774078	146.980000
510.867798	147.160000
510.961426	146.240000
511.055145	146.360000
511.148804	145.760000
511.242523	146.300000
511.336151	145.880000
511.429871	146.420000
511.523529	146.360000
511.617249	146.300000
511.710876	145.860000
511.804596	145.860000
511.898254	145.420000
511.991974	145.620000
512.085632	145.600000
512.179321	145.940000
512.272949	146.100000
512.366699	146.760000
512.460327	146.280000
512.554077	147.280000
512.647766	147.320000
512.741394	147.100000
512.835144	147.500000
512.928772	147.620000
513.022461	146.800000
513.116150	146.720000
513.209839	147.120000
513.303467	146.040000
513.397217	145.740000
513.490845	145.880000
513.584595	145.240000
513.678223	144.940000
513.771912	144.580000
513.865601	145.020000
513.959290	144.680000
514.052917	145.100000
514.146667	145.660000
514.240295	146.580000
514.333984	146.840000
514.427673	147.020000
514.521362	147.180000
514.614990	146.360000
514.708740	146.280000
514.802368	146.220000
514.896057	146.320000
514.989746	146.640000
515.083435	146.820000
515.177124	146.840000
515.270752	146.240000
515.364502	146.260000
515.458130	146.240000
515.551819	146.080000
515.645508	145.780000
515.739197	146.220000
515.832825	146.120000
515.926575	145.620000
516.020203	145.820000
516.113892	146.560000
516.207520	146.380000
516.301270	146.540000
516.394897	146.860000
516.488586	147.340000
516.582275	146.940000
516.675964	146.700000
516.769592	146.260000
516.863281	146.760000
516.956970	146.900000
517.050659	146.680000
517.144287	146.760000
517.238037	147.120000
517.331665	146.240000
517.425354	145.760000
517.519043	145.780000
517.612732	146.380000
517.706421	146.240000
517.800049	145.960000
517.893738	145.600000
517.987427	145.440000
518.081116	144.820000
518.174744	144.380000
518.268433	145.020000
518.362122	145.940000
518.455811	146.200000
518.549438	147.100000
518.643127	148.400000
518.736816	148.520000
518.830505	147.780000
518.924133	147.400000
519.017822	147.360000
519.111511	146.400000
519.205200	146.420000
519.298828	146.580000
519.392517	146.600000
519.486206	146.440000
519.579895	146.660000
519.673523	146.200000
519.767212	145.920000
519.860901	146.580000
519.954590	146.260000
520.048279	145.900000
520.141907	146.220000
520.235596	147.260000
520.329224	146.780000
520.422974	146.800000
520.516602	147.000000
520.610291	146.380000
520.703918	145.860000
520.797607	145.720000
520.891296	145.580000
520.984985	145.940000
521.078613	146.940000
521.172302	146.460000
521.265930	147.360000
521.359680	148.000000
521.453308	147.620000
521.546997	147.200000
521.640625	147.400000
521.734314	146.520000
521.827942	146.440000
521.921692	146.780000
522.015320	146.680000
522.109009	146.720000
522.202698	146.780000
522.296326	146.440000
522.390015	146.360000
522.483704	146.460000
522.577393	146.120000
522.671021	146.240000
522.764709	146.100000
522.858337	146.420000
522.952026	146.480000
523.045654	147.200000
523.139404	147.640000
523.233032	147.760000
523.326721	147.720000
523.420349	147.480000
523.514038	146.820000
523.607666	146.960000
523.701355	146.520000
523.795044	146.300000
523.888733	146.480000
523.982361	147.000000
524.076050	146.380000
524.169678	146.960000
524.263367	146.700000
524.356995	146.440000
524.450684	146.120000
524.544373	146.220000
524.638062	146.160000
524.731750	146.360000
524.825378	146.420000
524.919067	146.000000
525.012695	145.920000
525.106384	145.660000
525.200012	145.860000
525.293701	145.760000
525.387329	146.180000
525.481018	146.800000
525.574646	147.000000
525.668396	146.660000
525.762024	147.200000
525.855713	147.280000
525.949341	146.220000
526.043030	146.400000
526.136658	146.320000
526.230347	145.960000
526.323975	145.780000
526.417664	146.100000
526.511292	145.720000
526.604980	146.180000
526.698608	146.040000
526.792297	146.340000
526.885925	146.660000
526.979614	146.980000
527.073303	146.780000
527.166931	146.820000
527.260620	146.900000
527.354309	147.020000
527.447998	146.580000
527.541626	146.260000
527.635315	146.280000
527.728943	146.340000
527.822632	146.280000
527.916260	146.540000
528.009949	146.960000
528.103577	146.720000
528.197266	145.960000
528.290894	146.040000
528.384583	145.800000
528.478210	145.600000
528.571899	146.120000
528.665527	146.780000
528.759216	146.920000
528.852844	147.660000
528.946533	147.680000
529.040161	147.440000
529.133850	146.980000
529.227478	146.800000
529.321167	146.660000
529.414856	146.780000
529.508484	147.120000
529.602173	147.000000
529.695801	146.720000
529.789490	146.480000
529.883057	145.980000
529.976746	145.800000
530.070374	146.380000
530.164062	146.360000
530.257690	146.420000
530.351379	146.920000
530.445007	146.520000
530.538696	146.040000
530.632324	146.400000
530.726013	146.500000
530.819641	146.380000
530.913330	146.540000
531.006958	146.480000
531.100647	146.420000
531.194275	146.140000
531.287964	146.000000
531.381592	146.080000
531.475220	146.360000
531.568848	146.140000
531.662537	145.920000
531.756226	146.260000
531.849854	146.180000
531.943542	146.060000
532.037170	145.620000
532.130859	146.340000
532.224487	146.060000
532.318176	145.760000
532.411804	146.280000
532.505432	146.940000
532.599060	146.360000
532.692749	146.280000
532.786377	146.900000
532.880066	146.480000
532.973694	146.000000
533.067383	146.020000
533.161011	145.940000
533.254639	145.340000
533.348267	145.060000
533.441956	145.680000
533.535583	145.360000
533.629272	145.760000
533.722900	145.780000
533.816589	145.860000
533.910156	145.760000
534.003845	145.580000
534.097534	145.540000
534.191162	145.980000
534.284851	146.200000
534.378479	145.620000
534.472107	146.120000
534.565735	145.600000
534.659424	145.960000
534.753052	146.140000
534.846741	146.240000
534.940369	146.620000
535.033997	146.720000
535.127625	146.360000
535.221313	146.360000
535.314941	146.160000
535.408630	145.460000
535.502197	145.860000
535.595886	145.860000
535.689514	145.700000
535.783203	146.360000
535.876831	147.140000
535.970459	147.040000
536.064087	146.640000
536.157776	146.360000
536.251404	146.440000
536.345093	146.000000
536.438721	146.100000
536.532349	146.580000
536.626038	146.500000
536.719666	146.720000
536.813293	146.280000
536.906921	146.140000
537.000610	146.180000
537.094238	146.320000
537.187866	145.980000
537.281494	146.120000
537.375183	146.420000
537.468811	145.980000
537.562439	146.140000
537.656067	146.060000
537.749756	146.260000
537.843384	146.380000
537.937012	146.720000
538.030640	146.280000
538.124329	146.240000
538.217896	146.520000
538.311584	146.360000
538.405212	146.140000
538.498901	146.580000
538.592468	147.060000
538.686157	146.520000
538.779785	145.580000
538.873413	145.520000
538.967102	145.300000
539.060730	144.820000
539.154358	145.300000
539.247986	145.960000
539.341675	146.160000
539.435242	146.300000
539.528931	146.300000
539.622559	145.880000
539.716187	146.440000
539.809814	146.240000
539.903503	146.220000
539.997070	145.980000
540.090759	146.320000
540.184387	145.980000
540.278015	146.560000
540.371643	146.820000
540.465332	147.220000
540.558899	146.620000
540.652588	146.440000
540.746216	146.080000
540.839844	146.260000
540.933472	145.980000
541.027100	146.260000
541.120728	146.060000
541.214417	146.260000
541.308044	146.220000
541.401672	146.060000
541.495300	146.140000
541.588928	146.260000
541.682617	146.000000
541.776184	145.640000
541.869873	146.220000
541.963440	146.360000
542.057129	146.740000
542.150757	146.860000
542.244385	146.520000
542.338013	146.020000
542.431641	145.820000
542.525269	145.560000
542.618958	145.960000
542.712524	146.520000
542.806213	146.320000
542.899780	146.520000
542.993469	146.340000
543.087036	145.740000
543.180725	145.380000
543.274292	145.800000
543.367981	145.780000
543.461548	146.280000
543.555237	146.660000
543.648926	147.040000
543.742493	147.500000
543.836182	147.700000
543.929749	147.340000
544.023437	146.940000
544.117004	147.020000
544.210693	146.960000
544.304260	146.740000
544.397949	146.640000
544.491516	147.000000
544.585205	146.760000
544.678772	146.240000
544.772461	146.600000
544.866028	146.380000
544.959717	146.580000
545.053284	146.580000
545.146973	146.980000
545.240540	146.840000
545.334229	147.600000
545.427795	147.560000
545.521423	147.700000
545.615051	147.580000
545.708679	148.060000
545.802307	148.000000
545.895935	148.120000
545.989624	148.700000
546.083191	148.240000
546.176880	147.760000
546.270447	147.160000
546.364136	147.240000
546.457703	146.580000
546.551331	146.920000
546.644958	147.040000
546.738586	147.340000
546.832214	146.840000
546.925842	146.620000
547.019409	146.680000
547.113098	146.540000
547.206665	146.500000
547.300354	146.600000
547.393921	146.720000
547.487549	146.880000
547.581177	146.500000
547.674805	146.360000
547.768433	145.740000
547.862061	145.900000
547.955627	145.160000
548.049316	145.860000
548.142883	146.040000
548.236572	146.660000
548.330139	146.840000
548.423767	147.140000
548.517456	146.760000
548.611023	146.860000
548.704651	146.140000
548.798279	146.000000
548.891907	146.600000
548.985474	146.400000
549.079163	146.460000
549.172729	146.560000
549.266357	145.980000
549.359985	145.340000
549.453613	145.320000
549.547180	145.160000
549.640869	145.740000
549.734436	145.900000
549.828064	146.360000
549.921631	146.240000
550.015320	145.740000
550.108887	145.780000
550.202515	145.980000
550.296143	145.980000
550.389771	146.280000
550.483337	146.660000
550.576965	146.580000
550.670593	146.780000
550.764221	146.460000
550.857849	146.380000
550.951477	146.040000
551.045105	145.840000
551.138672	145.600000
551.232300	145.360000
551.325928	145.640000
551.419556	146.200000
551.513123	146.000000
551.606750	145.900000
551.700378	146.020000
551.794006	145.700000
551.887573	145.400000
551.981201	146.080000
552.074768	146.040000
552.168457	146.060000
552.262024	146.880000
552.355652	146.700000
552.449219	146.820000
552.542847	147.260000
552.636475	147.040000
552.730103	145.940000
552.823669	146.040000
552.917297	145.580000
553.010864	145.320000
553.104553	145.680000
553.198181	145.740000
553.291748	146.300000
553.385376	146.260000
553.478943	146.080000
553.572571	146.000000
553.666199	146.520000
553.759827	145.940000
553.853394	145.700000
553.947021	145.720000
554.040588	145.820000
554.134216	145.520000
554.227783	146.180000
554.321411	147.000000
554.415039	146.760000
554.508667	146.740000
554.602234	147.320000
554.695862	146.740000
554.789429	146.520000
554.883057	146.960000
554.976624	147.040000
555.070251	146.660000
555.163818	146.580000
555.257507	146.400000
555.351074	146.260000
555.444702	147.080000
555.538330	146.760000
555.631897	147.420000
555.725525	147.280000
555.819092	147.120000
555.912720	146.040000
556.006287	146.400000
556.099915	145.740000
556.193481	146.020000
556.287109	146.220000
556.380676	146.280000
556.474304	146.180000
556.567871	146.680000
556.661499	146.060000
556.755066	146.200000
556.848694	146.540000
556.942261	146.720000
557.035889	146.840000
557.129517	147.260000
557.223145	147.420000
557.316711	147.400000
557.410339	147.340000
557.503906	146.840000
557.597473	147.140000
557.691040	146.860000
557.784668	147.040000
557.878296	146.980000
557.971863	147.060000
558.065491	146.960000
558.159058	147.000000
558.252686	147.180000
558.346252	147.760000
558.439880	147.720000
558.533447	147.180000
558.627075	146.700000
558.720642	145.920000
558.814270	145.340000
558.907837	145.420000
559.001465	145.320000
559.095032	146.160000
559.188660	146.560000
559.282227	146.060000
559.375854	146.280000
559.469360	146.180000
559.562988	146.200000
559.656555	146.000000
559.750183	146.600000
559.843750	146.820000
559.937378	146.960000
560.030945	146.940000
560.124573	0.000000
560.218140	0.000000
560.311707	0.000000
560.405334	0.000000
560.498901	0.000000
560.592529	0.000000
560.686096	0.000000
560.779724	0.000000
560.873291	0.000000
560.966858	0.000000
561.060425	0.000000
561.154053	0.000000
561.247620	0.000000
561.341248	0.000000
561.434814	0.000000
561.528381	0.000000
561.621948	0.000000
561.715576	0.000000
561.809143	0.000000
561.902771	0.000000
561.996277	0.000000
562.089905	0.000000
562.183472	0.000000
562.277100	0.000000
