Model Number: SPM-002-B   
Serial Number: 70087108
Firmware Version: 004.15.4
Exposure Time: 100000.000000us
Data Taken on: 11-12-2020 19:28:58.705
Wavelength	Amplitude
221.570786	0.000000
221.663406	0.000000
221.756027	0.000000
221.848648	0.000000
221.941269	0.000000
222.033905	0.000000
222.126526	0.000000
222.219162	0.000000
222.311798	0.000000
222.404419	0.000000
222.497055	0.000000
222.589676	0.000000
222.682312	0.000000
222.774933	0.000000
222.867569	0.000000
222.960205	0.000000
223.052841	0.000000
223.145462	0.000000
223.238098	0.000000
223.330734	0.000000
223.423386	0.000000
223.516022	0.000000
223.608658	0.000000
223.701309	0.000000
223.793945	0.000000
223.886581	0.000000
223.979218	0.000000
224.071869	0.000000
224.164505	0.000000
224.257156	0.000000
224.349792	0.000000
224.442444	0.000000
224.535095	0.000000
224.627747	0.000000
224.720398	0.000000
224.813034	0.000000
224.905685	0.000000
224.998337	145.760000
225.090988	145.780000
225.183640	146.080000
225.276291	146.080000
225.368942	146.300000
225.461594	146.480000
225.554245	146.720000
225.646912	146.640000
225.739578	147.260000
225.832230	147.520000
225.924896	146.720000
226.017548	146.820000
226.110199	147.400000
226.202866	146.600000
226.295532	146.500000
226.388184	146.720000
226.480850	145.780000
226.573517	145.260000
226.666168	145.500000
226.758835	145.860000
226.851501	146.640000
226.944183	147.300000
227.036850	146.900000
227.129517	147.100000
227.222183	146.860000
227.314850	146.460000
227.407516	146.480000
227.500198	147.440000
227.592865	146.900000
227.685532	146.880000
227.778214	146.580000
227.870880	146.940000
227.963562	147.040000
228.056229	147.600000
228.148926	147.340000
228.241592	148.260000
228.334274	147.900000
228.426956	147.520000
228.519638	147.560000
228.612305	147.300000
228.704987	147.040000
228.797668	147.120000
228.890350	146.840000
228.983032	146.320000
229.075714	147.020000
229.168396	146.460000
229.261108	145.860000
229.353790	146.120000
229.446472	146.220000
229.539169	145.840000
229.631851	145.720000
229.724533	146.080000
229.817230	146.060000
229.909912	146.920000
230.002609	147.040000
230.095306	147.080000
230.187988	147.200000
230.280685	147.100000
230.373383	145.900000
230.466095	145.820000
230.558792	146.120000
230.651474	146.100000
230.744171	145.860000
230.836868	146.040000
230.929581	146.660000
231.022278	146.340000
231.114975	146.320000
231.207672	146.240000
231.300369	146.880000
231.393082	146.820000
231.485779	147.020000
231.578506	146.820000
231.671204	147.020000
231.763916	146.820000
231.856613	146.560000
231.949326	146.740000
232.042023	146.620000
232.134735	146.340000
232.227448	146.000000
232.320160	146.140000
232.412872	146.080000
232.505585	147.320000
232.598297	148.020000
232.691010	148.000000
232.783722	147.500000
232.876450	147.900000
232.969162	147.120000
233.061874	146.460000
233.154587	146.200000
233.247314	146.480000
233.340027	145.880000
233.432739	146.020000
233.525467	146.000000
233.618179	146.640000
233.710907	146.360000
233.803635	146.920000
233.896347	146.760000
233.989090	147.780000
234.081818	147.380000
234.174545	147.420000
234.267258	146.620000
234.359985	146.920000
234.452713	146.580000
234.545441	146.580000
234.638168	146.580000
234.730896	147.460000
234.823639	147.100000
234.916367	147.120000
235.009094	147.300000
235.101822	147.240000
235.194580	146.740000
235.287308	146.620000
235.380051	146.120000
235.472778	146.240000
235.565521	146.720000
235.658249	146.460000
235.750992	146.800000
235.843719	146.740000
235.936462	146.900000
236.029205	146.620000
236.121948	146.620000
236.214691	146.640000
236.307449	147.400000
236.400192	146.860000
236.492935	146.740000
236.585678	146.860000
236.678421	146.820000
236.771164	146.400000
236.863907	147.200000
236.956665	147.220000
237.049408	148.860000
237.142151	148.240000
237.234909	148.780000
237.327652	148.080000
237.420410	147.720000
237.513153	146.700000
237.605927	147.100000
237.698669	146.740000
237.791428	146.500000
237.884186	147.080000
237.976944	146.400000
238.069702	146.580000
238.162445	146.200000
238.255203	146.400000
238.347961	146.820000
238.440720	146.880000
238.533478	146.740000
238.626266	146.440000
238.719025	146.540000
238.811783	146.260000
238.904541	146.260000
238.997314	146.100000
239.090073	145.900000
239.182831	146.180000
239.275604	146.820000
239.368362	146.660000
239.461136	147.080000
239.553909	147.440000
239.646667	147.240000
239.739441	146.520000
239.832214	146.980000
239.925003	146.840000
240.017761	147.300000
240.110535	147.820000
240.203308	147.560000
240.296082	147.240000
240.388855	146.940000
240.481628	147.000000
240.574417	146.880000
240.667191	147.080000
240.759964	146.840000
240.852737	146.980000
240.945526	146.380000
241.038315	146.320000
241.131088	146.040000
241.223877	146.360000
241.316650	146.020000
241.409439	146.520000
241.502228	145.880000
241.595001	146.460000
241.687790	146.480000
241.780579	146.720000
241.873367	146.700000
241.966141	147.120000
242.058929	146.480000
242.151718	146.300000
242.244507	146.580000
242.337311	145.880000
242.430099	146.380000
242.522903	146.480000
242.615692	146.420000
242.708481	146.460000
242.801270	147.440000
242.894073	147.240000
242.986862	147.300000
243.079651	147.920000
243.172455	147.680000
243.265244	147.340000
243.358063	146.580000
243.450867	146.860000
243.543655	146.340000
243.636459	146.340000
243.729263	146.380000
243.822067	147.180000
243.914856	147.540000
244.007660	147.880000
244.100464	147.860000
244.193268	147.260000
244.286072	146.840000
244.378876	145.880000
244.471680	145.520000
244.564499	145.740000
244.657318	146.820000
244.750122	146.880000
244.842926	146.560000
244.935745	147.120000
245.028549	146.860000
245.121368	146.160000
245.214172	146.200000
245.306992	146.900000
245.399796	146.400000
245.492615	146.420000
245.585434	146.300000
245.678253	146.440000
245.771072	146.400000
245.863892	146.680000
245.956711	146.800000
246.049530	146.540000
246.142349	146.100000
246.235168	146.340000
246.327988	146.840000
246.420807	146.720000
246.513626	147.160000
246.606445	147.060000
246.699280	146.860000
246.792099	146.420000
246.884918	146.260000
246.977753	145.940000
247.070587	145.920000
247.163422	145.900000
247.256241	146.020000
247.349075	146.600000
247.441895	146.860000
247.534729	147.200000
247.627563	147.100000
247.720383	147.380000
247.813217	147.140000
247.906052	147.020000
247.998886	146.920000
248.091736	147.040000
248.184570	146.500000
248.277405	146.600000
248.370239	147.460000
248.463074	148.180000
248.555908	148.420000
248.648743	148.400000
248.741592	148.280000
248.834427	147.480000
248.927261	146.600000
249.020111	146.720000
249.112946	147.180000
249.205795	146.680000
249.298630	146.700000
249.391495	146.800000
249.484344	146.380000
249.577179	146.220000
249.670029	146.740000
249.762878	147.180000
249.855728	147.320000
249.948563	147.240000
250.041412	146.640000
250.134262	146.820000
250.227112	146.540000
250.319962	146.700000
250.412827	146.760000
250.505692	146.580000
250.598541	146.180000
250.691391	146.120000
250.784241	146.140000
250.877106	146.520000
250.969955	146.480000
251.062805	147.080000
251.155670	147.720000
251.248520	147.040000
251.341385	147.180000
251.434235	147.540000
251.527100	146.960000
251.619965	146.560000
251.712814	147.800000
251.805695	147.380000
251.898560	147.500000
251.991425	147.900000
252.084290	147.780000
252.177155	146.780000
252.270020	146.580000
252.362885	146.800000
252.455750	146.840000
252.548615	146.460000
252.641479	146.560000
252.734360	146.680000
252.827240	146.460000
252.920105	146.340000
253.012970	146.540000
253.105850	146.700000
253.198715	146.340000
253.291595	146.460000
253.384460	146.060000
253.477341	145.980000
253.570221	145.940000
253.663086	145.960000
253.755966	146.000000
253.848846	146.160000
253.941727	146.440000
254.034592	146.600000
254.127472	146.340000
254.220367	146.460000
254.313248	146.800000
254.406128	146.300000
254.499008	146.300000
254.591904	147.520000
254.684784	148.180000
254.777664	147.860000
254.870544	147.560000
254.963440	147.380000
255.056335	146.680000
255.149216	145.700000
255.242111	146.200000
255.334991	147.080000
255.427887	147.220000
255.520767	147.480000
255.613663	147.640000
255.706558	146.820000
255.799438	146.500000
255.892334	145.960000
255.985229	145.720000
256.078125	145.800000
256.171021	146.300000
256.263916	146.720000
256.356812	147.400000
256.449707	147.520000
256.542603	147.280000
256.635498	147.480000
256.728394	147.220000
256.821289	146.780000
256.914215	146.860000
257.007080	147.100000
257.100006	146.600000
257.192932	146.800000
257.285828	147.040000
257.378723	146.820000
257.471619	146.460000
257.564545	146.520000
257.657440	146.460000
257.750336	146.820000
257.843262	146.720000
257.936157	147.820000
258.029053	148.360000
258.121979	148.020000
258.214874	147.460000
258.307800	147.400000
258.400696	146.140000
258.493622	145.740000
258.586517	145.360000
258.679443	145.720000
258.772339	145.600000
258.865265	145.760000
258.958160	145.640000
259.051086	146.500000
259.144012	146.220000
259.236938	146.960000
259.329834	147.260000
259.422791	146.800000
259.515717	146.380000
259.608612	146.340000
259.701538	146.320000
259.794464	146.120000
259.887390	146.240000
259.980316	145.840000
260.073212	145.600000
260.166138	144.580000
260.259064	144.960000
260.351990	145.700000
260.444916	146.100000
260.537842	146.440000
260.630768	147.460000
260.723694	147.080000
260.816620	146.680000
260.909546	146.800000
261.002472	146.420000
261.095398	145.760000
261.188354	145.620000
261.281281	145.280000
261.374207	145.000000
261.467133	146.060000
261.560089	146.240000
261.653015	146.140000
261.745972	146.940000
261.838867	147.480000
261.931824	147.080000
262.024780	146.680000
262.117706	147.180000
262.210663	147.260000
262.303589	146.960000
262.396515	146.860000
262.489471	147.920000
262.582397	147.480000
262.675354	146.600000
262.768280	146.480000
262.861237	146.440000
262.954163	145.940000
263.047119	146.180000
263.140045	146.520000
263.233002	146.640000
263.325958	146.620000
263.418884	146.500000
263.511841	146.760000
263.604797	146.620000
263.697723	146.400000
263.790680	146.280000
263.883636	146.840000
263.976593	146.360000
264.069550	146.540000
264.162476	146.520000
264.255463	146.440000
264.348419	145.660000
264.441376	146.080000
264.534332	145.640000
264.627289	146.040000
264.720245	146.840000
264.813202	146.920000
264.906158	147.000000
264.999115	147.800000
265.092072	147.520000
265.185028	147.600000
265.277985	147.660000
265.370941	147.300000
265.463898	146.600000
265.556854	146.360000
265.649811	145.380000
265.742798	145.540000
265.835754	145.500000
265.928711	146.180000
266.021667	146.420000
266.114655	146.760000
266.207611	146.540000
266.300568	146.260000
266.393585	145.600000
266.486511	145.860000
266.579498	145.560000
266.672485	145.940000
266.765442	146.120000
266.858429	146.680000
266.951385	146.420000
267.044342	146.420000
267.137329	146.060000
267.230316	146.180000
267.323273	145.660000
267.416260	146.020000
267.509216	146.000000
267.602203	146.000000
267.695160	146.580000
267.788147	146.720000
267.881134	145.920000
267.974091	146.280000
268.067078	146.200000
268.160065	145.920000
268.253052	145.740000
268.346008	146.060000
268.438995	145.660000
268.531982	145.940000
268.624969	145.520000
268.717987	146.100000
268.810944	146.240000
268.903961	146.320000
268.996948	145.900000
269.089905	146.660000
269.182892	146.620000
269.275879	146.640000
269.368866	146.460000
269.461853	146.620000
269.554871	146.400000
269.647858	146.300000
269.740845	146.540000
269.833832	147.060000
269.926819	146.980000
270.019806	146.400000
270.112793	145.980000
270.205811	145.820000
270.298798	145.240000
270.391785	146.000000
270.484772	145.820000
270.577789	146.020000
270.670776	145.760000
270.763763	145.940000
270.856750	145.680000
270.949768	145.840000
271.042786	145.880000
271.135773	145.760000
271.228790	146.080000
271.321808	145.520000
271.414795	145.360000
271.507782	145.260000
271.600800	145.000000
271.693817	144.920000
271.786804	145.560000
271.879822	145.700000
271.972809	145.840000
272.065826	146.680000
272.158844	146.080000
272.251831	146.440000
272.344849	146.760000
272.437866	146.540000
272.530853	146.480000
272.623871	147.040000
272.716888	145.680000
272.809906	145.820000
272.902893	145.800000
272.995911	145.340000
273.088928	145.340000
273.181946	146.220000
273.274963	146.000000
273.367981	145.820000
273.460999	146.040000
273.554047	146.300000
273.647003	146.540000
273.740051	146.340000
273.833069	146.800000
273.926086	146.720000
274.019135	146.320000
274.112152	145.880000
274.205170	146.120000
274.298187	146.100000
274.391205	145.660000
274.484222	145.700000
274.577240	145.540000
274.670258	145.360000
274.763306	144.940000
274.856323	145.540000
274.949341	145.740000
275.042358	146.380000
275.135406	146.440000
275.228424	146.780000
275.321442	146.840000
275.414490	146.340000
275.507507	146.520000
275.600525	147.040000
275.693573	146.780000
275.786591	146.260000
275.879669	146.820000
275.972656	145.900000
276.065735	145.600000
276.158752	146.320000
276.251801	147.020000
276.344818	146.780000
276.437866	147.380000
276.530884	146.900000
276.623932	145.900000
276.716980	145.740000
276.809998	145.800000
276.903046	145.440000
276.996094	146.260000
277.089111	147.140000
277.182159	147.700000
277.275208	147.380000
277.368256	147.640000
277.461304	147.220000
277.554321	146.120000
277.647369	145.580000
277.740417	145.580000
277.833466	145.460000
277.926514	145.240000
278.019562	146.220000
278.112610	145.860000
278.205688	146.240000
278.298706	146.240000
278.391785	145.980000
278.484833	145.520000
278.577881	145.480000
278.670929	145.800000
278.763977	146.020000
278.857025	146.700000
278.950073	146.880000
279.043121	146.900000
279.136169	146.560000
279.229248	146.000000
279.322296	145.940000
279.415344	145.580000
279.508392	145.480000
279.601440	145.360000
279.694519	145.640000
279.787567	145.540000
279.880615	145.800000
279.973694	145.880000
280.066742	145.980000
280.159790	146.080000
280.252869	145.720000
280.345917	145.800000
280.438995	145.740000
280.532074	145.480000
280.625122	145.660000
280.718201	146.420000
280.811279	146.440000
280.904327	146.800000
280.997406	147.140000
281.090454	146.820000
281.183533	146.000000
281.276581	145.900000
281.369659	145.100000
281.462738	145.000000
281.555786	145.480000
281.648865	145.940000
281.741943	145.740000
281.835022	146.820000
281.928070	146.640000
282.021149	146.140000
282.114227	145.820000
282.207306	146.000000
282.300385	146.020000
282.393433	146.260000
282.486511	146.380000
282.579590	146.980000
282.672668	147.180000
282.765747	146.640000
282.858856	146.280000
282.951904	146.480000
283.045013	146.600000
283.138062	146.860000
283.231171	147.100000
283.324249	147.600000
283.417328	147.480000
283.510406	146.740000
283.603485	146.480000
283.696564	146.140000
283.789642	146.160000
283.882751	145.920000
283.975830	146.840000
284.068909	146.640000
284.161987	147.300000
284.255066	146.580000
284.348175	146.800000
284.441254	146.220000
284.534332	146.540000
284.627441	146.020000
284.720520	146.120000
284.813599	146.080000
284.906708	146.280000
284.999786	145.620000
285.092896	145.400000
285.185974	146.420000
285.279053	146.160000
285.372192	146.140000
285.465240	146.820000
285.558380	146.780000
285.651459	146.100000
285.744568	146.980000
285.837677	146.620000
285.930756	146.500000
286.023865	146.700000
286.116943	146.740000
286.210052	146.260000
286.303162	146.520000
286.396240	146.420000
286.489349	146.520000
286.582458	146.580000
286.675568	146.360000
286.768646	146.080000
286.861755	146.500000
286.954865	147.220000
287.047974	146.700000
287.141083	146.660000
287.234161	146.680000
287.327271	146.240000
287.420380	146.140000
287.513519	146.180000
287.606598	146.320000
287.699738	146.880000
287.792816	146.700000
287.885956	146.220000
287.979034	146.440000
288.072174	146.500000
288.165283	145.820000
288.258392	146.180000
288.351501	145.740000
288.444611	146.060000
288.537720	146.160000
288.630859	146.340000
288.723969	146.360000
288.817078	147.040000
288.910187	147.100000
289.003296	146.680000
289.096436	146.180000
289.189545	145.980000
289.282654	145.620000
289.375763	145.800000
289.468903	146.220000
289.562012	146.920000
289.655121	147.000000
289.748260	146.960000
289.841400	146.940000
289.934509	146.840000
290.027649	146.880000
290.120728	146.920000
290.213898	147.120000
290.306976	146.720000
290.400146	146.860000
290.493256	146.500000
290.586395	146.340000
290.679535	146.440000
290.772644	146.420000
290.865784	145.960000
290.958893	145.880000
291.052032	145.820000
291.145172	145.700000
291.238281	145.300000
291.331421	145.260000
291.424561	145.780000
291.517670	145.440000
291.610809	145.580000
291.703949	145.700000
291.797089	145.840000
291.890228	145.300000
291.983337	145.560000
292.076477	145.340000
292.169617	145.800000
292.262756	145.900000
292.355927	145.940000
292.449036	145.740000
292.542206	146.060000
292.635315	146.260000
292.728485	146.560000
292.821625	146.460000
292.914764	147.520000
293.007904	147.560000
293.101044	147.200000
293.194183	146.920000
293.287323	147.200000
293.380463	146.680000
293.473602	146.320000
293.566742	146.640000
293.659882	146.920000
293.753021	147.040000
293.846191	147.140000
293.939331	146.680000
294.032471	146.460000
294.125610	146.000000
294.218781	146.460000
294.311920	146.660000
294.405060	147.060000
294.498230	147.140000
294.591370	147.480000
294.684540	146.660000
294.777679	145.920000
294.870850	146.100000
294.963959	145.860000
295.057159	145.480000
295.150299	145.760000
295.243469	145.940000
295.336609	145.740000
295.429779	145.740000
295.522919	146.100000
295.616089	146.200000
295.709229	146.820000
295.802399	146.680000
295.895569	146.500000
295.988708	146.260000
296.081879	146.380000
296.175018	145.480000
296.268188	145.300000
296.361359	145.860000
296.454529	145.920000
296.547668	145.600000
296.640839	146.280000
296.734009	146.420000
296.827179	146.040000
296.920319	146.360000
297.013519	146.260000
297.106659	146.320000
297.199860	146.240000
297.292999	146.160000
297.386200	145.780000
297.479309	145.520000
297.572510	145.220000
297.665680	145.180000
297.758850	145.340000
297.852020	145.460000
297.945190	145.460000
298.038361	144.940000
298.131531	145.900000
298.224701	145.660000
298.317871	145.280000
298.411072	144.980000
298.504242	145.100000
298.597412	144.620000
298.690582	144.960000
298.783752	145.380000
298.876923	146.260000
298.970093	146.620000
299.063293	146.860000
299.156464	147.120000
299.249634	147.300000
299.342834	147.100000
299.436005	147.120000
299.529205	146.860000
299.622345	146.700000
299.715576	146.020000
299.808716	146.140000
299.901917	146.120000
299.995117	146.220000
300.088287	146.460000
300.181488	146.400000
300.274658	146.140000
300.367828	145.980000
300.461029	145.940000
300.554199	146.180000
300.647400	146.580000
300.740601	147.060000
300.833771	147.180000
300.926971	147.320000
301.020142	146.680000
301.113342	146.620000
301.206512	146.300000
301.299713	146.540000
301.392914	146.300000
301.486084	146.580000
301.579285	146.520000
301.672516	146.920000
301.765686	146.740000
301.858887	146.980000
301.952057	146.760000
302.045288	146.660000
302.138458	146.240000
302.231659	146.020000
302.324860	145.660000
302.418060	145.440000
302.511261	145.500000
302.604462	145.700000
302.697662	145.520000
302.790863	145.540000
302.884064	145.460000
302.977264	145.440000
303.070465	145.500000
303.163666	146.260000
303.256866	146.400000
303.350067	146.780000
303.443268	147.060000
303.536469	147.280000
303.629669	146.580000
303.722870	146.900000
303.816071	146.300000
303.909271	146.320000
304.002472	145.480000
304.095673	145.420000
304.188934	144.460000
304.282104	145.500000
304.375336	145.360000
304.468506	145.420000
304.561768	145.700000
304.654968	146.380000
304.748169	145.880000
304.841370	145.580000
304.934601	146.160000
305.027802	145.980000
305.121002	145.900000
305.214233	145.820000
305.307434	146.020000
305.400665	146.340000
305.493866	146.320000
305.587097	146.260000
305.680298	146.180000
305.773499	146.560000
305.866730	146.220000
305.959930	146.760000
306.053162	147.220000
306.146393	146.860000
306.239594	146.140000
306.332825	145.940000
306.426025	145.920000
306.519287	145.200000
306.612488	145.560000
306.705719	145.840000
306.798920	146.080000
306.892181	145.620000
306.985352	145.680000
307.078613	145.400000
307.171844	146.040000
307.265045	145.680000
307.358276	145.660000
307.451508	146.220000
307.544739	146.820000
307.637970	146.120000
307.731201	145.960000
307.824402	146.480000
307.917633	146.440000
308.010864	146.460000
308.104095	146.900000
308.197327	147.140000
308.290558	147.080000
308.383789	146.660000
308.477020	146.260000
308.570251	145.620000
308.663483	145.260000
308.756714	145.020000
308.849976	145.280000
308.943176	145.980000
309.036438	146.140000
309.129639	146.200000
309.222900	146.100000
309.316101	146.220000
309.409393	145.620000
309.502625	145.320000
309.595856	145.260000
309.689087	145.360000
309.782318	145.100000
309.875580	145.000000
309.968811	145.580000
310.062042	145.720000
310.155273	145.680000
310.248535	146.180000
310.341766	146.120000
310.434998	145.940000
310.528259	145.720000
310.621490	146.100000
310.714722	145.200000
310.807983	145.440000
310.901215	145.540000
310.994476	145.960000
311.087708	145.640000
311.181000	145.880000
311.274200	145.580000
311.367462	145.560000
311.460693	145.160000
311.553986	145.700000
311.647186	146.000000
311.740479	146.780000
311.833710	146.320000
311.926971	146.440000
312.020203	145.520000
312.113464	145.380000
312.206726	144.860000
312.299957	145.520000
312.393219	146.120000
312.486481	146.420000
312.579712	146.540000
312.672974	146.420000
312.766235	146.140000
312.859497	145.680000
312.952759	145.780000
313.045990	146.460000
313.139252	146.040000
313.232513	146.280000
313.325775	146.540000
313.419037	146.320000
313.512299	145.560000
313.605530	146.280000
313.698822	146.460000
313.792053	146.660000
313.885345	146.600000
313.978577	146.700000
314.071869	146.200000
314.165131	146.040000
314.258392	146.060000
314.351654	146.400000
314.444916	145.400000
314.538177	146.400000
314.631439	146.680000
314.724701	146.380000
314.817993	146.360000
314.911255	147.180000
315.004517	146.220000
315.097778	145.940000
315.191040	146.480000
315.284302	146.460000
315.377594	146.240000
315.470856	146.460000
315.564117	146.020000
315.657379	145.140000
315.750671	144.960000
315.843933	145.180000
315.937195	144.720000
316.030518	144.940000
316.123749	145.080000
316.217041	145.980000
316.310303	145.880000
316.403595	146.540000
316.496857	146.700000
316.590149	147.040000
316.683411	145.900000
316.776703	146.080000
316.869965	145.800000
316.963257	145.580000
317.056519	145.040000
317.149811	145.460000
317.243073	145.380000
317.336365	145.440000
317.429626	145.660000
317.522919	146.200000
317.616180	146.140000
317.709473	146.000000
317.802765	145.800000
317.896027	145.760000
317.989319	146.080000
318.082611	145.780000
318.175873	145.520000
318.269165	145.680000
318.362488	145.680000
318.455750	145.220000
318.549042	145.840000
318.642303	146.640000
318.735626	146.340000
318.828888	146.460000
318.922211	146.320000
319.015472	147.000000
319.108765	146.060000
319.202057	146.060000
319.295349	146.220000
319.388641	146.240000
319.481934	145.700000
319.575226	145.920000
319.668518	146.360000
319.761810	146.520000
319.855103	146.460000
319.948395	146.120000
320.041687	146.500000
320.134979	146.300000
320.228271	145.740000
320.321564	145.640000
320.414856	145.700000
320.508148	145.340000
320.601440	145.460000
320.694763	145.540000
320.788025	146.520000
320.881348	146.260000
320.974640	146.660000
321.067963	145.980000
321.161224	146.100000
321.254547	145.020000
321.347839	145.760000
321.441162	145.220000
321.534454	145.720000
321.627747	145.400000
321.721069	146.100000
321.814362	145.880000
321.907654	146.360000
322.000946	146.480000
322.094269	147.180000
322.187561	146.640000
322.280884	146.720000
322.374176	146.760000
322.467468	146.940000
322.560791	146.760000
322.654083	147.560000
322.747406	147.360000
322.840698	147.480000
322.934021	147.640000
323.027344	147.540000
323.120636	146.920000
323.213959	146.760000
323.307251	146.040000
323.400574	145.780000
323.493866	145.300000
323.587219	145.640000
323.680511	146.200000
323.773834	146.540000
323.867157	146.580000
323.960449	146.840000
324.053772	146.400000
324.147095	145.920000
324.240387	146.620000
324.333710	146.900000
324.427032	146.960000
324.520355	146.960000
324.613647	146.740000
324.706970	146.320000
324.800293	146.140000
324.893616	146.340000
324.986938	147.040000
325.080231	147.060000
325.173553	147.200000
325.266876	147.760000
325.360199	147.620000
325.453522	146.880000
325.546875	146.740000
325.640167	146.960000
325.733521	146.560000
325.826813	146.880000
325.920166	146.720000
326.013489	146.620000
326.106812	145.400000
326.200134	145.120000
326.293457	144.500000
326.386780	144.980000
326.480103	145.280000
326.573425	145.740000
326.666748	145.780000
326.760071	146.120000
326.853424	146.080000
326.946747	146.160000
327.040070	146.980000
327.133392	146.620000
327.226715	145.880000
327.320068	145.200000
327.413391	145.640000
327.506714	144.920000
327.600037	144.960000
327.693390	145.640000
327.786713	145.940000
327.880066	145.380000
327.973358	145.660000
328.066742	146.380000
328.160034	146.500000
328.253418	147.020000
328.346710	146.800000
328.440063	146.360000
328.533417	145.840000
328.626740	146.000000
328.720093	145.480000
328.813416	146.040000
328.906769	146.140000
329.000092	146.420000
329.093445	146.220000
329.186768	146.020000
329.280121	146.080000
329.373444	146.540000
329.466797	146.600000
329.560120	146.520000
329.653473	146.800000
329.746796	146.180000
329.840149	145.760000
329.933502	145.440000
330.026825	145.360000
330.120178	145.720000
330.213562	146.160000
330.306854	146.200000
330.400238	146.280000
330.493561	146.140000
330.586945	146.720000
330.680237	146.660000
330.773621	147.000000
330.866974	147.040000
330.960327	147.440000
331.053680	146.560000
331.147003	146.440000
331.240356	146.220000
331.333710	146.340000
331.427063	145.860000
331.520416	145.840000
331.613770	145.920000
331.707123	146.120000
331.800476	146.240000
331.893829	147.140000
331.987152	147.340000
332.080505	147.400000
332.173859	147.320000
332.267212	146.520000
332.360565	145.600000
332.453918	145.320000
332.547333	144.980000
332.640656	145.080000
332.734039	145.540000
332.827362	145.660000
332.920746	146.140000
333.014069	146.480000
333.107452	146.960000
333.200806	147.060000
333.294159	147.500000
333.387543	147.060000
333.480896	146.600000
333.574249	146.000000
333.667603	145.560000
333.760956	145.460000
333.854340	145.500000
333.947693	145.720000
334.041046	145.680000
334.134430	146.400000
334.227783	146.360000
334.321136	146.400000
334.414520	146.140000
334.507874	146.300000
334.601227	146.080000
334.694611	145.820000
334.787964	145.580000
334.881348	146.260000
334.974701	146.080000
335.068085	145.880000
335.161438	146.380000
335.254822	146.460000
335.348175	146.140000
335.441559	145.880000
335.534943	146.380000
335.628296	145.920000
335.721680	145.840000
335.815033	145.940000
335.908417	146.400000
336.001770	146.200000
336.095154	146.240000
336.188538	146.100000
336.281891	145.620000
336.375275	144.980000
336.468658	144.700000
336.562012	144.940000
336.655396	145.400000
336.748779	146.060000
336.842133	146.540000
336.935516	146.820000
337.028900	146.280000
337.122284	146.360000
337.215637	146.420000
337.309021	146.140000
337.402435	145.780000
337.495789	146.040000
337.589203	145.940000
337.682526	145.540000
337.775940	146.240000
337.869324	146.420000
337.962708	146.260000
338.056091	146.520000
338.149475	146.200000
338.242859	145.700000
338.336243	145.500000
338.429626	145.700000
338.523010	145.760000
338.616394	145.820000
338.709778	146.200000
338.803162	146.360000
338.896545	146.560000
338.989929	146.060000
339.083313	146.340000
339.176697	146.040000
339.270081	146.100000
339.363464	146.040000
339.456848	146.640000
339.550232	146.260000
339.643616	146.100000
339.737030	145.920000
339.830383	145.760000
339.923828	145.480000
340.017181	146.020000
340.110596	146.380000
340.203949	146.280000
340.297363	146.220000
340.390778	146.160000
340.484161	145.840000
340.577545	145.640000
340.670959	145.960000
340.764343	145.980000
340.857727	146.000000
340.951111	145.560000
341.044525	145.940000
341.137909	145.340000
341.231293	145.380000
341.324707	144.880000
341.418091	145.940000
341.511505	145.740000
341.604889	146.200000
341.698303	146.400000
341.791687	146.900000
341.885071	146.280000
341.978485	145.820000
342.071899	146.040000
342.165283	146.140000
342.258698	146.040000
342.352081	146.320000
342.445496	146.840000
342.538879	146.520000
342.632324	146.220000
342.725708	146.300000
342.819122	145.980000
342.912506	145.700000
343.005920	145.760000
343.099335	146.340000
343.192719	146.080000
343.286133	145.840000
343.379547	145.980000
343.472931	146.260000
343.566345	145.760000
343.659760	145.900000
343.753143	145.940000
343.846558	145.720000
343.939972	145.580000
344.033386	146.000000
344.126770	145.840000
344.220184	145.980000
344.313599	146.420000
344.407043	146.300000
344.500427	145.660000
344.593872	146.360000
344.687225	146.560000
344.780670	146.120000
344.874054	145.940000
344.967499	146.500000
345.060913	146.100000
345.154327	145.780000
345.247742	145.560000
345.341156	145.780000
345.434570	145.300000
345.527985	145.120000
345.621399	145.340000
345.714813	145.320000
345.808228	145.360000
345.901642	145.220000
345.995056	145.300000
346.088470	145.440000
346.181885	145.540000
346.275299	145.380000
346.368713	145.520000
346.462128	145.220000
346.555573	145.060000
346.648987	145.360000
346.742401	145.300000
346.835815	145.840000
346.929260	145.480000
347.022644	145.740000
347.116119	145.780000
347.209503	146.060000
347.302948	146.440000
347.396362	147.360000
347.489807	147.280000
347.583221	147.740000
347.676636	147.200000
347.770050	145.880000
347.863495	145.200000
347.956909	145.200000
348.050323	144.780000
348.143768	144.980000
348.237183	145.260000
348.330597	146.120000
348.424042	146.280000
348.517456	146.340000
348.610901	146.800000
348.704315	146.820000
348.797760	146.100000
348.891174	145.480000
348.984619	144.980000
349.078033	145.200000
349.171448	145.760000
349.264923	145.900000
349.358337	146.200000
349.451782	146.660000
349.545197	145.660000
349.638641	144.960000
349.732086	144.480000
349.825500	144.840000
349.918945	144.320000
350.012390	145.300000
350.105804	146.080000
350.199249	146.560000
350.292664	146.480000
350.386108	146.820000
350.479553	147.060000
350.572968	146.720000
350.666412	146.820000
350.759857	146.840000
350.853302	147.340000
350.946716	146.320000
351.040161	146.520000
351.133606	146.460000
351.227081	146.320000
351.320465	146.760000
351.413940	147.180000
351.507355	147.180000
351.600830	147.380000
351.694244	147.140000
351.787720	146.540000
351.881104	146.500000
351.974579	146.260000
352.067993	146.820000
352.161469	146.840000
352.254883	146.100000
352.348358	146.140000
352.441803	146.160000
352.535248	145.680000
352.628693	146.300000
352.722137	146.440000
352.815582	146.540000
352.909027	146.560000
353.002472	146.360000
353.095917	145.860000
353.189362	146.100000
353.282806	146.040000
353.376251	145.960000
353.469696	145.580000
353.563141	146.140000
353.656586	146.140000
353.750061	145.540000
353.843475	145.680000
353.936981	146.220000
354.030396	145.400000
354.123871	145.280000
354.217285	146.380000
354.310760	146.220000
354.404175	146.240000
354.497681	146.260000
354.591095	146.380000
354.684570	145.340000
354.777985	145.340000
354.871490	145.000000
354.964935	145.260000
355.058380	145.400000
355.151855	145.320000
355.245300	145.940000
355.338745	146.400000
355.432220	146.400000
355.525665	145.940000
355.619110	146.700000
355.712585	145.880000
355.806030	145.320000
355.899475	144.860000
355.992950	145.560000
356.086426	145.540000
356.179871	145.720000
356.273346	145.960000
356.366791	146.760000
356.460266	146.800000
356.553711	146.420000
356.647186	146.600000
356.740631	146.520000
356.834106	145.880000
356.927551	145.560000
357.021027	145.480000
357.114471	145.480000
357.207947	145.760000
357.301422	146.140000
357.394867	146.160000
357.488342	146.840000
357.581818	146.920000
357.675262	146.960000
357.768738	146.760000
357.862213	146.280000
357.955658	145.940000
358.049133	145.820000
358.142609	145.920000
358.236053	145.680000
358.329529	145.980000
358.423035	146.140000
358.516449	145.660000
358.609955	145.780000
358.703400	146.580000
358.796906	146.680000
358.890350	146.040000
358.983826	146.420000
359.077271	145.620000
359.170776	145.440000
359.264221	145.340000
359.357727	145.640000
359.451172	145.800000
359.544647	146.180000
359.638123	145.900000
359.731598	146.180000
359.825073	146.500000
359.918549	146.200000
360.012024	146.280000
360.105499	145.920000
360.198975	145.940000
360.292450	145.600000
360.385925	145.820000
360.479401	145.620000
360.572876	146.060000
360.666351	146.300000
360.759857	146.240000
360.853302	146.160000
360.946808	145.740000
361.040253	145.960000
361.133759	145.120000
361.227203	145.560000
361.320709	145.040000
361.414154	145.460000
361.507660	145.440000
361.601105	146.240000
361.694641	146.420000
361.788086	146.760000
361.881592	146.860000
361.975067	146.380000
362.068542	146.420000
362.162018	146.080000
362.255524	145.860000
362.348999	145.980000
362.442474	146.660000
362.535950	146.040000
362.629456	146.240000
362.722931	146.120000
362.816406	146.360000
362.909882	146.260000
363.003387	146.120000
363.096863	146.120000
363.190338	146.380000
363.283875	146.080000
363.377319	145.580000
363.470825	146.240000
363.564301	145.560000
363.657806	145.780000
363.751282	145.580000
363.844788	146.360000
363.938232	145.980000
364.031769	146.880000
364.125214	147.020000
364.218750	147.620000
364.312225	146.400000
364.405731	146.620000
364.499207	145.980000
364.592712	145.400000
364.686188	145.140000
364.779694	146.000000
364.873169	145.720000
364.966675	145.560000
365.060150	145.880000
365.153656	145.980000
365.247131	145.800000
365.340637	145.940000
365.434143	146.880000
365.527618	147.040000
365.621155	146.200000
365.714600	146.100000
365.808136	146.080000
365.901611	144.920000
365.995117	144.580000
366.088593	144.940000
366.182129	144.920000
366.275604	145.160000
366.369110	145.400000
366.462585	145.560000
366.556122	146.220000
366.649567	145.920000
366.743103	145.880000
366.836609	145.780000
366.930115	146.080000
367.023590	145.960000
367.117096	146.380000
367.210602	146.060000
367.304108	146.920000
367.397614	147.260000
367.491119	147.440000
367.584595	147.340000
367.678101	147.780000
367.771606	147.340000
367.865112	146.720000
367.958649	145.940000
368.052124	145.940000
368.145660	145.800000
368.239136	146.200000
368.332672	146.480000
368.426147	146.880000
368.519684	146.840000
368.613159	147.020000
368.706696	146.400000
368.800171	146.240000
368.893707	146.140000
368.987183	146.200000
369.080719	146.180000
369.174225	146.000000
369.267731	146.200000
369.361237	146.160000
369.454742	145.920000
369.548248	146.180000
369.641754	146.100000
369.735260	145.700000
369.828766	145.180000
369.922272	145.820000
370.015808	145.380000
370.109314	145.680000
370.202820	145.440000
370.296356	146.600000
370.389832	146.100000
370.483368	145.960000
370.576874	145.600000
370.670410	146.220000
370.763885	144.920000
370.857422	144.940000
370.950928	144.580000
371.044464	145.600000
371.137939	145.580000
371.231476	146.380000
371.324982	146.860000
371.418518	147.200000
371.512024	146.740000
371.605560	146.440000
371.699066	146.560000
371.792572	145.880000
371.886108	146.460000
371.979614	146.260000
372.073120	146.800000
372.166656	146.740000
372.260162	147.400000
372.353668	146.660000
372.447205	146.400000
372.540710	146.400000
372.634277	145.980000
372.727753	145.880000
372.821320	146.120000
372.914795	146.360000
373.008362	145.980000
373.101837	146.340000
373.195404	145.940000
373.288879	145.600000
373.382446	145.960000
373.475922	145.860000
373.569489	146.480000
373.662964	147.020000
373.756531	147.280000
373.850037	147.220000
373.943573	147.140000
374.037109	145.660000
374.130615	145.820000
374.224152	145.920000
374.317657	145.600000
374.411194	146.720000
374.504730	147.200000
374.598236	146.620000
374.691772	146.200000
374.785309	146.640000
374.878815	145.300000
374.972351	145.500000
375.065887	145.380000
375.159454	146.460000
375.252930	146.040000
375.346497	146.720000
375.440002	147.420000
375.533569	147.460000
375.627045	146.440000
375.720612	146.400000
375.814117	146.380000
375.907684	145.720000
376.001160	145.560000
376.094727	145.360000
376.188232	146.120000
376.281799	145.920000
376.375336	145.960000
376.468872	146.840000
376.562408	147.460000
376.655914	146.940000
376.749451	147.060000
376.842987	147.100000
376.936523	146.340000
377.030060	146.160000
377.123596	146.540000
377.217133	146.100000
377.310669	146.040000
377.404205	146.360000
377.497772	146.540000
377.591278	146.140000
377.684845	146.820000
377.778351	147.100000
377.871918	147.000000
377.965424	146.500000
378.058990	146.500000
378.152496	146.080000
378.246063	146.220000
378.339569	146.660000
378.433136	146.820000
378.526642	146.900000
378.620209	147.400000
378.713745	146.840000
378.807312	146.900000
378.900848	146.880000
378.994385	147.140000
379.087921	146.320000
379.181458	146.880000
379.274994	146.060000
379.368530	145.900000
379.462097	146.040000
379.555634	146.720000
379.649170	146.280000
379.742706	146.320000
379.836273	146.780000
379.929810	146.360000
380.023376	145.920000
380.116882	145.800000
380.210449	145.920000
380.303986	145.560000
380.397552	145.000000
380.491058	145.280000
380.584656	145.320000
380.678162	145.580000
380.771729	145.440000
380.865265	146.600000
380.958832	146.800000
381.052368	146.700000
381.145935	146.700000
381.239471	147.380000
381.333008	146.900000
381.426575	146.420000
381.520111	146.960000
381.613647	147.280000
381.707214	146.780000
381.800751	146.280000
381.894318	146.500000
381.987854	145.800000
382.081421	145.400000
382.174988	145.800000
382.268524	145.720000
382.362091	145.560000
382.455627	146.480000
382.549194	146.460000
382.642731	145.780000
382.736298	145.880000
382.829834	145.860000
382.923401	146.020000
383.016937	146.040000
383.110504	146.400000
383.204041	146.700000
383.297607	146.980000
383.391174	146.140000
383.484741	146.740000
383.578278	146.460000
383.671844	146.020000
383.765411	145.280000
383.858948	145.760000
383.952515	145.280000
384.046051	146.040000
384.139618	146.480000
384.233185	147.180000
384.326721	146.980000
384.420288	147.540000
384.513855	147.100000
384.607422	147.360000
384.700989	147.020000
384.794525	146.720000
384.888123	146.240000
384.981659	146.340000
385.075226	145.980000
385.168762	145.900000
385.262360	145.960000
385.355896	145.400000
385.449463	145.240000
385.542999	145.160000
385.636597	145.820000
385.730164	146.180000
385.823730	145.980000
385.917267	145.760000
386.010834	146.200000
386.104401	146.360000
386.197968	146.320000
386.291534	147.020000
386.385101	147.600000
386.478668	147.920000
386.572235	147.460000
386.665802	147.080000
386.759338	146.700000
386.852905	146.140000
386.946472	145.440000
387.040070	145.540000
387.133606	145.780000
387.227203	145.580000
387.320740	145.980000
387.414337	145.780000
387.507874	145.680000
387.601471	145.820000
387.695007	146.120000
387.788605	145.780000
387.882141	145.980000
387.975739	146.080000
388.069275	145.420000
388.162872	145.420000
388.256439	145.560000
388.350037	145.200000
388.443604	144.840000
388.537170	145.180000
388.630737	145.700000
388.724304	145.800000
388.817871	146.180000
388.911438	146.440000
389.005005	146.700000
389.098602	146.760000
389.192169	146.440000
389.285736	146.800000
389.379333	146.920000
389.472870	146.300000
389.566467	146.020000
389.660034	146.160000
389.753632	145.660000
389.847168	145.780000
389.940765	146.320000
390.034332	146.240000
390.127930	146.160000
390.221466	146.020000
390.315063	145.380000
390.408630	144.780000
390.502228	144.340000
390.595795	144.540000
390.689362	144.940000
390.782959	145.600000
390.876526	146.400000
390.970093	146.660000
391.063690	146.920000
391.157257	146.660000
391.250824	146.780000
391.344421	146.420000
391.437988	146.560000
391.531555	146.460000
391.625153	146.840000
391.718750	146.840000
391.812317	146.880000
391.905914	146.820000
391.999481	147.100000
392.093079	146.860000
392.186615	146.880000
392.280243	146.760000
392.373779	146.840000
392.467407	146.920000
392.560944	146.880000
392.654572	146.580000
392.748108	146.700000
392.841736	146.940000
392.935303	146.600000
393.028900	146.320000
393.122467	146.100000
393.216064	145.840000
393.309631	145.360000
393.403229	144.900000
393.496796	144.980000
393.590393	144.620000
393.683990	144.920000
393.777557	145.480000
393.871155	146.080000
393.964722	146.920000
394.058350	147.300000
394.151917	147.360000
394.245514	147.120000
394.339081	147.260000
394.432678	146.980000
394.526245	146.840000
394.619873	146.340000
394.713409	146.340000
394.807037	145.940000
394.900604	146.020000
394.994202	146.040000
395.087769	146.480000
395.181396	145.940000
395.274994	146.620000
395.368561	145.840000
395.462158	146.240000
395.555756	145.880000
395.649353	146.360000
395.742920	145.720000
395.836517	146.800000
395.930115	146.140000
396.023712	146.500000
396.117279	146.640000
396.210876	146.300000
396.304474	145.700000
396.398071	146.140000
396.491669	146.340000
396.585266	146.160000
396.678833	146.420000
396.772461	147.000000
396.866028	146.820000
396.959656	147.160000
397.053223	147.840000
397.146851	148.060000
397.240417	148.420000
397.334015	150.220000
397.427582	150.980000
397.521210	152.740000
397.614807	155.680000
397.708405	158.640000
397.802002	162.300000
397.895599	168.060000
397.989197	174.340000
398.082794	182.120000
398.176392	192.540000
398.269989	204.200000
398.363586	218.160000
398.457184	233.940000
398.550781	252.140000
398.644379	269.400000
398.737976	288.760000
398.831573	308.440000
398.925201	328.520000
399.018768	349.660000
399.112396	374.000000
399.205963	400.460000
399.299591	430.380000
399.393158	462.080000
399.486786	493.840000
399.580353	523.220000
399.673981	547.020000
399.767578	566.020000
399.861206	578.740000
399.954773	583.720000
400.048401	580.720000
400.141998	572.340000
400.235596	558.560000
400.329193	541.820000
400.422791	523.520000
400.516418	505.540000
400.610016	487.780000
400.703613	467.460000
400.797211	443.280000
400.890808	417.660000
400.984436	391.060000
401.078033	362.660000
401.171631	335.040000
401.265259	310.760000
401.358826	288.680000
401.452484	267.740000
401.546051	250.120000
401.639679	233.260000
401.733246	218.080000
401.826904	203.580000
401.920471	191.500000
402.014099	181.180000
402.107697	173.060000
402.201324	166.420000
402.294891	161.880000
402.388550	158.100000
402.482147	154.820000
402.575745	152.340000
402.669373	150.340000
402.762970	148.820000
402.856567	148.100000
402.950195	147.660000
403.043793	147.440000
403.137390	148.120000
403.231018	147.180000
403.324615	147.520000
403.418243	146.980000
403.511841	147.240000
403.605469	146.840000
403.699066	147.760000
403.792694	147.560000
403.886292	147.680000
403.979919	147.360000
404.073517	147.320000
404.167145	147.400000
404.260712	147.440000
404.354370	147.380000
404.447937	147.520000
404.541595	147.380000
404.635162	147.380000
404.728821	147.540000
404.822418	147.140000
404.916046	146.880000
405.009644	147.000000
405.103271	146.820000
405.196899	146.420000
405.290497	146.860000
405.384125	147.200000
405.477722	146.840000
405.571350	146.400000
405.664948	146.540000
405.758575	146.180000
405.852203	145.540000
405.945801	145.720000
406.039429	146.020000
406.133057	145.700000
406.226654	145.860000
406.320312	146.060000
406.413879	145.840000
406.507538	145.840000
406.601135	145.440000
406.694763	146.000000
406.788361	145.940000
406.882019	145.940000
406.975586	146.220000
407.069244	147.120000
407.162872	146.880000
407.256470	146.680000
407.350098	146.660000
407.443726	146.200000
407.537323	145.500000
407.630951	145.620000
407.724579	145.820000
407.818207	146.420000
407.911804	146.300000
408.005432	146.440000
408.099060	146.640000
408.192688	146.960000
408.286285	146.360000
408.379913	146.160000
408.473572	146.320000
408.567169	145.320000
408.660828	145.020000
408.754395	145.060000
408.848053	145.280000
408.941650	145.440000
409.035309	145.620000
409.128906	145.860000
409.222565	145.880000
409.316132	146.220000
409.409790	145.700000
409.503387	145.980000
409.597046	145.720000
409.690674	145.740000
409.784302	145.600000
409.877930	145.520000
409.971558	145.660000
410.065186	145.800000
410.158783	145.860000
410.252411	145.820000
410.346039	146.320000
410.439667	145.940000
410.533295	146.060000
410.626923	146.260000
410.720551	146.220000
410.814209	146.520000
410.907806	146.660000
411.001465	146.300000
411.095062	146.420000
411.188721	146.640000
411.282318	146.240000
411.375977	146.280000
411.469574	146.320000
411.563232	145.940000
411.656830	145.720000
411.750488	145.600000
411.844086	145.440000
411.937744	145.880000
412.031372	145.860000
412.125000	146.020000
412.218628	146.260000
412.312256	147.040000
412.405884	147.220000
412.499512	146.940000
412.593170	146.820000
412.686798	147.060000
412.780426	146.440000
412.874054	146.340000
412.967682	146.760000
413.061310	147.200000
413.154968	147.260000
413.248566	147.480000
413.342224	147.060000
413.435852	147.060000
413.529510	146.460000
413.623108	145.800000
413.716766	145.600000
413.810364	146.200000
413.904022	145.920000
413.997650	145.840000
414.091309	146.540000
414.184906	146.380000
414.278564	145.740000
414.372192	146.140000
414.465851	146.500000
414.559479	146.000000
414.653107	147.040000
414.746735	147.000000
414.840393	146.640000
414.934021	146.860000
415.027649	146.700000
415.121277	146.040000
415.214935	146.760000
415.308563	146.940000
415.402191	146.280000
415.495850	146.480000
415.589478	146.500000
415.683136	145.880000
415.776733	146.080000
415.870422	146.960000
415.964020	146.600000
416.057678	146.460000
416.151306	146.660000
416.244965	146.440000
416.338562	145.980000
416.432251	146.840000
416.525848	147.660000
416.619507	147.800000
416.713165	147.960000
416.806793	147.840000
416.900421	147.640000
416.994080	146.660000
417.087708	146.420000
417.181366	146.180000
417.274994	146.340000
417.368622	146.100000
417.462280	146.840000
417.555908	146.920000
417.649567	146.940000
417.743195	146.960000
417.836853	147.080000
417.930481	146.680000
418.024170	146.900000
418.117767	147.220000
418.211426	147.420000
418.305054	147.160000
418.398712	146.720000
418.492340	146.620000
418.585999	146.780000
418.679626	146.560000
418.773285	146.860000
418.866913	147.360000
418.960571	147.380000
419.054230	147.220000
419.147858	147.380000
419.241516	147.260000
419.335144	146.960000
419.428802	146.900000
419.522461	146.620000
419.616089	145.980000
419.709747	146.020000
419.803375	146.200000
419.897034	145.780000
419.990662	145.840000
420.084320	146.800000
420.177979	146.840000
420.271606	146.920000
420.365295	147.540000
420.458893	147.680000
420.552582	147.600000
420.646210	147.540000
420.739868	147.480000
420.833496	147.200000
420.927155	146.820000
421.020782	146.200000
421.114471	145.920000
421.208069	145.720000
421.301758	145.900000
421.395386	146.500000
421.489044	146.600000
421.582703	146.760000
421.676361	147.480000
421.769989	147.100000
421.863647	147.060000
421.957306	147.120000
422.050934	147.220000
422.144592	146.740000
422.238251	146.620000
422.331909	146.160000
422.425537	146.060000
422.519196	146.260000
422.612854	145.840000
422.706543	145.500000
422.800140	146.040000
422.893829	145.960000
422.987457	145.420000
423.081146	145.600000
423.174744	146.440000
423.268433	145.640000
423.362061	145.440000
423.455750	145.500000
423.549347	145.600000
423.643036	144.980000
423.736664	145.620000
423.830353	145.960000
423.924011	146.600000
424.017639	146.220000
424.111298	146.260000
424.204956	146.120000
424.298615	146.020000
424.392273	145.540000
424.485931	145.880000
424.579559	145.920000
424.673218	145.640000
424.766876	145.740000
424.860535	145.340000
424.954193	145.540000
425.047882	146.160000
425.141510	146.380000
425.235199	146.480000
425.328796	146.420000
425.422485	146.140000
425.516113	145.240000
425.609802	145.100000
425.703430	144.940000
425.797119	145.060000
425.890747	145.100000
425.984436	145.300000
426.078064	145.260000
426.171753	145.180000
426.265411	145.120000
426.359070	145.400000
426.452728	145.520000
426.546356	145.480000
426.640015	145.320000
426.733673	145.340000
426.827332	144.920000
426.920990	145.620000
427.014648	145.500000
427.108307	146.020000
427.201965	146.800000
427.295624	146.860000
427.389282	145.860000
427.482941	146.220000
427.576630	146.000000
427.670258	145.180000
427.763947	144.920000
427.857574	145.600000
427.951263	145.640000
428.044922	145.400000
428.138611	145.620000
428.232239	146.440000
428.325928	146.400000
428.419556	146.820000
428.513245	146.700000
428.606903	146.840000
428.700562	146.200000
428.794220	145.800000
428.887878	144.740000
428.981537	145.080000
429.075195	145.020000
429.168854	145.160000
429.262512	145.220000
429.356201	145.640000
429.449860	145.520000
429.543518	145.340000
429.637177	145.740000
429.730835	145.640000
429.824493	145.620000
429.918182	145.800000
430.011810	145.720000
430.105530	144.980000
430.199158	145.280000
430.292847	145.140000
430.386475	144.740000
430.480164	144.620000
430.573792	144.640000
430.667511	144.080000
430.761139	144.360000
430.854828	144.940000
430.948456	145.160000
431.042145	145.920000
431.135834	145.800000
431.229492	145.700000
431.323151	145.620000
431.416809	145.580000
431.510468	144.780000
431.604156	145.260000
431.697815	145.300000
431.791473	145.060000
431.885132	144.720000
431.978821	145.700000
432.072479	145.920000
432.166138	146.140000
432.259827	145.940000
432.353485	146.520000
432.447174	146.120000
432.540802	145.840000
432.634491	145.940000
432.728149	146.540000
432.821838	146.800000
432.915466	146.380000
433.009186	146.680000
433.102814	145.980000
433.196503	145.560000
433.290131	145.400000
433.383850	145.520000
433.477509	145.480000
433.571167	146.280000
433.664856	146.660000
433.758514	147.060000
433.852173	147.400000
433.945862	147.120000
434.039520	146.840000
434.133179	146.280000
434.226868	145.680000
434.320526	144.540000
434.414185	145.220000
434.507874	144.960000
434.601562	145.280000
434.695221	145.240000
434.788910	146.020000
434.882538	145.760000
434.976257	145.460000
435.069885	145.480000
435.163574	145.620000
435.257233	145.140000
435.350922	144.980000
435.444580	145.000000
435.538269	144.780000
435.631897	144.940000
435.725616	146.100000
435.819275	146.640000
435.912964	147.120000
436.006622	147.760000
436.100311	147.660000
436.193970	146.440000
436.287628	146.080000
436.381317	145.780000
436.474976	145.200000
436.568665	144.580000
436.662323	145.180000
436.756012	144.800000
436.849670	144.600000
436.943390	144.640000
437.037018	145.060000
437.130737	144.980000
437.224365	145.080000
437.318085	145.420000
437.411713	145.360000
437.505432	145.780000
437.599060	146.140000
437.692780	146.680000
437.786407	146.820000
437.880127	146.860000
437.973755	146.460000
438.067474	145.960000
438.161133	145.740000
438.254822	145.920000
438.348480	145.660000
438.442169	146.300000
438.535828	146.840000
438.629517	146.260000
438.723175	145.520000
438.816864	146.300000
438.910553	145.660000
439.004211	145.440000
439.097900	145.600000
439.191559	145.720000
439.285248	144.740000
439.378906	145.080000
439.472626	144.780000
439.566284	144.420000
439.659973	145.040000
439.753632	145.320000
439.847321	145.560000
439.940979	145.680000
440.034698	145.980000
440.128326	145.340000
440.222046	145.120000
440.315674	144.220000
440.409393	144.420000
440.503082	144.400000
440.596741	144.680000
440.690430	145.080000
440.784088	145.360000
440.877777	144.940000
440.971466	145.220000
441.065125	145.080000
441.158813	144.640000
441.252502	144.820000
441.346161	145.020000
441.439850	145.280000
441.533539	145.260000
441.627197	145.800000
441.720886	145.600000
441.814606	146.060000
441.908234	146.260000
442.001953	146.440000
442.095612	146.580000
442.189301	146.840000
442.282959	146.840000
442.376678	145.960000
442.470306	146.400000
442.564026	145.960000
442.657684	146.260000
442.751404	146.120000
442.845032	147.140000
442.938751	146.640000
443.032440	146.940000
443.126099	146.520000
443.219788	146.940000
443.313477	146.800000
443.407166	147.120000
443.500824	146.960000
443.594513	147.180000
443.688202	146.740000
443.781891	145.980000
443.875549	145.340000
443.969238	145.420000
444.062927	145.260000
444.156647	145.320000
444.250275	145.860000
444.343994	146.440000
444.437653	146.400000
444.531372	146.360000
444.625031	145.980000
444.718719	145.660000
444.812378	145.420000
444.906097	145.540000
444.999756	145.220000
445.093445	145.460000
445.187103	145.280000
445.280823	146.060000
445.374512	145.400000
445.468201	145.660000
445.561859	145.460000
445.655548	146.000000
445.749237	145.100000
445.842926	145.580000
445.936615	145.920000
446.030304	145.880000
446.123962	145.840000
446.217651	145.760000
446.311340	146.020000
446.405029	145.660000
446.498749	145.680000
446.592407	145.060000
446.686096	145.640000
446.779755	145.440000
446.873474	145.360000
446.967133	145.700000
447.060852	145.600000
447.154510	145.280000
447.248230	145.420000
447.341858	145.440000
447.435577	145.000000
447.529236	145.020000
447.622955	144.780000
447.716644	144.480000
447.810333	144.740000
447.904022	145.200000
447.997711	145.500000
448.091400	146.020000
448.185059	146.140000
448.278748	146.320000
448.372437	145.940000
448.466125	145.980000
448.559814	145.680000
448.653503	146.100000
448.747192	146.020000
448.840912	146.860000
448.934570	147.080000
449.028290	147.480000
449.121948	147.080000
449.215637	146.760000
449.309296	145.680000
449.403015	145.620000
449.496674	145.500000
449.590393	145.680000
449.684052	145.520000
449.777771	146.540000
449.871429	146.180000
449.965149	145.960000
450.058838	145.980000
450.152527	146.640000
450.246216	146.240000
450.339905	146.480000
450.433594	146.220000
450.527283	147.120000
450.620972	146.640000
450.714661	146.720000
450.808350	147.000000
450.902039	147.380000
450.995728	146.500000
451.089417	146.560000
451.183105	146.600000
451.276794	146.800000
451.370514	146.200000
451.464172	145.580000
451.557892	145.480000
451.651550	145.360000
451.745270	144.820000
451.838928	144.720000
451.932648	145.260000
452.026306	145.760000
452.120026	145.420000
452.213684	145.580000
452.307404	145.720000
452.401062	145.700000
452.494781	145.420000
452.588470	145.640000
452.682159	145.060000
452.775848	145.500000
452.869537	145.060000
452.963226	144.400000
453.056915	144.160000
453.150604	144.700000
453.244293	144.700000
453.337982	145.460000
453.431671	146.320000
453.525360	146.920000
453.619049	146.760000
453.712769	146.920000
453.806427	146.340000
453.900146	145.840000
453.993805	145.620000
454.087555	146.340000
454.181213	145.940000
454.274933	145.800000
454.368591	146.120000
454.462311	145.740000
454.555969	145.040000
454.649689	146.180000
454.743347	146.280000
454.837067	146.740000
454.930756	147.500000
455.024445	147.600000
455.118134	146.820000
455.211853	147.260000
455.305542	146.680000
455.399231	146.140000
455.492920	146.200000
455.586609	146.140000
455.680298	146.000000
455.773987	145.600000
455.867676	145.620000
455.961365	145.540000
456.055084	145.520000
456.148773	145.340000
456.242493	145.780000
456.336151	145.600000
456.429871	145.960000
456.523529	146.220000
456.617249	146.040000
456.710907	146.760000
456.804626	146.860000
456.898315	146.240000
456.992035	146.000000
457.085693	145.660000
457.179413	144.780000
457.273102	145.500000
457.366791	145.740000
457.460480	146.020000
457.554199	146.900000
457.647888	146.960000
457.741577	146.240000
457.835266	145.860000
457.928955	145.860000
458.022644	146.080000
458.116364	146.460000
458.210052	146.420000
458.303741	146.860000
458.397461	146.340000
458.491119	145.520000
458.584839	145.280000
458.678528	145.300000
458.772247	145.200000
458.865906	145.340000
458.959625	146.240000
459.053284	146.220000
459.147003	145.960000
459.240692	146.440000
459.334412	146.480000
459.428070	146.040000
459.521790	145.900000
459.615479	146.180000
459.709198	146.500000
459.802887	146.200000
459.896576	145.880000
459.990265	146.100000
460.083954	146.340000
460.177673	145.680000
460.271362	146.000000
460.365051	146.120000
460.458740	145.780000
460.552429	145.220000
460.646149	144.880000
460.739838	144.660000
460.833527	144.540000
460.927246	144.320000
461.020905	144.260000
461.114655	144.480000
461.208313	144.580000
461.302032	144.260000
461.395691	144.940000
461.489441	145.240000
461.583099	145.060000
461.676819	145.000000
461.770477	145.560000
461.864197	145.240000
461.957916	144.820000
462.051605	144.680000
462.145294	145.360000
462.238983	145.120000
462.332703	145.700000
462.426392	146.880000
462.520081	146.760000
462.613770	146.260000
462.707489	146.540000
462.801178	145.820000
462.894867	145.380000
462.988556	145.840000
463.082275	145.920000
463.175964	145.400000
463.269684	145.660000
463.363342	145.600000
463.457092	145.280000
463.550751	145.600000
463.644470	146.000000
463.738129	145.680000
463.831879	145.520000
463.925537	146.240000
464.019257	145.980000
464.112946	145.880000
464.206665	145.740000
464.300323	145.680000
464.394043	145.180000
464.487762	145.240000
464.581451	145.640000
464.675140	145.980000
464.768829	146.020000
464.862549	146.400000
464.956238	146.580000
465.049927	146.340000
465.143646	146.540000
465.237335	146.260000
465.331024	146.500000
465.424713	146.300000
465.518433	146.240000
465.612152	145.800000
465.705811	146.200000
465.799561	145.700000
465.893219	145.560000
465.986938	145.680000
466.080597	145.640000
466.174347	145.720000
466.268005	145.940000
466.361725	145.600000
466.455414	145.560000
466.549133	145.640000
466.642792	145.640000
466.736542	145.220000
466.830231	145.700000
466.923920	145.500000
467.017609	145.620000
467.111328	145.240000
467.205017	145.240000
467.298706	145.160000
467.392426	145.440000
467.486115	145.780000
467.579803	145.860000
467.673523	146.360000
467.767212	146.460000
467.860901	146.220000
467.954651	146.200000
468.048309	146.460000
468.142029	146.240000
468.235718	146.040000
468.329437	145.560000
468.423096	145.420000
468.516846	145.160000
468.610504	145.040000
468.704224	144.740000
468.797913	145.160000
468.891632	145.160000
468.985291	145.440000
469.079010	145.340000
469.172729	145.260000
469.266418	145.760000
469.360107	145.980000
469.453827	145.660000
469.547516	145.740000
469.641205	146.380000
469.734924	146.500000
469.828613	146.500000
469.922302	146.740000
470.016022	146.920000
470.109711	146.700000
470.203430	145.900000
470.297150	145.240000
470.390808	145.340000
470.484558	144.680000
470.578217	144.980000
470.671936	145.640000
470.765625	146.560000
470.859344	146.340000
470.953003	147.020000
471.046753	146.640000
471.140411	145.640000
471.234131	145.360000
471.327820	145.540000
471.421539	145.600000
471.515228	145.520000
471.608948	146.240000
471.702637	145.700000
471.796326	145.420000
471.890045	145.340000
471.983734	145.420000
472.077423	145.060000
472.171143	145.500000
472.264832	145.600000
472.358521	145.380000
472.452240	145.160000
472.545929	146.020000
472.639648	146.160000
472.733337	146.640000
472.827057	146.960000
472.920746	147.420000
473.014465	147.020000
473.108124	146.960000
473.201874	146.900000
473.295532	146.700000
473.389252	146.800000
473.482941	147.300000
473.576660	146.800000
473.670319	146.440000
473.764069	146.500000
473.857727	146.580000
473.951477	146.040000
474.045166	146.500000
474.138855	146.500000
474.232574	146.600000
474.326263	146.400000
474.419952	146.720000
474.513672	146.820000
474.607361	146.680000
474.701050	146.700000
474.794769	146.900000
474.888458	146.920000
474.982178	147.180000
475.075867	147.320000
475.169586	147.160000
475.263275	147.060000
475.356995	146.780000
475.450653	146.040000
475.544403	145.820000
475.638062	146.620000
475.731812	146.020000
475.825470	145.920000
475.919189	146.140000
476.012878	146.460000
476.106598	145.520000
476.200256	145.860000
476.294006	145.720000
476.387695	145.940000
476.481384	145.580000
476.575104	145.820000
476.668793	145.500000
476.762512	145.300000
476.856201	145.580000
476.949890	145.280000
477.043610	144.600000
477.137299	144.560000
477.230988	144.800000
477.324707	144.000000
477.418396	144.720000
477.512146	145.060000
477.605804	145.000000
477.699524	145.300000
477.793213	145.500000
477.886932	145.320000
477.980591	145.140000
478.074341	145.240000
478.167999	144.660000
478.261749	145.080000
478.355408	144.740000
478.449127	145.300000
478.542816	146.080000
478.636536	146.880000
478.730225	146.720000
478.823944	147.380000
478.917633	147.460000
479.011322	147.380000
479.105042	147.040000
479.198730	147.300000
479.292450	147.000000
479.386139	147.080000
479.479828	147.120000
479.573547	147.600000
479.667267	147.420000
479.760925	147.500000
479.854675	147.300000
479.948334	147.040000
480.042084	146.360000
480.135742	146.240000
480.229462	145.840000
480.323151	145.860000
480.416870	145.480000
480.510529	145.700000
480.604279	145.220000
480.697937	145.760000
480.791656	145.280000
480.885345	145.300000
480.979065	145.300000
481.072754	146.260000
481.166473	146.340000
481.260132	146.460000
481.353882	146.380000
481.447540	146.420000
481.541260	145.940000
481.635010	145.240000
481.728668	145.380000
481.822388	145.540000
481.916077	145.600000
482.009796	145.680000
482.103485	146.160000
482.197205	146.160000
482.290863	146.340000
482.384613	145.900000
482.478271	145.520000
482.571991	145.500000
482.665680	145.460000
482.759399	145.640000
482.853058	146.240000
482.946808	146.220000
483.040466	146.060000
483.134216	145.760000
483.227875	145.620000
483.321594	145.680000
483.415283	145.640000
483.509003	145.440000
483.602661	145.800000
483.696411	146.260000
483.790070	146.120000
483.883789	146.020000
483.977478	146.480000
484.071198	146.300000
484.164917	145.220000
484.258606	144.720000
484.352325	145.300000
484.445984	145.480000
484.539734	145.660000
484.633392	145.980000
484.727142	146.480000
484.820801	146.260000
484.914520	146.160000
485.008209	146.240000
485.101929	146.520000
485.195587	146.280000
485.289337	146.200000
485.382996	146.200000
485.476715	146.400000
485.570404	146.880000
485.664124	146.700000
485.757782	147.580000
485.851532	147.180000
485.945190	147.020000
486.038910	146.700000
486.132599	147.320000
486.226318	146.160000
486.319977	146.140000
486.413727	146.620000
486.507446	146.320000
486.601105	145.660000
486.694855	145.820000
486.788513	145.600000
486.882233	145.140000
486.975922	145.140000
487.069641	145.340000
487.163300	145.360000
487.257050	146.640000
487.350708	146.240000
487.444427	146.000000
487.538116	145.660000
487.631836	145.840000
487.725494	144.920000
487.819214	144.900000
487.912903	144.880000
488.006622	145.300000
488.100281	145.320000
488.194031	145.540000
488.287689	146.140000
488.381409	147.120000
488.475098	146.940000
488.568817	146.880000
488.662476	146.600000
488.756226	145.980000
488.849945	144.860000
488.943604	145.140000
489.037354	145.280000
489.131012	145.260000
489.224731	145.340000
489.318390	145.540000
489.412140	145.580000
489.505798	145.320000
489.599518	144.980000
489.693207	145.160000
489.786926	145.020000
489.880585	144.760000
489.974335	145.180000
490.067993	146.500000
490.161713	146.840000
490.255371	147.600000
490.349121	147.620000
490.442780	147.400000
490.536499	146.300000
490.630188	145.960000
490.723907	145.280000
490.817566	145.220000
490.911285	145.160000
491.004974	145.160000
491.098694	145.080000
491.192413	146.060000
491.286102	145.900000
491.379822	145.840000
491.473480	146.120000
491.567200	146.200000
491.660889	145.180000
491.754608	145.320000
491.848267	145.400000
491.941986	145.380000
492.035675	145.220000
492.129395	145.600000
492.223053	145.340000
492.316772	145.420000
492.410461	145.280000
492.504181	145.280000
492.597839	145.120000
492.691559	145.500000
492.785248	145.900000
492.878967	145.960000
492.972626	145.940000
493.066345	146.100000
493.160034	145.760000
493.253754	145.400000
493.347412	145.120000
493.441132	145.300000
493.534882	145.580000
493.628540	145.920000
493.722260	146.100000
493.815918	146.500000
493.909668	147.020000
494.003326	147.100000
494.097046	146.920000
494.190704	146.680000
494.284454	146.680000
494.378113	146.500000
494.471832	146.120000
494.565491	146.100000
494.659210	146.100000
494.752899	145.860000
494.846619	145.440000
494.940277	145.860000
495.033997	146.040000
495.127686	145.820000
495.221405	145.600000
495.315063	145.900000
495.408783	145.440000
495.502441	145.600000
495.596191	145.600000
495.689850	145.700000
495.783569	145.920000
495.877228	146.300000
495.970947	146.160000
496.064697	146.480000
496.158356	147.340000
496.252075	146.960000
496.345734	146.720000
496.439453	147.340000
496.533142	147.240000
496.626862	147.200000
496.720520	147.440000
496.814240	147.380000
496.907898	146.660000
497.001617	146.780000
497.095306	145.900000
497.189026	145.380000
497.282684	145.700000
497.376404	146.200000
497.470062	146.060000
497.563782	146.500000
497.657471	147.020000
497.751190	146.460000
497.844849	146.120000
497.938568	146.400000
498.032227	146.340000
498.125946	146.020000
498.219635	145.960000
498.313354	146.020000
498.407074	145.660000
498.500732	145.720000
498.594452	146.000000
498.688110	145.840000
498.781830	145.360000
498.875519	145.120000
498.969238	144.920000
499.062897	144.840000
499.156616	145.460000
499.250275	145.800000
499.343994	145.400000
499.437653	145.660000
499.531372	145.600000
499.625061	146.020000
499.718781	146.340000
499.812439	147.440000
499.906158	147.300000
499.999817	146.780000
500.093536	146.260000
500.187195	146.080000
500.280914	145.580000
500.374573	145.860000
500.468323	146.020000
500.561981	145.940000
500.655701	145.600000
500.749420	145.620000
500.843079	145.620000
500.936798	145.960000
501.030457	146.780000
501.124176	147.080000
501.217834	146.840000
501.311554	146.460000
501.405212	145.900000
501.498962	144.720000
501.592621	144.580000
501.686340	145.240000
501.779999	145.580000
501.873718	146.180000
501.967377	146.920000
502.061096	147.100000
502.154755	146.540000
502.248474	146.360000
502.342133	146.420000
502.435852	145.860000
502.529510	146.360000
502.623230	146.720000
502.716888	146.320000
502.810608	146.160000
502.904266	146.680000
502.997986	146.020000
503.091705	145.480000
503.185364	145.440000
503.279083	145.460000
503.372772	145.360000
503.466492	145.220000
503.560150	145.380000
503.653870	145.820000
503.747528	145.720000
503.841248	145.580000
503.934906	145.860000
504.028625	145.700000
504.122284	146.080000
504.216003	146.660000
504.309662	146.360000
504.403381	146.380000
504.497040	146.520000
504.590759	146.040000
504.684418	146.120000
504.778137	146.560000
504.871796	146.820000
504.965515	146.920000
505.059174	147.040000
505.152893	146.140000
505.246521	145.460000
505.340240	145.000000
505.433899	145.360000
505.527618	145.300000
505.621338	145.760000
505.714996	146.160000
505.808716	145.860000
505.902374	145.920000
505.996094	146.220000
506.089752	145.940000
506.183472	145.980000
506.277130	146.580000
506.370850	146.440000
506.464508	146.080000
506.558228	146.380000
506.651886	146.120000
506.745605	145.960000
506.839264	146.000000
506.932983	145.940000
507.026611	145.620000
507.120331	146.240000
507.213989	145.940000
507.307709	145.880000
507.401367	146.440000
507.495087	147.700000
507.588745	147.060000
507.682465	147.840000
507.776123	147.660000
507.869843	147.120000
507.963531	146.300000
508.057190	146.860000
508.150909	145.960000
508.244568	146.240000
508.338287	146.180000
508.431946	145.840000
508.525665	145.340000
508.619324	145.320000
508.713013	145.520000
508.806671	145.840000
508.900391	146.680000
508.994049	146.860000
509.087769	146.840000
509.181427	146.740000
509.275146	146.380000
509.368774	145.420000
509.462494	145.600000
509.556152	145.800000
509.649872	145.920000
509.743530	146.080000
509.837250	146.380000
509.930878	146.360000
510.024597	146.160000
510.118256	145.800000
510.211975	145.620000
510.305695	145.620000
510.399353	146.040000
510.493042	146.720000
510.586700	146.680000
510.680420	147.420000
510.774078	147.280000
510.867798	147.020000
510.961426	146.440000
511.055145	146.580000
511.148804	146.100000
511.242523	146.420000
511.336151	146.300000
511.429871	146.920000
511.523529	146.600000
511.617249	146.140000
511.710876	145.560000
511.804596	145.300000
511.898254	144.740000
511.991974	145.320000
512.085632	145.440000
512.179321	146.120000
512.272949	146.540000
512.366699	147.060000
512.460327	146.500000
512.554077	147.280000
512.647766	147.060000
512.741394	146.740000
512.835144	147.000000
512.928772	146.900000
513.022461	146.660000
513.116150	146.420000
513.209839	146.900000
513.303467	146.240000
513.397217	145.980000
513.490845	145.460000
513.584595	145.400000
513.678223	144.940000
513.771912	144.620000
513.865601	145.200000
513.959290	145.120000
514.052917	145.280000
514.146667	145.820000
514.240295	146.140000
514.333984	146.280000
514.427673	146.300000
514.521362	146.520000
514.614990	145.660000
514.708740	145.920000
514.802368	145.960000
514.896057	146.180000
514.989746	146.640000
515.083435	146.880000
515.177124	147.200000
515.270752	146.960000
515.364502	147.100000
515.458130	146.720000
515.551819	146.440000
515.645508	145.800000
515.739197	145.780000
515.832825	145.760000
515.926575	145.580000
516.020203	145.920000
516.113892	146.480000
516.207520	146.280000
516.301270	146.420000
516.394897	146.480000
516.488586	146.900000
516.582275	146.720000
516.675964	146.360000
516.769592	145.940000
516.863281	146.500000
516.956970	146.560000
517.050659	146.400000
517.144287	146.780000
517.238037	146.860000
517.331665	146.100000
517.425354	145.680000
517.519043	145.500000
517.612732	145.980000
517.706421	146.060000
517.800049	145.940000
517.893738	145.720000
517.987427	145.780000
518.081116	145.360000
518.174744	144.940000
518.268433	145.320000
518.362122	146.180000
518.455811	146.120000
518.549438	146.640000
518.643127	148.040000
518.736816	147.880000
518.830505	147.360000
518.924133	147.620000
519.017822	147.200000
519.111511	146.180000
519.205200	146.580000
519.298828	146.660000
519.392517	146.060000
519.486206	146.260000
519.579895	146.660000
519.673523	146.260000
519.767212	145.760000
519.860901	146.660000
519.954590	146.500000
520.048279	145.880000
520.141907	145.580000
520.235596	146.560000
520.329224	146.340000
520.422974	146.000000
520.516602	145.840000
520.610291	146.220000
520.703918	145.620000
520.797607	145.240000
520.891296	145.620000
520.984985	146.160000
521.078613	146.420000
521.172302	146.200000
521.265930	147.100000
521.359680	147.600000
521.453308	147.400000
521.546997	146.980000
521.640625	147.400000
521.734314	146.620000
521.827942	146.120000
521.921692	146.540000
522.015320	146.360000
522.109009	145.740000
522.202698	145.780000
522.296326	145.880000
522.390015	145.820000
522.483704	146.200000
522.577393	146.340000
522.671021	146.060000
522.764709	145.700000
522.858337	146.280000
522.952026	146.100000
523.045654	146.920000
523.139404	147.660000
523.233032	148.120000
523.326721	147.460000
523.420349	147.260000
523.514038	146.480000
523.607666	146.820000
523.701355	146.160000
523.795044	146.080000
523.888733	146.600000
523.982361	147.160000
524.076050	146.340000
524.169678	146.920000
524.263367	146.620000
524.356995	146.180000
524.450684	145.720000
524.544373	145.740000
524.638062	145.680000
524.731750	146.080000
524.825378	146.220000
524.919067	145.920000
525.012695	145.840000
525.106384	145.460000
525.200012	145.600000
525.293701	145.440000
525.387329	145.920000
525.481018	146.220000
525.574646	146.740000
525.668396	146.480000
525.762024	147.040000
525.855713	146.900000
525.949341	146.580000
526.043030	146.320000
526.136658	146.080000
526.230347	145.560000
526.323975	145.380000
526.417664	145.280000
526.511292	145.100000
526.604980	145.440000
526.698608	145.620000
526.792297	145.740000
526.885925	145.980000
526.979614	146.300000
527.073303	146.380000
527.166931	146.220000
527.260620	146.540000
527.354309	147.100000
527.447998	146.980000
527.541626	146.440000
527.635315	146.560000
527.728943	146.820000
527.822632	146.680000
527.916260	146.640000
528.009949	146.980000
528.103577	146.800000
528.197266	146.100000
528.290894	145.900000
528.384583	145.920000
528.478210	146.140000
528.571899	146.520000
528.665527	146.900000
528.759216	146.940000
528.852844	147.520000
528.946533	147.260000
529.040161	147.100000
529.133850	146.860000
529.227478	146.760000
529.321167	146.560000
529.414856	147.020000
529.508484	147.540000
529.602173	147.280000
529.695801	147.060000
529.789490	146.620000
529.883057	146.120000
529.976746	146.340000
530.070374	147.120000
530.164062	147.460000
530.257690	147.840000
530.351379	148.160000
530.445007	147.620000
530.538696	146.620000
530.632324	146.480000
530.726013	146.400000
530.819641	146.580000
530.913330	146.640000
531.006958	146.860000
531.100647	146.740000
531.194275	146.440000
531.287964	145.940000
531.381592	145.680000
531.475220	146.020000
531.568848	145.880000
531.662537	145.700000
531.756226	145.980000
531.849854	145.980000
531.943542	145.780000
532.037170	145.320000
532.130859	146.100000
532.224487	145.620000
532.318176	145.220000
532.411804	145.800000
532.505432	146.360000
532.599060	145.400000
532.692749	145.700000
532.786377	146.380000
532.880066	145.820000
532.973694	145.540000
533.067383	145.920000
533.161011	145.700000
533.254639	145.480000
533.348267	145.220000
533.441956	145.520000
533.535583	145.460000
533.629272	145.880000
533.722900	145.340000
533.816589	145.820000
533.910156	146.140000
534.003845	145.700000
534.097534	145.900000
534.191162	146.780000
534.284851	146.540000
534.378479	146.360000
534.472107	146.820000
534.565735	146.300000
534.659424	146.160000
534.753052	146.820000
534.846741	146.560000
534.940369	147.000000
535.033997	147.240000
535.127625	147.120000
535.221313	147.180000
535.314941	147.180000
535.408630	146.540000
535.502197	146.660000
535.595886	146.460000
535.689514	146.120000
535.783203	146.680000
535.876831	147.240000
535.970459	147.240000
536.064087	147.160000
536.157776	146.820000
536.251404	146.380000
536.345093	146.020000
536.438721	145.740000
536.532349	145.980000
536.626038	145.940000
536.719666	146.180000
536.813293	146.220000
536.906921	146.480000
537.000610	146.540000
537.094238	146.640000
537.187866	146.580000
537.281494	146.480000
537.375183	146.620000
537.468811	146.400000
537.562439	146.260000
537.656067	146.180000
537.749756	146.500000
537.843384	146.640000
537.937012	146.980000
538.030640	147.040000
538.124329	147.240000
538.217896	147.500000
538.311584	147.360000
538.405212	146.920000
538.498901	147.040000
538.592468	147.400000
538.686157	146.740000
538.779785	146.160000
538.873413	146.040000
538.967102	146.000000
539.060730	145.060000
539.154358	145.600000
539.247986	145.840000
539.341675	145.840000
539.435242	145.760000
539.528931	146.280000
539.622559	145.740000
539.716187	146.580000
539.809814	146.880000
539.903503	146.940000
539.997070	146.780000
540.090759	147.060000
540.184387	146.440000
540.278015	146.860000
540.371643	147.400000
540.465332	147.280000
540.558899	147.280000
540.652588	147.160000
540.746216	146.340000
540.839844	146.080000
540.933472	146.280000
541.027100	146.300000
541.120728	146.260000
541.214417	146.740000
541.308044	147.120000
541.401672	146.720000
541.495300	146.600000
541.588928	146.560000
541.682617	146.220000
541.776184	145.560000
541.869873	146.040000
541.963440	146.180000
542.057129	146.340000
542.150757	146.640000
542.244385	146.440000
542.338013	145.900000
542.431641	145.720000
542.525269	145.860000
542.618958	146.380000
542.712524	146.760000
542.806213	146.780000
542.899780	147.000000
542.993469	146.400000
543.087036	146.040000
543.180725	145.660000
543.274292	146.160000
543.367981	146.260000
543.461548	146.780000
543.555237	146.600000
543.648926	147.360000
543.742493	147.960000
543.836182	147.800000
543.929749	147.400000
544.023437	147.360000
544.117004	147.200000
544.210693	146.860000
544.304260	146.760000
544.397949	147.060000
544.491516	147.400000
544.585205	147.240000
544.678772	146.700000
544.772461	147.280000
544.866028	147.080000
544.959717	147.060000
545.053284	146.540000
545.146973	147.060000
545.240540	147.000000
545.334229	147.660000
545.427795	147.680000
545.521423	148.260000
545.615051	148.100000
545.708679	148.160000
545.802307	147.960000
545.895935	148.480000
545.989624	149.260000
546.083191	148.920000
546.176880	148.580000
546.270447	148.120000
546.364136	148.060000
546.457703	147.080000
546.551331	147.200000
546.644958	147.400000
546.738586	147.880000
546.832214	147.200000
546.925842	147.380000
547.019409	147.540000
547.113098	147.000000
547.206665	146.500000
547.300354	146.780000
547.393921	146.780000
547.487549	147.080000
547.581177	146.940000
547.674805	146.880000
547.768433	146.280000
547.862061	146.340000
547.955627	145.400000
548.049316	146.120000
548.142883	146.320000
548.236572	146.860000
548.330139	146.580000
548.423767	147.000000
548.517456	146.840000
548.611023	147.040000
548.704651	146.160000
548.798279	146.100000
548.891907	146.360000
548.985474	146.340000
549.079163	146.420000
549.172729	146.520000
549.266357	146.140000
549.359985	145.840000
549.453613	145.120000
549.547180	144.780000
549.640869	145.540000
549.734436	145.680000
549.828064	146.220000
549.921631	146.500000
550.015320	146.400000
550.108887	146.640000
550.202515	146.660000
550.296143	146.080000
550.389771	146.200000
550.483337	146.100000
550.576965	145.600000
550.670593	146.060000
550.764221	146.260000
550.857849	146.100000
550.951477	146.080000
551.045105	145.680000
551.138672	145.420000
551.232300	145.260000
551.325928	145.600000
551.419556	146.120000
551.513123	146.800000
551.606750	146.540000
551.700378	146.520000
551.794006	146.300000
551.887573	145.920000
551.981201	145.860000
552.074768	146.300000
552.168457	146.240000
552.262024	147.100000
552.355652	147.200000
552.449219	147.680000
552.542847	147.580000
552.636475	147.280000
552.730103	146.080000
552.823669	145.780000
552.917297	144.800000
553.010864	144.900000
553.104553	145.420000
553.198181	145.620000
553.291748	146.020000
553.385376	146.440000
553.478943	146.140000
553.572571	145.940000
553.666199	146.040000
553.759827	145.780000
553.853394	145.300000
553.947021	145.400000
554.040588	145.580000
554.134216	145.520000
554.227783	146.140000
554.321411	147.100000
554.415039	146.740000
554.508667	146.560000
554.602234	147.140000
554.695862	146.400000
554.789429	146.160000
554.883057	146.540000
554.976624	146.400000
555.070251	146.060000
555.163818	146.140000
555.257507	145.760000
555.351074	145.880000
555.444702	147.060000
555.538330	146.820000
555.631897	147.240000
555.725525	147.320000
555.819092	146.840000
555.912720	145.460000
556.006287	145.980000
556.099915	145.500000
556.193481	145.540000
556.287109	145.880000
556.380676	146.200000
556.474304	145.940000
556.567871	146.280000
556.661499	145.580000
556.755066	145.500000
556.848694	145.800000
556.942261	145.680000
557.035889	145.840000
557.129517	146.580000
557.223145	147.180000
557.316711	147.140000
557.410339	147.140000
557.503906	147.060000
557.597473	146.980000
557.691040	146.440000
557.784668	146.100000
557.878296	146.140000
557.971863	146.040000
558.065491	146.040000
558.159058	145.860000
558.252686	146.660000
558.346252	147.240000
558.439880	146.500000
558.533447	146.320000
558.627075	146.360000
558.720642	145.720000
558.814270	145.380000
558.907837	145.760000
559.001465	145.580000
559.095032	146.340000
559.188660	146.220000
559.282227	145.720000
559.375854	146.480000
559.469360	146.540000
559.562988	146.380000
559.656555	146.620000
559.750183	147.180000
559.843750	146.920000
559.937378	146.840000
560.030945	146.520000
560.124573	0.000000
560.218140	0.000000
560.311707	0.000000
560.405334	0.000000
560.498901	0.000000
560.592529	0.000000
560.686096	0.000000
560.779724	0.000000
560.873291	0.000000
560.966858	0.000000
561.060425	0.000000
561.154053	0.000000
561.247620	0.000000
561.341248	0.000000
561.434814	0.000000
561.528381	0.000000
561.621948	0.000000
561.715576	0.000000
561.809143	0.000000
561.902771	0.000000
561.996277	0.000000
562.089905	0.000000
562.183472	0.000000
562.277100	0.000000
