Model Number: SPM-002-B   
Serial Number: 70087108
Firmware Version: 004.15.4
Exposure Time: 100000.000000us
Data Taken on: 11-12-2020 19:29:11.503
Wavelength	Amplitude
221.570786	0.000000
221.663406	0.000000
221.756027	0.000000
221.848648	0.000000
221.941269	0.000000
222.033905	0.000000
222.126526	0.000000
222.219162	0.000000
222.311798	0.000000
222.404419	0.000000
222.497055	0.000000
222.589676	0.000000
222.682312	0.000000
222.774933	0.000000
222.867569	0.000000
222.960205	0.000000
223.052841	0.000000
223.145462	0.000000
223.238098	0.000000
223.330734	0.000000
223.423386	0.000000
223.516022	0.000000
223.608658	0.000000
223.701309	0.000000
223.793945	0.000000
223.886581	0.000000
223.979218	0.000000
224.071869	0.000000
224.164505	0.000000
224.257156	0.000000
224.349792	0.000000
224.442444	0.000000
224.535095	0.000000
224.627747	0.000000
224.720398	0.000000
224.813034	0.000000
224.905685	0.000000
224.998337	144.680000
225.090988	144.480000
225.183640	144.540000
225.276291	144.380000
225.368942	145.080000
225.461594	145.840000
225.554245	146.140000
225.646912	146.200000
225.739578	146.800000
225.832230	146.980000
225.924896	146.120000
226.017548	146.160000
226.110199	146.760000
226.202866	146.180000
226.295532	145.880000
226.388184	145.780000
226.480850	145.340000
226.573517	144.880000
226.666168	145.260000
226.758835	145.600000
226.851501	146.400000
226.944183	146.520000
227.036850	146.140000
227.129517	146.140000
227.222183	146.220000
227.314850	145.760000
227.407516	146.020000
227.500198	146.640000
227.592865	146.120000
227.685532	145.560000
227.778214	145.500000
227.870880	145.680000
227.963562	146.080000
228.056229	146.520000
228.148926	146.560000
228.241592	147.260000
228.334274	147.100000
228.426956	146.760000
228.519638	146.700000
228.612305	146.500000
228.704987	146.340000
228.797668	146.080000
228.890350	145.720000
228.983032	145.460000
229.075714	146.100000
229.168396	145.560000
229.261108	145.540000
229.353790	145.660000
229.446472	145.740000
229.539169	145.540000
229.631851	145.300000
229.724533	145.540000
229.817230	145.480000
229.909912	146.320000
230.002609	146.380000
230.095306	146.760000
230.187988	146.780000
230.280685	146.640000
230.373383	145.840000
230.466095	145.820000
230.558792	145.980000
230.651474	146.020000
230.744171	146.160000
230.836868	146.120000
230.929581	146.060000
231.022278	146.060000
231.114975	145.860000
231.207672	145.600000
231.300369	145.780000
231.393082	145.780000
231.485779	145.240000
231.578506	145.320000
231.671204	145.680000
231.763916	145.580000
231.856613	145.520000
231.949326	145.960000
232.042023	146.040000
232.134735	146.000000
232.227448	145.640000
232.320160	146.060000
232.412872	145.960000
232.505585	146.060000
232.598297	146.300000
232.691010	146.620000
232.783722	146.020000
232.876450	146.520000
232.969162	146.400000
233.061874	146.140000
233.154587	145.680000
233.247314	146.120000
233.340027	145.480000
233.432739	145.860000
233.525467	145.560000
233.618179	145.820000
233.710907	145.500000
233.803635	146.180000
233.896347	145.780000
233.989090	146.640000
234.081818	146.380000
234.174545	146.420000
234.267258	145.660000
234.359985	145.960000
234.452713	145.440000
234.545441	145.600000
234.638168	145.540000
234.730896	146.100000
234.823639	145.760000
234.916367	146.060000
235.009094	146.100000
235.101822	146.300000
235.194580	146.060000
235.287308	145.980000
235.380051	145.620000
235.472778	146.120000
235.565521	146.280000
235.658249	146.060000
235.750992	146.300000
235.843719	146.100000
235.936462	146.060000
236.029205	145.800000
236.121948	145.840000
236.214691	145.860000
236.307449	146.620000
236.400192	146.240000
236.492935	145.860000
236.585678	145.740000
236.678421	145.660000
236.771164	145.260000
236.863907	145.760000
236.956665	146.140000
237.049408	147.780000
237.142151	147.620000
237.234909	148.360000
237.327652	148.280000
237.420410	147.880000
237.513153	146.780000
237.605927	146.820000
237.698669	146.100000
237.791428	145.420000
237.884186	146.040000
237.976944	145.440000
238.069702	145.360000
238.162445	144.600000
238.255203	144.920000
238.347961	144.800000
238.440720	145.040000
238.533478	145.080000
238.626266	145.180000
238.719025	145.260000
238.811783	145.200000
238.904541	145.340000
238.997314	145.340000
239.090073	145.280000
239.182831	145.500000
239.275604	146.240000
239.368362	146.220000
239.461136	146.240000
239.553909	146.540000
239.646667	146.320000
239.739441	145.720000
239.832214	145.960000
239.925003	146.160000
240.017761	146.540000
240.110535	147.120000
240.203308	146.520000
240.296082	146.300000
240.388855	146.400000
240.481628	146.740000
240.574417	146.340000
240.667191	146.800000
240.759964	146.320000
240.852737	146.020000
240.945526	145.460000
241.038315	145.320000
241.131088	145.320000
241.223877	145.800000
241.316650	145.440000
241.409439	145.680000
241.502228	145.580000
241.595001	146.260000
241.687790	146.320000
241.780579	146.660000
241.873367	146.640000
241.966141	146.820000
242.058929	145.940000
242.151718	145.880000
242.244507	146.320000
242.337311	145.520000
242.430099	145.840000
242.522903	146.400000
242.615692	145.840000
242.708481	145.660000
242.801270	146.400000
242.894073	146.420000
242.986862	146.300000
243.079651	147.160000
243.172455	146.860000
243.265244	146.920000
243.358063	146.200000
243.450867	146.160000
243.543655	145.920000
243.636459	145.960000
243.729263	146.120000
243.822067	146.460000
243.914856	146.840000
244.007660	147.000000
244.100464	147.140000
244.193268	146.680000
244.286072	146.720000
244.378876	146.120000
244.471680	145.660000
244.564499	146.020000
244.657318	146.640000
244.750122	146.760000
244.842926	146.200000
244.935745	146.600000
245.028549	145.880000
245.121368	145.700000
245.214172	145.680000
245.306992	146.320000
245.399796	146.100000
245.492615	146.680000
245.585434	146.300000
245.678253	146.300000
245.771072	146.100000
245.863892	146.380000
245.956711	146.320000
246.049530	146.420000
246.142349	146.120000
246.235168	146.200000
246.327988	146.520000
246.420807	146.160000
246.513626	146.220000
246.606445	146.100000
246.699280	146.300000
246.792099	146.000000
246.884918	145.800000
246.977753	145.660000
247.070587	145.820000
247.163422	145.540000
247.256241	145.460000
247.349075	145.860000
247.441895	145.760000
247.534729	145.320000
247.627563	145.540000
247.720383	146.040000
247.813217	145.960000
247.906052	145.800000
247.998886	146.340000
248.091736	146.220000
248.184570	145.860000
248.277405	145.840000
248.370239	146.880000
248.463074	147.640000
248.555908	147.980000
248.648743	147.460000
248.741592	147.660000
248.834427	146.940000
248.927261	145.800000
249.020111	146.000000
249.112946	146.560000
249.205795	145.760000
249.298630	145.920000
249.391495	146.320000
249.484344	145.540000
249.577179	145.420000
249.670029	146.020000
249.762878	146.300000
249.855728	146.020000
249.948563	146.460000
250.041412	145.880000
250.134262	146.280000
250.227112	146.260000
250.319962	146.280000
250.412827	146.280000
250.505692	146.260000
250.598541	145.840000
250.691391	145.200000
250.784241	145.280000
250.877106	145.260000
250.969955	145.340000
251.062805	145.960000
251.155670	146.520000
251.248520	146.560000
251.341385	146.700000
251.434235	146.680000
251.527100	146.180000
251.619965	145.740000
251.712814	146.620000
251.805695	146.740000
251.898560	146.900000
251.991425	146.980000
252.084290	147.300000
252.177155	146.240000
252.270020	145.760000
252.362885	145.860000
252.455750	145.840000
252.548615	145.660000
252.641479	145.940000
252.734360	145.580000
252.827240	145.380000
252.920105	145.300000
253.012970	145.380000
253.105850	145.240000
253.198715	145.400000
253.291595	145.460000
253.384460	145.060000
253.477341	144.860000
253.570221	145.140000
253.663086	145.000000
253.755966	145.940000
253.848846	146.160000
253.941727	146.320000
254.034592	146.100000
254.127472	146.140000
254.220367	145.880000
254.313248	146.140000
254.406128	145.820000
254.499008	145.840000
254.591904	146.780000
254.684784	146.800000
254.777664	146.860000
254.870544	146.620000
254.963440	146.640000
255.056335	146.200000
255.149216	145.640000
255.242111	145.920000
255.334991	146.640000
255.427887	146.720000
255.520767	146.820000
255.613663	147.100000
255.706558	146.160000
255.799438	145.960000
255.892334	145.860000
255.985229	145.820000
256.078125	145.740000
256.171021	146.200000
256.263916	146.700000
256.356812	147.040000
256.449707	146.940000
256.542603	146.700000
256.635498	147.060000
256.728394	146.520000
256.821289	146.180000
256.914215	146.380000
257.007080	146.660000
257.100006	146.480000
257.192932	147.080000
257.285828	147.460000
257.378723	147.220000
257.471619	146.880000
257.564545	146.240000
257.657440	145.720000
257.750336	145.940000
257.843262	145.640000
257.936157	146.900000
258.029053	147.620000
258.121979	148.040000
258.214874	147.600000
258.307800	147.740000
258.400696	146.460000
258.493622	146.200000
258.586517	145.040000
258.679443	145.340000
258.772339	145.140000
258.865265	145.120000
258.958160	144.680000
259.051086	145.840000
259.144012	145.420000
259.236938	146.100000
259.329834	146.580000
259.422791	147.040000
259.515717	146.240000
259.608612	146.200000
259.701538	145.960000
259.794464	145.560000
259.887390	145.500000
259.980316	145.380000
260.073212	145.100000
260.166138	144.400000
260.259064	144.780000
260.351990	145.420000
260.444916	145.800000
260.537842	146.180000
260.630768	146.880000
260.723694	146.660000
260.816620	146.200000
260.909546	146.180000
261.002472	146.180000
261.095398	146.020000
261.188354	146.080000
261.281281	145.760000
261.374207	145.820000
261.467133	146.460000
261.560089	146.720000
261.653015	146.540000
261.745972	147.100000
261.838867	147.780000
261.931824	147.520000
262.024780	146.660000
262.117706	146.920000
262.210663	146.900000
262.303589	146.080000
262.396515	145.900000
262.489471	147.080000
262.582397	146.960000
262.675354	146.580000
262.768280	146.900000
262.861237	147.080000
262.954163	146.620000
263.047119	146.720000
263.140045	146.500000
263.233002	146.320000
263.325958	146.060000
263.418884	145.540000
263.511841	145.400000
263.604797	145.620000
263.697723	145.480000
263.790680	145.300000
263.883636	146.260000
263.976593	146.240000
264.069550	146.180000
264.162476	145.980000
264.255463	145.900000
264.348419	145.420000
264.441376	145.560000
264.534332	145.080000
264.627289	145.240000
264.720245	145.660000
264.813202	144.980000
264.906158	145.100000
264.999115	145.980000
265.092072	146.300000
265.185028	146.720000
265.277985	147.400000
265.370941	147.460000
265.463898	147.140000
265.556854	147.000000
265.649811	146.060000
265.742798	145.780000
265.835754	145.520000
265.928711	145.800000
266.021667	145.740000
266.114655	146.200000
266.207611	146.600000
266.300568	146.120000
266.393585	145.400000
266.486511	145.560000
266.579498	144.760000
266.672485	144.740000
266.765442	145.060000
266.858429	145.900000
266.951385	145.320000
267.044342	145.700000
267.137329	145.540000
267.230316	145.840000
267.323273	145.000000
267.416260	145.960000
267.509216	146.020000
267.602203	145.740000
267.695160	145.960000
267.788147	146.300000
267.881134	145.420000
267.974091	145.460000
268.067078	145.700000
268.160065	145.300000
268.253052	145.180000
268.346008	145.360000
268.438995	145.180000
268.531982	145.280000
268.624969	145.160000
268.717987	145.540000
268.810944	145.720000
268.903961	145.920000
268.996948	145.260000
269.089905	145.660000
269.182892	145.540000
269.275879	145.840000
269.368866	145.460000
269.461853	146.300000
269.554871	146.260000
269.647858	146.420000
269.740845	146.560000
269.833832	147.200000
269.926819	146.540000
270.019806	146.320000
270.112793	145.620000
270.205811	145.580000
270.298798	145.100000
270.391785	145.840000
270.484772	145.760000
270.577789	146.360000
270.670776	145.780000
270.763763	146.020000
270.856750	145.980000
270.949768	145.440000
271.042786	145.640000
271.135773	145.860000
271.228790	146.100000
271.321808	145.500000
271.414795	145.580000
271.507782	145.060000
271.600800	144.840000
271.693817	144.820000
271.786804	145.300000
271.879822	145.620000
271.972809	145.240000
272.065826	145.780000
272.158844	145.180000
272.251831	145.620000
272.344849	145.880000
272.437866	146.260000
272.530853	145.980000
272.623871	146.220000
272.716888	145.240000
272.809906	145.340000
272.902893	145.400000
272.995911	144.940000
273.088928	145.020000
273.181946	145.540000
273.274963	145.100000
273.367981	144.960000
273.460999	145.440000
273.554047	145.800000
273.647003	146.200000
273.740051	146.380000
273.833069	146.780000
273.926086	147.120000
274.019135	146.700000
274.112152	146.140000
274.205170	146.100000
274.298187	146.180000
274.391205	145.460000
274.484222	145.540000
274.577240	145.560000
274.670258	145.580000
274.763306	145.340000
274.856323	145.660000
274.949341	145.820000
275.042358	146.180000
275.135406	146.380000
275.228424	146.420000
275.321442	146.260000
275.414490	145.980000
275.507507	146.160000
275.600525	146.640000
275.693573	146.380000
275.786591	146.280000
275.879669	146.280000
275.972656	145.600000
276.065735	145.120000
276.158752	145.720000
276.251801	146.460000
276.344818	146.880000
276.437866	147.200000
276.530884	146.760000
276.623932	145.800000
276.716980	145.460000
276.809998	145.560000
276.903046	145.540000
276.996094	146.560000
277.089111	147.500000
277.182159	148.060000
277.275208	147.640000
277.368256	147.400000
277.461304	146.680000
277.554321	146.060000
277.647369	146.100000
277.740417	146.280000
277.833466	146.240000
277.926514	146.220000
278.019562	147.260000
278.112610	146.400000
278.205688	146.240000
278.298706	146.540000
278.391785	146.500000
278.484833	145.800000
278.577881	145.800000
278.670929	146.200000
278.763977	146.280000
278.857025	146.540000
278.950073	146.440000
279.043121	146.220000
279.136169	145.960000
279.229248	145.720000
279.322296	145.760000
279.415344	145.580000
279.508392	145.660000
279.601440	145.600000
279.694519	145.480000
279.787567	145.300000
279.880615	145.300000
279.973694	145.260000
280.066742	145.200000
280.159790	145.400000
280.252869	145.140000
280.345917	144.900000
280.438995	145.060000
280.532074	145.020000
280.625122	145.060000
280.718201	146.320000
280.811279	146.900000
280.904327	147.000000
280.997406	147.260000
281.090454	147.400000
281.183533	146.280000
281.276581	145.900000
281.369659	145.920000
281.462738	145.700000
281.555786	145.400000
281.648865	145.360000
281.741943	145.320000
281.835022	145.760000
281.928070	145.700000
282.021149	145.600000
282.114227	145.480000
282.207306	145.700000
282.300385	145.580000
282.393433	145.840000
282.486511	145.880000
282.579590	146.540000
282.672668	146.540000
282.765747	145.860000
282.858856	145.560000
282.951904	145.920000
283.045013	145.760000
283.138062	146.260000
283.231171	146.760000
283.324249	147.280000
283.417328	147.060000
283.510406	146.440000
283.603485	145.940000
283.696564	145.580000
283.789642	145.260000
283.882751	145.120000
283.975830	145.860000
284.068909	145.600000
284.161987	146.460000
284.255066	146.080000
284.348175	146.140000
284.441254	145.740000
284.534332	146.420000
284.627441	145.680000
284.720520	145.560000
284.813599	145.680000
284.906708	145.680000
284.999786	144.840000
285.092896	144.660000
285.185974	145.820000
285.279053	145.420000
285.372192	145.420000
285.465240	146.340000
285.558380	146.520000
285.651459	145.840000
285.744568	146.700000
285.837677	146.460000
285.930756	146.080000
286.023865	146.020000
286.116943	145.720000
286.210052	145.640000
286.303162	145.800000
286.396240	145.920000
286.489349	145.860000
286.582458	146.320000
286.675568	146.220000
286.768646	146.200000
286.861755	146.360000
286.954865	147.120000
287.047974	146.480000
287.141083	146.080000
287.234161	146.140000
287.327271	146.020000
287.420380	145.920000
287.513519	146.060000
287.606598	146.300000
287.699738	146.420000
287.792816	146.160000
287.885956	146.020000
287.979034	146.000000
288.072174	146.100000
288.165283	145.940000
288.258392	145.920000
288.351501	145.260000
288.444611	145.660000
288.537720	145.700000
288.630859	145.500000
288.723969	145.660000
288.817078	145.980000
288.910187	145.740000
289.003296	145.340000
289.096436	145.420000
289.189545	145.520000
289.282654	145.320000
289.375763	145.960000
289.468903	146.540000
289.562012	146.900000
289.655121	146.780000
289.748260	147.000000
289.841400	146.900000
289.934509	146.260000
290.027649	146.460000
290.120728	146.200000
290.213898	146.160000
290.306976	145.720000
290.400146	146.140000
290.493256	145.540000
290.586395	145.860000
290.679535	146.220000
290.772644	146.140000
290.865784	145.400000
290.958893	145.640000
291.052032	145.420000
291.145172	145.180000
291.238281	144.900000
291.331421	145.280000
291.424561	145.740000
291.517670	145.440000
291.610809	145.680000
291.703949	146.040000
291.797089	146.320000
291.890228	145.560000
291.983337	145.680000
292.076477	145.440000
292.169617	145.660000
292.262756	145.420000
292.355927	145.460000
292.449036	145.400000
292.542206	145.440000
292.635315	145.520000
292.728485	145.720000
292.821625	145.520000
292.914764	146.900000
293.007904	146.760000
293.101044	146.680000
293.194183	146.460000
293.287323	146.700000
293.380463	145.760000
293.473602	145.820000
293.566742	146.140000
293.659882	146.700000
293.753021	146.860000
293.846191	146.660000
293.939331	146.480000
294.032471	145.900000
294.125610	145.460000
294.218781	146.040000
294.311920	146.500000
294.405060	146.700000
294.498230	147.040000
294.591370	147.380000
294.684540	146.500000
294.777679	145.740000
294.870850	145.880000
294.963959	145.480000
295.057159	145.000000
295.150299	145.520000
295.243469	145.820000
295.336609	145.460000
295.429779	145.900000
295.522919	146.300000
295.616089	146.200000
295.709229	146.480000
295.802399	146.660000
295.895569	146.040000
295.988708	145.860000
296.081879	146.160000
296.175018	145.860000
296.268188	145.820000
296.361359	146.400000
296.454529	146.560000
296.547668	146.360000
296.640839	146.680000
296.734009	146.420000
296.827179	146.740000
296.920319	146.840000
297.013519	146.620000
297.106659	146.320000
297.199860	146.500000
297.292999	146.000000
297.386200	145.940000
297.479309	145.660000
297.572510	146.000000
297.665680	145.780000
297.758850	145.740000
297.852020	145.600000
297.945190	145.860000
298.038361	145.400000
298.131531	146.440000
298.224701	146.340000
298.317871	145.740000
298.411072	145.380000
298.504242	145.360000
298.597412	144.460000
298.690582	144.720000
298.783752	145.120000
298.876923	145.720000
298.970093	146.120000
299.063293	146.740000
299.156464	146.940000
299.249634	147.200000
299.342834	147.220000
299.436005	147.360000
299.529205	147.040000
299.622345	147.060000
299.715576	146.260000
299.808716	146.080000
299.901917	145.940000
299.995117	146.200000
300.088287	146.220000
300.181488	146.280000
300.274658	146.160000
300.367828	146.100000
300.461029	145.900000
300.554199	145.920000
300.647400	146.300000
300.740601	146.660000
300.833771	146.500000
300.926971	147.060000
301.020142	146.480000
301.113342	146.280000
301.206512	146.440000
301.299713	146.840000
301.392914	146.360000
301.486084	146.960000
301.579285	147.160000
301.672516	147.140000
301.765686	146.720000
301.858887	146.680000
301.952057	146.280000
302.045288	146.540000
302.138458	146.100000
302.231659	145.960000
302.324860	145.760000
302.418060	145.740000
302.511261	145.560000
302.604462	145.900000
302.697662	145.760000
302.790863	145.680000
302.884064	145.680000
302.977264	145.560000
303.070465	145.660000
303.163666	146.660000
303.256866	147.120000
303.350067	146.820000
303.443268	146.620000
303.536469	146.720000
303.629669	146.000000
303.722870	145.980000
303.816071	146.040000
303.909271	146.200000
304.002472	145.380000
304.095673	145.320000
304.188934	144.620000
304.282104	145.700000
304.375336	146.000000
304.468506	146.080000
304.561768	145.940000
304.654968	146.600000
304.748169	145.820000
304.841370	145.720000
304.934601	146.320000
305.027802	146.160000
305.121002	145.800000
305.214233	145.760000
305.307434	145.740000
305.400665	145.840000
305.493866	145.820000
305.587097	146.080000
305.680298	145.820000
305.773499	146.240000
305.866730	145.960000
305.959930	146.840000
306.053162	146.960000
306.146393	146.840000
306.239594	146.000000
306.332825	145.980000
306.426025	145.980000
306.519287	145.640000
306.612488	145.860000
306.705719	146.120000
306.798920	146.020000
306.892181	145.480000
306.985352	145.220000
307.078613	144.820000
307.171844	145.180000
307.265045	144.980000
307.358276	144.660000
307.451508	145.040000
307.544739	145.700000
307.637970	145.200000
307.731201	145.180000
307.824402	145.740000
307.917633	146.000000
308.010864	146.500000
308.104095	146.820000
308.197327	147.000000
308.290558	146.940000
308.383789	146.220000
308.477020	145.520000
308.570251	145.000000
308.663483	144.540000
308.756714	144.360000
308.849976	144.700000
308.943176	145.280000
309.036438	145.740000
309.129639	145.740000
309.222900	145.840000
309.316101	145.840000
309.409393	145.260000
309.502625	144.620000
309.595856	144.940000
309.689087	145.180000
309.782318	145.220000
309.875580	145.340000
309.968811	145.840000
310.062042	145.660000
310.155273	145.380000
310.248535	145.640000
310.341766	145.560000
310.434998	145.460000
310.528259	145.680000
310.621490	145.940000
310.714722	145.460000
310.807983	145.420000
310.901215	145.340000
310.994476	145.320000
311.087708	144.960000
311.181000	145.180000
311.274200	145.020000
311.367462	145.380000
311.460693	145.340000
311.553986	145.960000
311.647186	146.200000
311.740479	146.800000
311.833710	146.260000
311.926971	146.140000
312.020203	144.900000
312.113464	144.720000
312.206726	143.860000
312.299957	144.120000
312.393219	144.740000
312.486481	145.380000
312.579712	145.240000
312.672974	145.540000
312.766235	145.500000
312.859497	145.080000
312.952759	145.320000
313.045990	146.160000
313.139252	145.860000
313.232513	146.300000
313.325775	146.340000
313.419037	145.740000
313.512299	144.860000
313.605530	145.780000
313.698822	145.520000
313.792053	145.580000
313.885345	145.460000
313.978577	145.420000
314.071869	144.720000
314.165131	144.980000
314.258392	145.100000
314.351654	145.520000
314.444916	145.360000
314.538177	145.700000
314.631439	145.820000
314.724701	145.940000
314.817993	145.880000
314.911255	146.100000
315.004517	145.820000
315.097778	145.360000
315.191040	145.700000
315.284302	145.960000
315.377594	145.920000
315.470856	146.000000
315.564117	145.800000
315.657379	145.240000
315.750671	144.880000
315.843933	145.360000
315.937195	144.900000
316.030518	145.140000
316.123749	144.840000
316.217041	145.780000
316.310303	145.440000
316.403595	145.900000
316.496857	145.880000
316.590149	146.260000
316.683411	145.620000
316.776703	145.500000
316.869965	145.480000
316.963257	145.300000
317.056519	144.500000
317.149811	144.380000
317.243073	144.640000
317.336365	144.700000
317.429626	145.360000
317.522919	146.540000
317.616180	146.520000
317.709473	146.100000
317.802765	146.020000
317.896027	145.540000
317.989319	145.340000
318.082611	145.400000
318.175873	145.380000
318.269165	145.540000
318.362488	145.960000
318.455750	145.600000
318.549042	146.000000
318.642303	146.900000
318.735626	146.460000
318.828888	146.580000
318.922211	146.580000
319.015472	146.840000
319.108765	145.740000
319.202057	145.960000
319.295349	145.640000
319.388641	145.420000
319.481934	144.980000
319.575226	145.000000
319.668518	145.160000
319.761810	145.180000
319.855103	145.180000
319.948395	145.580000
320.041687	145.980000
320.134979	145.860000
320.228271	145.780000
320.321564	145.900000
320.414856	145.640000
320.508148	145.160000
320.601440	145.000000
320.694763	144.540000
320.788025	145.300000
320.881348	145.180000
320.974640	145.420000
321.067963	145.320000
321.161224	145.740000
321.254547	144.940000
321.347839	145.460000
321.441162	145.580000
321.534454	145.940000
321.627747	145.840000
321.721069	146.460000
321.814362	146.180000
321.907654	146.460000
322.000946	146.440000
322.094269	147.060000
322.187561	146.800000
322.280884	147.000000
322.374176	146.920000
322.467468	147.420000
322.560791	147.160000
322.654083	147.660000
322.747406	147.760000
322.840698	147.700000
322.934021	147.480000
323.027344	147.400000
323.120636	147.020000
323.213959	146.620000
323.307251	146.140000
323.400574	146.180000
323.493866	145.960000
323.587219	145.980000
323.680511	146.300000
323.773834	146.760000
323.867157	146.520000
323.960449	146.900000
324.053772	146.640000
324.147095	146.260000
324.240387	146.660000
324.333710	146.720000
324.427032	146.460000
324.520355	146.420000
324.613647	146.340000
324.706970	145.860000
324.800293	145.940000
324.893616	146.160000
324.986938	146.500000
325.080231	146.160000
325.173553	146.680000
325.266876	147.140000
325.360199	146.860000
325.453522	146.240000
325.546875	146.320000
325.640167	146.420000
325.733521	146.280000
325.826813	146.580000
325.920166	146.720000
326.013489	146.600000
326.106812	145.960000
326.200134	145.620000
326.293457	145.240000
326.386780	145.480000
326.480103	145.500000
326.573425	145.220000
326.666748	144.880000
326.760071	145.160000
326.853424	145.220000
326.946747	145.340000
327.040070	146.400000
327.133392	146.300000
327.226715	145.700000
327.320068	145.220000
327.413391	145.600000
327.506714	144.500000
327.600037	144.740000
327.693390	144.920000
327.786713	145.020000
327.880066	145.120000
327.973358	145.600000
328.066742	145.880000
328.160034	146.080000
328.253418	146.200000
328.346710	145.740000
328.440063	145.360000
328.533417	145.220000
328.626740	145.480000
328.720093	145.440000
328.813416	145.280000
328.906769	145.420000
329.000092	145.360000
329.093445	145.160000
329.186768	145.280000
329.280121	145.980000
329.373444	146.220000
329.466797	146.400000
329.560120	146.440000
329.653473	146.380000
329.746796	145.720000
329.840149	145.700000
329.933502	145.500000
330.026825	145.340000
330.120178	145.040000
330.213562	144.900000
330.306854	144.800000
330.400238	144.840000
330.493561	144.780000
330.586945	145.760000
330.680237	146.320000
330.773621	146.280000
330.866974	146.260000
330.960327	146.620000
331.053680	146.060000
331.147003	146.100000
331.240356	146.360000
331.333710	146.360000
331.427063	146.060000
331.520416	145.720000
331.613770	145.380000
331.707123	145.580000
331.800476	145.580000
331.893829	146.120000
331.987152	146.820000
332.080505	147.080000
332.173859	146.440000
332.267212	146.240000
332.360565	145.980000
332.453918	145.520000
332.547333	145.380000
332.640656	145.740000
332.734039	145.700000
332.827362	145.340000
332.920746	145.680000
333.014069	146.040000
333.107452	146.280000
333.200806	146.660000
333.294159	146.940000
333.387543	146.620000
333.480896	145.960000
333.574249	145.640000
333.667603	145.420000
333.760956	145.560000
333.854340	145.500000
333.947693	145.800000
334.041046	145.940000
334.134430	146.320000
334.227783	146.020000
334.321136	145.940000
334.414520	145.620000
334.507874	145.700000
334.601227	145.660000
334.694611	145.620000
334.787964	145.920000
334.881348	146.800000
334.974701	146.540000
335.068085	145.900000
335.161438	146.100000
335.254822	145.720000
335.348175	145.320000
335.441559	145.120000
335.534943	146.040000
335.628296	145.700000
335.721680	145.920000
335.815033	145.940000
335.908417	146.420000
336.001770	146.040000
336.095154	146.000000
336.188538	145.680000
336.281891	145.340000
336.375275	144.760000
336.468658	144.480000
336.562012	144.640000
336.655396	145.220000
336.748779	145.560000
336.842133	146.120000
336.935516	146.580000
337.028900	146.480000
337.122284	146.220000
337.215637	146.400000
337.309021	146.200000
337.402435	145.660000
337.495789	145.920000
337.589203	145.680000
337.682526	145.500000
337.775940	145.680000
337.869324	146.100000
337.962708	146.040000
338.056091	146.540000
338.149475	146.180000
338.242859	146.340000
338.336243	145.960000
338.429626	145.980000
338.523010	145.820000
338.616394	145.500000
338.709778	145.460000
338.803162	145.580000
338.896545	145.580000
338.989929	145.200000
339.083313	145.600000
339.176697	145.040000
339.270081	145.160000
339.363464	145.460000
339.456848	145.880000
339.550232	145.460000
339.643616	145.520000
339.737030	145.360000
339.830383	145.140000
339.923828	145.200000
340.017181	145.360000
340.110596	145.760000
340.203949	145.440000
340.297363	145.020000
340.390778	144.780000
340.484161	145.280000
340.577545	144.700000
340.670959	145.040000
340.764343	145.200000
340.857727	145.220000
340.951111	144.480000
341.044525	144.840000
341.137909	144.620000
341.231293	144.560000
341.324707	144.100000
341.418091	144.960000
341.511505	145.020000
341.604889	145.160000
341.698303	145.160000
341.791687	145.540000
341.885071	144.740000
341.978485	144.540000
342.071899	145.040000
342.165283	145.440000
342.258698	145.960000
342.352081	146.880000
342.445496	147.260000
342.538879	146.800000
342.632324	146.200000
342.725708	146.120000
342.819122	145.320000
342.912506	144.980000
343.005920	145.140000
343.099335	146.180000
343.192719	145.640000
343.286133	146.080000
343.379547	146.340000
343.472931	146.180000
343.566345	145.480000
343.659760	145.940000
343.753143	145.720000
343.846558	145.360000
343.939972	145.460000
344.033386	146.080000
344.126770	145.660000
344.220184	145.880000
344.313599	146.420000
344.407043	146.660000
344.500427	145.740000
344.593872	146.240000
344.687225	145.820000
344.780670	145.220000
344.874054	144.820000
344.967499	145.540000
345.060913	145.500000
345.154327	145.560000
345.247742	145.500000
345.341156	145.480000
345.434570	145.040000
345.527985	144.780000
345.621399	145.100000
345.714813	145.280000
345.808228	145.360000
345.901642	145.100000
345.995056	144.680000
346.088470	144.540000
346.181885	144.520000
346.275299	144.160000
346.368713	144.340000
346.462128	144.260000
346.555573	144.280000
346.648987	144.680000
346.742401	145.140000
346.835815	145.660000
346.929260	145.880000
347.022644	145.820000
347.116119	145.920000
347.209503	145.880000
347.302948	146.280000
347.396362	147.160000
347.489807	147.260000
347.583221	147.380000
347.676636	147.260000
347.770050	146.200000
347.863495	145.280000
347.956909	145.380000
348.050323	144.900000
348.143768	144.780000
348.237183	144.900000
348.330597	145.400000
348.424042	145.540000
348.517456	145.980000
348.610901	146.200000
348.704315	146.500000
348.797760	146.020000
348.891174	145.200000
348.984619	144.240000
349.078033	144.780000
349.171448	144.940000
349.264923	144.900000
349.358337	145.320000
349.451782	145.840000
349.545197	145.000000
349.638641	144.480000
349.732086	144.260000
349.825500	144.820000
349.918945	144.640000
350.012390	145.300000
350.105804	145.700000
350.199249	146.300000
350.292664	146.620000
350.386108	146.700000
350.479553	146.980000
350.572968	146.820000
350.666412	146.840000
350.759857	146.460000
350.853302	147.060000
350.946716	146.240000
351.040161	146.380000
351.133606	146.220000
351.227081	145.940000
351.320465	146.260000
351.413940	146.680000
351.507355	146.720000
351.600830	146.980000
351.694244	146.800000
351.787720	146.400000
351.881104	146.040000
351.974579	145.600000
352.067993	146.200000
352.161469	146.280000
352.254883	145.500000
352.348358	145.480000
352.441803	145.820000
352.535248	145.120000
352.628693	145.400000
352.722137	145.660000
352.815582	145.960000
352.909027	145.980000
353.002472	145.780000
353.095917	145.740000
353.189362	146.160000
353.282806	146.180000
353.376251	146.040000
353.469696	145.700000
353.563141	146.180000
353.656586	145.860000
353.750061	145.460000
353.843475	145.460000
353.936981	146.080000
354.030396	145.380000
354.123871	145.740000
354.217285	146.760000
354.310760	147.060000
354.404175	147.120000
354.497681	146.620000
354.591095	146.180000
354.684570	145.140000
354.777985	145.000000
354.871490	144.520000
354.964935	145.420000
355.058380	145.780000
355.151855	145.680000
355.245300	145.980000
355.338745	146.300000
355.432220	146.100000
355.525665	145.740000
355.619110	146.220000
355.712585	145.700000
355.806030	145.520000
355.899475	144.840000
355.992950	145.180000
356.086426	145.320000
356.179871	145.620000
356.273346	145.680000
356.366791	146.200000
356.460266	146.420000
356.553711	145.860000
356.647186	145.740000
356.740631	145.720000
356.834106	145.700000
356.927551	145.560000
357.021027	145.900000
357.114471	145.780000
357.207947	146.000000
357.301422	146.420000
357.394867	146.160000
357.488342	146.440000
357.581818	146.760000
357.675262	146.600000
357.768738	145.980000
357.862213	145.500000
357.955658	145.340000
358.049133	144.900000
358.142609	145.140000
358.236053	145.180000
358.329529	145.840000
358.423035	145.860000
358.516449	145.760000
358.609955	146.140000
358.703400	147.060000
358.796906	146.820000
358.890350	146.300000
358.983826	146.760000
359.077271	145.780000
359.170776	145.100000
359.264221	144.960000
359.357727	145.320000
359.451172	145.400000
359.544647	145.900000
359.638123	145.700000
359.731598	146.180000
359.825073	146.680000
359.918549	146.640000
360.012024	146.520000
360.105499	146.500000
360.198975	146.140000
360.292450	145.800000
360.385925	145.360000
360.479401	145.160000
360.572876	145.480000
360.666351	145.880000
360.759857	145.760000
360.853302	145.840000
360.946808	145.780000
361.040253	145.420000
361.133759	144.860000
361.227203	145.180000
361.320709	145.200000
361.414154	145.520000
361.507660	145.920000
361.601105	146.320000
361.694641	146.680000
361.788086	146.600000
361.881592	146.860000
361.975067	146.260000
362.068542	146.500000
362.162018	145.920000
362.255524	145.340000
362.348999	144.960000
362.442474	145.660000
362.535950	145.000000
362.629456	144.820000
362.722931	144.920000
362.816406	145.200000
362.909882	145.300000
363.003387	145.060000
363.096863	145.580000
363.190338	146.060000
363.283875	145.740000
363.377319	145.480000
363.470825	146.400000
363.564301	145.600000
363.657806	145.940000
363.751282	145.740000
363.844788	146.600000
363.938232	145.940000
364.031769	147.000000
364.125214	146.820000
364.218750	147.440000
364.312225	146.160000
364.405731	146.580000
364.499207	145.680000
364.592712	145.380000
364.686188	145.220000
364.779694	145.660000
364.873169	145.540000
364.966675	145.540000
365.060150	145.600000
365.153656	145.740000
365.247131	145.600000
365.340637	145.860000
365.434143	146.860000
365.527618	147.040000
365.621155	146.500000
365.714600	146.760000
365.808136	146.640000
365.901611	145.120000
365.995117	144.900000
366.088593	144.760000
366.182129	144.380000
366.275604	144.300000
366.369110	144.640000
366.462585	144.440000
366.556122	145.300000
366.649567	145.460000
366.743103	145.840000
366.836609	145.780000
366.930115	146.400000
367.023590	146.480000
367.117096	146.300000
367.210602	145.780000
367.304108	146.480000
367.397614	146.800000
367.491119	146.540000
367.584595	146.720000
367.678101	147.020000
367.771606	146.560000
367.865112	146.120000
367.958649	145.560000
368.052124	145.320000
368.145660	145.020000
368.239136	145.800000
368.332672	145.760000
368.426147	146.000000
368.519684	146.000000
368.613159	146.520000
368.706696	145.780000
368.800171	145.680000
368.893707	145.440000
368.987183	145.320000
369.080719	145.200000
369.174225	145.280000
369.267731	145.620000
369.361237	145.660000
369.454742	145.800000
369.548248	145.900000
369.641754	145.740000
369.735260	145.340000
369.828766	144.800000
369.922272	145.540000
370.015808	145.020000
370.109314	145.060000
370.202820	145.100000
370.296356	146.300000
370.389832	145.660000
370.483368	145.500000
370.576874	145.460000
370.670410	145.780000
370.763885	144.760000
370.857422	144.840000
370.950928	144.940000
371.044464	145.640000
371.137939	145.620000
371.231476	146.040000
371.324982	146.660000
371.418518	146.740000
371.512024	146.280000
371.605560	146.180000
371.699066	146.660000
371.792572	146.040000
371.886108	146.300000
371.979614	146.220000
372.073120	146.480000
372.166656	146.220000
372.260162	146.440000
372.353668	146.320000
372.447205	146.280000
372.540710	145.940000
372.634277	145.800000
372.727753	145.840000
372.821320	145.640000
372.914795	145.720000
373.008362	145.740000
373.101837	145.780000
373.195404	145.280000
373.288879	145.280000
373.382446	145.920000
373.475922	145.840000
373.569489	146.020000
373.662964	146.800000
373.756531	146.980000
373.850037	146.540000
373.943573	146.380000
374.037109	145.640000
374.130615	145.400000
374.224152	145.740000
374.317657	145.740000
374.411194	146.620000
374.504730	146.760000
374.598236	146.600000
374.691772	146.040000
374.785309	145.820000
374.878815	144.800000
374.972351	145.420000
375.065887	145.060000
375.159454	145.800000
375.252930	145.700000
375.346497	146.060000
375.440002	146.500000
375.533569	146.700000
375.627045	145.540000
375.720612	145.620000
375.814117	145.720000
375.907684	145.100000
376.001160	145.180000
376.094727	145.320000
376.188232	145.880000
376.281799	146.000000
376.375336	146.200000
376.468872	146.660000
376.562408	147.420000
376.655914	147.060000
376.749451	147.120000
376.842987	147.120000
376.936523	146.860000
377.030060	146.620000
377.123596	146.740000
377.217133	146.160000
377.310669	145.980000
377.404205	146.180000
377.497772	146.440000
377.591278	146.020000
377.684845	146.980000
377.778351	147.300000
377.871918	146.920000
377.965424	146.000000
378.058990	145.980000
378.152496	145.500000
378.246063	145.400000
378.339569	145.660000
378.433136	146.160000
378.526642	146.520000
378.620209	146.340000
378.713745	145.920000
378.807312	146.320000
378.900848	146.140000
378.994385	145.840000
379.087921	145.440000
379.181458	145.960000
379.274994	144.900000
379.368530	144.820000
379.462097	145.360000
379.555634	145.980000
379.649170	145.180000
379.742706	145.180000
379.836273	145.480000
379.929810	145.160000
380.023376	144.680000
380.116882	144.760000
380.210449	145.080000
380.303986	144.500000
380.397552	143.820000
380.491058	144.140000
380.584656	144.080000
380.678162	143.980000
380.771729	144.560000
380.865265	145.800000
380.958832	145.720000
381.052368	146.360000
381.145935	147.060000
381.239471	147.300000
381.333008	146.880000
381.426575	147.000000
381.520111	147.080000
381.613647	146.820000
381.707214	146.680000
381.800751	146.220000
381.894318	146.400000
381.987854	145.740000
382.081421	145.480000
382.174988	145.600000
382.268524	145.380000
382.362091	145.260000
382.455627	146.360000
382.549194	146.260000
382.642731	145.400000
382.736298	145.700000
382.829834	145.340000
382.923401	145.280000
383.016937	145.620000
383.110504	146.340000
383.204041	146.400000
383.297607	146.720000
383.391174	146.000000
383.484741	146.460000
383.578278	146.080000
383.671844	145.620000
383.765411	145.080000
383.858948	145.240000
383.952515	145.020000
384.046051	145.560000
384.139618	146.420000
384.233185	146.980000
384.326721	147.200000
384.420288	147.500000
384.513855	147.200000
384.607422	147.100000
384.700989	147.320000
384.794525	146.860000
384.888123	146.400000
384.981659	146.900000
385.075226	146.340000
385.168762	145.760000
385.262360	146.120000
385.355896	145.320000
385.449463	144.660000
385.542999	144.700000
385.636597	145.260000
385.730164	145.180000
385.823730	145.320000
385.917267	145.380000
386.010834	145.720000
386.104401	145.740000
386.197968	145.940000
386.291534	146.380000
386.385101	146.480000
386.478668	146.940000
386.572235	146.560000
386.665802	146.080000
386.759338	145.740000
386.852905	145.500000
386.946472	144.720000
387.040070	145.260000
387.133606	145.400000
387.227203	145.500000
387.320740	145.940000
387.414337	146.060000
387.507874	145.720000
387.601471	146.280000
387.695007	146.240000
387.788605	145.960000
387.882141	145.880000
387.975739	146.120000
388.069275	145.380000
388.162872	145.500000
388.256439	145.200000
388.350037	145.320000
388.443604	145.080000
388.537170	145.220000
388.630737	145.740000
388.724304	146.220000
388.817871	145.780000
388.911438	145.900000
389.005005	146.040000
389.098602	146.200000
389.192169	145.800000
389.285736	146.860000
389.379333	146.580000
389.472870	146.220000
389.566467	145.880000
389.660034	146.220000
389.753632	145.200000
389.847168	145.500000
389.940765	145.760000
390.034332	145.660000
390.127930	145.200000
390.221466	145.640000
390.315063	145.360000
390.408630	144.800000
390.502228	144.300000
390.595795	144.720000
390.689362	144.580000
390.782959	144.880000
390.876526	145.560000
390.970093	145.780000
391.063690	146.300000
391.157257	146.500000
391.250824	146.500000
391.344421	146.100000
391.437988	146.440000
391.531555	146.080000
391.625153	146.100000
391.718750	146.420000
391.812317	146.700000
391.905914	146.180000
391.999481	146.340000
392.093079	146.220000
392.186615	146.100000
392.280243	146.120000
392.373779	146.560000
392.467407	146.860000
392.560944	146.900000
392.654572	146.560000
392.748108	146.360000
392.841736	146.200000
392.935303	145.500000
393.028900	145.360000
393.122467	145.660000
393.216064	145.260000
393.309631	144.660000
393.403229	144.600000
393.496796	144.620000
393.590393	143.740000
393.683990	144.480000
393.777557	145.540000
393.871155	145.600000
393.964722	146.060000
394.058350	146.420000
394.151917	146.180000
394.245514	145.820000
394.339081	146.160000
394.432678	146.260000
394.526245	146.180000
394.619873	145.940000
394.713409	145.860000
394.807037	145.480000
394.900604	145.240000
394.994202	145.140000
395.087769	145.420000
395.181396	145.080000
395.274994	145.840000
395.368561	145.360000
395.462158	145.760000
395.555756	145.520000
395.649353	146.040000
395.742920	145.300000
395.836517	145.800000
395.930115	145.380000
396.023712	145.700000
396.117279	145.680000
396.210876	145.420000
396.304474	145.580000
396.398071	145.940000
396.491669	145.980000
396.585266	145.740000
396.678833	145.880000
396.772461	145.720000
396.866028	145.440000
396.959656	145.500000
397.053223	145.900000
397.146851	146.120000
397.240417	146.440000
397.334015	147.500000
397.427582	147.740000
397.521210	148.140000
397.614807	149.440000
397.708405	150.660000
397.802002	151.600000
397.895599	154.280000
397.989197	157.020000
398.082794	159.880000
398.176392	164.080000
398.269989	169.360000
398.363586	175.240000
398.457184	183.080000
398.550781	191.600000
398.644379	199.920000
398.737976	210.440000
398.831573	220.620000
398.925201	231.620000
399.018768	244.060000
399.112396	258.660000
399.205963	274.800000
399.299591	294.540000
399.393158	314.640000
399.486786	336.960000
399.580353	359.000000
399.673981	378.720000
399.767578	397.020000
399.861206	413.760000
399.954773	426.560000
400.048401	434.720000
400.141998	439.280000
400.235596	439.520000
400.329193	436.480000
400.422791	431.600000
400.516418	425.140000
400.610016	417.440000
400.703613	407.460000
400.797211	393.600000
400.890808	377.000000
400.984436	359.640000
401.078033	339.640000
401.171631	319.480000
401.265259	300.420000
401.358826	282.800000
401.452484	264.860000
401.546051	249.380000
401.639679	233.120000
401.733246	219.200000
401.826904	205.100000
401.920471	192.860000
402.014099	182.140000
402.107697	174.320000
402.201324	167.100000
402.294891	161.660000
402.388550	157.680000
402.482147	154.620000
402.575745	151.720000
402.669373	149.580000
402.762970	148.340000
402.856567	147.560000
402.950195	147.080000
403.043793	146.840000
403.137390	147.480000
403.231018	146.600000
403.324615	146.940000
403.418243	146.340000
403.511841	146.820000
403.605469	146.300000
403.699066	147.020000
403.792694	146.940000
403.886292	147.140000
403.979919	146.620000
404.073517	146.500000
404.167145	146.540000
404.260712	145.900000
404.354370	145.680000
404.447937	145.920000
404.541595	145.820000
404.635162	145.860000
404.728821	146.480000
404.822418	145.920000
404.916046	145.600000
405.009644	145.940000
405.103271	146.180000
405.196899	145.840000
405.290497	146.280000
405.384125	146.780000
405.477722	146.300000
405.571350	145.820000
405.664948	145.860000
405.758575	145.760000
405.852203	145.220000
405.945801	145.360000
406.039429	145.160000
406.133057	144.800000
406.226654	144.760000
406.320312	144.860000
406.413879	145.160000
406.507538	145.680000
406.601135	145.600000
406.694763	146.080000
406.788361	145.680000
406.882019	145.320000
406.975586	145.260000
407.069244	145.940000
407.162872	145.800000
407.256470	145.860000
407.350098	146.120000
407.443726	145.820000
407.537323	145.280000
407.630951	145.480000
407.724579	145.500000
407.818207	145.440000
407.911804	145.300000
408.005432	145.460000
408.099060	145.360000
408.192688	145.600000
408.286285	145.560000
408.379913	145.600000
408.473572	145.640000
408.567169	145.100000
408.660828	145.100000
408.754395	144.820000
408.848053	144.780000
408.941650	144.640000
409.035309	144.780000
409.128906	144.860000
409.222565	145.280000
409.316132	145.400000
409.409790	145.280000
409.503387	145.160000
409.597046	145.060000
409.690674	145.040000
409.784302	145.240000
409.877930	145.200000
409.971558	145.540000
410.065186	145.640000
410.158783	145.500000
410.252411	145.060000
410.346039	145.440000
410.439667	145.120000
410.533295	145.360000
410.626923	145.660000
410.720551	145.680000
410.814209	145.960000
410.907806	146.260000
411.001465	145.600000
411.095062	145.620000
411.188721	146.100000
411.282318	145.460000
411.375977	145.060000
411.469574	145.260000
411.563232	144.940000
411.656830	144.460000
411.750488	144.720000
411.844086	144.600000
411.937744	144.860000
412.031372	144.700000
412.125000	144.820000
412.218628	144.840000
412.312256	145.740000
412.405884	145.980000
412.499512	146.080000
412.593170	146.480000
412.686798	146.600000
412.780426	146.060000
412.874054	146.040000
412.967682	146.060000
413.061310	146.660000
413.154968	146.640000
413.248566	146.640000
413.342224	146.360000
413.435852	146.520000
413.529510	145.380000
413.623108	144.860000
413.716766	144.740000
413.810364	145.040000
413.904022	144.780000
413.997650	144.880000
414.091309	145.900000
414.184906	145.760000
414.278564	145.460000
414.372192	145.980000
414.465851	146.440000
414.559479	145.680000
414.653107	146.700000
414.746735	146.360000
414.840393	145.840000
414.934021	145.860000
415.027649	145.560000
415.121277	145.300000
415.214935	145.980000
415.308563	145.900000
415.402191	145.300000
415.495850	145.420000
415.589478	144.940000
415.683136	144.480000
415.776733	144.960000
415.870422	145.680000
415.964020	145.200000
416.057678	145.400000
416.151306	145.460000
416.244965	145.260000
416.338562	144.900000
416.432251	146.060000
416.525848	146.680000
416.619507	146.700000
416.713165	146.940000
416.806793	147.020000
416.900421	146.560000
416.994080	145.720000
417.087708	145.920000
417.181366	145.300000
417.274994	145.060000
417.368622	145.300000
417.462280	145.740000
417.555908	145.380000
417.649567	145.700000
417.743195	145.860000
417.836853	145.920000
417.930481	146.000000
418.024170	146.540000
418.117767	147.000000
418.211426	147.380000
418.305054	147.300000
418.398712	146.920000
418.492340	146.600000
418.585999	146.540000
418.679626	146.360000
418.773285	146.280000
418.866913	146.680000
418.960571	146.780000
419.054230	146.700000
419.147858	146.620000
419.241516	146.580000
419.335144	146.460000
419.428802	146.540000
419.522461	146.360000
419.616089	146.180000
419.709747	146.500000
419.803375	146.520000
419.897034	146.420000
419.990662	146.360000
420.084320	146.580000
420.177979	146.520000
420.271606	146.580000
420.365295	146.960000
420.458893	147.600000
420.552582	147.920000
420.646210	147.820000
420.739868	147.480000
420.833496	146.900000
420.927155	145.700000
421.020782	145.220000
421.114471	144.660000
421.208069	144.980000
421.301758	145.280000
421.395386	145.960000
421.489044	145.860000
421.582703	146.380000
421.676361	146.660000
421.769989	146.560000
421.863647	146.860000
421.957306	147.080000
422.050934	147.140000
422.144592	146.920000
422.238251	146.700000
422.331909	146.220000
422.425537	145.940000
422.519196	145.660000
422.612854	145.240000
422.706543	145.080000
422.800140	145.460000
422.893829	145.520000
422.987457	145.580000
423.081146	145.620000
423.174744	146.200000
423.268433	145.680000
423.362061	145.420000
423.455750	145.500000
423.549347	145.720000
423.643036	145.060000
423.736664	145.820000
423.830353	146.000000
423.924011	145.980000
424.017639	145.680000
424.111298	145.980000
424.204956	145.580000
424.298615	145.740000
424.392273	145.700000
424.485931	145.800000
424.579559	146.240000
424.673218	145.740000
424.766876	145.820000
424.860535	145.220000
424.954193	145.100000
425.047882	145.160000
425.141510	145.540000
425.235199	145.600000
425.328796	145.460000
425.422485	145.520000
425.516113	144.960000
425.609802	144.980000
425.703430	144.860000
425.797119	145.300000
425.890747	145.660000
425.984436	145.780000
426.078064	146.220000
426.171753	146.160000
426.265411	146.340000
426.359070	146.220000
426.452728	146.120000
426.546356	145.560000
426.640015	145.660000
426.733673	145.780000
426.827332	145.220000
426.920990	145.960000
427.014648	145.700000
427.108307	145.900000
427.201965	146.140000
427.295624	146.480000
427.389282	145.700000
427.482941	146.220000
427.576630	145.900000
427.670258	145.120000
427.763947	144.800000
427.857574	144.840000
427.951263	144.580000
428.044922	144.380000
428.138611	144.900000
428.232239	145.740000
428.325928	146.140000
428.419556	146.400000
428.513245	146.300000
428.606903	146.580000
428.700562	145.840000
428.794220	145.080000
428.887878	144.620000
428.981537	145.100000
429.075195	144.780000
429.168854	145.460000
429.262512	145.740000
429.356201	145.820000
429.449860	145.360000
429.543518	145.160000
429.637177	144.980000
429.730835	145.040000
429.824493	145.000000
429.918182	145.360000
430.011810	145.220000
430.105530	144.620000
430.199158	144.920000
430.292847	145.060000
430.386475	144.760000
430.480164	144.740000
430.573792	144.720000
430.667511	144.460000
430.761139	144.360000
430.854828	144.840000
430.948456	145.240000
431.042145	145.780000
431.135834	145.480000
431.229492	145.920000
431.323151	146.000000
431.416809	145.840000
431.510468	145.620000
431.604156	145.820000
431.697815	145.700000
431.791473	145.140000
431.885132	144.720000
431.978821	144.960000
432.072479	145.180000
432.166138	145.560000
432.259827	145.860000
432.353485	146.600000
432.447174	146.680000
432.540802	146.460000
432.634491	146.300000
432.728149	146.340000
432.821838	146.480000
432.915466	145.960000
433.009186	146.000000
433.102814	145.260000
433.196503	144.920000
433.290131	144.640000
433.383850	145.280000
433.477509	145.180000
433.571167	146.220000
433.664856	146.840000
433.758514	146.840000
433.852173	146.580000
433.945862	146.600000
434.039520	146.080000
434.133179	145.340000
434.226868	145.460000
434.320526	144.780000
434.414185	145.380000
434.507874	145.160000
434.601562	145.580000
434.695221	145.140000
434.788910	145.480000
434.882538	145.200000
434.976257	144.840000
435.069885	144.800000
435.163574	144.940000
435.257233	144.780000
435.350922	144.940000
435.444580	145.040000
435.538269	144.880000
435.631897	145.360000
435.725616	145.840000
435.819275	146.060000
435.912964	146.560000
436.006622	147.120000
436.100311	146.740000
436.193970	146.100000
436.287628	145.620000
436.381317	145.340000
436.474976	145.160000
436.568665	144.900000
436.662323	145.380000
436.756012	145.640000
436.849670	145.260000
436.943390	144.600000
437.037018	144.720000
437.130737	144.640000
437.224365	144.340000
437.318085	144.820000
437.411713	145.040000
437.505432	145.460000
437.599060	146.000000
437.692780	146.480000
437.786407	146.400000
437.880127	146.640000
437.973755	146.260000
438.067474	145.760000
438.161133	145.760000
438.254822	145.900000
438.348480	145.720000
438.442169	146.440000
438.535828	146.740000
438.629517	146.160000
438.723175	145.900000
438.816864	146.340000
438.910553	145.480000
439.004211	145.260000
439.097900	144.840000
439.191559	145.180000
439.285248	144.460000
439.378906	144.760000
439.472626	144.760000
439.566284	145.120000
439.659973	145.240000
439.753632	145.500000
439.847321	145.680000
439.940979	145.480000
440.034698	145.560000
440.128326	144.800000
440.222046	144.660000
440.315674	144.160000
440.409393	144.240000
440.503082	144.180000
440.596741	144.560000
440.690430	144.820000
440.784088	144.640000
440.877777	144.060000
440.971466	144.260000
441.065125	144.220000
441.158813	144.040000
441.252502	144.340000
441.346161	144.880000
441.439850	145.100000
441.533539	145.020000
441.627197	145.380000
441.720886	145.380000
441.814606	145.840000
441.908234	146.020000
442.001953	145.880000
442.095612	145.540000
442.189301	145.600000
442.282959	145.420000
442.376678	144.680000
442.470306	145.320000
442.564026	145.300000
442.657684	145.520000
442.751404	145.480000
442.845032	146.480000
442.938751	145.940000
443.032440	145.860000
443.126099	145.440000
443.219788	145.980000
443.313477	145.520000
443.407166	146.080000
443.500824	146.400000
443.594513	146.600000
443.688202	146.100000
443.781891	145.620000
443.875549	145.040000
443.969238	145.120000
444.062927	145.260000
444.156647	145.260000
444.250275	145.740000
444.343994	145.920000
444.437653	145.620000
444.531372	145.560000
444.625031	145.320000
444.718719	144.900000
444.812378	144.900000
444.906097	144.880000
444.999756	144.540000
445.093445	144.540000
445.187103	144.600000
445.280823	145.200000
445.374512	144.860000
445.468201	145.060000
445.561859	144.920000
445.655548	145.300000
445.749237	144.760000
445.842926	145.100000
445.936615	145.720000
446.030304	146.020000
446.123962	146.340000
446.217651	146.200000
446.311340	146.380000
446.405029	145.880000
446.498749	145.480000
446.592407	144.960000
446.686096	145.180000
446.779755	145.360000
446.873474	145.640000
446.967133	146.360000
447.060852	146.300000
447.154510	146.100000
447.248230	145.980000
447.341858	145.800000
447.435577	145.020000
447.529236	144.660000
447.622955	144.440000
447.716644	144.420000
447.810333	144.400000
447.904022	144.860000
447.997711	145.100000
448.091400	145.560000
448.185059	145.440000
448.278748	145.420000
448.372437	145.280000
448.466125	145.340000
448.559814	145.220000
448.653503	145.600000
448.747192	145.820000
448.840912	146.260000
448.934570	146.260000
449.028290	146.600000
449.121948	146.240000
449.215637	145.860000
449.309296	145.400000
449.403015	145.580000
449.496674	145.500000
449.590393	145.560000
449.684052	145.380000
449.777771	145.940000
449.871429	145.400000
449.965149	145.280000
450.058838	145.680000
450.152527	146.340000
450.246216	146.140000
450.339905	146.300000
450.433594	145.920000
450.527283	146.140000
450.620972	145.540000
450.714661	145.580000
450.808350	145.800000
450.902039	146.500000
450.995728	146.400000
451.089417	146.400000
451.183105	146.480000
451.276794	146.600000
451.370514	145.740000
451.464172	144.620000
451.557892	144.680000
451.651550	144.780000
451.745270	144.380000
451.838928	144.300000
451.932648	144.960000
452.026306	145.400000
452.120026	144.920000
452.213684	145.500000
452.307404	145.880000
452.401062	146.260000
452.494781	146.320000
452.588470	146.140000
452.682159	145.640000
452.775848	145.640000
452.869537	144.660000
452.963226	144.340000
453.056915	144.320000
453.150604	144.580000
453.244293	144.820000
453.337982	145.820000
453.431671	146.000000
453.525360	146.800000
453.619049	146.880000
453.712769	146.720000
453.806427	146.460000
453.900146	146.000000
453.993805	145.400000
454.087555	145.720000
454.181213	145.760000
454.274933	145.320000
454.368591	145.460000
454.462311	145.540000
454.555969	145.040000
454.649689	145.560000
454.743347	145.560000
454.837067	146.240000
454.930756	146.840000
455.024445	146.960000
455.118134	146.660000
455.211853	146.920000
455.305542	146.260000
455.399231	145.840000
455.492920	145.720000
455.586609	145.500000
455.680298	145.680000
455.773987	145.720000
455.867676	145.880000
455.961365	145.980000
456.055084	146.020000
456.148773	145.780000
456.242493	145.820000
456.336151	145.720000
456.429871	146.040000
456.523529	146.520000
456.617249	146.340000
456.710907	146.780000
456.804626	146.380000
456.898315	145.740000
456.992035	145.180000
457.085693	144.800000
457.179413	144.140000
457.273102	145.120000
457.366791	145.240000
457.460480	145.540000
457.554199	146.520000
457.647888	146.660000
457.741577	145.860000
457.835266	146.100000
457.928955	146.080000
458.022644	145.860000
458.116364	146.240000
458.210052	146.200000
458.303741	146.480000
458.397461	145.720000
458.491119	144.980000
458.584839	144.900000
458.678528	144.660000
458.772247	144.140000
458.865906	144.580000
458.959625	145.800000
459.053284	145.640000
459.147003	145.740000
459.240692	146.380000
459.334412	146.400000
459.428070	145.660000
459.521790	145.560000
459.615479	145.580000
459.709198	146.000000
459.802887	145.760000
459.896576	145.560000
459.990265	145.780000
460.083954	146.120000
460.177673	145.440000
460.271362	145.640000
460.365051	145.840000
460.458740	145.440000
460.552429	145.080000
460.646149	144.880000
460.739838	144.560000
460.833527	144.940000
460.927246	145.040000
461.020905	144.840000
461.114655	144.900000
461.208313	145.240000
461.302032	144.620000
461.395691	144.760000
461.489441	145.020000
461.583099	144.880000
461.676819	144.620000
461.770477	145.100000
461.864197	145.020000
461.957916	144.880000
462.051605	144.540000
462.145294	145.440000
462.238983	144.840000
462.332703	145.320000
462.426392	145.900000
462.520081	146.120000
462.613770	145.620000
462.707489	146.200000
462.801178	145.760000
462.894867	145.300000
462.988556	145.440000
463.082275	145.420000
463.175964	145.240000
463.269684	145.460000
463.363342	145.540000
463.457092	145.140000
463.550751	145.440000
463.644470	145.380000
463.738129	145.020000
463.831879	145.100000
463.925537	145.800000
464.019257	145.600000
464.112946	145.460000
464.206665	145.460000
464.300323	145.360000
464.394043	145.220000
464.487762	145.320000
464.581451	146.000000
464.675140	146.200000
464.768829	146.340000
464.862549	146.020000
464.956238	146.080000
465.049927	145.900000
465.143646	145.960000
465.237335	145.760000
465.331024	146.620000
465.424713	146.400000
465.518433	146.320000
465.612152	146.180000
465.705811	146.240000
465.799561	145.560000
465.893219	145.160000
465.986938	144.860000
466.080597	144.460000
466.174347	144.560000
466.268005	144.500000
466.361725	144.780000
466.455414	144.840000
466.549133	144.940000
466.642792	145.020000
466.736542	144.920000
466.830231	144.920000
466.923920	144.840000
467.017609	145.200000
467.111328	144.800000
467.205017	144.900000
467.298706	144.960000
467.392426	145.280000
467.486115	145.320000
467.579803	145.220000
467.673523	145.360000
467.767212	145.800000
467.860901	145.340000
467.954651	145.520000
468.048309	145.960000
468.142029	145.880000
468.235718	145.560000
468.329437	145.420000
468.423096	145.300000
468.516846	145.180000
468.610504	144.820000
468.704224	144.440000
468.797913	144.520000
468.891632	144.540000
468.985291	144.400000
469.079010	144.780000
469.172729	144.540000
469.266418	145.340000
469.360107	145.180000
469.453827	145.240000
469.547516	145.400000
469.641205	146.220000
469.734924	145.900000
469.828613	146.520000
469.922302	146.820000
470.016022	146.540000
470.109711	146.340000
470.203430	145.860000
470.297150	144.760000
470.390808	144.660000
470.484558	144.540000
470.578217	144.720000
470.671936	145.420000
470.765625	146.480000
470.859344	145.960000
470.953003	146.500000
471.046753	145.940000
471.140411	145.320000
471.234131	145.000000
471.327820	145.760000
471.421539	145.540000
471.515228	145.600000
471.608948	145.820000
471.702637	145.520000
471.796326	145.020000
471.890045	145.060000
471.983734	145.280000
472.077423	145.220000
472.171143	145.360000
472.264832	145.340000
472.358521	145.200000
472.452240	144.860000
472.545929	145.380000
472.639648	145.520000
472.733337	146.180000
472.827057	146.340000
472.920746	146.500000
473.014465	146.540000
473.108124	146.160000
473.201874	145.620000
473.295532	145.320000
473.389252	145.820000
473.482941	145.580000
473.576660	145.740000
473.670319	145.720000
473.764069	146.080000
473.857727	145.980000
473.951477	146.180000
474.045166	146.500000
474.138855	146.420000
474.232574	146.200000
474.326263	146.200000
474.419952	145.880000
474.513672	145.660000
474.607361	145.560000
474.701050	145.760000
474.794769	145.880000
474.888458	146.080000
474.982178	146.220000
475.075867	146.580000
475.169586	146.440000
475.263275	146.200000
475.356995	146.000000
475.450653	145.580000
475.544403	145.160000
475.638062	145.960000
475.731812	145.520000
475.825470	145.600000
475.919189	145.920000
476.012878	146.240000
476.106598	145.300000
476.200256	145.780000
476.294006	145.560000
476.387695	145.320000
476.481384	145.480000
476.575104	145.340000
476.668793	144.900000
476.762512	144.480000
476.856201	145.140000
476.949890	144.560000
477.043610	144.240000
477.137299	144.540000
477.230988	145.280000
477.324707	144.900000
477.418396	145.560000
477.512146	145.740000
477.605804	145.280000
477.699524	145.260000
477.793213	145.120000
477.886932	144.660000
477.980591	144.680000
478.074341	144.820000
478.167999	144.260000
478.261749	144.320000
478.355408	144.280000
478.449127	144.840000
478.542816	145.780000
478.636536	146.780000
478.730225	146.900000
478.823944	147.720000
478.917633	147.420000
479.011322	147.260000
479.105042	146.920000
479.198730	147.220000
479.292450	146.660000
479.386139	147.080000
479.479828	146.780000
479.573547	147.080000
479.667267	146.780000
479.760925	146.740000
479.854675	146.680000
479.948334	146.720000
480.042084	145.980000
480.135742	146.240000
480.229462	145.920000
480.323151	145.840000
480.416870	145.180000
480.510529	145.480000
480.604279	144.680000
480.697937	144.880000
480.791656	144.240000
480.885345	144.480000
480.979065	144.340000
481.072754	145.280000
481.166473	145.860000
481.260132	146.160000
481.353882	146.080000
481.447540	146.040000
481.541260	145.640000
481.635010	144.920000
481.728668	144.700000
481.822388	144.640000
481.916077	144.740000
482.009796	144.480000
482.103485	144.700000
482.197205	145.120000
482.290863	145.120000
482.384613	144.640000
482.478271	144.420000
482.571991	144.480000
482.665680	144.320000
482.759399	145.320000
482.853058	145.680000
482.946808	145.840000
483.040466	145.700000
483.134216	145.700000
483.227875	144.900000
483.321594	145.620000
483.415283	145.780000
483.509003	145.600000
483.602661	145.600000
483.696411	145.980000
483.790070	145.320000
483.883789	145.560000
483.977478	145.960000
484.071198	145.960000
484.164917	145.440000
484.258606	145.280000
484.352325	145.020000
484.445984	145.060000
484.539734	145.120000
484.633392	145.040000
484.727142	145.500000
484.820801	145.560000
484.914520	145.700000
485.008209	145.640000
485.101929	146.160000
485.195587	145.700000
485.289337	145.620000
485.382996	145.480000
485.476715	145.680000
485.570404	146.060000
485.664124	146.420000
485.757782	147.060000
485.851532	146.800000
485.945190	146.560000
486.038910	146.140000
486.132599	146.280000
486.226318	145.580000
486.319977	145.720000
486.413727	146.420000
486.507446	146.120000
486.601105	145.700000
486.694855	145.440000
486.788513	144.920000
486.882233	144.340000
486.975922	144.460000
487.069641	144.280000
487.163300	144.180000
487.257050	145.700000
487.350708	145.440000
487.444427	145.180000
487.538116	145.300000
487.631836	145.620000
487.725494	144.700000
487.819214	144.940000
487.912903	145.020000
488.006622	145.580000
488.100281	145.800000
488.194031	145.880000
488.287689	146.140000
488.381409	146.860000
488.475098	146.640000
488.568817	146.820000
488.662476	146.660000
488.756226	146.200000
488.849945	145.260000
488.943604	145.040000
489.037354	145.020000
489.131012	144.820000
489.224731	144.980000
489.318390	145.020000
489.412140	145.060000
489.505798	144.900000
489.599518	144.840000
489.693207	144.980000
489.786926	145.160000
489.880585	145.160000
489.974335	145.260000
490.067993	146.340000
490.161713	146.700000
490.255371	147.460000
490.349121	147.400000
490.442780	147.140000
490.536499	146.060000
490.630188	145.700000
490.723907	144.920000
490.817566	145.040000
490.911285	145.260000
491.004974	145.300000
491.098694	144.800000
491.192413	145.660000
491.286102	145.520000
491.379822	145.480000
491.473480	145.920000
491.567200	146.180000
491.660889	145.340000
491.754608	145.100000
491.848267	145.280000
491.941986	144.980000
492.035675	145.080000
492.129395	145.620000
492.223053	145.840000
492.316772	145.860000
492.410461	145.920000
492.504181	146.080000
492.597839	145.760000
492.691559	146.240000
492.785248	146.240000
492.878967	146.300000
492.972626	145.980000
493.066345	146.320000
493.160034	145.660000
493.253754	145.480000
493.347412	145.340000
493.441132	145.660000
493.534882	145.500000
493.628540	145.840000
493.722260	146.040000
493.815918	145.960000
493.909668	146.220000
494.003326	146.620000
494.097046	146.520000
494.190704	146.120000
494.284454	146.700000
494.378113	146.640000
494.471832	146.160000
494.565491	146.060000
494.659210	146.360000
494.752899	145.980000
494.846619	145.680000
494.940277	145.900000
495.033997	145.880000
495.127686	145.420000
495.221405	145.160000
495.315063	145.220000
495.408783	145.140000
495.502441	145.400000
495.596191	145.500000
495.689850	145.500000
495.783569	145.860000
495.877228	145.800000
495.970947	145.840000
496.064697	146.180000
496.158356	146.960000
496.252075	146.720000
496.345734	146.760000
496.439453	147.160000
496.533142	147.240000
496.626862	147.200000
496.720520	147.300000
496.814240	147.340000
496.907898	146.620000
497.001617	146.480000
497.095306	145.660000
497.189026	145.460000
497.282684	145.380000
497.376404	145.920000
497.470062	145.700000
497.563782	146.020000
497.657471	146.080000
497.751190	146.080000
497.844849	145.860000
497.938568	146.300000
498.032227	146.440000
498.125946	146.300000
498.219635	145.820000
498.313354	146.080000
498.407074	145.500000
498.500732	145.640000
498.594452	145.960000
498.688110	145.880000
498.781830	145.200000
498.875519	145.540000
498.969238	145.220000
499.062897	145.020000
499.156616	145.740000
499.250275	146.220000
499.343994	145.660000
499.437653	145.860000
499.531372	145.900000
499.625061	146.280000
499.718781	146.220000
499.812439	146.580000
499.906158	146.280000
499.999817	146.180000
500.093536	145.500000
500.187195	145.800000
500.280914	146.180000
500.374573	146.800000
500.468323	146.580000
500.561981	147.000000
500.655701	146.240000
500.749420	145.800000
500.843079	145.340000
500.936798	145.700000
501.030457	145.840000
501.124176	146.220000
501.217834	146.260000
501.311554	146.220000
501.405212	145.840000
501.498962	144.920000
501.592621	145.280000
501.686340	145.780000
501.779999	145.780000
501.873718	146.060000
501.967377	146.600000
502.061096	146.340000
502.154755	145.580000
502.248474	146.040000
502.342133	146.300000
502.435852	146.200000
502.529510	146.680000
502.623230	147.680000
502.716888	146.940000
502.810608	146.520000
502.904266	146.780000
502.997986	146.160000
503.091705	145.140000
503.185364	145.220000
503.279083	145.360000
503.372772	145.340000
503.466492	145.040000
503.560150	145.520000
503.653870	145.800000
503.747528	145.680000
503.841248	145.460000
503.934906	145.700000
504.028625	145.340000
504.122284	145.660000
504.216003	146.380000
504.309662	146.120000
504.403381	146.240000
504.497040	146.160000
504.590759	145.340000
504.684418	145.040000
504.778137	145.560000
504.871796	145.780000
504.965515	145.640000
505.059174	146.080000
505.152893	145.700000
505.246521	144.960000
505.340240	144.560000
505.433899	145.040000
505.527618	145.360000
505.621338	145.700000
505.714996	145.940000
505.808716	145.860000
505.902374	146.200000
505.996094	146.160000
506.089752	145.680000
506.183472	145.860000
506.277130	145.840000
506.370850	145.460000
506.464508	144.840000
506.558228	145.080000
506.651886	144.840000
506.745605	145.080000
506.839264	145.260000
506.932983	145.660000
507.026611	145.560000
507.120331	146.060000
507.213989	145.580000
507.307709	145.500000
507.401367	145.680000
507.495087	146.420000
507.588745	145.880000
507.682465	146.880000
507.776123	146.860000
507.869843	146.740000
507.963531	146.060000
508.057190	146.680000
508.150909	145.840000
508.244568	145.980000
508.338287	145.780000
508.431946	145.820000
508.525665	145.340000
508.619324	145.700000
508.713013	145.800000
508.806671	146.340000
508.900391	147.060000
508.994049	147.220000
509.087769	146.640000
509.181427	146.340000
509.275146	145.560000
509.368774	144.520000
509.462494	144.260000
509.556152	144.320000
509.649872	144.820000
509.743530	145.180000
509.837250	145.460000
509.930878	145.520000
510.024597	145.820000
510.118256	145.320000
510.211975	145.360000
510.305695	145.200000
510.399353	145.540000
510.493042	145.940000
510.586700	146.220000
510.680420	146.580000
510.774078	146.520000
510.867798	146.640000
510.961426	146.060000
511.055145	145.820000
511.148804	145.280000
511.242523	145.920000
511.336151	146.000000
511.429871	146.500000
511.523529	146.300000
511.617249	146.240000
511.710876	145.820000
511.804596	145.200000
511.898254	144.880000
511.991974	145.520000
512.085632	145.520000
512.179321	145.480000
512.272949	146.000000
512.366699	146.540000
512.460327	145.920000
512.554077	146.900000
512.647766	147.040000
512.741394	146.860000
512.835144	146.760000
512.928772	146.640000
513.022461	146.220000
513.116150	145.920000
513.209839	145.960000
513.303467	145.420000
513.397217	145.320000
513.490845	144.900000
513.584595	144.660000
513.678223	144.340000
513.771912	143.800000
513.865601	144.160000
513.959290	143.740000
514.052917	144.140000
514.146667	144.760000
514.240295	145.600000
514.333984	145.800000
514.427673	146.180000
514.521362	146.640000
514.614990	145.900000
514.708740	145.780000
514.802368	145.960000
514.896057	146.420000
514.989746	147.000000
515.083435	147.240000
515.177124	147.800000
515.270752	147.480000
515.364502	147.320000
515.458130	146.800000
515.551819	146.620000
515.645508	146.180000
515.739197	146.120000
515.832825	145.860000
515.926575	145.320000
516.020203	145.840000
516.113892	146.180000
516.207520	146.000000
516.301270	146.040000
516.394897	146.320000
516.488586	146.500000
516.582275	146.320000
516.675964	145.900000
516.769592	145.900000
516.863281	146.260000
516.956970	146.080000
517.050659	146.080000
517.144287	146.640000
517.238037	146.580000
517.331665	145.820000
517.425354	145.220000
517.519043	144.900000
517.612732	145.380000
517.706421	145.240000
517.800049	145.180000
517.893738	145.400000
517.987427	145.400000
518.081116	144.660000
518.174744	144.380000
518.268433	144.880000
518.362122	145.380000
518.455811	145.440000
518.549438	146.320000
518.643127	147.360000
518.736816	146.840000
518.830505	146.240000
518.924133	146.200000
519.017822	146.220000
519.111511	145.920000
519.205200	146.920000
519.298828	147.020000
519.392517	146.620000
519.486206	146.500000
519.579895	146.580000
519.673523	145.660000
519.767212	145.720000
519.860901	146.440000
519.954590	146.260000
520.048279	145.660000
520.141907	145.860000
520.235596	146.620000
520.329224	146.580000
520.422974	146.520000
520.516602	146.640000
520.610291	146.180000
520.703918	145.940000
520.797607	145.560000
520.891296	145.180000
520.984985	145.380000
521.078613	146.420000
521.172302	145.920000
521.265930	146.980000
521.359680	147.820000
521.453308	147.580000
521.546997	147.360000
521.640625	147.540000
521.734314	146.720000
521.827942	146.480000
521.921692	146.960000
522.015320	146.560000
522.109009	146.300000
522.202698	146.360000
522.296326	145.860000
522.390015	145.740000
522.483704	146.100000
522.577393	146.280000
522.671021	146.100000
522.764709	145.620000
522.858337	145.960000
522.952026	145.900000
523.045654	146.480000
523.139404	147.000000
523.233032	147.620000
523.326721	147.020000
523.420349	146.640000
523.514038	146.120000
523.607666	146.320000
523.701355	145.780000
523.795044	146.000000
523.888733	146.240000
523.982361	146.340000
524.076050	145.520000
524.169678	146.380000
524.263367	145.940000
524.356995	145.820000
524.450684	145.580000
524.544373	145.500000
524.638062	145.200000
524.731750	145.380000
524.825378	145.380000
524.919067	145.040000
525.012695	145.500000
525.106384	145.140000
525.200012	145.540000
525.293701	145.500000
525.387329	146.180000
525.481018	146.140000
525.574646	146.860000
525.668396	146.680000
525.762024	147.060000
525.855713	147.000000
525.949341	146.320000
526.043030	146.000000
526.136658	145.780000
526.230347	145.480000
526.323975	145.380000
526.417664	145.860000
526.511292	145.980000
526.604980	146.380000
526.698608	146.140000
526.792297	145.780000
526.885925	145.960000
526.979614	145.780000
527.073303	145.420000
527.166931	145.820000
527.260620	146.260000
527.354309	146.580000
527.447998	146.740000
527.541626	146.760000
527.635315	146.700000
527.728943	147.020000
527.822632	147.040000
527.916260	146.960000
528.009949	147.400000
528.103577	147.040000
528.197266	146.320000
528.290894	146.140000
528.384583	146.200000
528.478210	145.920000
528.571899	146.400000
528.665527	146.920000
528.759216	146.600000
528.852844	146.720000
528.946533	146.560000
529.040161	146.360000
529.133850	145.940000
529.227478	146.080000
529.321167	146.340000
529.414856	146.560000
529.508484	147.040000
529.602173	146.760000
529.695801	146.940000
529.789490	146.420000
529.883057	146.240000
529.976746	145.880000
530.070374	146.620000
530.164062	146.100000
530.257690	146.600000
530.351379	146.920000
530.445007	146.600000
530.538696	145.780000
530.632324	146.280000
530.726013	145.960000
530.819641	145.620000
530.913330	146.140000
531.006958	146.400000
531.100647	146.140000
531.194275	145.760000
531.287964	145.500000
531.381592	145.220000
531.475220	145.420000
531.568848	145.560000
531.662537	145.640000
531.756226	146.320000
531.849854	145.980000
531.943542	146.160000
532.037170	145.860000
532.130859	146.580000
532.224487	146.220000
532.318176	146.200000
532.411804	146.540000
532.505432	146.920000
532.599060	146.340000
532.692749	146.280000
532.786377	147.220000
532.880066	146.620000
532.973694	145.940000
533.067383	145.920000
533.161011	146.060000
533.254639	145.460000
533.348267	145.160000
533.441956	145.660000
533.535583	145.280000
533.629272	145.220000
533.722900	144.980000
533.816589	145.100000
533.910156	145.100000
534.003845	145.200000
534.097534	145.420000
534.191162	146.100000
534.284851	146.480000
534.378479	146.440000
534.472107	146.600000
534.565735	146.440000
534.659424	146.360000
534.753052	146.260000
534.846741	146.000000
534.940369	146.660000
535.033997	146.640000
535.127625	146.220000
535.221313	146.580000
535.314941	146.640000
535.408630	145.660000
535.502197	146.000000
535.595886	146.060000
535.689514	145.540000
535.783203	146.060000
535.876831	146.720000
535.970459	146.260000
536.064087	146.040000
536.157776	146.360000
536.251404	146.260000
536.345093	145.840000
536.438721	146.240000
536.532349	146.820000
536.626038	146.420000
536.719666	146.580000
536.813293	146.700000
536.906921	146.460000
537.000610	146.380000
537.094238	146.680000
537.187866	146.300000
537.281494	146.060000
537.375183	146.120000
537.468811	145.920000
537.562439	145.840000
537.656067	145.880000
537.749756	146.140000
537.843384	146.520000
537.937012	146.660000
538.030640	146.420000
538.124329	146.580000
538.217896	146.980000
538.311584	146.580000
538.405212	146.560000
538.498901	147.020000
538.592468	147.480000
538.686157	146.700000
538.779785	146.040000
538.873413	145.660000
538.967102	145.280000
539.060730	144.440000
539.154358	145.180000
539.247986	146.020000
539.341675	146.240000
539.435242	146.260000
539.528931	146.680000
539.622559	146.160000
539.716187	146.400000
539.809814	146.140000
539.903503	146.320000
539.997070	146.300000
540.090759	146.480000
540.184387	146.160000
540.278015	146.840000
540.371643	147.140000
540.465332	147.360000
540.558899	146.960000
540.652588	146.920000
540.746216	146.640000
540.839844	146.700000
540.933472	146.300000
541.027100	146.420000
541.120728	146.220000
541.214417	146.380000
541.308044	146.360000
541.401672	146.260000
541.495300	146.240000
541.588928	146.460000
541.682617	145.800000
541.776184	145.460000
541.869873	145.920000
541.963440	146.080000
542.057129	145.940000
542.150757	146.540000
542.244385	146.060000
542.338013	145.440000
542.431641	145.780000
542.525269	145.720000
542.618958	145.800000
542.712524	146.320000
542.806213	146.380000
542.899780	146.360000
542.993469	146.140000
543.087036	145.720000
543.180725	145.300000
543.274292	145.560000
543.367981	145.420000
543.461548	146.100000
543.555237	146.240000
543.648926	146.700000
543.742493	147.260000
543.836182	147.240000
543.929749	146.840000
544.023437	146.860000
544.117004	147.040000
544.210693	146.760000
544.304260	146.800000
544.397949	146.800000
544.491516	147.120000
544.585205	146.760000
544.678772	146.260000
544.772461	146.600000
544.866028	146.700000
544.959717	146.800000
545.053284	146.420000
545.146973	147.020000
545.240540	146.900000
545.334229	147.400000
545.427795	147.180000
545.521423	147.820000
545.615051	147.640000
545.708679	147.820000
545.802307	147.620000
545.895935	147.700000
545.989624	148.120000
546.083191	147.880000
546.176880	147.620000
546.270447	147.040000
546.364136	147.320000
546.457703	146.860000
546.551331	146.940000
546.644958	147.180000
546.738586	147.420000
546.832214	146.940000
546.925842	147.040000
547.019409	147.040000
547.113098	146.440000
547.206665	146.100000
547.300354	146.140000
547.393921	146.120000
547.487549	146.240000
547.581177	146.200000
547.674805	146.420000
547.768433	145.940000
547.862061	145.920000
547.955627	145.240000
548.049316	145.900000
548.142883	146.120000
548.236572	146.720000
548.330139	146.620000
548.423767	146.820000
548.517456	146.340000
548.611023	146.620000
548.704651	145.800000
548.798279	146.060000
548.891907	146.540000
548.985474	146.280000
549.079163	146.060000
549.172729	146.520000
549.266357	145.560000
549.359985	145.560000
549.453613	145.600000
549.547180	145.100000
549.640869	145.320000
549.734436	145.480000
549.828064	145.660000
549.921631	145.640000
550.015320	145.600000
550.108887	145.760000
550.202515	146.200000
550.296143	145.840000
550.389771	146.040000
550.483337	146.420000
550.576965	146.060000
550.670593	146.140000
550.764221	146.300000
550.857849	146.060000
550.951477	145.520000
551.045105	145.520000
551.138672	145.380000
551.232300	144.860000
551.325928	145.260000
551.419556	145.800000
551.513123	145.800000
551.606750	145.660000
551.700378	145.940000
551.794006	145.700000
551.887573	145.700000
551.981201	146.240000
552.074768	146.280000
552.168457	145.900000
552.262024	147.060000
552.355652	146.720000
552.449219	147.100000
552.542847	147.260000
552.636475	147.380000
552.730103	146.100000
552.823669	146.180000
552.917297	145.360000
553.010864	145.240000
553.104553	145.640000
553.198181	145.380000
553.291748	146.040000
553.385376	146.220000
553.478943	146.220000
553.572571	146.020000
553.666199	146.740000
553.759827	145.920000
553.853394	145.300000
553.947021	145.560000
554.040588	145.540000
554.134216	145.320000
554.227783	146.220000
554.321411	147.060000
554.415039	146.300000
554.508667	146.600000
554.602234	147.000000
554.695862	146.040000
554.789429	145.560000
554.883057	146.220000
554.976624	145.620000
555.070251	145.280000
555.163818	145.340000
555.257507	145.300000
555.351074	145.160000
555.444702	146.380000
555.538330	146.000000
555.631897	146.520000
555.725525	146.420000
555.819092	146.040000
555.912720	145.080000
556.006287	145.780000
556.099915	145.340000
556.193481	145.420000
556.287109	145.860000
556.380676	145.820000
556.474304	145.680000
556.567871	145.840000
556.661499	145.600000
556.755066	145.700000
556.848694	145.680000
556.942261	145.160000
557.035889	145.460000
557.129517	145.740000
557.223145	146.200000
557.316711	146.440000
557.410339	146.700000
557.503906	146.460000
557.597473	146.740000
557.691040	145.980000
557.784668	146.060000
557.878296	146.160000
557.971863	146.440000
558.065491	146.400000
558.159058	146.180000
558.252686	146.660000
558.346252	147.260000
558.439880	146.660000
558.533447	146.400000
558.627075	146.500000
558.720642	146.060000
558.814270	145.660000
558.907837	145.780000
559.001465	145.460000
559.095032	146.320000
559.188660	146.460000
559.282227	146.180000
559.375854	146.960000
559.469360	147.000000
559.562988	146.780000
559.656555	146.500000
559.750183	146.560000
559.843750	146.320000
559.937378	146.660000
560.030945	146.440000
560.124573	0.000000
560.218140	0.000000
560.311707	0.000000
560.405334	0.000000
560.498901	0.000000
560.592529	0.000000
560.686096	0.000000
560.779724	0.000000
560.873291	0.000000
560.966858	0.000000
561.060425	0.000000
561.154053	0.000000
561.247620	0.000000
561.341248	0.000000
561.434814	0.000000
561.528381	0.000000
561.621948	0.000000
561.715576	0.000000
561.809143	0.000000
561.902771	0.000000
561.996277	0.000000
562.089905	0.000000
562.183472	0.000000
562.277100	0.000000
