Model Number: SPM-002-B   
Serial Number: 70087108
Firmware Version: 004.15.4
Exposure Time: 100000.000000us
Data Taken on: 11-12-2020 19:28:53.201
Wavelength	Amplitude
221.570786	0.000000
221.663406	0.000000
221.756027	0.000000
221.848648	0.000000
221.941269	0.000000
222.033905	0.000000
222.126526	0.000000
222.219162	0.000000
222.311798	0.000000
222.404419	0.000000
222.497055	0.000000
222.589676	0.000000
222.682312	0.000000
222.774933	0.000000
222.867569	0.000000
222.960205	0.000000
223.052841	0.000000
223.145462	0.000000
223.238098	0.000000
223.330734	0.000000
223.423386	0.000000
223.516022	0.000000
223.608658	0.000000
223.701309	0.000000
223.793945	0.000000
223.886581	0.000000
223.979218	0.000000
224.071869	0.000000
224.164505	0.000000
224.257156	0.000000
224.349792	0.000000
224.442444	0.000000
224.535095	0.000000
224.627747	0.000000
224.720398	0.000000
224.813034	0.000000
224.905685	0.000000
224.998337	145.260000
225.090988	144.640000
225.183640	144.700000
225.276291	144.380000
225.368942	144.620000
225.461594	145.400000
225.554245	145.880000
225.646912	145.880000
225.739578	146.660000
225.832230	146.880000
225.924896	145.880000
226.017548	146.100000
226.110199	146.480000
226.202866	146.000000
226.295532	145.720000
226.388184	145.740000
226.480850	145.100000
226.573517	144.820000
226.666168	145.200000
226.758835	145.300000
226.851501	145.880000
226.944183	146.120000
227.036850	145.740000
227.129517	145.460000
227.222183	145.540000
227.314850	145.580000
227.407516	145.720000
227.500198	146.800000
227.592865	146.560000
227.685532	146.220000
227.778214	145.780000
227.870880	146.040000
227.963562	146.140000
228.056229	146.780000
228.148926	146.840000
228.241592	147.740000
228.334274	147.080000
228.426956	146.500000
228.519638	146.360000
228.612305	146.160000
228.704987	145.940000
228.797668	146.300000
228.890350	146.080000
228.983032	145.360000
229.075714	146.240000
229.168396	145.680000
229.261108	145.600000
229.353790	145.820000
229.446472	145.940000
229.539169	145.460000
229.631851	145.360000
229.724533	145.320000
229.817230	145.160000
229.909912	146.160000
230.002609	146.040000
230.095306	145.980000
230.187988	146.060000
230.280685	146.180000
230.373383	145.140000
230.466095	145.300000
230.558792	145.500000
230.651474	145.340000
230.744171	145.140000
230.836868	145.120000
230.929581	144.880000
231.022278	145.160000
231.114975	145.440000
231.207672	145.160000
231.300369	145.700000
231.393082	145.940000
231.485779	145.440000
231.578506	145.160000
231.671204	145.440000
231.763916	145.580000
231.856613	145.320000
231.949326	145.740000
232.042023	145.840000
232.134735	145.800000
232.227448	145.140000
232.320160	145.500000
232.412872	145.480000
232.505585	145.920000
232.598297	146.420000
232.691010	146.560000
232.783722	146.400000
232.876450	147.040000
232.969162	146.640000
233.061874	145.740000
233.154587	145.680000
233.247314	145.760000
233.340027	144.760000
233.432739	145.160000
233.525467	145.520000
233.618179	145.800000
233.710907	145.520000
233.803635	146.040000
233.896347	145.580000
233.989090	146.360000
234.081818	146.440000
234.174545	146.480000
234.267258	145.860000
234.359985	146.080000
234.452713	145.380000
234.545441	144.900000
234.638168	145.000000
234.730896	145.620000
234.823639	145.220000
234.916367	145.640000
235.009094	146.120000
235.101822	146.100000
235.194580	146.200000
235.287308	146.780000
235.380051	146.340000
235.472778	146.480000
235.565521	146.680000
235.658249	146.080000
235.750992	145.800000
235.843719	145.920000
235.936462	146.020000
236.029205	145.700000
236.121948	145.780000
236.214691	146.140000
236.307449	146.500000
236.400192	146.000000
236.492935	145.820000
236.585678	145.940000
236.678421	145.720000
236.771164	145.280000
236.863907	146.020000
236.956665	146.360000
237.049408	148.240000
237.142151	147.720000
237.234909	148.680000
237.327652	148.460000
237.420410	148.160000
237.513153	146.620000
237.605927	146.820000
237.698669	145.820000
237.791428	145.300000
237.884186	145.900000
237.976944	145.420000
238.069702	145.740000
238.162445	145.480000
238.255203	145.720000
238.347961	145.580000
238.440720	145.820000
238.533478	145.300000
238.626266	145.580000
238.719025	145.600000
238.811783	145.460000
238.904541	145.140000
238.997314	145.760000
239.090073	145.660000
239.182831	145.840000
239.275604	146.700000
239.368362	146.680000
239.461136	146.500000
239.553909	146.600000
239.646667	146.540000
239.739441	145.800000
239.832214	146.340000
239.925003	146.260000
240.017761	146.680000
240.110535	146.860000
240.203308	146.640000
240.296082	146.320000
240.388855	146.000000
240.481628	145.860000
240.574417	145.680000
240.667191	145.640000
240.759964	145.460000
240.852737	145.360000
240.945526	144.840000
241.038315	144.900000
241.131088	145.080000
241.223877	145.420000
241.316650	145.060000
241.409439	145.960000
241.502228	145.540000
241.595001	145.920000
241.687790	145.760000
241.780579	146.120000
241.873367	145.820000
241.966141	146.220000
242.058929	145.640000
242.151718	145.880000
242.244507	146.400000
242.337311	145.560000
242.430099	145.880000
242.522903	146.140000
242.615692	145.680000
242.708481	145.700000
242.801270	146.540000
242.894073	146.040000
242.986862	146.080000
243.079651	146.560000
243.172455	146.080000
243.265244	145.860000
243.358063	145.340000
243.450867	145.400000
243.543655	145.220000
243.636459	145.640000
243.729263	145.960000
243.822067	146.680000
243.914856	146.960000
244.007660	147.040000
244.100464	146.920000
244.193268	146.420000
244.286072	146.220000
244.378876	145.620000
244.471680	145.200000
244.564499	145.380000
244.657318	146.180000
244.750122	146.280000
244.842926	145.960000
244.935745	146.280000
245.028549	145.860000
245.121368	145.440000
245.214172	145.340000
245.306992	145.900000
245.399796	145.980000
245.492615	146.180000
245.585434	145.800000
245.678253	145.600000
245.771072	145.460000
245.863892	145.780000
245.956711	146.040000
246.049530	145.880000
246.142349	145.740000
246.235168	145.640000
246.327988	145.980000
246.420807	145.520000
246.513626	145.780000
246.606445	145.780000
246.699280	145.800000
246.792099	145.300000
246.884918	145.080000
246.977753	144.520000
247.070587	144.620000
247.163422	144.880000
247.256241	144.700000
247.349075	145.240000
247.441895	145.880000
247.534729	146.040000
247.627563	145.820000
247.720383	146.460000
247.813217	146.300000
247.906052	146.020000
247.998886	146.120000
248.091736	146.220000
248.184570	145.680000
248.277405	145.920000
248.370239	146.880000
248.463074	147.560000
248.555908	147.820000
248.648743	147.780000
248.741592	147.320000
248.834427	146.540000
248.927261	145.260000
249.020111	145.320000
249.112946	145.840000
249.205795	145.540000
249.298630	145.500000
249.391495	145.940000
249.484344	145.580000
249.577179	145.520000
249.670029	146.040000
249.762878	146.480000
249.855728	146.400000
249.948563	146.460000
250.041412	145.920000
250.134262	145.980000
250.227112	146.100000
250.319962	146.260000
250.412827	146.260000
250.505692	146.000000
250.598541	145.900000
250.691391	145.340000
250.784241	145.500000
250.877106	145.700000
250.969955	145.740000
251.062805	146.540000
251.155670	146.980000
251.248520	146.500000
251.341385	146.860000
251.434235	146.620000
251.527100	145.900000
251.619965	145.580000
251.712814	146.420000
251.805695	145.800000
251.898560	146.300000
251.991425	146.700000
252.084290	147.040000
252.177155	146.320000
252.270020	146.280000
252.362885	146.180000
252.455750	146.040000
252.548615	145.600000
252.641479	145.580000
252.734360	145.520000
252.827240	145.300000
252.920105	145.120000
253.012970	145.040000
253.105850	145.240000
253.198715	145.120000
253.291595	145.520000
253.384460	145.320000
253.477341	145.520000
253.570221	145.760000
253.663086	145.780000
253.755966	146.240000
253.848846	146.520000
253.941727	146.700000
254.034592	146.380000
254.127472	146.080000
254.220367	145.980000
254.313248	145.840000
254.406128	145.260000
254.499008	145.540000
254.591904	146.320000
254.684784	146.480000
254.777664	146.620000
254.870544	146.640000
254.963440	146.480000
255.056335	146.540000
255.149216	145.960000
255.242111	146.300000
255.334991	146.920000
255.427887	147.240000
255.520767	146.920000
255.613663	147.180000
255.706558	146.400000
255.799438	145.760000
255.892334	145.320000
255.985229	145.380000
256.078125	145.220000
256.171021	145.760000
256.263916	146.200000
256.356812	146.420000
256.449707	146.340000
256.542603	146.260000
256.635498	146.400000
256.728394	146.240000
256.821289	146.120000
256.914215	146.140000
257.007080	146.280000
257.100006	146.040000
257.192932	146.620000
257.285828	147.040000
257.378723	147.060000
257.471619	146.940000
257.564545	146.320000
257.657440	146.300000
257.750336	146.440000
257.843262	146.240000
257.936157	147.440000
258.029053	148.120000
258.121979	147.900000
258.214874	147.220000
258.307800	147.240000
258.400696	145.880000
258.493622	145.680000
258.586517	145.140000
258.679443	145.660000
258.772339	145.520000
258.865265	145.380000
258.958160	145.080000
259.051086	145.940000
259.144012	145.560000
259.236938	146.140000
259.329834	146.480000
259.422791	146.760000
259.515717	145.820000
259.608612	145.640000
259.701538	145.520000
259.794464	145.280000
259.887390	144.980000
259.980316	145.100000
260.073212	145.280000
260.166138	144.340000
260.259064	144.980000
260.351990	145.680000
260.444916	145.980000
260.537842	146.420000
260.630768	147.340000
260.723694	147.120000
260.816620	146.920000
260.909546	146.820000
261.002472	146.100000
261.095398	145.420000
261.188354	145.220000
261.281281	144.700000
261.374207	144.680000
261.467133	145.460000
261.560089	145.940000
261.653015	145.500000
261.745972	146.420000
261.838867	146.840000
261.931824	146.780000
262.024780	146.460000
262.117706	147.240000
262.210663	147.340000
262.303589	147.020000
262.396515	146.860000
262.489471	147.800000
262.582397	147.400000
262.675354	146.460000
262.768280	146.540000
262.861237	146.520000
262.954163	146.280000
263.047119	146.480000
263.140045	146.320000
263.233002	146.080000
263.325958	146.040000
263.418884	145.320000
263.511841	145.140000
263.604797	145.440000
263.697723	145.540000
263.790680	145.320000
263.883636	146.100000
263.976593	145.700000
264.069550	145.740000
264.162476	145.500000
264.255463	145.660000
264.348419	145.220000
264.441376	145.960000
264.534332	145.560000
264.627289	145.860000
264.720245	146.200000
264.813202	146.020000
264.906158	145.800000
264.999115	146.480000
265.092072	146.260000
265.185028	146.640000
265.277985	146.680000
265.370941	146.600000
265.463898	146.060000
265.556854	145.940000
265.649811	144.760000
265.742798	144.780000
265.835754	144.740000
265.928711	145.460000
266.021667	145.920000
266.114655	146.460000
266.207611	146.980000
266.300568	146.560000
266.393585	146.040000
266.486511	146.020000
266.579498	145.380000
266.672485	144.980000
266.765442	145.100000
266.858429	145.480000
266.951385	145.060000
267.044342	145.360000
267.137329	145.400000
267.230316	145.780000
267.323273	145.140000
267.416260	145.960000
267.509216	145.980000
267.602203	145.780000
267.695160	146.060000
267.788147	146.720000
267.881134	145.720000
267.974091	146.000000
268.067078	145.820000
268.160065	145.340000
268.253052	144.980000
268.346008	145.640000
268.438995	145.180000
268.531982	145.600000
268.624969	145.660000
268.717987	146.080000
268.810944	145.780000
268.903961	146.220000
268.996948	145.780000
269.089905	146.240000
269.182892	146.100000
269.275879	146.340000
269.368866	145.640000
269.461853	146.300000
269.554871	145.940000
269.647858	145.780000
269.740845	145.760000
269.833832	146.460000
269.926819	145.980000
270.019806	145.780000
270.112793	145.740000
270.205811	145.800000
270.298798	145.480000
270.391785	146.140000
270.484772	145.960000
270.577789	145.820000
270.670776	145.520000
270.763763	145.680000
270.856750	145.380000
270.949768	145.620000
271.042786	145.720000
271.135773	146.100000
271.228790	146.140000
271.321808	145.700000
271.414795	145.540000
271.507782	145.320000
271.600800	144.800000
271.693817	145.080000
271.786804	145.520000
271.879822	145.700000
271.972809	145.780000
272.065826	146.520000
272.158844	146.000000
272.251831	146.480000
272.344849	146.660000
272.437866	146.640000
272.530853	146.280000
272.623871	146.460000
272.716888	145.360000
272.809906	145.620000
272.902893	145.500000
272.995911	145.040000
273.088928	144.980000
273.181946	145.560000
273.274963	145.080000
273.367981	145.140000
273.460999	145.420000
273.554047	145.640000
273.647003	146.080000
273.740051	146.100000
273.833069	146.820000
273.926086	147.140000
274.019135	146.920000
274.112152	146.480000
274.205170	146.600000
274.298187	146.340000
274.391205	145.720000
274.484222	145.820000
274.577240	145.840000
274.670258	145.600000
274.763306	145.320000
274.856323	145.640000
274.949341	145.760000
275.042358	145.920000
275.135406	145.880000
275.228424	146.180000
275.321442	146.180000
275.414490	145.900000
275.507507	145.900000
275.600525	146.560000
275.693573	146.160000
275.786591	145.920000
275.879669	146.020000
275.972656	145.680000
276.065735	145.160000
276.158752	145.700000
276.251801	146.420000
276.344818	146.500000
276.437866	146.720000
276.530884	146.580000
276.623932	145.720000
276.716980	145.860000
276.809998	145.740000
276.903046	145.680000
276.996094	146.740000
277.089111	147.420000
277.182159	147.620000
277.275208	147.380000
277.368256	147.420000
277.461304	146.820000
277.554321	146.320000
277.647369	145.940000
277.740417	146.280000
277.833466	146.200000
277.926514	145.960000
278.019562	146.380000
278.112610	145.740000
278.205688	146.080000
278.298706	146.320000
278.391785	146.180000
278.484833	146.120000
278.577881	146.360000
278.670929	146.520000
278.763977	146.180000
278.857025	146.660000
278.950073	146.800000
279.043121	146.440000
279.136169	146.140000
279.229248	145.900000
279.322296	145.740000
279.415344	145.240000
279.508392	145.440000
279.601440	145.200000
279.694519	145.540000
279.787567	145.640000
279.880615	145.620000
279.973694	145.660000
280.066742	145.600000
280.159790	145.960000
280.252869	145.520000
280.345917	145.840000
280.438995	145.540000
280.532074	145.520000
280.625122	145.360000
280.718201	146.220000
280.811279	146.180000
280.904327	146.620000
280.997406	146.860000
281.090454	146.960000
281.183533	146.260000
281.276581	146.320000
281.369659	145.940000
281.462738	146.100000
281.555786	145.780000
281.648865	145.840000
281.741943	145.680000
281.835022	146.340000
281.928070	145.980000
282.021149	145.660000
282.114227	145.740000
282.207306	145.600000
282.300385	145.620000
282.393433	145.680000
282.486511	146.120000
282.579590	146.480000
282.672668	147.060000
282.765747	146.500000
282.858856	146.240000
282.951904	146.240000
283.045013	146.220000
283.138062	146.340000
283.231171	146.780000
283.324249	147.220000
283.417328	147.460000
283.510406	146.860000
283.603485	146.440000
283.696564	146.360000
283.789642	146.360000
283.882751	145.780000
283.975830	146.480000
284.068909	146.180000
284.161987	146.480000
284.255066	145.920000
284.348175	146.200000
284.441254	145.700000
284.534332	146.240000
284.627441	145.760000
284.720520	145.840000
284.813599	145.840000
284.906708	146.080000
284.999786	145.500000
285.092896	145.220000
285.185974	145.880000
285.279053	145.660000
285.372192	145.720000
285.465240	146.360000
285.558380	146.460000
285.651459	146.300000
285.744568	146.940000
285.837677	146.120000
285.930756	145.640000
286.023865	145.980000
286.116943	145.480000
286.210052	145.440000
286.303162	145.820000
286.396240	146.240000
286.489349	145.720000
286.582458	146.080000
286.675568	145.660000
286.768646	145.800000
286.861755	145.720000
286.954865	146.580000
287.047974	146.140000
287.141083	146.180000
287.234161	145.980000
287.327271	145.860000
287.420380	145.980000
287.513519	145.980000
287.606598	145.600000
287.699738	145.800000
287.792816	145.520000
287.885956	145.180000
287.979034	145.420000
288.072174	145.800000
288.165283	146.000000
288.258392	146.300000
288.351501	145.920000
288.444611	146.360000
288.537720	146.580000
288.630859	146.280000
288.723969	146.340000
288.817078	146.780000
288.910187	146.320000
289.003296	146.020000
289.096436	145.840000
289.189545	145.700000
289.282654	145.120000
289.375763	145.800000
289.468903	146.180000
289.562012	146.580000
289.655121	146.580000
289.748260	147.060000
289.841400	147.180000
289.934509	147.200000
290.027649	147.160000
290.120728	147.140000
290.213898	147.000000
290.306976	146.480000
290.400146	146.300000
290.493256	145.900000
290.586395	146.380000
290.679535	146.400000
290.772644	146.120000
290.865784	145.720000
290.958893	145.940000
291.052032	145.380000
291.145172	145.440000
291.238281	145.540000
291.331421	145.440000
291.424561	145.740000
291.517670	145.820000
291.610809	146.080000
291.703949	145.880000
291.797089	146.480000
291.890228	146.000000
291.983337	145.980000
292.076477	145.460000
292.169617	145.900000
292.262756	145.300000
292.355927	145.640000
292.449036	145.380000
292.542206	145.740000
292.635315	145.860000
292.728485	146.600000
292.821625	146.100000
292.914764	147.360000
293.007904	147.280000
293.101044	147.120000
293.194183	146.640000
293.287323	146.840000
293.380463	145.800000
293.473602	145.480000
293.566742	145.700000
293.659882	146.060000
293.753021	146.540000
293.846191	146.540000
293.939331	146.340000
294.032471	145.960000
294.125610	145.640000
294.218781	145.600000
294.311920	146.120000
294.405060	146.680000
294.498230	146.760000
294.591370	147.000000
294.684540	146.380000
294.777679	145.680000
294.870850	146.140000
294.963959	146.040000
295.057159	145.600000
295.150299	146.100000
295.243469	146.220000
295.336609	145.280000
295.429779	145.380000
295.522919	146.040000
295.616089	145.980000
295.709229	146.560000
295.802399	147.040000
295.895569	146.800000
295.988708	146.560000
296.081879	146.720000
296.175018	146.000000
296.268188	145.740000
296.361359	146.100000
296.454529	146.040000
296.547668	145.720000
296.640839	146.360000
296.734009	146.220000
296.827179	146.400000
296.920319	146.300000
297.013519	145.940000
297.106659	146.020000
297.199860	146.220000
297.292999	145.820000
297.386200	145.540000
297.479309	145.600000
297.572510	145.560000
297.665680	145.080000
297.758850	145.020000
297.852020	145.160000
297.945190	145.400000
298.038361	144.800000
298.131531	145.940000
298.224701	145.900000
298.317871	145.780000
298.411072	145.200000
298.504242	145.320000
298.597412	144.460000
298.690582	144.820000
298.783752	144.940000
298.876923	145.700000
298.970093	145.580000
299.063293	146.200000
299.156464	146.200000
299.249634	146.520000
299.342834	146.620000
299.436005	147.000000
299.529205	146.740000
299.622345	146.560000
299.715576	145.880000
299.808716	145.600000
299.901917	145.660000
299.995117	145.800000
300.088287	146.040000
300.181488	146.280000
300.274658	146.420000
300.367828	146.320000
300.461029	146.080000
300.554199	146.400000
300.647400	146.240000
300.740601	146.580000
300.833771	146.300000
300.926971	146.440000
301.020142	145.740000
301.113342	145.760000
301.206512	145.520000
301.299713	145.900000
301.392914	146.080000
301.486084	146.700000
301.579285	146.620000
301.672516	146.960000
301.765686	146.900000
301.858887	146.680000
301.952057	146.140000
302.045288	146.660000
302.138458	146.160000
302.231659	145.740000
302.324860	145.620000
302.418060	145.600000
302.511261	145.280000
302.604462	145.660000
302.697662	145.460000
302.790863	145.220000
302.884064	144.960000
302.977264	144.880000
303.070465	144.880000
303.163666	145.620000
303.256866	146.060000
303.350067	146.260000
303.443268	146.300000
303.536469	146.160000
303.629669	145.680000
303.722870	145.560000
303.816071	145.540000
303.909271	145.500000
304.002472	145.000000
304.095673	145.000000
304.188934	144.460000
304.282104	145.240000
304.375336	145.400000
304.468506	145.500000
304.561768	145.160000
304.654968	146.120000
304.748169	145.360000
304.841370	144.780000
304.934601	145.040000
305.027802	145.300000
305.121002	144.520000
305.214233	144.520000
305.307434	145.120000
305.400665	145.440000
305.493866	145.420000
305.587097	145.840000
305.680298	145.860000
305.773499	146.280000
305.866730	145.840000
305.959930	146.360000
306.053162	146.500000
306.146393	146.120000
306.239594	145.220000
306.332825	145.160000
306.426025	145.040000
306.519287	144.560000
306.612488	145.200000
306.705719	145.620000
306.798920	146.080000
306.892181	145.640000
306.985352	145.400000
307.078613	144.520000
307.171844	145.000000
307.265045	144.580000
307.358276	144.560000
307.451508	145.040000
307.544739	146.060000
307.637970	145.480000
307.731201	145.280000
307.824402	146.140000
307.917633	146.440000
308.010864	146.400000
308.104095	146.580000
308.197327	146.760000
308.290558	146.300000
308.383789	145.640000
308.477020	145.200000
308.570251	144.680000
308.663483	144.160000
308.756714	144.200000
308.849976	144.360000
308.943176	144.800000
309.036438	145.060000
309.129639	145.180000
309.222900	144.960000
309.316101	144.920000
309.409393	144.280000
309.502625	144.100000
309.595856	144.460000
309.689087	144.760000
309.782318	145.000000
309.875580	145.280000
309.968811	145.540000
310.062042	145.240000
310.155273	145.000000
310.248535	145.440000
310.341766	145.480000
310.434998	145.660000
310.528259	145.760000
310.621490	146.200000
310.714722	145.600000
310.807983	145.660000
310.901215	145.380000
310.994476	145.600000
311.087708	145.120000
311.181000	145.300000
311.274200	144.860000
311.367462	145.060000
311.460693	144.640000
311.553986	145.300000
311.647186	145.460000
311.740479	146.400000
311.833710	146.140000
311.926971	146.380000
312.020203	145.460000
312.113464	145.360000
312.206726	144.500000
312.299957	145.060000
312.393219	145.680000
312.486481	146.060000
312.579712	145.920000
312.672974	146.400000
312.766235	146.080000
312.859497	145.720000
312.952759	145.600000
313.045990	146.160000
313.139252	145.440000
313.232513	145.860000
313.325775	146.140000
313.419037	145.900000
313.512299	145.140000
313.605530	145.920000
313.698822	145.520000
313.792053	145.360000
313.885345	145.320000
313.978577	145.480000
314.071869	144.840000
314.165131	145.000000
314.258392	145.000000
314.351654	145.260000
314.444916	144.740000
314.538177	145.360000
314.631439	145.620000
314.724701	145.560000
314.817993	145.340000
314.911255	145.840000
315.004517	145.160000
315.097778	144.940000
315.191040	145.220000
315.284302	145.700000
315.377594	145.460000
315.470856	145.720000
315.564117	145.240000
315.657379	144.840000
315.750671	144.160000
315.843933	144.600000
315.937195	144.260000
316.030518	144.140000
316.123749	144.120000
316.217041	145.220000
316.310303	145.120000
316.403595	145.500000
316.496857	146.040000
316.590149	146.160000
316.683411	145.300000
316.776703	144.980000
316.869965	145.100000
316.963257	144.720000
317.056519	144.220000
317.149811	144.160000
317.243073	144.480000
317.336365	144.300000
317.429626	144.680000
317.522919	145.480000
317.616180	145.540000
317.709473	145.040000
317.802765	145.280000
317.896027	145.300000
317.989319	145.360000
318.082611	145.500000
318.175873	145.620000
318.269165	145.580000
318.362488	145.360000
318.455750	144.680000
318.549042	145.140000
318.642303	145.960000
318.735626	145.680000
318.828888	145.800000
318.922211	145.800000
319.015472	146.200000
319.108765	145.120000
319.202057	145.080000
319.295349	144.860000
319.388641	145.040000
319.481934	144.000000
319.575226	144.200000
319.668518	144.420000
319.761810	144.660000
319.855103	144.640000
319.948395	145.200000
320.041687	145.580000
320.134979	145.280000
320.228271	145.240000
320.321564	145.280000
320.414856	145.000000
320.508148	144.800000
320.601440	145.060000
320.694763	144.900000
320.788025	145.400000
320.881348	145.420000
320.974640	145.420000
321.067963	144.960000
321.161224	145.320000
321.254547	144.520000
321.347839	145.260000
321.441162	145.020000
321.534454	145.580000
321.627747	145.220000
321.721069	146.140000
321.814362	145.620000
321.907654	146.080000
322.000946	145.940000
322.094269	146.640000
322.187561	145.900000
322.280884	146.040000
322.374176	145.600000
322.467468	146.200000
322.560791	145.880000
322.654083	146.060000
322.747406	146.200000
322.840698	146.780000
322.934021	146.740000
323.027344	147.080000
323.120636	147.300000
323.213959	146.980000
323.307251	146.380000
323.400574	146.180000
323.493866	145.280000
323.587219	145.260000
323.680511	145.640000
323.773834	145.620000
323.867157	145.300000
323.960449	145.640000
324.053772	145.320000
324.147095	144.920000
324.240387	145.680000
324.333710	146.020000
324.427032	146.020000
324.520355	146.120000
324.613647	145.940000
324.706970	145.760000
324.800293	145.640000
324.893616	146.020000
324.986938	146.120000
325.080231	145.880000
325.173553	145.940000
325.266876	146.180000
325.360199	145.980000
325.453522	145.640000
325.546875	145.700000
325.640167	145.640000
325.733521	145.760000
325.826813	145.760000
325.920166	145.940000
326.013489	145.920000
326.106812	145.280000
326.200134	144.840000
326.293457	144.560000
326.386780	144.740000
326.480103	144.720000
326.573425	144.980000
326.666748	144.640000
326.760071	145.140000
326.853424	144.960000
326.946747	145.240000
327.040070	145.960000
327.133392	145.940000
327.226715	145.460000
327.320068	145.240000
327.413391	145.460000
327.506714	144.520000
327.600037	144.680000
327.693390	144.720000
327.786713	144.720000
327.880066	144.560000
327.973358	145.120000
328.066742	145.680000
328.160034	146.060000
328.253418	146.440000
328.346710	146.320000
328.440063	146.080000
328.533417	145.720000
328.626740	145.880000
328.720093	145.500000
328.813416	145.380000
328.906769	145.460000
329.000092	145.600000
329.093445	145.060000
329.186768	145.060000
329.280121	145.300000
329.373444	145.240000
329.466797	145.040000
329.560120	145.360000
329.653473	145.980000
329.746796	145.780000
329.840149	145.540000
329.933502	145.400000
330.026825	145.080000
330.120178	144.460000
330.213562	144.580000
330.306854	144.860000
330.400238	145.180000
330.493561	144.880000
330.586945	145.800000
330.680237	146.140000
330.773621	146.240000
330.866974	146.340000
330.960327	147.000000
331.053680	146.620000
331.147003	146.740000
331.240356	146.720000
331.333710	146.580000
331.427063	146.160000
331.520416	145.640000
331.613770	145.120000
331.707123	145.220000
331.800476	145.180000
331.893829	146.040000
331.987152	146.420000
332.080505	146.600000
332.173859	146.360000
332.267212	145.820000
332.360565	145.020000
332.453918	144.740000
332.547333	144.540000
332.640656	144.760000
332.734039	145.300000
332.827362	145.360000
332.920746	145.640000
333.014069	145.800000
333.107452	146.120000
333.200806	146.440000
333.294159	146.620000
333.387543	146.380000
333.480896	146.180000
333.574249	145.800000
333.667603	145.600000
333.760956	145.980000
333.854340	146.080000
333.947693	146.080000
334.041046	146.080000
334.134430	146.040000
334.227783	145.280000
334.321136	145.120000
334.414520	144.680000
334.507874	144.860000
334.601227	144.820000
334.694611	144.940000
334.787964	144.960000
334.881348	145.660000
334.974701	145.560000
335.068085	145.460000
335.161438	145.900000
335.254822	145.740000
335.348175	145.800000
335.441559	145.280000
335.534943	145.820000
335.628296	145.320000
335.721680	145.420000
335.815033	145.320000
335.908417	146.000000
336.001770	145.800000
336.095154	145.740000
336.188538	145.640000
336.281891	145.420000
336.375275	144.880000
336.468658	144.480000
336.562012	144.840000
336.655396	145.120000
336.748779	145.540000
336.842133	145.820000
336.935516	146.240000
337.028900	145.720000
337.122284	145.760000
337.215637	146.000000
337.309021	145.660000
337.402435	145.220000
337.495789	145.440000
337.589203	145.440000
337.682526	144.740000
337.775940	145.340000
337.869324	145.580000
337.962708	145.540000
338.056091	145.680000
338.149475	145.540000
338.242859	145.220000
338.336243	144.840000
338.429626	144.900000
338.523010	144.760000
338.616394	144.840000
338.709778	144.940000
338.803162	145.360000
338.896545	145.420000
338.989929	145.160000
339.083313	145.720000
339.176697	145.420000
339.270081	145.200000
339.363464	145.460000
339.456848	145.700000
339.550232	144.820000
339.643616	144.880000
339.737030	145.060000
339.830383	144.660000
339.923828	144.780000
340.017181	145.120000
340.110596	145.140000
340.203949	144.880000
340.297363	144.620000
340.390778	144.200000
340.484161	144.120000
340.577545	144.460000
340.670959	144.740000
340.764343	145.180000
340.857727	145.580000
340.951111	145.480000
341.044525	145.340000
341.137909	144.960000
341.231293	144.680000
341.324707	144.320000
341.418091	145.000000
341.511505	144.920000
341.604889	145.240000
341.698303	145.840000
341.791687	146.100000
341.885071	145.680000
341.978485	145.380000
342.071899	145.400000
342.165283	145.000000
342.258698	144.940000
342.352081	145.280000
342.445496	146.160000
342.538879	145.920000
342.632324	145.700000
342.725708	146.080000
342.819122	145.520000
342.912506	145.080000
343.005920	145.340000
343.099335	146.160000
343.192719	145.900000
343.286133	146.220000
343.379547	146.320000
343.472931	146.000000
343.566345	145.480000
343.659760	145.640000
343.753143	145.280000
343.846558	145.040000
343.939972	145.000000
344.033386	145.200000
344.126770	145.200000
344.220184	145.600000
344.313599	145.700000
344.407043	145.920000
344.500427	145.660000
344.593872	146.020000
344.687225	145.900000
344.780670	145.660000
344.874054	145.500000
344.967499	145.980000
345.060913	145.620000
345.154327	145.480000
345.247742	145.360000
345.341156	145.440000
345.434570	144.840000
345.527985	144.860000
345.621399	144.860000
345.714813	144.860000
345.808228	145.100000
345.901642	144.980000
345.995056	144.700000
346.088470	144.900000
346.181885	145.080000
346.275299	144.820000
346.368713	144.800000
346.462128	144.600000
346.555573	144.620000
346.648987	144.720000
346.742401	144.800000
346.835815	145.300000
346.929260	145.120000
347.022644	145.140000
347.116119	145.380000
347.209503	145.540000
347.302948	146.340000
347.396362	147.040000
347.489807	146.920000
347.583221	147.200000
347.676636	146.660000
347.770050	145.280000
347.863495	144.540000
347.956909	144.640000
348.050323	144.120000
348.143768	144.240000
348.237183	144.260000
348.330597	144.960000
348.424042	145.100000
348.517456	145.380000
348.610901	145.780000
348.704315	145.980000
348.797760	145.380000
348.891174	144.920000
348.984619	144.340000
349.078033	144.480000
349.171448	144.940000
349.264923	145.040000
349.358337	145.040000
349.451782	145.460000
349.545197	144.460000
349.638641	144.120000
349.732086	143.740000
349.825500	144.180000
349.918945	143.740000
350.012390	144.620000
350.105804	145.000000
350.199249	145.460000
350.292664	145.680000
350.386108	145.880000
350.479553	146.180000
350.572968	146.100000
350.666412	146.260000
350.759857	145.820000
350.853302	146.420000
350.946716	145.880000
351.040161	145.520000
351.133606	145.640000
351.227081	145.860000
351.320465	146.240000
351.413940	146.320000
351.507355	146.880000
351.600830	146.820000
351.694244	146.460000
351.787720	146.060000
351.881104	146.160000
351.974579	145.960000
352.067993	146.680000
352.161469	146.680000
352.254883	146.000000
352.348358	145.640000
352.441803	145.440000
352.535248	144.860000
352.628693	145.480000
352.722137	145.560000
352.815582	145.980000
352.909027	146.260000
353.002472	146.040000
353.095917	145.660000
353.189362	146.020000
353.282806	145.600000
353.376251	145.540000
353.469696	145.300000
353.563141	145.760000
353.656586	145.500000
353.750061	145.560000
353.843475	145.160000
353.936981	145.740000
354.030396	145.220000
354.123871	145.260000
354.217285	146.080000
354.310760	146.340000
354.404175	146.240000
354.497681	145.920000
354.591095	145.820000
354.684570	144.920000
354.777985	144.700000
354.871490	144.200000
354.964935	144.840000
355.058380	145.060000
355.151855	144.880000
355.245300	145.280000
355.338745	146.100000
355.432220	146.140000
355.525665	145.460000
355.619110	146.240000
355.712585	145.800000
355.806030	145.120000
355.899475	144.400000
355.992950	145.060000
356.086426	145.120000
356.179871	145.580000
356.273346	145.700000
356.366791	146.040000
356.460266	146.420000
356.553711	146.000000
356.647186	146.020000
356.740631	145.700000
356.834106	145.400000
356.927551	145.060000
357.021027	144.880000
357.114471	144.620000
357.207947	144.980000
357.301422	145.480000
357.394867	145.600000
357.488342	146.240000
357.581818	146.320000
357.675262	146.440000
357.768738	146.420000
357.862213	145.900000
357.955658	145.540000
358.049133	145.220000
358.142609	145.420000
358.236053	144.780000
358.329529	145.260000
358.423035	145.800000
358.516449	145.800000
358.609955	145.880000
358.703400	146.940000
358.796906	146.740000
358.890350	146.160000
358.983826	146.560000
359.077271	145.820000
359.170776	145.360000
359.264221	145.420000
359.357727	145.400000
359.451172	145.660000
359.544647	145.940000
359.638123	145.480000
359.731598	145.800000
359.825073	146.160000
359.918549	145.760000
360.012024	145.840000
360.105499	145.860000
360.198975	145.560000
360.292450	145.160000
360.385925	145.160000
360.479401	144.960000
360.572876	145.280000
360.666351	145.580000
360.759857	145.560000
360.853302	145.560000
360.946808	145.240000
361.040253	145.180000
361.133759	144.820000
361.227203	144.880000
361.320709	144.580000
361.414154	145.140000
361.507660	145.440000
361.601105	145.660000
361.694641	146.320000
361.788086	146.580000
361.881592	146.740000
361.975067	146.500000
362.068542	146.840000
362.162018	146.320000
362.255524	146.060000
362.348999	145.860000
362.442474	145.820000
362.535950	145.040000
362.629456	144.900000
362.722931	144.640000
362.816406	144.900000
362.909882	145.280000
363.003387	145.060000
363.096863	145.240000
363.190338	145.580000
363.283875	145.280000
363.377319	145.000000
363.470825	145.600000
363.564301	145.040000
363.657806	145.080000
363.751282	144.940000
363.844788	145.800000
363.938232	145.280000
364.031769	146.280000
364.125214	146.440000
364.218750	146.820000
364.312225	145.560000
364.405731	145.720000
364.499207	144.980000
364.592712	144.760000
364.686188	144.500000
364.779694	144.940000
364.873169	145.320000
364.966675	145.020000
365.060150	144.880000
365.153656	145.380000
365.247131	145.220000
365.340637	145.280000
365.434143	146.100000
365.527618	146.480000
365.621155	145.620000
365.714600	145.600000
365.808136	145.320000
365.901611	144.500000
365.995117	144.400000
366.088593	144.800000
366.182129	144.960000
366.275604	145.280000
366.369110	145.460000
366.462585	145.160000
366.556122	145.780000
366.649567	145.560000
366.743103	145.480000
366.836609	145.440000
366.930115	145.680000
367.023590	145.320000
367.117096	145.160000
367.210602	145.080000
367.304108	145.860000
367.397614	146.420000
367.491119	146.440000
367.584595	146.600000
367.678101	146.860000
367.771606	146.220000
367.865112	145.640000
367.958649	144.980000
368.052124	144.680000
368.145660	144.040000
368.239136	144.440000
368.332672	144.540000
368.426147	144.940000
368.519684	145.040000
368.613159	145.560000
368.706696	145.380000
368.800171	145.140000
368.893707	144.880000
368.987183	145.060000
369.080719	145.160000
369.174225	144.840000
369.267731	144.920000
369.361237	145.140000
369.454742	145.060000
369.548248	145.080000
369.641754	144.960000
369.735260	144.960000
369.828766	144.300000
369.922272	145.000000
370.015808	144.580000
370.109314	144.460000
370.202820	144.480000
370.296356	145.740000
370.389832	145.140000
370.483368	144.920000
370.576874	145.120000
370.670410	145.220000
370.763885	144.320000
370.857422	144.320000
370.950928	144.200000
371.044464	144.980000
371.137939	145.180000
371.231476	145.600000
371.324982	146.260000
371.418518	146.540000
371.512024	146.180000
371.605560	145.800000
371.699066	145.880000
371.792572	145.460000
371.886108	145.920000
371.979614	145.740000
372.073120	146.340000
372.166656	145.940000
372.260162	146.120000
372.353668	145.740000
372.447205	145.620000
372.540710	145.560000
372.634277	145.520000
372.727753	145.600000
372.821320	145.660000
372.914795	145.700000
373.008362	145.460000
373.101837	145.600000
373.195404	145.220000
373.288879	145.340000
373.382446	145.740000
373.475922	145.860000
373.569489	146.560000
373.662964	147.040000
373.756531	146.860000
373.850037	147.100000
373.943573	146.700000
374.037109	145.640000
374.130615	145.740000
374.224152	145.900000
374.317657	145.280000
374.411194	146.380000
374.504730	146.680000
374.598236	146.020000
374.691772	145.740000
374.785309	145.860000
374.878815	144.520000
374.972351	144.880000
375.065887	144.740000
375.159454	145.520000
375.252930	145.100000
375.346497	145.700000
375.440002	146.160000
375.533569	146.320000
375.627045	145.400000
375.720612	145.760000
375.814117	145.860000
375.907684	144.880000
376.001160	144.780000
376.094727	144.440000
376.188232	144.840000
376.281799	144.900000
376.375336	145.240000
376.468872	145.560000
376.562408	146.080000
376.655914	145.840000
376.749451	145.660000
376.842987	145.820000
376.936523	145.900000
377.030060	145.940000
377.123596	146.240000
377.217133	145.740000
377.310669	145.400000
377.404205	145.660000
377.497772	146.300000
377.591278	145.820000
377.684845	146.680000
377.778351	147.260000
377.871918	147.000000
377.965424	145.920000
378.058990	145.840000
378.152496	145.260000
378.246063	144.780000
378.339569	145.100000
378.433136	145.220000
378.526642	145.480000
378.620209	145.540000
378.713745	145.360000
378.807312	145.460000
378.900848	146.000000
378.994385	146.400000
379.087921	145.920000
379.181458	146.360000
379.274994	145.360000
379.368530	145.220000
379.462097	145.020000
379.555634	145.700000
379.649170	145.260000
379.742706	145.520000
379.836273	145.760000
379.929810	145.200000
380.023376	144.740000
380.116882	144.720000
380.210449	144.760000
380.303986	144.100000
380.397552	144.220000
380.491058	144.540000
380.584656	144.660000
380.678162	144.940000
380.771729	145.140000
380.865265	145.760000
380.958832	145.680000
381.052368	145.840000
381.145935	145.940000
381.239471	146.300000
381.333008	145.900000
381.426575	145.960000
381.520111	145.860000
381.613647	145.940000
381.707214	145.500000
381.800751	145.040000
381.894318	144.980000
381.987854	144.480000
382.081421	144.120000
382.174988	144.440000
382.268524	144.560000
382.362091	144.640000
382.455627	145.920000
382.549194	145.840000
382.642731	145.220000
382.736298	145.040000
382.829834	144.720000
382.923401	144.740000
383.016937	144.900000
383.110504	145.620000
383.204041	145.840000
383.297607	146.440000
383.391174	145.360000
383.484741	145.940000
383.578278	145.180000
383.671844	144.860000
383.765411	144.260000
383.858948	144.980000
383.952515	144.520000
384.046051	145.200000
384.139618	145.920000
384.233185	146.400000
384.326721	146.300000
384.420288	146.720000
384.513855	146.620000
384.607422	146.660000
384.700989	146.640000
384.794525	146.160000
384.888123	145.880000
384.981659	146.020000
385.075226	145.420000
385.168762	145.160000
385.262360	145.320000
385.355896	144.580000
385.449463	144.540000
385.542999	144.560000
385.636597	145.380000
385.730164	145.420000
385.823730	145.560000
385.917267	145.220000
386.010834	145.180000
386.104401	144.540000
386.197968	144.820000
386.291534	145.080000
386.385101	145.300000
386.478668	145.900000
386.572235	145.760000
386.665802	145.220000
386.759338	144.980000
386.852905	144.480000
386.946472	143.880000
387.040070	144.080000
387.133606	144.440000
387.227203	144.320000
387.320740	144.920000
387.414337	145.160000
387.507874	145.180000
387.601471	145.320000
387.695007	145.380000
387.788605	145.220000
387.882141	145.300000
387.975739	145.340000
388.069275	144.920000
388.162872	145.360000
388.256439	145.160000
388.350037	145.080000
388.443604	144.860000
388.537170	144.880000
388.630737	145.180000
388.724304	145.380000
388.817871	145.080000
388.911438	145.080000
389.005005	145.120000
389.098602	145.400000
389.192169	145.100000
389.285736	145.960000
389.379333	145.680000
389.472870	145.480000
389.566467	144.880000
389.660034	144.960000
389.753632	144.220000
389.847168	144.900000
389.940765	145.400000
390.034332	145.640000
390.127930	145.340000
390.221466	145.520000
390.315063	144.840000
390.408630	144.060000
390.502228	143.200000
390.595795	143.800000
390.689362	144.020000
390.782959	144.560000
390.876526	145.120000
390.970093	145.400000
391.063690	145.540000
391.157257	145.580000
391.250824	146.220000
391.344421	146.040000
391.437988	146.640000
391.531555	146.660000
391.625153	146.400000
391.718750	145.860000
391.812317	145.820000
391.905914	145.020000
391.999481	145.040000
392.093079	145.220000
392.186615	145.520000
392.280243	145.740000
392.373779	146.120000
392.467407	146.380000
392.560944	146.020000
392.654572	145.160000
392.748108	144.900000
392.841736	145.140000
392.935303	144.520000
393.028900	144.440000
393.122467	144.760000
393.216064	144.600000
393.309631	143.740000
393.403229	143.420000
393.496796	143.460000
393.590393	142.860000
393.683990	143.640000
393.777557	144.540000
393.871155	144.780000
393.964722	145.220000
394.058350	145.520000
394.151917	145.140000
394.245514	144.760000
394.339081	145.480000
394.432678	145.800000
394.526245	145.920000
394.619873	145.720000
394.713409	145.880000
394.807037	145.280000
394.900604	145.380000
394.994202	145.320000
395.087769	145.480000
395.181396	144.980000
395.274994	145.540000
395.368561	144.620000
395.462158	144.780000
395.555756	144.500000
395.649353	145.260000
395.742920	145.020000
395.836517	145.840000
395.930115	145.440000
396.023712	146.040000
396.117279	146.160000
396.210876	145.460000
396.304474	145.240000
396.398071	145.780000
396.491669	145.680000
396.585266	145.320000
396.678833	145.600000
396.772461	145.680000
396.866028	145.560000
396.959656	146.060000
397.053223	146.600000
397.146851	147.020000
397.240417	148.000000
397.334015	149.280000
397.427582	149.860000
397.521210	151.620000
397.614807	154.600000
397.708405	157.380000
397.802002	160.920000
397.895599	167.240000
397.989197	173.720000
398.082794	181.240000
398.176392	191.520000
398.269989	203.680000
398.363586	216.940000
398.457184	232.840000
398.550781	250.800000
398.644379	268.300000
398.737976	287.020000
398.831573	305.680000
398.925201	324.260000
399.018768	343.060000
399.112396	364.120000
399.205963	387.500000
399.299591	412.700000
399.393158	440.020000
399.486786	469.320000
399.580353	496.200000
399.673981	517.560000
399.767578	536.080000
399.861206	548.300000
399.954773	553.140000
400.048401	550.280000
400.141998	542.780000
400.235596	530.620000
400.329193	515.300000
400.422791	498.540000
400.516418	482.520000
400.610016	466.760000
400.703613	449.440000
400.797211	428.120000
400.890808	404.340000
400.984436	380.540000
401.078033	355.380000
401.171631	329.640000
401.265259	307.040000
401.358826	286.320000
401.452484	265.360000
401.546051	247.220000
401.639679	229.760000
401.733246	214.920000
401.826904	201.280000
401.920471	189.940000
402.014099	179.560000
402.107697	172.180000
402.201324	165.940000
402.294891	161.020000
402.388550	157.360000
402.482147	155.260000
402.575745	152.600000
402.669373	150.160000
402.762970	148.820000
402.856567	148.080000
402.950195	147.100000
403.043793	146.740000
403.137390	147.440000
403.231018	146.740000
403.324615	146.940000
403.418243	146.420000
403.511841	146.760000
403.605469	146.220000
403.699066	146.420000
403.792694	146.280000
403.886292	146.400000
403.979919	145.980000
404.073517	145.620000
404.167145	146.080000
404.260712	145.800000
404.354370	145.680000
404.447937	145.840000
404.541595	145.820000
404.635162	145.940000
404.728821	146.220000
404.822418	145.700000
404.916046	145.480000
405.009644	146.020000
405.103271	145.940000
405.196899	145.920000
405.290497	146.340000
405.384125	146.820000
405.477722	146.120000
405.571350	145.800000
405.664948	145.360000
405.758575	145.500000
405.852203	145.100000
405.945801	145.260000
406.039429	145.160000
406.133057	145.460000
406.226654	145.320000
406.320312	145.380000
406.413879	145.340000
406.507538	145.640000
406.601135	145.260000
406.694763	145.580000
406.788361	144.740000
406.882019	144.660000
406.975586	144.800000
407.069244	145.300000
407.162872	145.400000
407.256470	146.220000
407.350098	146.240000
407.443726	145.680000
407.537323	145.500000
407.630951	145.460000
407.724579	145.120000
407.818207	145.780000
407.911804	145.780000
408.005432	145.660000
408.099060	145.560000
408.192688	146.200000
408.286285	145.760000
408.379913	145.880000
408.473572	146.160000
408.567169	145.580000
408.660828	145.240000
408.754395	145.160000
408.848053	144.740000
408.941650	144.580000
409.035309	144.520000
409.128906	144.520000
409.222565	144.700000
409.316132	145.340000
409.409790	144.800000
409.503387	145.140000
409.597046	145.240000
409.690674	145.060000
409.784302	144.940000
409.877930	145.140000
409.971558	145.520000
410.065186	145.560000
410.158783	145.560000
410.252411	145.500000
410.346039	145.900000
410.439667	145.680000
410.533295	145.760000
410.626923	145.940000
410.720551	145.560000
410.814209	145.900000
410.907806	145.980000
411.001465	145.140000
411.095062	145.340000
411.188721	146.120000
411.282318	145.540000
411.375977	145.320000
411.469574	145.960000
411.563232	145.780000
411.656830	144.900000
411.750488	144.980000
411.844086	144.840000
411.937744	144.860000
412.031372	144.680000
412.125000	145.180000
412.218628	145.140000
412.312256	145.980000
412.405884	146.580000
412.499512	146.580000
412.593170	146.620000
412.686798	146.920000
412.780426	146.060000
412.874054	145.840000
412.967682	146.140000
413.061310	146.920000
413.154968	146.920000
413.248566	147.100000
413.342224	146.820000
413.435852	146.660000
413.529510	145.800000
413.623108	145.120000
413.716766	145.240000
413.810364	145.660000
413.904022	145.660000
413.997650	145.300000
414.091309	146.200000
414.184906	146.060000
414.278564	145.340000
414.372192	145.820000
414.465851	146.280000
414.559479	145.620000
414.653107	146.340000
414.746735	146.460000
414.840393	146.080000
414.934021	146.140000
415.027649	145.840000
415.121277	145.320000
415.214935	145.800000
415.308563	145.900000
415.402191	145.620000
415.495850	146.060000
415.589478	146.340000
415.683136	146.300000
415.776733	146.300000
415.870422	147.080000
415.964020	146.820000
416.057678	146.260000
416.151306	145.980000
416.244965	145.840000
416.338562	145.200000
416.432251	145.980000
416.525848	146.940000
416.619507	146.960000
416.713165	147.240000
416.806793	147.240000
416.900421	147.120000
416.994080	146.140000
417.087708	146.280000
417.181366	145.560000
417.274994	145.440000
417.368622	145.400000
417.462280	146.160000
417.555908	145.960000
417.649567	146.200000
417.743195	146.340000
417.836853	146.160000
417.930481	146.080000
418.024170	146.140000
418.117767	146.660000
418.211426	147.120000
418.305054	147.080000
418.398712	146.320000
418.492340	146.180000
418.585999	146.200000
418.679626	145.760000
418.773285	146.100000
418.866913	146.840000
418.960571	147.220000
419.054230	147.240000
419.147858	147.400000
419.241516	147.040000
419.335144	146.480000
419.428802	146.480000
419.522461	145.740000
419.616089	145.440000
419.709747	145.760000
419.803375	145.920000
419.897034	145.420000
419.990662	145.820000
420.084320	146.340000
420.177979	146.420000
420.271606	146.540000
420.365295	147.220000
420.458893	147.520000
420.552582	147.420000
420.646210	147.300000
420.739868	147.080000
420.833496	146.600000
420.927155	146.140000
421.020782	145.940000
421.114471	145.280000
421.208069	145.580000
421.301758	145.900000
421.395386	146.060000
421.489044	145.800000
421.582703	145.940000
421.676361	146.280000
421.769989	145.680000
421.863647	145.780000
421.957306	145.840000
422.050934	146.060000
422.144592	145.560000
422.238251	145.300000
422.331909	144.960000
422.425537	144.960000
422.519196	144.860000
422.612854	144.260000
422.706543	144.360000
422.800140	144.900000
422.893829	144.720000
422.987457	144.620000
423.081146	145.240000
423.174744	146.260000
423.268433	145.860000
423.362061	145.960000
423.455750	145.980000
423.549347	146.100000
423.643036	144.960000
423.736664	145.600000
423.830353	145.540000
423.924011	146.000000
424.017639	145.500000
424.111298	145.680000
424.204956	145.180000
424.298615	145.280000
424.392273	144.840000
424.485931	145.220000
424.579559	145.440000
424.673218	145.300000
424.766876	145.360000
424.860535	145.200000
424.954193	144.880000
425.047882	145.080000
425.141510	145.180000
425.235199	145.120000
425.328796	144.940000
425.422485	144.820000
425.516113	144.300000
425.609802	144.120000
425.703430	144.500000
425.797119	144.580000
425.890747	144.840000
425.984436	145.040000
426.078064	145.240000
426.171753	144.900000
426.265411	144.800000
426.359070	145.020000
426.452728	144.980000
426.546356	144.900000
426.640015	144.900000
426.733673	145.240000
426.827332	144.780000
426.920990	145.720000
427.014648	145.300000
427.108307	145.480000
427.201965	145.960000
427.295624	146.400000
427.389282	145.660000
427.482941	146.220000
427.576630	146.080000
427.670258	145.400000
427.763947	145.240000
427.857574	145.420000
427.951263	145.300000
428.044922	145.120000
428.138611	145.320000
428.232239	145.720000
428.325928	146.020000
428.419556	146.440000
428.513245	146.240000
428.606903	146.060000
428.700562	145.380000
428.794220	144.820000
428.887878	144.220000
428.981537	144.640000
429.075195	144.860000
429.168854	145.620000
429.262512	145.560000
429.356201	145.780000
429.449860	145.500000
429.543518	145.420000
429.637177	145.180000
429.730835	145.080000
429.824493	144.820000
429.918182	145.240000
430.011810	144.860000
430.105530	144.260000
430.199158	144.660000
430.292847	144.740000
430.386475	144.480000
430.480164	144.520000
430.573792	144.460000
430.667511	143.900000
430.761139	144.080000
430.854828	144.520000
430.948456	144.600000
431.042145	145.520000
431.135834	145.580000
431.229492	145.560000
431.323151	145.500000
431.416809	145.540000
431.510468	145.480000
431.604156	146.000000
431.697815	145.980000
431.791473	145.560000
431.885132	145.260000
431.978821	145.160000
432.072479	145.040000
432.166138	145.540000
432.259827	145.560000
432.353485	146.180000
432.447174	146.420000
432.540802	146.240000
432.634491	145.720000
432.728149	146.140000
432.821838	146.440000
432.915466	145.720000
433.009186	145.940000
433.102814	145.440000
433.196503	144.860000
433.290131	144.640000
433.383850	144.840000
433.477509	144.860000
433.571167	146.040000
433.664856	146.720000
433.758514	147.160000
433.852173	147.180000
433.945862	146.740000
434.039520	146.320000
434.133179	145.760000
434.226868	145.400000
434.320526	144.940000
434.414185	145.800000
434.507874	145.460000
434.601562	145.560000
434.695221	145.180000
434.788910	145.760000
434.882538	145.280000
434.976257	145.180000
435.069885	145.580000
435.163574	145.620000
435.257233	145.020000
435.350922	145.280000
435.444580	145.040000
435.538269	144.560000
435.631897	145.080000
435.725616	145.940000
435.819275	146.220000
435.912964	146.860000
436.006622	147.380000
436.100311	147.060000
436.193970	146.200000
436.287628	145.740000
436.381317	145.500000
436.474976	144.960000
436.568665	144.480000
436.662323	144.820000
436.756012	144.680000
436.849670	144.120000
436.943390	143.940000
437.037018	144.220000
437.130737	144.180000
437.224365	144.040000
437.318085	144.900000
437.411713	145.220000
437.505432	145.880000
437.599060	146.540000
437.692780	147.460000
437.786407	147.000000
437.880127	146.880000
437.973755	146.220000
438.067474	145.480000
438.161133	144.860000
438.254822	145.200000
438.348480	145.080000
438.442169	146.040000
438.535828	146.740000
438.629517	146.520000
438.723175	146.020000
438.816864	146.740000
438.910553	145.760000
439.004211	145.420000
439.097900	145.440000
439.191559	145.780000
439.285248	144.780000
439.378906	144.960000
439.472626	144.560000
439.566284	144.660000
439.659973	144.740000
439.753632	144.980000
439.847321	145.420000
439.940979	145.540000
440.034698	145.660000
440.128326	145.180000
440.222046	145.240000
440.315674	144.440000
440.409393	144.800000
440.503082	144.460000
440.596741	144.800000
440.690430	145.080000
440.784088	145.120000
440.877777	144.360000
440.971466	144.920000
441.065125	144.460000
441.158813	144.120000
441.252502	144.520000
441.346161	145.020000
441.439850	144.760000
441.533539	144.780000
441.627197	145.220000
441.720886	145.200000
441.814606	145.620000
441.908234	145.940000
442.001953	146.000000
442.095612	146.420000
442.189301	146.340000
442.282959	146.340000
442.376678	145.620000
442.470306	146.540000
442.564026	145.940000
442.657684	146.140000
442.751404	146.000000
442.845032	146.820000
442.938751	145.920000
443.032440	145.960000
443.126099	145.360000
443.219788	145.780000
443.313477	145.240000
443.407166	145.680000
443.500824	145.640000
443.594513	146.060000
443.688202	145.500000
443.781891	145.200000
443.875549	144.880000
443.969238	145.120000
444.062927	145.120000
444.156647	145.180000
444.250275	145.980000
444.343994	146.400000
444.437653	146.080000
444.531372	145.960000
444.625031	145.720000
444.718719	145.280000
444.812378	145.060000
444.906097	145.080000
444.999756	144.820000
445.093445	144.940000
445.187103	145.000000
445.280823	145.620000
445.374512	145.560000
445.468201	145.720000
445.561859	145.700000
445.655548	145.740000
445.749237	145.320000
445.842926	145.340000
445.936615	145.900000
446.030304	145.560000
446.123962	145.740000
446.217651	145.460000
446.311340	145.760000
446.405029	144.920000
446.498749	144.860000
446.592407	144.620000
446.686096	144.740000
446.779755	144.540000
446.873474	145.160000
446.967133	145.380000
447.060852	145.020000
447.154510	145.100000
447.248230	145.020000
447.341858	144.780000
447.435577	144.480000
447.529236	144.720000
447.622955	144.580000
447.716644	144.620000
447.810333	144.700000
447.904022	145.420000
447.997711	145.220000
448.091400	145.660000
448.185059	145.840000
448.278748	146.220000
448.372437	145.620000
448.466125	146.000000
448.559814	145.460000
448.653503	145.580000
448.747192	145.420000
448.840912	146.100000
448.934570	145.940000
449.028290	146.360000
449.121948	146.000000
449.215637	145.540000
449.309296	145.080000
449.403015	145.600000
449.496674	145.700000
449.590393	145.720000
449.684052	145.940000
449.777771	146.500000
449.871429	145.640000
449.965149	145.400000
450.058838	145.820000
450.152527	146.320000
450.246216	146.140000
450.339905	146.340000
450.433594	146.260000
450.527283	146.600000
450.620972	146.200000
450.714661	145.980000
450.808350	146.000000
450.902039	146.180000
450.995728	145.660000
451.089417	145.380000
451.183105	145.380000
451.276794	145.780000
451.370514	145.100000
451.464172	144.520000
451.557892	144.720000
451.651550	145.060000
451.745270	144.480000
451.838928	144.280000
451.932648	144.740000
452.026306	145.040000
452.120026	144.540000
452.213684	144.940000
452.307404	145.320000
452.401062	145.340000
452.494781	145.320000
452.588470	145.420000
452.682159	145.020000
452.775848	145.340000
452.869537	144.780000
452.963226	144.460000
453.056915	144.400000
453.150604	144.740000
453.244293	144.820000
453.337982	145.500000
453.431671	146.140000
453.525360	146.860000
453.619049	146.800000
453.712769	146.780000
453.806427	146.480000
453.900146	146.060000
453.993805	145.340000
454.087555	145.720000
454.181213	145.620000
454.274933	145.740000
454.368591	145.200000
454.462311	145.580000
454.555969	145.100000
454.649689	145.900000
454.743347	145.540000
454.837067	146.520000
454.930756	146.680000
455.024445	146.860000
455.118134	145.920000
455.211853	146.120000
455.305542	145.420000
455.399231	145.240000
455.492920	145.140000
455.586609	145.380000
455.680298	145.660000
455.773987	145.540000
455.867676	145.420000
455.961365	145.660000
456.055084	145.360000
456.148773	145.200000
456.242493	145.560000
456.336151	145.400000
456.429871	145.640000
456.523529	146.320000
456.617249	146.180000
456.710907	146.560000
456.804626	146.420000
456.898315	145.800000
456.992035	145.260000
457.085693	145.000000
457.179413	144.040000
457.273102	144.900000
457.366791	144.920000
457.460480	145.520000
457.554199	146.400000
457.647888	146.920000
457.741577	146.360000
457.835266	146.700000
457.928955	146.220000
458.022644	146.240000
458.116364	146.480000
458.210052	146.500000
458.303741	146.340000
458.397461	146.040000
458.491119	144.920000
458.584839	144.800000
458.678528	144.400000
458.772247	144.240000
458.865906	144.420000
458.959625	145.680000
459.053284	145.400000
459.147003	145.500000
459.240692	146.040000
459.334412	146.260000
459.428070	145.820000
459.521790	145.540000
459.615479	145.360000
459.709198	145.420000
459.802887	144.920000
459.896576	144.560000
459.990265	145.140000
460.083954	145.680000
460.177673	145.000000
460.271362	145.440000
460.365051	145.520000
460.458740	145.100000
460.552429	144.560000
460.646149	144.960000
460.739838	144.700000
460.833527	144.800000
460.927246	144.540000
461.020905	144.760000
461.114655	144.780000
461.208313	145.160000
461.302032	144.680000
461.395691	145.300000
461.489441	144.840000
461.583099	144.400000
461.676819	143.860000
461.770477	144.580000
461.864197	144.200000
461.957916	144.500000
462.051605	144.080000
462.145294	145.020000
462.238983	144.400000
462.332703	145.100000
462.426392	145.720000
462.520081	146.120000
462.613770	145.480000
462.707489	146.120000
462.801178	145.440000
462.894867	144.980000
462.988556	144.880000
463.082275	145.060000
463.175964	144.460000
463.269684	144.920000
463.363342	144.940000
463.457092	144.720000
463.550751	144.440000
463.644470	144.840000
463.738129	144.560000
463.831879	144.640000
463.925537	145.500000
464.019257	145.580000
464.112946	145.600000
464.206665	145.340000
464.300323	145.160000
464.394043	144.800000
464.487762	144.820000
464.581451	145.180000
464.675140	145.500000
464.768829	145.960000
464.862549	146.160000
464.956238	146.360000
465.049927	146.200000
465.143646	146.200000
465.237335	145.760000
465.331024	146.220000
465.424713	146.260000
465.518433	145.880000
465.612152	145.540000
465.705811	145.680000
465.799561	145.120000
465.893219	144.720000
465.986938	144.920000
466.080597	145.060000
466.174347	145.380000
466.268005	145.560000
466.361725	145.760000
466.455414	145.600000
466.549133	145.720000
466.642792	145.820000
466.736542	145.500000
466.830231	145.620000
466.923920	145.740000
467.017609	145.620000
467.111328	145.140000
467.205017	145.100000
467.298706	144.960000
467.392426	145.240000
467.486115	145.540000
467.579803	145.500000
467.673523	145.840000
467.767212	146.060000
467.860901	145.760000
467.954651	145.500000
468.048309	145.680000
468.142029	145.480000
468.235718	145.600000
468.329437	145.320000
468.423096	145.220000
468.516846	144.940000
468.610504	144.620000
468.704224	144.020000
468.797913	144.200000
468.891632	144.620000
468.985291	145.060000
469.079010	145.300000
469.172729	145.260000
469.266418	145.740000
469.360107	145.700000
469.453827	145.320000
469.547516	145.440000
469.641205	146.040000
469.734924	145.960000
469.828613	146.240000
469.922302	146.580000
470.016022	146.460000
470.109711	145.880000
470.203430	145.380000
470.297150	144.440000
470.390808	144.440000
470.484558	144.380000
470.578217	145.000000
470.671936	145.500000
470.765625	146.300000
470.859344	146.140000
470.953003	146.420000
471.046753	146.080000
471.140411	145.660000
471.234131	145.620000
471.327820	146.060000
471.421539	146.160000
471.515228	145.880000
471.608948	146.120000
471.702637	145.520000
471.796326	145.020000
471.890045	145.160000
471.983734	145.520000
472.077423	145.200000
472.171143	145.700000
472.264832	145.800000
472.358521	145.540000
472.452240	145.080000
472.545929	145.660000
472.639648	145.420000
472.733337	145.780000
472.827057	145.780000
472.920746	146.160000
473.014465	146.100000
473.108124	146.300000
473.201874	146.180000
473.295532	146.040000
473.389252	146.280000
473.482941	146.160000
473.576660	146.040000
473.670319	145.320000
473.764069	145.480000
473.857727	145.340000
473.951477	145.480000
474.045166	145.860000
474.138855	146.160000
474.232574	146.060000
474.326263	146.080000
474.419952	146.240000
474.513672	146.000000
474.607361	146.140000
474.701050	146.020000
474.794769	146.360000
474.888458	146.500000
474.982178	146.400000
475.075867	146.480000
475.169586	146.560000
475.263275	146.140000
475.356995	145.920000
475.450653	145.740000
475.544403	145.500000
475.638062	146.200000
475.731812	145.860000
475.825470	145.580000
475.919189	145.600000
476.012878	145.780000
476.106598	145.000000
476.200256	145.480000
476.294006	145.400000
476.387695	145.760000
476.481384	145.580000
476.575104	145.800000
476.668793	145.540000
476.762512	145.240000
476.856201	145.840000
476.949890	145.440000
477.043610	145.000000
477.137299	144.980000
477.230988	145.440000
477.324707	144.560000
477.418396	145.440000
477.512146	145.660000
477.605804	145.540000
477.699524	145.440000
477.793213	145.420000
477.886932	144.940000
477.980591	144.660000
478.074341	144.540000
478.167999	144.080000
478.261749	144.180000
478.355408	144.160000
478.449127	144.620000
478.542816	145.740000
478.636536	146.700000
478.730225	146.880000
478.823944	147.460000
478.917633	147.440000
479.011322	146.980000
479.105042	146.780000
479.198730	146.820000
479.292450	146.240000
479.386139	146.440000
479.479828	146.520000
479.573547	146.660000
479.667267	146.680000
479.760925	146.840000
479.854675	146.660000
479.948334	146.640000
480.042084	145.920000
480.135742	145.960000
480.229462	145.440000
480.323151	145.440000
480.416870	144.580000
480.510529	144.680000
480.604279	143.960000
480.697937	144.640000
480.791656	144.200000
480.885345	144.720000
480.979065	144.720000
481.072754	145.440000
481.166473	145.840000
481.260132	146.040000
481.353882	145.980000
481.447540	145.900000
481.541260	145.920000
481.635010	145.200000
481.728668	145.380000
481.822388	145.400000
481.916077	145.620000
482.009796	145.360000
482.103485	145.660000
482.197205	145.560000
482.290863	145.780000
482.384613	145.300000
482.478271	145.060000
482.571991	144.940000
482.665680	144.980000
482.759399	145.420000
482.853058	146.120000
482.946808	146.220000
483.040466	146.040000
483.134216	146.100000
483.227875	145.420000
483.321594	145.720000
483.415283	145.600000
483.509003	145.620000
483.602661	145.280000
483.696411	145.580000
483.790070	145.080000
483.883789	145.300000
483.977478	145.820000
484.071198	146.160000
484.164917	146.120000
484.258606	145.740000
484.352325	145.900000
484.445984	145.440000
484.539734	145.120000
484.633392	144.380000
484.727142	144.880000
484.820801	144.880000
484.914520	145.240000
485.008209	145.660000
485.101929	146.500000
485.195587	146.540000
485.289337	146.300000
485.382996	145.980000
485.476715	145.940000
485.570404	146.000000
485.664124	145.600000
485.757782	146.140000
485.851532	145.800000
485.945190	145.760000
486.038910	145.460000
486.132599	146.140000
486.226318	145.500000
486.319977	145.500000
486.413727	145.920000
486.507446	145.740000
486.601105	144.680000
486.694855	144.580000
486.788513	144.980000
486.882233	144.520000
486.975922	144.600000
487.069641	145.000000
487.163300	145.080000
487.257050	145.840000
487.350708	145.540000
487.444427	145.440000
487.538116	145.700000
487.631836	145.780000
487.725494	145.280000
487.819214	145.760000
487.912903	145.980000
488.006622	146.020000
488.100281	146.240000
488.194031	146.200000
488.287689	146.340000
488.381409	146.880000
488.475098	146.620000
488.568817	146.680000
488.662476	146.240000
488.756226	145.760000
488.849945	144.800000
488.943604	145.020000
489.037354	145.000000
489.131012	145.200000
489.224731	145.040000
489.318390	145.080000
489.412140	145.200000
489.505798	144.940000
489.599518	144.640000
489.693207	145.140000
489.786926	145.220000
489.880585	144.980000
489.974335	145.120000
490.067993	146.220000
490.161713	146.400000
490.255371	147.000000
490.349121	147.240000
490.442780	147.080000
490.536499	146.360000
490.630188	146.220000
490.723907	145.700000
490.817566	145.620000
490.911285	145.820000
491.004974	145.500000
491.098694	144.860000
491.192413	145.620000
491.286102	145.600000
491.379822	145.640000
491.473480	146.020000
491.567200	146.600000
491.660889	145.760000
491.754608	145.660000
491.848267	145.380000
491.941986	145.300000
492.035675	145.200000
492.129395	145.720000
492.223053	145.660000
492.316772	146.000000
492.410461	145.820000
492.504181	145.780000
492.597839	145.460000
492.691559	145.820000
492.785248	145.820000
492.878967	145.920000
492.972626	145.660000
493.066345	145.880000
493.160034	144.920000
493.253754	144.960000
493.347412	144.640000
493.441132	144.920000
493.534882	145.320000
493.628540	146.000000
493.722260	146.180000
493.815918	146.580000
493.909668	146.980000
494.003326	146.700000
494.097046	146.660000
494.190704	146.200000
494.284454	146.280000
494.378113	146.000000
494.471832	145.940000
494.565491	145.620000
494.659210	145.620000
494.752899	145.280000
494.846619	144.820000
494.940277	144.740000
495.033997	144.600000
495.127686	144.260000
495.221405	144.420000
495.315063	144.900000
495.408783	145.000000
495.502441	145.760000
495.596191	146.240000
495.689850	146.220000
495.783569	146.400000
495.877228	146.440000
495.970947	145.780000
496.064697	145.680000
496.158356	146.000000
496.252075	145.960000
496.345734	146.000000
496.439453	147.180000
496.533142	147.180000
496.626862	147.420000
496.720520	147.100000
496.814240	146.900000
496.907898	146.000000
497.001617	146.140000
497.095306	145.400000
497.189026	145.440000
497.282684	145.340000
497.376404	145.600000
497.470062	145.400000
497.563782	145.660000
497.657471	145.620000
497.751190	145.300000
497.844849	145.060000
497.938568	145.220000
498.032227	145.040000
498.125946	144.820000
498.219635	145.080000
498.313354	145.360000
498.407074	145.060000
498.500732	145.260000
498.594452	145.640000
498.688110	145.380000
498.781830	144.680000
498.875519	144.840000
498.969238	144.720000
499.062897	144.440000
499.156616	144.780000
499.250275	145.340000
499.343994	144.840000
499.437653	144.860000
499.531372	145.140000
499.625061	145.780000
499.718781	145.680000
499.812439	146.360000
499.906158	146.200000
499.999817	146.020000
500.093536	145.240000
500.187195	145.420000
500.280914	145.160000
500.374573	145.660000
500.468323	145.480000
500.561981	145.780000
500.655701	145.240000
500.749420	145.520000
500.843079	145.280000
500.936798	145.560000
501.030457	145.580000
501.124176	145.940000
501.217834	145.720000
501.311554	145.660000
501.405212	145.480000
501.498962	144.980000
501.592621	144.980000
501.686340	145.360000
501.779999	145.580000
501.873718	145.480000
501.967377	146.000000
502.061096	146.120000
502.154755	145.560000
502.248474	145.760000
502.342133	146.020000
502.435852	145.820000
502.529510	146.320000
502.623230	147.120000
502.716888	146.340000
502.810608	146.580000
502.904266	146.940000
502.997986	146.540000
503.091705	146.020000
503.185364	145.920000
503.279083	145.580000
503.372772	145.120000
503.466492	144.520000
503.560150	144.460000
503.653870	145.180000
503.747528	145.240000
503.841248	145.260000
503.934906	145.760000
504.028625	145.660000
504.122284	145.680000
504.216003	146.400000
504.309662	146.140000
504.403381	146.220000
504.497040	146.460000
504.590759	146.220000
504.684418	145.760000
504.778137	146.360000
504.871796	146.480000
504.965515	146.140000
505.059174	146.200000
505.152893	145.840000
505.246521	145.280000
505.340240	144.760000
505.433899	144.860000
505.527618	144.960000
505.621338	145.320000
505.714996	145.580000
505.808716	145.620000
505.902374	146.140000
505.996094	146.080000
506.089752	145.380000
506.183472	145.500000
506.277130	145.560000
506.370850	145.320000
506.464508	145.160000
506.558228	145.520000
506.651886	145.060000
506.745605	145.220000
506.839264	145.280000
506.932983	145.220000
507.026611	145.260000
507.120331	145.760000
507.213989	145.300000
507.307709	145.160000
507.401367	145.340000
507.495087	146.180000
507.588745	145.660000
507.682465	146.500000
507.776123	146.320000
507.869843	146.380000
507.963531	145.680000
508.057190	146.220000
508.150909	145.960000
508.244568	146.220000
508.338287	145.740000
508.431946	145.700000
508.525665	145.520000
508.619324	145.220000
508.713013	145.440000
508.806671	146.160000
508.900391	146.980000
508.994049	147.020000
509.087769	146.960000
509.181427	146.700000
509.275146	146.020000
509.368774	145.120000
509.462494	144.960000
509.556152	145.020000
509.649872	145.060000
509.743530	145.500000
509.837250	145.380000
509.930878	145.440000
510.024597	145.440000
510.118256	145.520000
510.211975	145.220000
510.305695	145.100000
510.399353	145.420000
510.493042	145.740000
510.586700	145.660000
510.680420	146.420000
510.774078	146.580000
510.867798	146.680000
510.961426	146.280000
511.055145	146.180000
511.148804	145.540000
511.242523	145.980000
511.336151	145.540000
511.429871	145.840000
511.523529	145.900000
511.617249	145.720000
511.710876	145.460000
511.804596	145.360000
511.898254	145.020000
511.991974	145.220000
512.085632	145.180000
512.179321	145.240000
512.272949	145.820000
512.366699	146.220000
512.460327	145.940000
512.554077	146.680000
512.647766	146.580000
512.741394	146.140000
512.835144	146.500000
512.928772	146.520000
513.022461	146.140000
513.116150	145.900000
513.209839	146.200000
513.303467	145.640000
513.397217	145.140000
513.490845	145.160000
513.584595	145.100000
513.678223	144.580000
513.771912	144.300000
513.865601	144.680000
513.959290	144.320000
514.052917	144.440000
514.146667	145.480000
514.240295	145.980000
514.333984	146.560000
514.427673	146.300000
514.521362	146.660000
514.614990	145.520000
514.708740	145.440000
514.802368	145.360000
514.896057	145.720000
514.989746	146.080000
515.083435	146.420000
515.177124	146.660000
515.270752	146.300000
515.364502	146.500000
515.458130	146.420000
515.551819	146.160000
515.645508	145.640000
515.739197	145.580000
515.832825	145.360000
515.926575	144.720000
516.020203	145.140000
516.113892	145.760000
516.207520	145.840000
516.301270	146.220000
516.394897	146.520000
516.488586	146.780000
516.582275	146.360000
516.675964	145.720000
516.769592	145.120000
516.863281	145.780000
516.956970	145.640000
517.050659	145.580000
517.144287	146.180000
517.238037	146.640000
517.331665	145.540000
517.425354	145.300000
517.519043	145.200000
517.612732	145.380000
517.706421	145.220000
517.800049	145.360000
517.893738	144.980000
517.987427	145.200000
518.081116	144.960000
518.174744	144.740000
518.268433	145.020000
518.362122	145.860000
518.455811	145.620000
518.549438	145.900000
518.643127	147.040000
518.736816	146.860000
518.830505	146.280000
518.924133	146.140000
519.017822	146.300000
519.111511	145.800000
519.205200	146.100000
519.298828	146.140000
519.392517	146.160000
519.486206	145.920000
519.579895	145.660000
519.673523	145.360000
519.767212	145.420000
519.860901	145.920000
519.954590	145.740000
520.048279	145.560000
520.141907	145.420000
520.235596	146.480000
520.329224	146.620000
520.422974	146.460000
520.516602	146.320000
520.610291	146.320000
520.703918	145.820000
520.797607	145.340000
520.891296	145.380000
520.984985	145.860000
521.078613	146.520000
521.172302	145.680000
521.265930	146.620000
521.359680	147.480000
521.453308	147.020000
521.546997	146.420000
521.640625	146.900000
521.734314	146.180000
521.827942	145.540000
521.921692	145.800000
522.015320	145.880000
522.109009	145.660000
522.202698	145.540000
522.296326	145.660000
522.390015	145.920000
522.483704	146.380000
522.577393	146.020000
522.671021	145.960000
522.764709	145.680000
522.858337	145.820000
522.952026	145.620000
523.045654	146.440000
523.139404	147.100000
523.233032	147.300000
523.326721	146.900000
523.420349	146.780000
523.514038	146.180000
523.607666	145.800000
523.701355	145.460000
523.795044	145.440000
523.888733	145.420000
523.982361	146.020000
524.076050	145.540000
524.169678	145.900000
524.263367	145.920000
524.356995	145.620000
524.450684	145.260000
524.544373	145.380000
524.638062	145.360000
524.731750	145.520000
524.825378	145.540000
524.919067	145.200000
525.012695	145.320000
525.106384	144.540000
525.200012	144.400000
525.293701	144.440000
525.387329	144.760000
525.481018	144.960000
525.574646	145.940000
525.668396	145.840000
525.762024	146.300000
525.855713	146.320000
525.949341	145.800000
526.043030	145.900000
526.136658	145.920000
526.230347	145.480000
526.323975	145.100000
526.417664	145.280000
526.511292	145.120000
526.604980	145.380000
526.698608	145.300000
526.792297	145.640000
526.885925	145.840000
526.979614	145.500000
527.073303	145.060000
527.166931	145.180000
527.260620	145.320000
527.354309	145.480000
527.447998	145.420000
527.541626	145.560000
527.635315	145.740000
527.728943	146.260000
527.822632	146.480000
527.916260	146.520000
528.009949	146.880000
528.103577	146.580000
528.197266	145.540000
528.290894	145.420000
528.384583	145.540000
528.478210	145.040000
528.571899	145.240000
528.665527	145.820000
528.759216	145.700000
528.852844	146.000000
528.946533	146.440000
529.040161	146.340000
529.133850	146.080000
529.227478	146.080000
529.321167	145.920000
529.414856	146.040000
529.508484	146.540000
529.602173	146.240000
529.695801	146.120000
529.789490	146.320000
529.883057	145.880000
529.976746	146.000000
530.070374	146.480000
530.164062	146.440000
530.257690	146.620000
530.351379	146.920000
530.445007	146.440000
530.538696	145.760000
530.632324	146.060000
530.726013	145.620000
530.819641	145.620000
530.913330	145.800000
531.006958	146.100000
531.100647	145.600000
531.194275	145.400000
531.287964	144.980000
531.381592	144.560000
531.475220	144.600000
531.568848	144.980000
531.662537	145.020000
531.756226	145.500000
531.849854	145.720000
531.943542	146.060000
532.037170	145.720000
532.130859	146.120000
532.224487	145.780000
532.318176	145.320000
532.411804	145.520000
532.505432	145.780000
532.599060	145.480000
532.692749	145.440000
532.786377	146.100000
532.880066	145.340000
532.973694	144.760000
533.067383	144.700000
533.161011	144.560000
533.254639	144.360000
533.348267	144.520000
533.441956	145.180000
533.535583	145.000000
533.629272	145.440000
533.722900	145.180000
533.816589	145.240000
533.910156	145.560000
534.003845	145.460000
534.097534	145.700000
534.191162	146.440000
534.284851	146.800000
534.378479	146.320000
534.472107	146.600000
534.565735	146.060000
534.659424	146.180000
534.753052	146.040000
534.846741	145.880000
534.940369	146.020000
535.033997	146.260000
535.127625	145.820000
535.221313	146.700000
535.314941	146.640000
535.408630	146.340000
535.502197	146.420000
535.595886	146.060000
535.689514	145.040000
535.783203	145.760000
535.876831	146.480000
535.970459	146.520000
536.064087	146.580000
536.157776	146.920000
536.251404	146.560000
536.345093	145.920000
536.438721	145.620000
536.532349	145.920000
536.626038	145.780000
536.719666	146.020000
536.813293	146.200000
536.906921	146.180000
537.000610	146.460000
537.094238	146.400000
537.187866	146.180000
537.281494	146.100000
537.375183	146.180000
537.468811	145.600000
537.562439	145.480000
537.656067	145.500000
537.749756	145.700000
537.843384	146.360000
537.937012	146.600000
538.030640	146.500000
538.124329	146.220000
538.217896	146.140000
538.311584	145.900000
538.405212	145.740000
538.498901	146.200000
538.592468	146.860000
538.686157	146.500000
538.779785	145.680000
538.873413	145.680000
538.967102	145.300000
539.060730	144.880000
539.154358	145.420000
539.247986	146.060000
539.341675	146.300000
539.435242	146.100000
539.528931	146.200000
539.622559	145.580000
539.716187	146.000000
539.809814	145.840000
539.903503	146.000000
539.997070	145.700000
540.090759	146.040000
540.184387	145.360000
540.278015	145.920000
540.371643	146.140000
540.465332	146.320000
540.558899	145.960000
540.652588	146.200000
540.746216	145.540000
540.839844	145.980000
540.933472	145.940000
541.027100	146.160000
541.120728	146.180000
541.214417	146.740000
541.308044	146.680000
541.401672	146.300000
541.495300	146.220000
541.588928	146.000000
541.682617	145.620000
541.776184	144.840000
541.869873	145.340000
541.963440	145.540000
542.057129	145.680000
542.150757	145.600000
542.244385	145.800000
542.338013	145.560000
542.431641	145.560000
542.525269	145.400000
542.618958	146.120000
542.712524	146.180000
542.806213	145.780000
542.899780	145.620000
542.993469	145.500000
543.087036	144.720000
543.180725	144.480000
543.274292	145.240000
543.367981	145.500000
543.461548	145.940000
543.555237	146.180000
543.648926	146.760000
543.742493	147.120000
543.836182	147.160000
543.929749	146.800000
544.023437	146.900000
544.117004	146.780000
544.210693	146.600000
544.304260	146.460000
544.397949	146.440000
544.491516	146.520000
544.585205	146.240000
544.678772	145.640000
544.772461	146.040000
544.866028	145.980000
544.959717	146.180000
545.053284	146.040000
545.146973	146.480000
545.240540	146.480000
545.334229	147.220000
545.427795	147.200000
545.521423	147.720000
545.615051	147.780000
545.708679	148.220000
545.802307	148.160000
545.895935	147.800000
545.989624	148.540000
546.083191	148.360000
546.176880	147.860000
546.270447	147.140000
546.364136	147.640000
546.457703	146.820000
546.551331	146.980000
546.644958	147.260000
546.738586	147.640000
546.832214	147.120000
546.925842	146.900000
547.019409	146.880000
547.113098	146.120000
547.206665	145.840000
547.300354	145.980000
547.393921	146.360000
547.487549	146.340000
547.581177	146.440000
547.674805	146.580000
547.768433	145.880000
547.862061	145.660000
547.955627	144.920000
548.049316	145.100000
548.142883	145.340000
548.236572	146.020000
548.330139	146.140000
548.423767	146.560000
548.517456	146.500000
548.611023	146.540000
548.704651	146.100000
548.798279	146.160000
548.891907	146.520000
548.985474	146.500000
549.079163	146.500000
549.172729	146.520000
549.266357	145.840000
549.359985	145.700000
549.453613	145.260000
549.547180	144.900000
549.640869	145.540000
549.734436	145.480000
549.828064	145.580000
549.921631	145.700000
550.015320	145.380000
550.108887	145.320000
550.202515	145.720000
550.296143	145.400000
550.389771	145.820000
550.483337	146.280000
550.576965	146.080000
550.670593	146.420000
550.764221	146.620000
550.857849	146.280000
550.951477	145.900000
551.045105	145.300000
551.138672	145.380000
551.232300	144.820000
551.325928	145.100000
551.419556	145.320000
551.513123	145.460000
551.606750	144.920000
551.700378	145.060000
551.794006	144.740000
551.887573	144.740000
551.981201	145.340000
552.074768	145.220000
552.168457	145.040000
552.262024	146.180000
552.355652	146.040000
552.449219	146.340000
552.542847	146.560000
552.636475	146.620000
552.730103	145.380000
552.823669	145.060000
552.917297	144.240000
553.010864	144.620000
553.104553	145.020000
553.198181	144.820000
553.291748	145.740000
553.385376	146.100000
553.478943	145.600000
553.572571	145.620000
553.666199	146.200000
553.759827	145.620000
553.853394	145.220000
553.947021	145.220000
554.040588	144.820000
554.134216	144.820000
554.227783	145.420000
554.321411	146.060000
554.415039	145.660000
554.508667	146.040000
554.602234	146.140000
554.695862	145.360000
554.789429	144.980000
554.883057	145.360000
554.976624	145.460000
555.070251	145.300000
555.163818	145.200000
555.257507	145.540000
555.351074	145.740000
555.444702	146.560000
555.538330	146.000000
555.631897	146.820000
555.725525	146.620000
555.819092	146.620000
555.912720	145.700000
556.006287	146.700000
556.099915	146.200000
556.193481	146.320000
556.287109	146.300000
556.380676	145.860000
556.474304	145.600000
556.567871	145.880000
556.661499	145.100000
556.755066	145.160000
556.848694	145.620000
556.942261	145.320000
557.035889	145.220000
557.129517	145.840000
557.223145	146.140000
557.316711	146.060000
557.410339	146.400000
557.503906	146.180000
557.597473	146.320000
557.691040	145.480000
557.784668	145.420000
557.878296	145.320000
557.971863	145.380000
558.065491	145.380000
558.159058	145.440000
558.252686	146.180000
558.346252	146.680000
558.439880	146.520000
558.533447	145.840000
558.627075	146.080000
558.720642	145.380000
558.814270	145.200000
558.907837	145.380000
559.001465	145.480000
559.095032	146.140000
559.188660	146.460000
559.282227	145.800000
559.375854	146.400000
559.469360	146.540000
559.562988	146.540000
559.656555	146.560000
559.750183	146.980000
559.843750	146.900000
559.937378	146.900000
560.030945	146.500000
560.124573	0.000000
560.218140	0.000000
560.311707	0.000000
560.405334	0.000000
560.498901	0.000000
560.592529	0.000000
560.686096	0.000000
560.779724	0.000000
560.873291	0.000000
560.966858	0.000000
561.060425	0.000000
561.154053	0.000000
561.247620	0.000000
561.341248	0.000000
561.434814	0.000000
561.528381	0.000000
561.621948	0.000000
561.715576	0.000000
561.809143	0.000000
561.902771	0.000000
561.996277	0.000000
562.089905	0.000000
562.183472	0.000000
562.277100	0.000000
