Model Number: SPM-002-B   
Serial Number: 70087108
Firmware Version: 004.15.4
Exposure Time: 100000.000000us
Data Taken on: 11-12-2020 19:29:29.477
Wavelength	Amplitude
221.570786	0.000000
221.663406	0.000000
221.756027	0.000000
221.848648	0.000000
221.941269	0.000000
222.033905	0.000000
222.126526	0.000000
222.219162	0.000000
222.311798	0.000000
222.404419	0.000000
222.497055	0.000000
222.589676	0.000000
222.682312	0.000000
222.774933	0.000000
222.867569	0.000000
222.960205	0.000000
223.052841	0.000000
223.145462	0.000000
223.238098	0.000000
223.330734	0.000000
223.423386	0.000000
223.516022	0.000000
223.608658	0.000000
223.701309	0.000000
223.793945	0.000000
223.886581	0.000000
223.979218	0.000000
224.071869	0.000000
224.164505	0.000000
224.257156	0.000000
224.349792	0.000000
224.442444	0.000000
224.535095	0.000000
224.627747	0.000000
224.720398	0.000000
224.813034	0.000000
224.905685	0.000000
224.998337	145.960000
225.090988	145.320000
225.183640	145.300000
225.276291	145.000000
225.368942	145.340000
225.461594	146.280000
225.554245	147.060000
225.646912	146.960000
225.739578	147.340000
225.832230	147.680000
225.924896	146.520000
226.017548	146.320000
226.110199	146.820000
226.202866	146.460000
226.295532	145.960000
226.388184	145.940000
226.480850	145.800000
226.573517	145.060000
226.666168	145.300000
226.758835	145.660000
226.851501	146.360000
226.944183	146.380000
227.036850	146.200000
227.129517	146.340000
227.222183	146.400000
227.314850	146.540000
227.407516	146.840000
227.500198	147.760000
227.592865	147.360000
227.685532	146.940000
227.778214	146.220000
227.870880	146.620000
227.963562	146.740000
228.056229	147.020000
228.148926	146.880000
228.241592	147.860000
228.334274	147.180000
228.426956	146.820000
228.519638	146.880000
228.612305	146.740000
228.704987	146.420000
228.797668	146.540000
228.890350	146.240000
228.983032	145.520000
229.075714	146.500000
229.168396	146.000000
229.261108	145.620000
229.353790	145.720000
229.446472	146.380000
229.539169	145.780000
229.631851	145.640000
229.724533	145.860000
229.817230	145.880000
229.909912	146.680000
230.002609	146.800000
230.095306	146.860000
230.187988	146.780000
230.280685	146.740000
230.373383	145.460000
230.466095	145.120000
230.558792	145.580000
230.651474	145.860000
230.744171	145.900000
230.836868	145.860000
230.929581	146.300000
231.022278	146.180000
231.114975	146.040000
231.207672	145.680000
231.300369	146.320000
231.393082	146.480000
231.485779	146.320000
231.578506	146.220000
231.671204	146.840000
231.763916	146.480000
231.856613	146.140000
231.949326	146.100000
232.042023	146.160000
232.134735	145.700000
232.227448	145.620000
232.320160	145.800000
232.412872	146.160000
232.505585	146.740000
232.598297	147.160000
232.691010	147.220000
232.783722	146.800000
232.876450	147.000000
232.969162	146.540000
233.061874	145.920000
233.154587	145.800000
233.247314	146.320000
233.340027	145.920000
233.432739	146.020000
233.525467	146.460000
233.618179	147.040000
233.710907	146.540000
233.803635	147.020000
233.896347	146.960000
233.989090	147.380000
234.081818	146.980000
234.174545	146.980000
234.267258	146.420000
234.359985	146.580000
234.452713	146.360000
234.545441	146.280000
234.638168	146.400000
234.730896	146.820000
234.823639	146.500000
234.916367	146.580000
235.009094	146.480000
235.101822	146.740000
235.194580	146.400000
235.287308	146.600000
235.380051	146.180000
235.472778	146.600000
235.565521	146.540000
235.658249	146.380000
235.750992	146.320000
235.843719	146.160000
235.936462	146.020000
236.029205	145.740000
236.121948	145.700000
236.214691	145.980000
236.307449	146.500000
236.400192	146.240000
236.492935	145.980000
236.585678	146.060000
236.678421	146.040000
236.771164	146.000000
236.863907	146.520000
236.956665	146.920000
237.049408	148.580000
237.142151	148.020000
237.234909	148.420000
237.327652	148.460000
237.420410	148.320000
237.513153	147.180000
237.605927	147.260000
237.698669	146.640000
237.791428	145.920000
237.884186	146.180000
237.976944	145.520000
238.069702	145.760000
238.162445	145.400000
238.255203	145.780000
238.347961	146.060000
238.440720	146.220000
238.533478	145.980000
238.626266	146.120000
238.719025	146.160000
238.811783	146.000000
238.904541	146.080000
238.997314	145.900000
239.090073	145.500000
239.182831	145.740000
239.275604	146.280000
239.368362	146.040000
239.461136	146.300000
239.553909	146.620000
239.646667	146.680000
239.739441	146.120000
239.832214	146.620000
239.925003	146.660000
240.017761	147.420000
240.110535	147.500000
240.203308	147.180000
240.296082	146.880000
240.388855	146.900000
240.481628	146.940000
240.574417	146.800000
240.667191	146.840000
240.759964	146.740000
240.852737	146.780000
240.945526	146.080000
241.038315	145.540000
241.131088	145.740000
241.223877	146.380000
241.316650	146.040000
241.409439	146.400000
241.502228	146.280000
241.595001	146.600000
241.687790	146.060000
241.780579	146.160000
241.873367	146.120000
241.966141	146.500000
242.058929	145.760000
242.151718	145.860000
242.244507	146.320000
242.337311	145.920000
242.430099	146.360000
242.522903	146.940000
242.615692	146.540000
242.708481	146.340000
242.801270	146.880000
242.894073	146.740000
242.986862	146.740000
243.079651	147.620000
243.172455	147.580000
243.265244	147.700000
243.358063	147.080000
243.450867	147.240000
243.543655	146.820000
243.636459	146.940000
243.729263	146.860000
243.822067	147.240000
243.914856	147.480000
244.007660	147.600000
244.100464	147.560000
244.193268	147.160000
244.286072	147.380000
244.378876	146.700000
244.471680	146.160000
244.564499	146.480000
244.657318	146.960000
244.750122	147.180000
244.842926	146.820000
244.935745	147.600000
245.028549	147.020000
245.121368	146.720000
245.214172	146.480000
245.306992	147.060000
245.399796	146.460000
245.492615	146.660000
245.585434	146.500000
245.678253	146.280000
245.771072	146.400000
245.863892	146.780000
245.956711	146.920000
246.049530	146.800000
246.142349	146.540000
246.235168	146.560000
246.327988	146.880000
246.420807	146.620000
246.513626	147.040000
246.606445	147.020000
246.699280	146.980000
246.792099	146.520000
246.884918	146.060000
246.977753	145.680000
247.070587	146.080000
247.163422	146.100000
247.256241	146.300000
247.349075	146.740000
247.441895	146.700000
247.534729	146.160000
247.627563	145.620000
247.720383	146.060000
247.813217	145.960000
247.906052	145.760000
247.998886	146.040000
248.091736	146.220000
248.184570	145.400000
248.277405	145.720000
248.370239	146.700000
248.463074	147.620000
248.555908	148.040000
248.648743	148.180000
248.741592	148.200000
248.834427	147.840000
248.927261	146.740000
249.020111	146.800000
249.112946	147.380000
249.205795	146.760000
249.298630	146.540000
249.391495	147.020000
249.484344	146.840000
249.577179	146.460000
249.670029	146.960000
249.762878	147.500000
249.855728	147.440000
249.948563	147.220000
250.041412	146.960000
250.134262	146.900000
250.227112	146.820000
250.319962	146.640000
250.412827	146.700000
250.505692	146.180000
250.598541	146.360000
250.691391	145.680000
250.784241	145.900000
250.877106	145.780000
250.969955	145.980000
251.062805	146.180000
251.155670	146.880000
251.248520	146.620000
251.341385	146.980000
251.434235	147.100000
251.527100	146.780000
251.619965	146.120000
251.712814	146.860000
251.805695	146.920000
251.898560	147.200000
251.991425	147.280000
252.084290	147.880000
252.177155	146.900000
252.270020	146.520000
252.362885	146.480000
252.455750	146.660000
252.548615	146.300000
252.641479	146.480000
252.734360	146.380000
252.827240	146.380000
252.920105	146.240000
253.012970	145.880000
253.105850	145.900000
253.198715	145.820000
253.291595	145.800000
253.384460	145.320000
253.477341	145.360000
253.570221	145.660000
253.663086	145.620000
253.755966	145.900000
253.848846	146.220000
253.941727	146.840000
254.034592	146.500000
254.127472	146.100000
254.220367	146.140000
254.313248	146.080000
254.406128	145.400000
254.499008	145.780000
254.591904	147.000000
254.684784	147.480000
254.777664	147.560000
254.870544	147.540000
254.963440	147.080000
255.056335	146.800000
255.149216	145.800000
255.242111	146.080000
255.334991	146.460000
255.427887	146.900000
255.520767	146.780000
255.613663	147.300000
255.706558	146.660000
255.799438	146.660000
255.892334	146.220000
255.985229	145.840000
256.078125	145.520000
256.171021	145.800000
256.263916	145.860000
256.356812	146.260000
256.449707	146.480000
256.542603	146.320000
256.635498	146.840000
256.728394	146.700000
256.821289	146.340000
256.914215	146.420000
257.007080	147.080000
257.100006	146.920000
257.192932	147.360000
257.285828	147.640000
257.378723	147.440000
257.471619	146.960000
257.564545	146.460000
257.657440	146.240000
257.750336	146.440000
257.843262	146.160000
257.936157	147.220000
258.029053	147.700000
258.121979	147.640000
258.214874	147.380000
258.307800	147.600000
258.400696	146.420000
258.493622	146.200000
258.586517	145.460000
258.679443	145.420000
258.772339	144.800000
258.865265	144.740000
258.958160	144.360000
259.051086	145.260000
259.144012	145.080000
259.236938	146.320000
259.329834	146.200000
259.422791	146.160000
259.515717	145.640000
259.608612	145.540000
259.701538	145.520000
259.794464	145.700000
259.887390	145.760000
259.980316	145.820000
260.073212	145.800000
260.166138	144.940000
260.259064	145.240000
260.351990	145.860000
260.444916	145.900000
260.537842	146.600000
260.630768	147.300000
260.723694	147.260000
260.816620	147.220000
260.909546	147.360000
261.002472	146.700000
261.095398	145.940000
261.188354	145.880000
261.281281	145.180000
261.374207	145.220000
261.467133	146.000000
261.560089	146.540000
261.653015	146.380000
261.745972	147.300000
261.838867	147.480000
261.931824	147.820000
262.024780	147.240000
262.117706	147.460000
262.210663	147.380000
262.303589	147.180000
262.396515	146.820000
262.489471	147.900000
262.582397	147.700000
262.675354	147.000000
262.768280	146.960000
262.861237	146.580000
262.954163	146.040000
263.047119	146.140000
263.140045	145.960000
263.233002	145.700000
263.325958	145.740000
263.418884	145.240000
263.511841	145.380000
263.604797	145.880000
263.697723	146.240000
263.790680	146.140000
263.883636	146.680000
263.976593	146.420000
264.069550	146.580000
264.162476	146.200000
264.255463	146.480000
264.348419	146.260000
264.441376	146.440000
264.534332	146.080000
264.627289	146.460000
264.720245	146.780000
264.813202	146.560000
264.906158	146.660000
264.999115	146.980000
265.092072	147.080000
265.185028	147.060000
265.277985	147.240000
265.370941	147.080000
265.463898	146.600000
265.556854	146.240000
265.649811	145.480000
265.742798	145.700000
265.835754	145.800000
265.928711	146.240000
266.021667	146.060000
266.114655	146.320000
266.207611	146.680000
266.300568	146.100000
266.393585	145.820000
266.486511	146.280000
266.579498	145.820000
266.672485	145.380000
266.765442	145.460000
266.858429	145.940000
266.951385	145.740000
267.044342	146.220000
267.137329	146.240000
267.230316	146.840000
267.323273	146.560000
267.416260	147.160000
267.509216	146.700000
267.602203	146.900000
267.695160	147.240000
267.788147	147.240000
267.881134	146.460000
267.974091	146.740000
268.067078	146.420000
268.160065	145.700000
268.253052	145.480000
268.346008	145.800000
268.438995	145.840000
268.531982	146.140000
268.624969	146.120000
268.717987	146.760000
268.810944	146.700000
268.903961	147.080000
268.996948	146.680000
269.089905	147.140000
269.182892	147.000000
269.275879	147.280000
269.368866	146.560000
269.461853	146.860000
269.554871	146.820000
269.647858	146.720000
269.740845	146.920000
269.833832	147.620000
269.926819	147.180000
270.019806	147.000000
270.112793	146.680000
270.205811	146.440000
270.298798	146.140000
270.391785	147.100000
270.484772	146.880000
270.577789	147.260000
270.670776	146.880000
270.763763	146.860000
270.856750	146.360000
270.949768	146.240000
271.042786	145.840000
271.135773	146.040000
271.228790	145.840000
271.321808	145.480000
271.414795	145.380000
271.507782	145.460000
271.600800	145.340000
271.693817	145.780000
271.786804	146.680000
271.879822	147.260000
271.972809	147.040000
272.065826	147.680000
272.158844	147.100000
272.251831	147.000000
272.344849	146.900000
272.437866	147.000000
272.530853	146.920000
272.623871	147.520000
272.716888	146.560000
272.809906	146.720000
272.902893	146.680000
272.995911	145.760000
273.088928	145.400000
273.181946	146.080000
273.274963	145.460000
273.367981	145.680000
273.460999	146.160000
273.554047	146.560000
273.647003	146.820000
273.740051	146.940000
273.833069	146.980000
273.926086	147.360000
274.019135	146.900000
274.112152	146.540000
274.205170	146.900000
274.298187	147.220000
274.391205	146.540000
274.484222	146.760000
274.577240	146.380000
274.670258	145.980000
274.763306	145.580000
274.856323	146.120000
274.949341	146.160000
275.042358	147.000000
275.135406	147.180000
275.228424	147.200000
275.321442	147.160000
275.414490	146.660000
275.507507	146.780000
275.600525	147.220000
275.693573	146.980000
275.786591	146.400000
275.879669	147.060000
275.972656	146.360000
276.065735	145.920000
276.158752	146.360000
276.251801	147.420000
276.344818	147.160000
276.437866	147.620000
276.530884	147.520000
276.623932	146.880000
276.716980	146.740000
276.809998	146.840000
276.903046	146.540000
276.996094	147.440000
277.089111	148.300000
277.182159	148.360000
277.275208	148.220000
277.368256	148.080000
277.461304	147.560000
277.554321	147.000000
277.647369	146.900000
277.740417	146.780000
277.833466	146.720000
277.926514	146.740000
278.019562	147.300000
278.112610	146.420000
278.205688	146.900000
278.298706	147.060000
278.391785	146.720000
278.484833	146.060000
278.577881	146.140000
278.670929	146.100000
278.763977	146.080000
278.857025	146.380000
278.950073	146.720000
279.043121	146.600000
279.136169	146.320000
279.229248	146.260000
279.322296	145.960000
279.415344	145.520000
279.508392	145.660000
279.601440	145.820000
279.694519	145.620000
279.787567	145.620000
279.880615	145.600000
279.973694	145.460000
280.066742	145.120000
280.159790	145.260000
280.252869	145.240000
280.345917	145.520000
280.438995	145.640000
280.532074	145.660000
280.625122	146.080000
280.718201	146.880000
280.811279	146.740000
280.904327	146.820000
280.997406	147.080000
281.090454	146.720000
281.183533	146.060000
281.276581	146.100000
281.369659	145.940000
281.462738	146.000000
281.555786	146.340000
281.648865	146.200000
281.741943	146.080000
281.835022	146.880000
281.928070	146.440000
282.021149	145.880000
282.114227	145.560000
282.207306	145.660000
282.300385	145.540000
282.393433	145.920000
282.486511	146.100000
282.579590	147.020000
282.672668	147.380000
282.765747	146.900000
282.858856	146.580000
282.951904	146.840000
283.045013	147.040000
283.138062	146.900000
283.231171	147.080000
283.324249	147.720000
283.417328	147.480000
283.510406	146.780000
283.603485	146.580000
283.696564	146.520000
283.789642	146.360000
283.882751	146.080000
283.975830	146.720000
284.068909	146.780000
284.161987	147.140000
284.255066	146.740000
284.348175	147.000000
284.441254	146.540000
284.534332	146.880000
284.627441	146.580000
284.720520	146.160000
284.813599	146.580000
284.906708	146.600000
284.999786	145.820000
285.092896	145.440000
285.185974	146.660000
285.279053	145.900000
285.372192	145.920000
285.465240	147.020000
285.558380	147.060000
285.651459	146.500000
285.744568	147.840000
285.837677	147.480000
285.930756	146.940000
286.023865	147.140000
286.116943	146.780000
286.210052	146.220000
286.303162	146.440000
286.396240	146.280000
286.489349	146.160000
286.582458	146.620000
286.675568	146.280000
286.768646	146.280000
286.861755	146.840000
286.954865	147.580000
287.047974	146.780000
287.141083	146.720000
287.234161	146.580000
287.327271	146.220000
287.420380	146.180000
287.513519	146.520000
287.606598	146.720000
287.699738	146.900000
287.792816	146.640000
287.885956	146.400000
287.979034	146.560000
288.072174	146.200000
288.165283	146.100000
288.258392	146.420000
288.351501	145.780000
288.444611	145.900000
288.537720	146.620000
288.630859	146.760000
288.723969	146.720000
288.817078	147.200000
288.910187	147.020000
289.003296	146.220000
289.096436	145.680000
289.189545	145.540000
289.282654	145.220000
289.375763	145.780000
289.468903	146.280000
289.562012	146.840000
289.655121	147.180000
289.748260	147.480000
289.841400	147.640000
289.934509	147.420000
290.027649	147.440000
290.120728	147.100000
290.213898	147.280000
290.306976	146.840000
290.400146	147.040000
290.493256	146.800000
290.586395	146.960000
290.679535	147.080000
290.772644	146.960000
290.865784	146.280000
290.958893	146.120000
291.052032	145.880000
291.145172	145.500000
291.238281	145.140000
291.331421	145.520000
291.424561	146.180000
291.517670	146.040000
291.610809	146.060000
291.703949	146.240000
291.797089	146.520000
291.890228	145.920000
291.983337	146.060000
292.076477	145.900000
292.169617	145.980000
292.262756	145.740000
292.355927	145.560000
292.449036	145.200000
292.542206	145.420000
292.635315	145.440000
292.728485	145.900000
292.821625	145.800000
292.914764	146.960000
293.007904	146.980000
293.101044	146.900000
293.194183	146.300000
293.287323	146.520000
293.380463	145.760000
293.473602	145.360000
293.566742	145.920000
293.659882	146.560000
293.753021	147.080000
293.846191	147.120000
293.939331	147.020000
294.032471	146.580000
294.125610	146.180000
294.218781	146.360000
294.311920	146.940000
294.405060	147.460000
294.498230	147.440000
294.591370	147.400000
294.684540	146.780000
294.777679	146.100000
294.870850	146.420000
294.963959	146.740000
295.057159	146.540000
295.150299	146.720000
295.243469	146.480000
295.336609	145.580000
295.429779	145.340000
295.522919	145.780000
295.616089	145.860000
295.709229	146.960000
295.802399	147.360000
295.895569	146.960000
295.988708	146.540000
296.081879	146.700000
296.175018	145.520000
296.268188	145.560000
296.361359	146.440000
296.454529	146.720000
296.547668	146.600000
296.640839	147.140000
296.734009	146.800000
296.827179	146.720000
296.920319	146.860000
297.013519	146.440000
297.106659	146.700000
297.199860	146.940000
297.292999	146.600000
297.386200	146.200000
297.479309	146.280000
297.572510	146.000000
297.665680	145.760000
297.758850	145.780000
297.852020	145.620000
297.945190	145.280000
298.038361	145.140000
298.131531	146.080000
298.224701	145.720000
298.317871	145.900000
298.411072	145.740000
298.504242	145.660000
298.597412	145.180000
298.690582	145.440000
298.783752	145.240000
298.876923	145.700000
298.970093	145.920000
299.063293	145.940000
299.156464	146.380000
299.249634	147.000000
299.342834	147.500000
299.436005	147.680000
299.529205	147.700000
299.622345	147.640000
299.715576	147.140000
299.808716	146.820000
299.901917	146.600000
299.995117	146.700000
300.088287	146.600000
300.181488	146.440000
300.274658	146.260000
300.367828	145.980000
300.461029	145.980000
300.554199	146.140000
300.647400	146.360000
300.740601	147.000000
300.833771	147.240000
300.926971	147.440000
301.020142	146.660000
301.113342	146.580000
301.206512	146.200000
301.299713	146.360000
301.392914	146.140000
301.486084	146.820000
301.579285	146.980000
301.672516	147.600000
301.765686	147.360000
301.858887	147.480000
301.952057	147.180000
302.045288	146.920000
302.138458	146.080000
302.231659	146.300000
302.324860	146.000000
302.418060	145.720000
302.511261	145.880000
302.604462	146.580000
302.697662	146.380000
302.790863	146.220000
302.884064	146.360000
302.977264	146.460000
303.070465	146.280000
303.163666	146.920000
303.256866	147.260000
303.350067	146.980000
303.443268	146.920000
303.536469	147.000000
303.629669	146.360000
303.722870	146.440000
303.816071	146.600000
303.909271	146.500000
304.002472	145.320000
304.095673	145.120000
304.188934	144.480000
304.282104	145.420000
304.375336	145.640000
304.468506	146.240000
304.561768	146.180000
304.654968	146.700000
304.748169	146.040000
304.841370	145.840000
304.934601	146.080000
305.027802	145.860000
305.121002	145.540000
305.214233	145.540000
305.307434	145.740000
305.400665	146.400000
305.493866	146.300000
305.587097	146.360000
305.680298	146.280000
305.773499	146.580000
305.866730	146.060000
305.959930	146.860000
306.053162	147.000000
306.146393	146.780000
306.239594	145.920000
306.332825	145.860000
306.426025	145.860000
306.519287	145.680000
306.612488	145.980000
306.705719	146.760000
306.798920	146.720000
306.892181	146.360000
306.985352	146.160000
307.078613	145.540000
307.171844	145.640000
307.265045	145.440000
307.358276	145.120000
307.451508	145.520000
307.544739	146.500000
307.637970	145.800000
307.731201	145.620000
307.824402	146.420000
307.917633	146.660000
308.010864	146.900000
308.104095	147.440000
308.197327	147.520000
308.290558	147.440000
308.383789	147.060000
308.477020	146.340000
308.570251	145.800000
308.663483	145.860000
308.756714	145.540000
308.849976	145.740000
308.943176	146.140000
309.036438	146.060000
309.129639	145.760000
309.222900	145.900000
309.316101	145.800000
309.409393	145.660000
309.502625	145.580000
309.595856	145.920000
309.689087	146.140000
309.782318	145.920000
309.875580	145.640000
309.968811	146.000000
310.062042	145.960000
310.155273	145.740000
310.248535	146.140000
310.341766	146.160000
310.434998	145.820000
310.528259	145.680000
310.621490	145.900000
310.714722	145.560000
310.807983	145.500000
310.901215	145.600000
310.994476	145.860000
311.087708	145.520000
311.181000	145.740000
311.274200	145.280000
311.367462	145.320000
311.460693	145.040000
311.553986	145.520000
311.647186	145.740000
311.740479	146.640000
311.833710	146.460000
311.926971	146.580000
312.020203	145.900000
312.113464	145.720000
312.206726	145.040000
312.299957	145.400000
312.393219	145.580000
312.486481	146.160000
312.579712	145.900000
312.672974	146.020000
312.766235	145.720000
312.859497	145.740000
312.952759	145.420000
313.045990	146.240000
313.139252	146.080000
313.232513	146.620000
313.325775	146.460000
313.419037	146.240000
313.512299	145.120000
313.605530	145.720000
313.698822	145.520000
313.792053	145.540000
313.885345	145.340000
313.978577	145.620000
314.071869	144.900000
314.165131	144.960000
314.258392	145.480000
314.351654	145.820000
314.444916	145.340000
314.538177	146.300000
314.631439	146.220000
314.724701	145.660000
314.817993	145.700000
314.911255	146.400000
315.004517	145.880000
315.097778	145.720000
315.191040	146.340000
315.284302	146.580000
315.377594	146.220000
315.470856	146.040000
315.564117	145.760000
315.657379	144.860000
315.750671	144.300000
315.843933	144.820000
315.937195	144.480000
316.030518	144.280000
316.123749	144.800000
316.217041	145.580000
316.310303	145.500000
316.403595	145.900000
316.496857	146.640000
316.590149	146.580000
316.683411	145.800000
316.776703	145.260000
316.869965	145.400000
316.963257	145.140000
317.056519	144.600000
317.149811	144.480000
317.243073	144.600000
317.336365	144.540000
317.429626	144.880000
317.522919	145.440000
317.616180	145.880000
317.709473	145.740000
317.802765	145.660000
317.896027	145.400000
317.989319	145.680000
318.082611	145.440000
318.175873	145.220000
318.269165	145.480000
318.362488	145.380000
318.455750	144.840000
318.549042	145.320000
318.642303	146.400000
318.735626	145.940000
318.828888	146.040000
318.922211	145.880000
319.015472	146.380000
319.108765	145.780000
319.202057	145.720000
319.295349	145.860000
319.388641	145.820000
319.481934	145.240000
319.575226	145.220000
319.668518	145.540000
319.761810	145.720000
319.855103	146.140000
319.948395	146.040000
320.041687	146.420000
320.134979	146.460000
320.228271	146.080000
320.321564	145.820000
320.414856	146.000000
320.508148	145.260000
320.601440	145.340000
320.694763	145.400000
320.788025	146.160000
320.881348	146.020000
320.974640	146.140000
321.067963	145.600000
321.161224	145.760000
321.254547	145.000000
321.347839	145.440000
321.441162	145.260000
321.534454	145.520000
321.627747	145.200000
321.721069	145.880000
321.814362	145.880000
321.907654	146.300000
322.000946	146.680000
322.094269	147.280000
322.187561	146.740000
322.280884	146.940000
322.374176	147.140000
322.467468	147.260000
322.560791	147.180000
322.654083	147.520000
322.747406	147.340000
322.840698	147.280000
322.934021	147.300000
323.027344	147.580000
323.120636	147.460000
323.213959	147.420000
323.307251	147.080000
323.400574	146.600000
323.493866	145.940000
323.587219	146.140000
323.680511	146.280000
323.773834	146.340000
323.867157	146.400000
323.960449	146.600000
324.053772	146.220000
324.147095	145.880000
324.240387	146.500000
324.333710	146.520000
324.427032	146.760000
324.520355	146.800000
324.613647	146.680000
324.706970	146.220000
324.800293	146.180000
324.893616	146.080000
324.986938	146.300000
325.080231	146.120000
325.173553	146.120000
325.266876	146.760000
325.360199	146.620000
325.453522	146.180000
325.546875	145.940000
325.640167	146.340000
325.733521	146.340000
325.826813	146.620000
325.920166	146.600000
326.013489	146.760000
326.106812	145.960000
326.200134	145.340000
326.293457	144.860000
326.386780	144.980000
326.480103	145.180000
326.573425	145.160000
326.666748	145.040000
326.760071	145.420000
326.853424	145.600000
326.946747	145.520000
327.040070	146.700000
327.133392	146.600000
327.226715	145.900000
327.320068	145.280000
327.413391	145.980000
327.506714	144.820000
327.600037	145.260000
327.693390	145.760000
327.786713	146.100000
327.880066	145.740000
327.973358	146.460000
328.066742	146.660000
328.160034	146.960000
328.253418	147.640000
328.346710	147.100000
328.440063	146.620000
328.533417	146.160000
328.626740	146.040000
328.720093	145.320000
328.813416	145.740000
328.906769	145.880000
329.000092	146.000000
329.093445	145.660000
329.186768	145.600000
329.280121	146.000000
329.373444	146.180000
329.466797	146.220000
329.560120	146.560000
329.653473	146.920000
329.746796	146.020000
329.840149	146.100000
329.933502	146.260000
330.026825	145.880000
330.120178	145.700000
330.213562	145.940000
330.306854	145.520000
330.400238	145.200000
330.493561	145.220000
330.586945	145.980000
330.680237	146.340000
330.773621	146.840000
330.866974	146.860000
330.960327	147.240000
331.053680	146.480000
331.147003	146.640000
331.240356	146.620000
331.333710	146.920000
331.427063	146.520000
331.520416	146.540000
331.613770	146.060000
331.707123	146.160000
331.800476	146.140000
331.893829	147.060000
331.987152	147.200000
332.080505	147.300000
332.173859	146.980000
332.267212	146.440000
332.360565	145.740000
332.453918	145.480000
332.547333	145.320000
332.640656	145.560000
332.734039	145.840000
332.827362	145.980000
332.920746	146.640000
333.014069	146.780000
333.107452	147.060000
333.200806	147.500000
333.294159	147.440000
333.387543	146.540000
333.480896	146.180000
333.574249	145.720000
333.667603	145.160000
333.760956	145.220000
333.854340	145.660000
333.947693	145.700000
334.041046	145.480000
334.134430	146.120000
334.227783	145.560000
334.321136	145.280000
334.414520	145.280000
334.507874	145.340000
334.601227	144.960000
334.694611	145.240000
334.787964	145.480000
334.881348	145.700000
334.974701	146.060000
335.068085	145.900000
335.161438	146.320000
335.254822	146.020000
335.348175	146.120000
335.441559	145.680000
335.534943	146.260000
335.628296	145.840000
335.721680	146.140000
335.815033	146.340000
335.908417	146.260000
336.001770	146.040000
336.095154	146.040000
336.188538	145.740000
336.281891	145.260000
336.375275	145.280000
336.468658	144.960000
336.562012	145.000000
336.655396	145.560000
336.748779	145.920000
336.842133	146.060000
336.935516	146.380000
337.028900	146.360000
337.122284	146.100000
337.215637	146.160000
337.309021	145.980000
337.402435	145.560000
337.495789	145.560000
337.589203	145.760000
337.682526	145.480000
337.775940	146.240000
337.869324	146.440000
337.962708	146.060000
338.056091	146.520000
338.149475	146.220000
338.242859	145.820000
338.336243	145.680000
338.429626	145.960000
338.523010	145.260000
338.616394	145.420000
338.709778	145.420000
338.803162	145.740000
338.896545	145.740000
338.989929	145.260000
339.083313	145.320000
339.176697	145.040000
339.270081	144.720000
339.363464	145.020000
339.456848	145.660000
339.550232	145.260000
339.643616	145.400000
339.737030	145.680000
339.830383	145.420000
339.923828	145.380000
340.017181	145.660000
340.110596	145.480000
340.203949	145.140000
340.297363	145.040000
340.390778	144.960000
340.484161	144.980000
340.577545	145.320000
340.670959	145.660000
340.764343	145.960000
340.857727	146.180000
340.951111	145.740000
341.044525	145.620000
341.137909	145.320000
341.231293	145.180000
341.324707	144.540000
341.418091	145.540000
341.511505	145.400000
341.604889	145.860000
341.698303	145.700000
341.791687	145.800000
341.885071	145.280000
341.978485	145.040000
342.071899	145.000000
342.165283	145.260000
342.258698	145.600000
342.352081	145.880000
342.445496	146.780000
342.538879	146.480000
342.632324	146.060000
342.725708	146.020000
342.819122	145.680000
342.912506	145.160000
343.005920	145.080000
343.099335	146.040000
343.192719	145.920000
343.286133	146.140000
343.379547	146.220000
343.472931	146.460000
343.566345	145.660000
343.659760	146.160000
343.753143	145.980000
343.846558	145.620000
343.939972	145.480000
344.033386	146.220000
344.126770	145.960000
344.220184	146.020000
344.313599	146.280000
344.407043	146.120000
344.500427	145.240000
344.593872	145.580000
344.687225	145.340000
344.780670	145.180000
344.874054	145.220000
344.967499	145.820000
345.060913	145.560000
345.154327	145.580000
345.247742	145.520000
345.341156	145.540000
345.434570	145.280000
345.527985	145.280000
345.621399	145.540000
345.714813	145.520000
345.808228	145.740000
345.901642	145.600000
345.995056	144.980000
346.088470	144.900000
346.181885	145.000000
346.275299	144.480000
346.368713	144.480000
346.462128	144.680000
346.555573	144.500000
346.648987	144.500000
346.742401	144.720000
346.835815	145.200000
346.929260	145.060000
347.022644	145.500000
347.116119	145.500000
347.209503	145.900000
347.302948	146.220000
347.396362	146.800000
347.489807	146.940000
347.583221	147.780000
347.676636	147.300000
347.770050	146.240000
347.863495	145.640000
347.956909	145.380000
348.050323	144.720000
348.143768	144.720000
348.237183	144.800000
348.330597	145.420000
348.424042	145.900000
348.517456	145.920000
348.610901	146.120000
348.704315	146.340000
348.797760	145.620000
348.891174	144.760000
348.984619	144.580000
349.078033	145.080000
349.171448	145.800000
349.264923	145.940000
349.358337	145.900000
349.451782	146.020000
349.545197	145.240000
349.638641	144.040000
349.732086	143.980000
349.825500	144.800000
349.918945	144.360000
350.012390	144.860000
350.105804	145.760000
350.199249	146.020000
350.292664	145.940000
350.386108	146.660000
350.479553	147.180000
350.572968	146.760000
350.666412	146.960000
350.759857	146.500000
350.853302	146.620000
350.946716	145.900000
351.040161	145.700000
351.133606	145.600000
351.227081	145.880000
351.320465	146.240000
351.413940	146.040000
351.507355	146.480000
351.600830	146.500000
351.694244	146.080000
351.787720	145.680000
351.881104	146.200000
351.974579	146.060000
352.067993	147.040000
352.161469	147.200000
352.254883	146.540000
352.348358	146.140000
352.441803	146.200000
352.535248	145.300000
352.628693	145.860000
352.722137	146.080000
352.815582	146.380000
352.909027	146.460000
353.002472	146.060000
353.095917	145.800000
353.189362	146.020000
353.282806	145.840000
353.376251	146.000000
353.469696	145.900000
353.563141	146.220000
353.656586	146.140000
353.750061	145.640000
353.843475	145.180000
353.936981	145.800000
354.030396	145.140000
354.123871	145.100000
354.217285	146.140000
354.310760	146.520000
354.404175	146.280000
354.497681	146.220000
354.591095	146.420000
354.684570	145.360000
354.777985	144.660000
354.871490	144.460000
354.964935	145.080000
355.058380	145.160000
355.151855	145.200000
355.245300	145.980000
355.338745	146.380000
355.432220	146.200000
355.525665	145.480000
355.619110	146.300000
355.712585	146.100000
355.806030	145.920000
355.899475	145.400000
355.992950	145.920000
356.086426	146.060000
356.179871	145.940000
356.273346	146.020000
356.366791	146.420000
356.460266	146.540000
356.553711	145.840000
356.647186	145.660000
356.740631	145.400000
356.834106	145.160000
356.927551	145.160000
357.021027	145.300000
357.114471	145.540000
357.207947	145.940000
357.301422	146.480000
357.394867	146.640000
357.488342	147.200000
357.581818	147.060000
357.675262	147.020000
357.768738	146.460000
357.862213	145.580000
357.955658	145.180000
358.049133	145.400000
358.142609	145.520000
358.236053	145.420000
358.329529	145.620000
358.423035	145.920000
358.516449	145.260000
358.609955	145.480000
358.703400	146.200000
358.796906	146.580000
358.890350	145.940000
358.983826	146.660000
359.077271	145.880000
359.170776	145.580000
359.264221	145.260000
359.357727	145.600000
359.451172	145.840000
359.544647	145.940000
359.638123	145.780000
359.731598	146.100000
359.825073	146.060000
359.918549	145.780000
360.012024	146.040000
360.105499	145.640000
360.198975	145.580000
360.292450	145.380000
360.385925	145.420000
360.479401	145.200000
360.572876	145.440000
360.666351	145.660000
360.759857	145.900000
360.853302	145.600000
360.946808	145.180000
361.040253	145.200000
361.133759	144.880000
361.227203	145.140000
361.320709	145.240000
361.414154	145.820000
361.507660	146.460000
361.601105	147.140000
361.694641	147.340000
361.788086	147.220000
361.881592	147.760000
361.975067	146.940000
362.068542	146.600000
362.162018	146.400000
362.255524	146.060000
362.348999	145.600000
362.442474	146.220000
362.535950	145.920000
362.629456	145.480000
362.722931	145.540000
362.816406	146.160000
362.909882	146.080000
363.003387	145.600000
363.096863	146.080000
363.190338	146.480000
363.283875	145.580000
363.377319	145.340000
363.470825	146.360000
363.564301	145.820000
363.657806	145.960000
363.751282	146.080000
363.844788	146.860000
363.938232	146.080000
364.031769	146.720000
364.125214	146.440000
364.218750	146.920000
364.312225	145.900000
364.405731	146.420000
364.499207	146.000000
364.592712	146.000000
364.686188	145.780000
364.779694	146.220000
364.873169	146.100000
364.966675	146.180000
365.060150	146.200000
365.153656	146.500000
365.247131	146.320000
365.340637	146.340000
365.434143	146.600000
365.527618	146.780000
365.621155	146.000000
365.714600	145.920000
365.808136	146.240000
365.901611	145.260000
365.995117	145.040000
366.088593	145.240000
366.182129	145.100000
366.275604	144.880000
366.369110	145.400000
366.462585	145.380000
366.556122	146.320000
366.649567	146.540000
366.743103	146.400000
366.836609	146.340000
366.930115	146.740000
367.023590	146.240000
367.117096	146.080000
367.210602	146.060000
367.304108	146.440000
367.397614	146.500000
367.491119	146.480000
367.584595	146.760000
367.678101	147.080000
367.771606	146.840000
367.865112	146.540000
367.958649	146.300000
368.052124	146.180000
368.145660	145.740000
368.239136	146.200000
368.332672	146.080000
368.426147	145.920000
368.519684	146.020000
368.613159	146.380000
368.706696	145.840000
368.800171	146.220000
368.893707	146.540000
368.987183	146.480000
369.080719	146.200000
369.174225	145.800000
369.267731	145.660000
369.361237	145.500000
369.454742	145.120000
369.548248	145.580000
369.641754	145.900000
369.735260	145.540000
369.828766	144.780000
369.922272	145.460000
370.015808	144.940000
370.109314	144.820000
370.202820	144.800000
370.296356	146.100000
370.389832	145.500000
370.483368	145.600000
370.576874	145.380000
370.670410	145.800000
370.763885	144.740000
370.857422	144.960000
370.950928	144.600000
371.044464	145.840000
371.137939	145.840000
371.231476	146.280000
371.324982	146.780000
371.418518	147.280000
371.512024	146.640000
371.605560	146.320000
371.699066	146.500000
371.792572	145.820000
371.886108	146.000000
371.979614	146.060000
372.073120	146.560000
372.166656	146.540000
372.260162	147.140000
372.353668	146.660000
372.447205	146.360000
372.540710	146.300000
372.634277	145.880000
372.727753	145.800000
372.821320	145.860000
372.914795	145.780000
373.008362	145.500000
373.101837	145.880000
373.195404	145.480000
373.288879	145.620000
373.382446	146.320000
373.475922	146.400000
373.569489	147.000000
373.662964	147.560000
373.756531	147.540000
373.850037	147.260000
373.943573	147.240000
374.037109	146.080000
374.130615	146.100000
374.224152	146.080000
374.317657	145.940000
374.411194	146.760000
374.504730	146.900000
374.598236	146.400000
374.691772	146.500000
374.785309	146.640000
374.878815	145.560000
374.972351	146.020000
375.065887	146.080000
375.159454	146.540000
375.252930	146.240000
375.346497	146.780000
375.440002	147.380000
375.533569	147.180000
375.627045	146.460000
375.720612	146.620000
375.814117	146.600000
375.907684	146.040000
376.001160	145.800000
376.094727	145.760000
376.188232	146.400000
376.281799	146.680000
376.375336	146.640000
376.468872	147.580000
376.562408	147.880000
376.655914	147.200000
376.749451	146.720000
376.842987	146.800000
376.936523	146.560000
377.030060	146.560000
377.123596	146.740000
377.217133	146.460000
377.310669	146.220000
377.404205	146.260000
377.497772	146.700000
377.591278	146.660000
377.684845	147.540000
377.778351	147.640000
377.871918	147.500000
377.965424	146.660000
378.058990	146.540000
378.152496	145.860000
378.246063	146.180000
378.339569	146.280000
378.433136	146.380000
378.526642	146.640000
378.620209	146.880000
378.713745	146.420000
378.807312	146.800000
378.900848	146.900000
378.994385	146.860000
379.087921	145.780000
379.181458	145.860000
379.274994	144.600000
379.368530	144.380000
379.462097	144.460000
379.555634	145.580000
379.649170	145.260000
379.742706	145.600000
379.836273	146.040000
379.929810	145.540000
380.023376	144.920000
380.116882	144.940000
380.210449	145.180000
380.303986	144.760000
380.397552	144.420000
380.491058	144.660000
380.584656	144.760000
380.678162	144.900000
380.771729	144.900000
380.865265	146.060000
380.958832	146.380000
381.052368	146.500000
381.145935	146.820000
381.239471	147.080000
381.333008	146.540000
381.426575	146.240000
381.520111	146.720000
381.613647	146.720000
381.707214	146.600000
381.800751	146.120000
381.894318	146.220000
381.987854	145.580000
382.081421	145.320000
382.174988	145.580000
382.268524	145.700000
382.362091	145.940000
382.455627	146.740000
382.549194	146.400000
382.642731	145.460000
382.736298	145.260000
382.829834	144.900000
382.923401	145.200000
383.016937	145.640000
383.110504	146.180000
383.204041	146.600000
383.297607	146.880000
383.391174	145.860000
383.484741	146.380000
383.578278	146.200000
383.671844	145.820000
383.765411	145.280000
383.858948	145.740000
383.952515	145.220000
384.046051	145.920000
384.139618	146.360000
384.233185	146.700000
384.326721	146.720000
384.420288	147.280000
384.513855	147.280000
384.607422	147.500000
384.700989	147.700000
384.794525	146.980000
384.888123	146.640000
384.981659	146.580000
385.075226	146.000000
385.168762	145.720000
385.262360	146.100000
385.355896	145.300000
385.449463	145.120000
385.542999	145.280000
385.636597	146.020000
385.730164	146.260000
385.823730	146.280000
385.917267	145.820000
386.010834	146.300000
386.104401	145.740000
386.197968	145.780000
386.291534	146.400000
386.385101	147.060000
386.478668	146.920000
386.572235	147.000000
386.665802	146.400000
386.759338	146.120000
386.852905	145.820000
386.946472	145.420000
387.040070	145.400000
387.133606	145.640000
387.227203	145.240000
387.320740	145.480000
387.414337	145.460000
387.507874	145.420000
387.601471	145.740000
387.695007	145.780000
387.788605	145.340000
387.882141	145.640000
387.975739	145.920000
388.069275	145.360000
388.162872	145.700000
388.256439	145.480000
388.350037	145.040000
388.443604	144.740000
388.537170	145.100000
388.630737	145.640000
388.724304	146.220000
388.817871	146.540000
388.911438	146.740000
389.005005	147.020000
389.098602	147.100000
389.192169	146.820000
389.285736	147.200000
389.379333	146.720000
389.472870	146.060000
389.566467	145.580000
389.660034	145.560000
389.753632	144.880000
389.847168	145.280000
389.940765	145.860000
390.034332	146.040000
390.127930	145.560000
390.221466	145.700000
390.315063	145.300000
390.408630	144.440000
390.502228	143.620000
390.595795	144.240000
390.689362	144.420000
390.782959	145.040000
390.876526	145.860000
390.970093	146.080000
391.063690	146.560000
391.157257	146.640000
391.250824	146.620000
391.344421	146.500000
391.437988	146.920000
391.531555	146.660000
391.625153	146.240000
391.718750	146.140000
391.812317	145.800000
391.905914	145.380000
391.999481	145.700000
392.093079	146.340000
392.186615	146.520000
392.280243	146.700000
392.373779	146.940000
392.467407	146.920000
392.560944	146.500000
392.654572	145.880000
392.748108	145.740000
392.841736	145.880000
392.935303	145.140000
393.028900	145.160000
393.122467	145.480000
393.216064	145.420000
393.309631	144.860000
393.403229	144.700000
393.496796	144.880000
393.590393	144.320000
393.683990	144.660000
393.777557	145.220000
393.871155	145.540000
393.964722	145.620000
394.058350	146.300000
394.151917	146.240000
394.245514	145.960000
394.339081	146.320000
394.432678	146.480000
394.526245	146.380000
394.619873	146.120000
394.713409	146.700000
394.807037	146.240000
394.900604	146.080000
394.994202	146.160000
395.087769	146.320000
395.181396	145.380000
395.274994	146.280000
395.368561	145.700000
395.462158	145.680000
395.555756	145.520000
395.649353	146.260000
395.742920	145.400000
395.836517	146.320000
395.930115	145.740000
396.023712	146.280000
396.117279	146.240000
396.210876	146.140000
396.304474	145.700000
396.398071	146.180000
396.491669	146.040000
396.585266	145.780000
396.678833	145.820000
396.772461	146.280000
396.866028	146.040000
396.959656	146.280000
397.053223	146.740000
397.146851	146.960000
397.240417	147.140000
397.334015	148.200000
397.427582	148.300000
397.521210	149.060000
397.614807	150.180000
397.708405	151.020000
397.802002	151.740000
397.895599	153.640000
397.989197	155.200000
398.082794	157.520000
398.176392	160.280000
398.269989	163.520000
398.363586	167.060000
398.457184	171.820000
398.550781	176.480000
398.644379	180.420000
398.737976	184.360000
398.831573	187.940000
398.925201	190.700000
399.018768	193.300000
399.112396	197.020000
399.205963	201.220000
399.299591	205.820000
399.393158	210.380000
399.486786	215.600000
399.580353	219.440000
399.673981	222.600000
399.767578	224.840000
399.861206	226.460000
399.954773	226.620000
400.048401	226.360000
400.141998	224.540000
400.235596	222.480000
400.329193	219.300000
400.422791	216.060000
400.516418	211.720000
400.610016	208.360000
400.703613	205.000000
400.797211	200.740000
400.890808	196.680000
400.984436	193.660000
401.078033	189.420000
401.171631	184.940000
401.265259	181.200000
401.358826	177.840000
401.452484	174.060000
401.546051	171.680000
401.639679	168.540000
401.733246	165.980000
401.826904	162.600000
401.920471	159.680000
402.014099	156.980000
402.107697	155.080000
402.201324	153.640000
402.294891	152.860000
402.388550	151.840000
402.482147	150.580000
402.575745	149.320000
402.669373	147.860000
402.762970	146.960000
402.856567	146.680000
402.950195	146.800000
403.043793	146.560000
403.137390	147.820000
403.231018	147.040000
403.324615	147.680000
403.418243	147.020000
403.511841	147.660000
403.605469	146.800000
403.699066	147.280000
403.792694	146.640000
403.886292	146.940000
403.979919	146.560000
404.073517	146.340000
404.167145	146.720000
404.260712	146.820000
404.354370	146.680000
404.447937	146.700000
404.541595	147.040000
404.635162	146.780000
404.728821	147.060000
404.822418	146.740000
404.916046	146.500000
405.009644	146.440000
405.103271	146.940000
405.196899	146.400000
405.290497	146.560000
405.384125	147.000000
405.477722	146.720000
405.571350	145.820000
405.664948	146.280000
405.758575	146.000000
405.852203	145.500000
405.945801	146.000000
406.039429	146.500000
406.133057	146.280000
406.226654	146.280000
406.320312	146.560000
406.413879	146.340000
406.507538	146.400000
406.601135	145.940000
406.694763	146.600000
406.788361	146.340000
406.882019	145.900000
406.975586	146.060000
407.069244	146.900000
407.162872	146.740000
407.256470	146.640000
407.350098	146.760000
407.443726	146.080000
407.537323	145.520000
407.630951	145.800000
407.724579	145.500000
407.818207	146.000000
407.911804	145.960000
408.005432	145.800000
408.099060	145.760000
408.192688	146.680000
408.286285	146.260000
408.379913	146.180000
408.473572	146.440000
408.567169	145.880000
408.660828	145.180000
408.754395	144.960000
408.848053	145.220000
408.941650	145.500000
409.035309	145.360000
409.128906	145.660000
409.222565	145.980000
409.316132	146.420000
409.409790	145.660000
409.503387	145.880000
409.597046	146.180000
409.690674	146.180000
409.784302	146.100000
409.877930	146.300000
409.971558	146.400000
410.065186	145.940000
410.158783	146.040000
410.252411	145.520000
410.346039	146.060000
410.439667	145.920000
410.533295	146.440000
410.626923	146.560000
410.720551	146.800000
410.814209	146.900000
410.907806	147.000000
411.001465	146.300000
411.095062	146.320000
411.188721	146.380000
411.282318	145.980000
411.375977	145.900000
411.469574	146.200000
411.563232	145.900000
411.656830	145.840000
411.750488	145.600000
411.844086	145.300000
411.937744	145.580000
412.031372	145.200000
412.125000	145.060000
412.218628	145.280000
412.312256	146.220000
412.405884	146.640000
412.499512	146.740000
412.593170	147.140000
412.686798	147.380000
412.780426	146.520000
412.874054	146.260000
412.967682	146.500000
413.061310	146.800000
413.154968	146.780000
413.248566	147.320000
413.342224	146.840000
413.435852	147.100000
413.529510	146.300000
413.623108	145.460000
413.716766	144.960000
413.810364	145.400000
413.904022	145.100000
413.997650	145.120000
414.091309	146.260000
414.184906	146.360000
414.278564	145.900000
414.372192	146.280000
414.465851	146.980000
414.559479	146.460000
414.653107	147.120000
414.746735	147.040000
414.840393	146.940000
414.934021	146.820000
415.027649	146.560000
415.121277	146.300000
415.214935	146.860000
415.308563	146.800000
415.402191	146.020000
415.495850	145.980000
415.589478	145.800000
415.683136	145.360000
415.776733	145.620000
415.870422	146.400000
415.964020	146.260000
416.057678	146.280000
416.151306	146.260000
416.244965	145.960000
416.338562	145.900000
416.432251	146.760000
416.525848	147.400000
416.619507	147.680000
416.713165	148.060000
416.806793	147.900000
416.900421	148.060000
416.994080	147.140000
417.087708	146.900000
417.181366	146.300000
417.274994	146.240000
417.368622	146.160000
417.462280	146.860000
417.555908	146.680000
417.649567	146.740000
417.743195	146.920000
417.836853	146.540000
417.930481	146.420000
418.024170	147.020000
418.117767	147.280000
418.211426	147.460000
418.305054	147.640000
418.398712	146.980000
418.492340	146.760000
418.585999	147.140000
418.679626	146.980000
418.773285	146.800000
418.866913	147.500000
418.960571	147.980000
419.054230	147.760000
419.147858	147.760000
419.241516	147.940000
419.335144	147.520000
419.428802	147.180000
419.522461	146.660000
419.616089	146.380000
419.709747	146.280000
419.803375	146.380000
419.897034	146.320000
419.990662	146.520000
420.084320	146.840000
420.177979	147.060000
420.271606	147.280000
420.365295	147.440000
420.458893	147.780000
420.552582	147.740000
420.646210	147.640000
420.739868	147.340000
420.833496	146.980000
420.927155	146.720000
421.020782	146.440000
421.114471	145.980000
421.208069	146.000000
421.301758	146.320000
421.395386	146.440000
421.489044	146.520000
421.582703	146.860000
421.676361	147.580000
421.769989	147.100000
421.863647	147.240000
421.957306	147.420000
422.050934	147.320000
422.144592	146.960000
422.238251	146.900000
422.331909	146.440000
422.425537	146.160000
422.519196	146.240000
422.612854	145.700000
422.706543	145.680000
422.800140	146.000000
422.893829	145.580000
422.987457	145.480000
423.081146	145.840000
423.174744	146.580000
423.268433	146.340000
423.362061	146.540000
423.455750	146.300000
423.549347	146.380000
423.643036	145.520000
423.736664	146.060000
423.830353	146.180000
423.924011	146.720000
424.017639	146.100000
424.111298	146.320000
424.204956	146.020000
424.298615	146.100000
424.392273	145.900000
424.485931	146.280000
424.579559	146.480000
424.673218	146.260000
424.766876	146.240000
424.860535	145.560000
424.954193	145.360000
425.047882	145.720000
425.141510	145.680000
425.235199	145.940000
425.328796	146.040000
425.422485	146.140000
425.516113	145.340000
425.609802	145.540000
425.703430	145.380000
425.797119	145.720000
425.890747	145.600000
425.984436	145.960000
426.078064	145.800000
426.171753	145.960000
426.265411	145.820000
426.359070	146.300000
426.452728	146.160000
426.546356	146.100000
426.640015	145.660000
426.733673	145.780000
426.827332	145.140000
426.920990	145.820000
427.014648	145.800000
427.108307	146.340000
427.201965	146.740000
427.295624	147.240000
427.389282	146.620000
427.482941	146.960000
427.576630	146.820000
427.670258	146.100000
427.763947	146.100000
427.857574	146.000000
427.951263	145.720000
428.044922	145.700000
428.138611	145.940000
428.232239	146.220000
428.325928	146.980000
428.419556	147.540000
428.513245	146.980000
428.606903	147.200000
428.700562	146.660000
428.794220	145.680000
428.887878	144.880000
428.981537	145.400000
429.075195	145.400000
429.168854	145.780000
429.262512	146.360000
429.356201	146.940000
429.449860	146.880000
429.543518	146.940000
429.637177	147.000000
429.730835	146.820000
429.824493	146.560000
429.918182	146.960000
430.011810	146.520000
430.105530	145.800000
430.199158	145.880000
430.292847	145.620000
430.386475	145.160000
430.480164	144.980000
430.573792	144.880000
430.667511	144.820000
430.761139	145.080000
430.854828	145.460000
430.948456	146.000000
431.042145	146.860000
431.135834	146.700000
431.229492	146.780000
431.323151	146.840000
431.416809	146.660000
431.510468	146.340000
431.604156	146.400000
431.697815	146.340000
431.791473	145.780000
431.885132	145.340000
431.978821	145.480000
432.072479	145.620000
432.166138	146.000000
432.259827	146.000000
432.353485	146.560000
432.447174	146.820000
432.540802	146.640000
432.634491	146.680000
432.728149	147.020000
432.821838	147.320000
432.915466	146.880000
433.009186	147.160000
433.102814	146.560000
433.196503	146.240000
433.290131	146.160000
433.383850	146.780000
433.477509	146.780000
433.571167	147.460000
433.664856	148.020000
433.758514	148.280000
433.852173	147.900000
433.945862	147.760000
434.039520	147.340000
434.133179	146.680000
434.226868	146.120000
434.320526	145.440000
434.414185	145.980000
434.507874	145.780000
434.601562	146.140000
434.695221	146.080000
434.788910	146.400000
434.882538	146.000000
434.976257	145.740000
435.069885	145.520000
435.163574	145.580000
435.257233	145.420000
435.350922	145.420000
435.444580	145.300000
435.538269	145.060000
435.631897	145.380000
435.725616	146.020000
435.819275	146.400000
435.912964	147.300000
436.006622	148.080000
436.100311	147.740000
436.193970	146.900000
436.287628	146.220000
436.381317	145.720000
436.474976	145.140000
436.568665	145.240000
436.662323	145.680000
436.756012	145.900000
436.849670	145.640000
436.943390	145.560000
437.037018	145.480000
437.130737	145.260000
437.224365	145.100000
437.318085	145.300000
437.411713	145.640000
437.505432	145.740000
437.599060	146.120000
437.692780	146.920000
437.786407	147.020000
437.880127	147.040000
437.973755	146.960000
438.067474	146.600000
438.161133	146.100000
438.254822	146.640000
438.348480	146.300000
438.442169	146.880000
438.535828	147.400000
438.629517	147.060000
438.723175	146.280000
438.816864	146.800000
438.910553	146.280000
439.004211	145.680000
439.097900	145.640000
439.191559	145.620000
439.285248	145.140000
439.378906	145.420000
439.472626	145.540000
439.566284	145.580000
439.659973	145.880000
439.753632	145.720000
439.847321	146.120000
439.940979	146.160000
440.034698	146.240000
440.128326	145.780000
440.222046	145.740000
440.315674	144.940000
440.409393	145.100000
440.503082	144.960000
440.596741	145.460000
440.690430	145.900000
440.784088	145.800000
440.877777	145.180000
440.971466	145.280000
441.065125	145.080000
441.158813	144.720000
441.252502	144.520000
441.346161	145.220000
441.439850	145.360000
441.533539	145.100000
441.627197	145.440000
441.720886	145.760000
441.814606	145.960000
441.908234	146.340000
442.001953	146.520000
442.095612	146.620000
442.189301	146.900000
442.282959	146.480000
442.376678	145.620000
442.470306	146.400000
442.564026	146.080000
442.657684	145.980000
442.751404	146.280000
442.845032	147.400000
442.938751	146.380000
443.032440	146.340000
443.126099	145.920000
443.219788	146.220000
443.313477	145.740000
443.407166	146.440000
443.500824	146.620000
443.594513	146.860000
443.688202	146.540000
443.781891	145.740000
443.875549	145.460000
443.969238	145.420000
444.062927	145.640000
444.156647	145.480000
444.250275	146.280000
444.343994	146.300000
444.437653	146.400000
444.531372	146.220000
444.625031	146.220000
444.718719	145.660000
444.812378	145.540000
444.906097	145.400000
444.999756	144.940000
445.093445	145.140000
445.187103	145.420000
445.280823	145.860000
445.374512	145.600000
445.468201	146.180000
445.561859	145.740000
445.655548	145.720000
445.749237	145.120000
445.842926	145.140000
445.936615	145.400000
446.030304	145.580000
446.123962	145.720000
446.217651	145.720000
446.311340	146.200000
446.405029	145.540000
446.498749	145.340000
446.592407	145.340000
446.686096	145.740000
446.779755	145.900000
446.873474	146.340000
446.967133	146.680000
447.060852	146.220000
447.154510	145.820000
447.248230	145.460000
447.341858	145.260000
447.435577	144.780000
447.529236	144.760000
447.622955	144.840000
447.716644	144.700000
447.810333	145.000000
447.904022	145.740000
447.997711	145.620000
448.091400	146.040000
448.185059	146.180000
448.278748	146.200000
448.372437	145.720000
448.466125	146.240000
448.559814	145.740000
448.653503	146.200000
448.747192	146.440000
448.840912	147.020000
448.934570	147.160000
449.028290	147.540000
449.121948	146.920000
449.215637	146.340000
449.309296	145.400000
449.403015	145.440000
449.496674	145.360000
449.590393	145.300000
449.684052	145.240000
449.777771	146.580000
449.871429	145.920000
449.965149	145.720000
450.058838	146.140000
450.152527	146.520000
450.246216	145.680000
450.339905	145.860000
450.433594	145.740000
450.527283	146.300000
450.620972	146.060000
450.714661	145.760000
450.808350	146.020000
450.902039	146.260000
450.995728	145.460000
451.089417	145.200000
451.183105	145.720000
451.276794	145.960000
451.370514	145.540000
451.464172	145.100000
451.557892	145.020000
451.651550	145.040000
451.745270	144.540000
451.838928	144.140000
451.932648	144.820000
452.026306	145.600000
452.120026	145.240000
452.213684	145.580000
452.307404	146.140000
452.401062	146.160000
452.494781	145.920000
452.588470	146.120000
452.682159	145.760000
452.775848	146.160000
452.869537	145.680000
452.963226	145.300000
453.056915	144.960000
453.150604	145.000000
453.244293	144.900000
453.337982	145.760000
453.431671	145.940000
453.525360	146.480000
453.619049	146.840000
453.712769	146.640000
453.806427	145.740000
453.900146	145.540000
453.993805	145.480000
454.087555	145.780000
454.181213	146.140000
454.274933	146.480000
454.368591	146.480000
454.462311	146.360000
454.555969	145.680000
454.649689	146.000000
454.743347	145.640000
454.837067	146.580000
454.930756	146.860000
455.024445	147.400000
455.118134	147.060000
455.211853	147.400000
455.305542	146.620000
455.399231	146.240000
455.492920	145.580000
455.586609	145.700000
455.680298	145.920000
455.773987	145.860000
455.867676	146.120000
455.961365	146.700000
456.055084	145.960000
456.148773	145.600000
456.242493	145.840000
456.336151	145.500000
456.429871	145.640000
456.523529	146.480000
456.617249	146.280000
456.710907	146.800000
456.804626	147.200000
456.898315	146.720000
456.992035	146.600000
457.085693	146.440000
457.179413	145.320000
457.273102	145.860000
457.366791	146.180000
457.460480	146.420000
457.554199	147.220000
457.647888	147.540000
457.741577	146.840000
457.835266	146.660000
457.928955	146.300000
458.022644	146.320000
458.116364	146.780000
458.210052	146.720000
458.303741	146.800000
458.397461	146.500000
458.491119	145.860000
458.584839	145.440000
458.678528	145.460000
458.772247	144.920000
458.865906	145.100000
458.959625	146.140000
459.053284	146.420000
459.147003	146.360000
459.240692	147.180000
459.334412	147.440000
459.428070	147.120000
459.521790	146.660000
459.615479	146.520000
459.709198	146.760000
459.802887	146.420000
459.896576	145.960000
459.990265	146.460000
460.083954	146.680000
460.177673	145.840000
460.271362	145.940000
460.365051	145.740000
460.458740	145.360000
460.552429	145.040000
460.646149	145.320000
460.739838	145.020000
460.833527	145.120000
460.927246	144.920000
461.020905	145.140000
461.114655	145.320000
461.208313	145.660000
461.302032	145.540000
461.395691	145.980000
461.489441	145.640000
461.583099	145.320000
461.676819	144.920000
461.770477	145.540000
461.864197	145.340000
461.957916	145.220000
462.051605	144.720000
462.145294	145.840000
462.238983	145.200000
462.332703	145.580000
462.426392	146.480000
462.520081	147.040000
462.613770	146.100000
462.707489	146.680000
462.801178	146.300000
462.894867	145.980000
462.988556	145.900000
463.082275	146.140000
463.175964	145.460000
463.269684	146.020000
463.363342	145.840000
463.457092	145.380000
463.550751	145.640000
463.644470	145.940000
463.738129	145.540000
463.831879	145.960000
463.925537	146.820000
464.019257	147.000000
464.112946	146.940000
464.206665	146.480000
464.300323	146.000000
464.394043	145.540000
464.487762	144.840000
464.581451	144.840000
464.675140	145.200000
464.768829	145.540000
464.862549	145.600000
464.956238	146.020000
465.049927	146.440000
465.143646	146.460000
465.237335	145.960000
465.331024	146.360000
465.424713	146.200000
465.518433	146.120000
465.612152	146.160000
465.705811	146.600000
465.799561	146.380000
465.893219	146.240000
465.986938	146.220000
466.080597	146.000000
466.174347	146.120000
466.268005	146.520000
466.361725	146.520000
466.455414	146.200000
466.549133	146.260000
466.642792	146.280000
466.736542	145.420000
466.830231	145.640000
466.923920	145.900000
467.017609	145.980000
467.111328	145.620000
467.205017	145.980000
467.298706	145.920000
467.392426	145.920000
467.486115	146.260000
467.579803	145.880000
467.673523	146.180000
467.767212	146.060000
467.860901	146.240000
467.954651	146.080000
468.048309	146.540000
468.142029	146.260000
468.235718	146.580000
468.329437	145.980000
468.423096	145.560000
468.516846	145.480000
468.610504	145.400000
468.704224	144.880000
468.797913	144.880000
468.891632	145.380000
468.985291	145.200000
469.079010	145.200000
469.172729	144.860000
469.266418	145.860000
469.360107	145.780000
469.453827	145.720000
469.547516	145.980000
469.641205	146.980000
469.734924	146.500000
469.828613	146.640000
469.922302	147.300000
470.016022	147.140000
470.109711	146.460000
470.203430	145.620000
470.297150	145.080000
470.390808	144.900000
470.484558	144.860000
470.578217	145.600000
470.671936	146.600000
470.765625	147.440000
470.859344	147.140000
470.953003	147.380000
471.046753	146.780000
471.140411	146.020000
471.234131	145.800000
471.327820	146.460000
471.421539	146.360000
471.515228	146.160000
471.608948	146.620000
471.702637	146.180000
471.796326	145.440000
471.890045	145.620000
471.983734	145.980000
472.077423	145.400000
472.171143	145.740000
472.264832	145.580000
472.358521	145.240000
472.452240	144.980000
472.545929	146.040000
472.639648	145.940000
472.733337	146.540000
472.827057	146.860000
472.920746	147.020000
473.014465	146.860000
473.108124	146.740000
473.201874	146.720000
473.295532	146.560000
473.389252	146.900000
473.482941	146.700000
473.576660	146.440000
473.670319	146.040000
473.764069	146.140000
473.857727	146.160000
473.951477	146.520000
474.045166	147.440000
474.138855	147.540000
474.232574	147.520000
474.326263	147.260000
474.419952	147.080000
474.513672	146.600000
474.607361	146.800000
474.701050	146.700000
474.794769	146.980000
474.888458	147.220000
474.982178	146.980000
475.075867	146.920000
475.169586	146.780000
475.263275	146.340000
475.356995	146.100000
475.450653	145.820000
475.544403	145.220000
475.638062	146.020000
475.731812	145.980000
475.825470	145.880000
475.919189	146.140000
476.012878	146.780000
476.106598	145.980000
476.200256	146.440000
476.294006	146.220000
476.387695	146.460000
476.481384	145.980000
476.575104	146.240000
476.668793	145.580000
476.762512	145.460000
476.856201	145.460000
476.949890	145.480000
477.043610	144.700000
477.137299	144.880000
477.230988	145.300000
477.324707	144.880000
477.418396	145.720000
477.512146	146.280000
477.605804	146.120000
477.699524	146.240000
477.793213	146.540000
477.886932	145.740000
477.980591	145.500000
478.074341	145.640000
478.167999	145.020000
478.261749	145.120000
478.355408	145.280000
478.449127	145.740000
478.542816	146.620000
478.636536	147.240000
478.730225	147.200000
478.823944	147.640000
478.917633	147.500000
479.011322	147.320000
479.105042	147.420000
479.198730	147.540000
479.292450	146.980000
479.386139	147.100000
479.479828	146.820000
479.573547	146.720000
479.667267	146.620000
479.760925	146.960000
479.854675	147.140000
479.948334	147.340000
480.042084	146.720000
480.135742	146.940000
480.229462	146.420000
480.323151	146.100000
480.416870	145.580000
480.510529	145.640000
480.604279	145.140000
480.697937	145.840000
480.791656	145.620000
480.885345	145.500000
480.979065	145.680000
481.072754	146.360000
481.166473	146.620000
481.260132	146.800000
481.353882	146.900000
481.447540	146.720000
481.541260	146.500000
481.635010	145.500000
481.728668	145.440000
481.822388	145.300000
481.916077	145.580000
482.009796	145.320000
482.103485	145.880000
482.197205	145.780000
482.290863	146.060000
482.384613	145.720000
482.478271	145.540000
482.571991	145.360000
482.665680	145.580000
482.759399	146.300000
482.853058	146.800000
482.946808	146.680000
483.040466	146.960000
483.134216	146.800000
483.227875	146.200000
483.321594	146.640000
483.415283	146.960000
483.509003	146.540000
483.602661	146.540000
483.696411	146.840000
483.790070	146.160000
483.883789	145.900000
483.977478	146.540000
484.071198	146.780000
484.164917	146.180000
484.258606	145.840000
484.352325	146.340000
484.445984	146.060000
484.539734	145.860000
484.633392	145.440000
484.727142	145.980000
484.820801	145.780000
484.914520	146.000000
485.008209	145.900000
485.101929	146.820000
485.195587	146.700000
485.289337	146.420000
485.382996	146.120000
485.476715	146.380000
485.570404	146.480000
485.664124	146.140000
485.757782	146.620000
485.851532	146.320000
485.945190	146.220000
486.038910	145.900000
486.132599	146.540000
486.226318	146.180000
486.319977	146.300000
486.413727	146.580000
486.507446	146.120000
486.601105	145.580000
486.694855	145.420000
486.788513	145.300000
486.882233	145.240000
486.975922	145.680000
487.069641	145.480000
487.163300	145.680000
487.257050	147.000000
487.350708	146.580000
487.444427	146.040000
487.538116	146.240000
487.631836	146.020000
487.725494	145.300000
487.819214	145.420000
487.912903	145.600000
488.006622	146.020000
488.100281	146.120000
488.194031	145.880000
488.287689	146.180000
488.381409	146.880000
488.475098	146.520000
488.568817	147.100000
488.662476	146.740000
488.756226	146.240000
488.849945	145.340000
488.943604	145.400000
489.037354	145.460000
489.131012	145.620000
489.224731	145.680000
489.318390	145.880000
489.412140	145.700000
489.505798	145.160000
489.599518	144.960000
489.693207	145.320000
489.786926	145.260000
489.880585	145.620000
489.974335	146.040000
490.067993	147.200000
490.161713	147.260000
490.255371	148.040000
490.349121	147.980000
490.442780	147.540000
490.536499	146.160000
490.630188	145.720000
490.723907	145.180000
490.817566	145.240000
490.911285	145.580000
491.004974	145.940000
491.098694	146.060000
491.192413	146.700000
491.286102	146.620000
491.379822	146.720000
491.473480	147.020000
491.567200	147.400000
491.660889	146.580000
491.754608	146.640000
491.848267	146.120000
491.941986	145.860000
492.035675	145.620000
492.129395	146.120000
492.223053	146.020000
492.316772	146.480000
492.410461	146.600000
492.504181	146.420000
492.597839	145.800000
492.691559	145.720000
492.785248	145.540000
492.878967	145.640000
492.972626	145.240000
493.066345	145.580000
493.160034	145.220000
493.253754	145.260000
493.347412	144.580000
493.441132	145.340000
493.534882	145.880000
493.628540	146.420000
493.722260	146.500000
493.815918	147.280000
493.909668	147.380000
494.003326	147.360000
494.097046	147.180000
494.190704	146.700000
494.284454	146.560000
494.378113	146.420000
494.471832	146.220000
494.565491	146.120000
494.659210	146.460000
494.752899	146.380000
494.846619	146.200000
494.940277	146.060000
495.033997	145.800000
495.127686	145.540000
495.221405	145.420000
495.315063	145.600000
495.408783	145.640000
495.502441	146.160000
495.596191	146.480000
495.689850	146.500000
495.783569	146.700000
495.877228	146.660000
495.970947	146.160000
496.064697	145.720000
496.158356	146.240000
496.252075	146.060000
496.345734	145.860000
496.439453	147.100000
496.533142	147.400000
496.626862	147.420000
496.720520	147.260000
496.814240	147.560000
496.907898	146.780000
497.001617	147.040000
497.095306	146.120000
497.189026	146.120000
497.282684	146.120000
497.376404	146.040000
497.470062	145.800000
497.563782	146.340000
497.657471	146.020000
497.751190	145.700000
497.844849	145.640000
497.938568	145.920000
498.032227	145.820000
498.125946	146.000000
498.219635	146.060000
498.313354	146.500000
498.407074	146.000000
498.500732	146.240000
498.594452	146.680000
498.688110	146.360000
498.781830	145.740000
498.875519	145.680000
498.969238	145.360000
499.062897	144.860000
499.156616	145.420000
499.250275	145.860000
499.343994	145.480000
499.437653	145.760000
499.531372	146.020000
499.625061	146.400000
499.718781	146.260000
499.812439	147.220000
499.906158	146.940000
499.999817	146.680000
500.093536	146.100000
500.187195	146.400000
500.280914	146.200000
500.374573	146.440000
500.468323	146.380000
500.561981	146.660000
500.655701	145.960000
500.749420	145.820000
500.843079	146.240000
500.936798	146.560000
501.030457	146.800000
501.124176	147.440000
501.217834	147.260000
501.311554	146.700000
501.405212	146.220000
501.498962	145.280000
501.592621	144.980000
501.686340	145.520000
501.779999	145.780000
501.873718	146.440000
501.967377	147.260000
502.061096	147.580000
502.154755	146.840000
502.248474	146.800000
502.342133	146.740000
502.435852	146.540000
502.529510	146.920000
502.623230	147.760000
502.716888	147.200000
502.810608	147.040000
502.904266	147.160000
502.997986	146.560000
503.091705	145.940000
503.185364	146.040000
503.279083	146.100000
503.372772	145.860000
503.466492	145.660000
503.560150	145.720000
503.653870	146.300000
503.747528	146.380000
503.841248	146.460000
503.934906	146.600000
504.028625	146.280000
504.122284	146.280000
504.216003	146.800000
504.309662	146.440000
504.403381	146.720000
504.497040	147.300000
504.590759	146.820000
504.684418	146.400000
504.778137	146.980000
504.871796	147.020000
504.965515	146.260000
505.059174	146.280000
505.152893	145.880000
505.246521	145.120000
505.340240	144.880000
505.433899	145.360000
505.527618	145.620000
505.621338	145.880000
505.714996	145.960000
505.808716	145.740000
505.902374	146.400000
505.996094	146.420000
506.089752	146.360000
506.183472	146.440000
506.277130	146.580000
506.370850	146.100000
506.464508	146.040000
506.558228	145.900000
506.651886	145.840000
506.745605	145.900000
506.839264	145.920000
506.932983	145.800000
507.026611	145.840000
507.120331	146.400000
507.213989	145.940000
507.307709	145.740000
507.401367	146.140000
507.495087	147.040000
507.588745	146.460000
507.682465	147.180000
507.776123	147.160000
507.869843	146.920000
507.963531	146.480000
508.057190	146.980000
508.150909	146.260000
508.244568	146.780000
508.338287	146.400000
508.431946	145.720000
508.525665	145.320000
508.619324	145.360000
508.713013	144.820000
508.806671	145.500000
508.900391	146.580000
508.994049	146.900000
509.087769	146.780000
509.181427	147.000000
509.275146	146.320000
509.368774	145.140000
509.462494	144.880000
509.556152	145.200000
509.649872	145.800000
509.743530	146.060000
509.837250	146.640000
509.930878	146.840000
510.024597	146.800000
510.118256	146.180000
510.211975	146.140000
510.305695	145.840000
510.399353	145.900000
510.493042	146.240000
510.586700	146.280000
510.680420	146.860000
510.774078	146.820000
510.867798	146.660000
510.961426	146.280000
511.055145	146.180000
511.148804	145.760000
511.242523	146.180000
511.336151	146.420000
511.429871	146.760000
511.523529	146.980000
511.617249	146.780000
511.710876	146.440000
511.804596	146.060000
511.898254	145.900000
511.991974	145.960000
512.085632	145.840000
512.179321	146.020000
512.272949	146.640000
512.366699	147.160000
512.460327	147.040000
512.554077	148.020000
512.647766	147.880000
512.741394	147.560000
512.835144	147.700000
512.928772	147.520000
513.022461	147.020000
513.116150	146.820000
513.209839	147.360000
513.303467	146.520000
513.397217	146.120000
513.490845	145.840000
513.584595	146.080000
513.678223	145.100000
513.771912	144.680000
513.865601	145.180000
513.959290	144.800000
514.052917	144.540000
514.146667	145.480000
514.240295	146.240000
514.333984	146.520000
514.427673	146.740000
514.521362	147.280000
514.614990	146.520000
514.708740	146.480000
514.802368	146.320000
514.896057	146.300000
514.989746	146.580000
515.083435	146.500000
515.177124	146.780000
515.270752	146.440000
515.364502	146.680000
515.458130	146.660000
515.551819	146.580000
515.645508	146.080000
515.739197	146.200000
515.832825	146.260000
515.926575	145.680000
516.020203	146.180000
516.113892	146.780000
516.207520	146.880000
516.301270	147.100000
516.394897	147.260000
516.488586	147.300000
516.582275	146.780000
516.675964	146.340000
516.769592	145.880000
516.863281	146.580000
516.956970	147.080000
517.050659	147.040000
517.144287	147.340000
517.238037	147.520000
517.331665	146.600000
517.425354	145.780000
517.519043	145.720000
517.612732	146.020000
517.706421	145.880000
517.800049	145.680000
517.893738	145.400000
517.987427	145.400000
518.081116	145.260000
518.174744	144.920000
518.268433	145.380000
518.362122	146.560000
518.455811	146.680000
518.549438	146.920000
518.643127	148.120000
518.736816	147.900000
518.830505	147.020000
518.924133	146.960000
519.017822	147.160000
519.111511	146.680000
519.205200	147.100000
519.298828	147.300000
519.392517	147.200000
519.486206	146.980000
519.579895	146.820000
519.673523	146.540000
519.767212	146.440000
519.860901	147.000000
519.954590	146.700000
520.048279	146.340000
520.141907	146.180000
520.235596	146.940000
520.329224	147.020000
520.422974	147.140000
520.516602	147.420000
520.610291	147.120000
520.703918	146.520000
520.797607	146.120000
520.891296	146.160000
520.984985	146.200000
521.078613	147.180000
521.172302	146.820000
521.265930	147.440000
521.359680	147.940000
521.453308	147.840000
521.546997	147.220000
521.640625	147.620000
521.734314	146.820000
521.827942	146.340000
521.921692	146.600000
522.015320	146.800000
522.109009	146.480000
522.202698	146.620000
522.296326	146.640000
522.390015	146.720000
522.483704	146.620000
522.577393	146.600000
522.671021	146.640000
522.764709	146.240000
522.858337	146.480000
522.952026	146.520000
523.045654	147.080000
523.139404	147.500000
523.233032	148.060000
523.326721	147.480000
523.420349	147.300000
523.514038	146.700000
523.607666	146.700000
523.701355	146.040000
523.795044	146.200000
523.888733	146.520000
523.982361	147.000000
524.076050	146.100000
524.169678	146.580000
524.263367	146.480000
524.356995	146.040000
524.450684	145.740000
524.544373	146.240000
524.638062	146.080000
524.731750	146.280000
524.825378	146.580000
524.919067	146.080000
525.012695	146.000000
525.106384	145.820000
525.200012	145.940000
525.293701	145.680000
525.387329	146.320000
525.481018	146.580000
525.574646	147.060000
525.668396	146.800000
525.762024	147.080000
525.855713	147.140000
525.949341	146.620000
526.043030	146.480000
526.136658	146.140000
526.230347	145.980000
526.323975	145.340000
526.417664	145.480000
526.511292	145.460000
526.604980	146.080000
526.698608	146.240000
526.792297	147.000000
526.885925	147.540000
526.979614	147.720000
527.073303	147.360000
527.166931	147.100000
527.260620	146.860000
527.354309	146.820000
527.447998	146.620000
527.541626	146.380000
527.635315	146.580000
527.728943	147.080000
527.822632	147.160000
527.916260	147.240000
528.009949	147.620000
528.103577	147.240000
528.197266	146.480000
528.290894	146.160000
528.384583	145.840000
528.478210	145.480000
528.571899	145.920000
528.665527	146.380000
528.759216	146.520000
528.852844	146.800000
528.946533	146.980000
529.040161	146.740000
529.133850	146.320000
529.227478	146.360000
529.321167	146.520000
529.414856	146.680000
529.508484	147.140000
529.602173	146.920000
529.695801	146.660000
529.789490	146.360000
529.883057	146.100000
529.976746	146.180000
530.070374	146.760000
530.164062	146.780000
530.257690	147.140000
530.351379	147.760000
530.445007	147.560000
530.538696	147.140000
530.632324	147.440000
530.726013	147.500000
530.819641	147.360000
530.913330	147.360000
531.006958	147.700000
531.100647	147.460000
531.194275	147.140000
531.287964	146.440000
531.381592	146.060000
531.475220	146.000000
531.568848	146.120000
531.662537	145.920000
531.756226	146.840000
531.849854	146.900000
531.943542	146.900000
532.037170	146.160000
532.130859	146.720000
532.224487	145.980000
532.318176	145.820000
532.411804	146.180000
532.505432	146.840000
532.599060	146.360000
532.692749	146.460000
532.786377	147.200000
532.880066	146.440000
532.973694	145.960000
533.067383	145.860000
533.161011	145.900000
533.254639	145.280000
533.348267	145.180000
533.441956	145.840000
533.535583	145.940000
533.629272	145.860000
533.722900	145.660000
533.816589	145.720000
533.910156	145.460000
534.003845	145.160000
534.097534	145.860000
534.191162	146.300000
534.284851	146.540000
534.378479	146.340000
534.472107	146.520000
534.565735	145.600000
534.659424	145.920000
534.753052	146.140000
534.846741	146.200000
534.940369	146.980000
535.033997	147.220000
535.127625	146.960000
535.221313	147.500000
535.314941	147.200000
535.408630	146.180000
535.502197	146.340000
535.595886	146.080000
535.689514	145.280000
535.783203	145.980000
535.876831	146.880000
535.970459	146.740000
536.064087	146.580000
536.157776	146.440000
536.251404	146.140000
536.345093	145.520000
536.438721	145.660000
536.532349	145.880000
536.626038	146.060000
536.719666	146.700000
536.813293	146.740000
536.906921	146.960000
537.000610	147.380000
537.094238	147.480000
537.187866	146.900000
537.281494	146.840000
537.375183	146.900000
537.468811	146.440000
537.562439	146.340000
537.656067	146.320000
537.749756	146.560000
537.843384	146.820000
537.937012	146.880000
538.030640	146.580000
538.124329	146.360000
538.217896	146.560000
538.311584	146.160000
538.405212	146.160000
538.498901	146.580000
538.592468	147.260000
538.686157	146.620000
538.779785	145.940000
538.873413	145.960000
538.967102	145.900000
539.060730	145.160000
539.154358	145.660000
539.247986	146.100000
539.341675	146.300000
539.435242	146.300000
539.528931	146.640000
539.622559	146.220000
539.716187	147.080000
539.809814	146.800000
539.903503	146.680000
539.997070	146.460000
540.090759	146.380000
540.184387	145.740000
540.278015	146.240000
540.371643	146.380000
540.465332	146.700000
540.558899	146.740000
540.652588	146.620000
540.746216	146.040000
540.839844	146.300000
540.933472	145.820000
541.027100	145.820000
541.120728	146.260000
541.214417	147.040000
541.308044	147.040000
541.401672	147.380000
541.495300	147.520000
541.588928	146.940000
541.682617	146.320000
541.776184	146.000000
541.869873	146.100000
541.963440	146.300000
542.057129	146.460000
542.150757	146.620000
542.244385	146.260000
542.338013	145.880000
542.431641	145.600000
542.525269	145.680000
542.618958	146.120000
542.712524	146.640000
542.806213	146.420000
542.899780	146.580000
542.993469	146.400000
543.087036	145.860000
543.180725	145.380000
543.274292	146.060000
543.367981	146.460000
543.461548	146.680000
543.555237	146.720000
543.648926	147.560000
543.742493	147.820000
543.836182	147.660000
543.929749	147.720000
544.023437	147.560000
544.117004	147.280000
544.210693	147.160000
544.304260	147.320000
544.397949	147.080000
544.491516	147.640000
544.585205	147.520000
544.678772	147.100000
544.772461	147.240000
544.866028	147.160000
544.959717	147.140000
545.053284	146.820000
545.146973	147.260000
545.240540	146.940000
545.334229	147.720000
545.427795	147.600000
545.521423	148.080000
545.615051	148.000000
545.708679	148.320000
545.802307	148.040000
545.895935	148.440000
545.989624	148.880000
546.083191	148.340000
546.176880	148.180000
546.270447	147.380000
546.364136	147.240000
546.457703	146.600000
546.551331	146.860000
546.644958	146.960000
546.738586	147.640000
546.832214	146.900000
546.925842	146.940000
547.019409	147.400000
547.113098	146.820000
547.206665	146.560000
547.300354	147.000000
547.393921	146.920000
547.487549	146.760000
547.581177	146.880000
547.674805	146.840000
547.768433	146.080000
547.862061	145.980000
547.955627	145.240000
548.049316	145.540000
548.142883	145.760000
548.236572	146.420000
548.330139	146.740000
548.423767	146.960000
548.517456	146.980000
548.611023	147.080000
548.704651	146.440000
548.798279	146.500000
548.891907	146.980000
548.985474	146.660000
549.079163	146.720000
549.172729	146.720000
549.266357	146.100000
549.359985	145.860000
549.453613	145.360000
549.547180	144.960000
549.640869	145.580000
549.734436	145.900000
549.828064	146.200000
549.921631	146.880000
550.015320	146.640000
550.108887	146.620000
550.202515	146.520000
550.296143	146.060000
550.389771	145.860000
550.483337	145.840000
550.576965	145.720000
550.670593	146.040000
550.764221	146.320000
550.857849	146.360000
550.951477	146.380000
551.045105	145.940000
551.138672	146.260000
551.232300	145.900000
551.325928	146.120000
551.419556	146.600000
551.513123	146.700000
551.606750	145.940000
551.700378	146.000000
551.794006	145.960000
551.887573	145.440000
551.981201	145.840000
552.074768	145.880000
552.168457	145.700000
552.262024	146.420000
552.355652	146.580000
552.449219	147.040000
552.542847	147.180000
552.636475	147.120000
552.730103	145.940000
552.823669	145.900000
552.917297	145.340000
553.010864	145.400000
553.104553	145.680000
553.198181	145.660000
553.291748	146.020000
553.385376	146.020000
553.478943	145.720000
553.572571	145.980000
553.666199	146.460000
553.759827	146.180000
553.853394	146.020000
553.947021	146.500000
554.040588	146.300000
554.134216	146.320000
554.227783	147.020000
554.321411	147.700000
554.415039	147.060000
554.508667	146.920000
554.602234	146.980000
554.695862	146.360000
554.789429	146.100000
554.883057	146.540000
554.976624	146.560000
555.070251	146.160000
555.163818	146.280000
555.257507	146.360000
555.351074	146.520000
555.444702	147.520000
555.538330	147.340000
555.631897	147.620000
555.725525	147.420000
555.819092	147.280000
555.912720	146.360000
556.006287	147.120000
556.099915	146.700000
556.193481	146.700000
556.287109	146.700000
556.380676	146.500000
556.474304	146.300000
556.567871	146.520000
556.661499	146.100000
556.755066	146.200000
556.848694	146.320000
556.942261	146.020000
557.035889	145.860000
557.129517	146.240000
557.223145	146.500000
557.316711	146.880000
557.410339	147.320000
557.503906	147.380000
557.597473	147.460000
557.691040	147.120000
557.784668	146.600000
557.878296	146.360000
557.971863	146.640000
558.065491	146.720000
558.159058	146.660000
558.252686	147.780000
558.346252	148.340000
558.439880	147.680000
558.533447	147.400000
558.627075	147.160000
558.720642	146.140000
558.814270	145.640000
558.907837	145.800000
559.001465	145.440000
559.095032	146.000000
559.188660	146.140000
559.282227	145.360000
559.375854	146.120000
559.469360	146.180000
559.562988	146.460000
559.656555	146.340000
559.750183	147.000000
559.843750	146.460000
559.937378	146.760000
560.030945	146.180000
560.124573	0.000000
560.218140	0.000000
560.311707	0.000000
560.405334	0.000000
560.498901	0.000000
560.592529	0.000000
560.686096	0.000000
560.779724	0.000000
560.873291	0.000000
560.966858	0.000000
561.060425	0.000000
561.154053	0.000000
561.247620	0.000000
561.341248	0.000000
561.434814	0.000000
561.528381	0.000000
561.621948	0.000000
561.715576	0.000000
561.809143	0.000000
561.902771	0.000000
561.996277	0.000000
562.089905	0.000000
562.183472	0.000000
562.277100	0.000000
