Model Number: SPM-002-B   
Serial Number: 70087108
Firmware Version: 004.15.4
Exposure Time: 100000.000000us
Data Taken on: 11-12-2020 19:29:18.016
Wavelength	Amplitude
221.570786	0.000000
221.663406	0.000000
221.756027	0.000000
221.848648	0.000000
221.941269	0.000000
222.033905	0.000000
222.126526	0.000000
222.219162	0.000000
222.311798	0.000000
222.404419	0.000000
222.497055	0.000000
222.589676	0.000000
222.682312	0.000000
222.774933	0.000000
222.867569	0.000000
222.960205	0.000000
223.052841	0.000000
223.145462	0.000000
223.238098	0.000000
223.330734	0.000000
223.423386	0.000000
223.516022	0.000000
223.608658	0.000000
223.701309	0.000000
223.793945	0.000000
223.886581	0.000000
223.979218	0.000000
224.071869	0.000000
224.164505	0.000000
224.257156	0.000000
224.349792	0.000000
224.442444	0.000000
224.535095	0.000000
224.627747	0.000000
224.720398	0.000000
224.813034	0.000000
224.905685	0.000000
224.998337	146.700000
225.090988	146.340000
225.183640	146.460000
225.276291	146.300000
225.368942	146.560000
225.461594	147.200000
225.554245	147.460000
225.646912	147.160000
225.739578	147.740000
225.832230	147.920000
225.924896	146.840000
226.017548	146.960000
226.110199	147.800000
226.202866	147.080000
226.295532	147.120000
226.388184	147.340000
226.480850	146.460000
226.573517	145.980000
226.666168	146.240000
226.758835	146.140000
226.851501	146.780000
226.944183	147.220000
227.036850	146.480000
227.129517	146.680000
227.222183	146.780000
227.314850	146.600000
227.407516	147.020000
227.500198	148.120000
227.592865	147.320000
227.685532	147.100000
227.778214	146.980000
227.870880	147.060000
227.963562	147.220000
228.056229	147.980000
228.148926	147.700000
228.241592	148.320000
228.334274	148.060000
228.426956	147.400000
228.519638	147.360000
228.612305	147.220000
228.704987	146.840000
228.797668	146.780000
228.890350	146.840000
228.983032	146.180000
229.075714	147.020000
229.168396	146.540000
229.261108	146.080000
229.353790	146.200000
229.446472	146.720000
229.539169	146.340000
229.631851	146.520000
229.724533	146.920000
229.817230	146.980000
229.909912	147.880000
230.002609	147.820000
230.095306	147.980000
230.187988	148.080000
230.280685	147.900000
230.373383	146.300000
230.466095	146.240000
230.558792	146.160000
230.651474	146.120000
230.744171	146.060000
230.836868	146.480000
230.929581	146.700000
231.022278	146.620000
231.114975	146.480000
231.207672	146.160000
231.300369	146.700000
231.393082	146.600000
231.485779	146.460000
231.578506	146.720000
231.671204	146.860000
231.763916	146.780000
231.856613	146.700000
231.949326	146.800000
232.042023	146.700000
232.134735	147.000000
232.227448	146.700000
232.320160	147.160000
232.412872	147.300000
232.505585	147.660000
232.598297	148.140000
232.691010	148.020000
232.783722	147.300000
232.876450	147.760000
232.969162	147.240000
233.061874	146.360000
233.154587	146.220000
233.247314	146.960000
233.340027	146.060000
233.432739	146.380000
233.525467	146.460000
233.618179	146.700000
233.710907	146.040000
233.803635	146.760000
233.896347	146.780000
233.989090	147.500000
234.081818	147.240000
234.174545	147.600000
234.267258	147.180000
234.359985	147.260000
234.452713	146.840000
234.545441	147.040000
234.638168	146.960000
234.730896	147.160000
234.823639	146.880000
234.916367	146.960000
235.009094	147.060000
235.101822	146.940000
235.194580	146.780000
235.287308	146.800000
235.380051	146.480000
235.472778	146.700000
235.565521	146.840000
235.658249	146.660000
235.750992	146.760000
235.843719	146.820000
235.936462	146.740000
236.029205	146.400000
236.121948	146.200000
236.214691	146.520000
236.307449	147.120000
236.400192	146.900000
236.492935	146.640000
236.585678	147.280000
236.678421	147.220000
236.771164	146.840000
236.863907	147.220000
236.956665	147.560000
237.049408	148.680000
237.142151	148.300000
237.234909	148.940000
237.327652	148.820000
237.420410	148.620000
237.513153	147.520000
237.605927	147.580000
237.698669	146.760000
237.791428	146.080000
237.884186	146.500000
237.976944	145.980000
238.069702	146.040000
238.162445	146.040000
238.255203	146.480000
238.347961	146.920000
238.440720	147.040000
238.533478	146.860000
238.626266	146.380000
238.719025	146.460000
238.811783	145.980000
238.904541	145.860000
238.997314	146.020000
239.090073	146.140000
239.182831	146.180000
239.275604	146.800000
239.368362	147.020000
239.461136	146.960000
239.553909	146.940000
239.646667	146.760000
239.739441	146.440000
239.832214	146.620000
239.925003	146.820000
240.017761	147.480000
240.110535	148.020000
240.203308	147.580000
240.296082	147.420000
240.388855	147.020000
240.481628	146.820000
240.574417	146.840000
240.667191	146.980000
240.759964	146.840000
240.852737	146.600000
240.945526	146.340000
241.038315	146.180000
241.131088	146.380000
241.223877	146.440000
241.316650	146.720000
241.409439	146.980000
241.502228	146.420000
241.595001	146.800000
241.687790	146.760000
241.780579	146.800000
241.873367	147.100000
241.966141	147.420000
242.058929	146.680000
242.151718	147.040000
242.244507	147.540000
242.337311	146.740000
242.430099	146.960000
242.522903	147.340000
242.615692	146.920000
242.708481	146.760000
242.801270	147.380000
242.894073	147.560000
242.986862	147.640000
243.079651	148.060000
243.172455	147.660000
243.265244	147.860000
243.358063	147.160000
243.450867	147.160000
243.543655	147.320000
243.636459	147.580000
243.729263	147.540000
243.822067	148.260000
243.914856	148.520000
244.007660	148.380000
244.100464	148.240000
244.193268	147.980000
244.286072	147.520000
244.378876	147.080000
244.471680	146.520000
244.564499	146.840000
244.657318	147.460000
244.750122	147.460000
244.842926	146.940000
244.935745	147.720000
245.028549	147.120000
245.121368	146.600000
245.214172	146.680000
245.306992	147.120000
245.399796	146.600000
245.492615	146.980000
245.585434	146.820000
245.678253	146.680000
245.771072	146.640000
245.863892	147.080000
245.956711	147.280000
246.049530	147.280000
246.142349	147.200000
246.235168	147.300000
246.327988	147.460000
246.420807	147.000000
246.513626	147.140000
246.606445	147.120000
246.699280	147.120000
246.792099	146.720000
246.884918	146.680000
246.977753	146.180000
247.070587	146.280000
247.163422	146.380000
247.256241	146.460000
247.349075	146.820000
247.441895	147.120000
247.534729	147.220000
247.627563	146.820000
247.720383	147.240000
247.813217	147.060000
247.906052	146.640000
247.998886	146.660000
248.091736	146.700000
248.184570	146.320000
248.277405	146.420000
248.370239	147.540000
248.463074	148.320000
248.555908	148.820000
248.648743	148.480000
248.741592	148.240000
248.834427	147.600000
248.927261	146.360000
249.020111	146.560000
249.112946	147.420000
249.205795	147.340000
249.298630	147.440000
249.391495	147.800000
249.484344	147.320000
249.577179	146.880000
249.670029	147.260000
249.762878	147.640000
249.855728	147.720000
249.948563	147.820000
250.041412	147.280000
250.134262	147.480000
250.227112	147.520000
250.319962	147.740000
250.412827	147.560000
250.505692	147.580000
250.598541	147.480000
250.691391	146.980000
250.784241	146.700000
250.877106	146.980000
250.969955	147.080000
251.062805	147.460000
251.155670	147.800000
251.248520	147.160000
251.341385	147.420000
251.434235	147.200000
251.527100	146.580000
251.619965	146.400000
251.712814	147.820000
251.805695	147.440000
251.898560	147.920000
251.991425	148.400000
252.084290	148.680000
252.177155	147.820000
252.270020	147.760000
252.362885	147.540000
252.455750	147.540000
252.548615	146.780000
252.641479	146.900000
252.734360	146.700000
252.827240	146.720000
252.920105	146.380000
253.012970	146.740000
253.105850	146.680000
253.198715	146.620000
253.291595	146.940000
253.384460	146.780000
253.477341	146.440000
253.570221	146.760000
253.663086	146.860000
253.755966	147.240000
253.848846	147.180000
253.941727	147.580000
254.034592	147.360000
254.127472	146.760000
254.220367	146.440000
254.313248	146.900000
254.406128	146.740000
254.499008	147.140000
254.591904	148.360000
254.684784	148.780000
254.777664	148.740000
254.870544	148.360000
254.963440	147.920000
255.056335	147.500000
255.149216	146.940000
255.242111	147.200000
255.334991	147.740000
255.427887	147.840000
255.520767	147.840000
255.613663	147.700000
255.706558	147.060000
255.799438	146.860000
255.892334	146.540000
255.985229	146.520000
256.078125	146.780000
256.171021	147.140000
256.263916	147.520000
256.356812	147.880000
256.449707	147.920000
256.542603	147.620000
256.635498	147.840000
256.728394	147.740000
256.821289	147.580000
256.914215	148.120000
257.007080	148.500000
257.100006	148.280000
257.192932	148.180000
257.285828	148.480000
257.378723	147.520000
257.471619	147.320000
257.564545	146.740000
257.657440	147.120000
257.750336	147.380000
257.843262	147.600000
257.936157	148.520000
258.029053	148.920000
258.121979	148.820000
258.214874	148.020000
258.307800	148.040000
258.400696	146.800000
258.493622	146.840000
258.586517	145.960000
258.679443	146.340000
258.772339	146.040000
258.865265	146.020000
258.958160	145.380000
259.051086	146.320000
259.144012	146.400000
259.236938	147.220000
259.329834	147.260000
259.422791	147.480000
259.515717	146.820000
259.608612	146.460000
259.701538	146.480000
259.794464	146.540000
259.887390	146.740000
259.980316	146.420000
260.073212	146.260000
260.166138	144.840000
260.259064	145.320000
260.351990	145.720000
260.444916	146.180000
260.537842	146.740000
260.630768	148.160000
260.723694	147.980000
260.816620	147.700000
260.909546	147.500000
261.002472	147.080000
261.095398	146.220000
261.188354	146.000000
261.281281	145.540000
261.374207	145.900000
261.467133	146.280000
261.560089	146.380000
261.653015	146.240000
261.745972	147.320000
261.838867	147.400000
261.931824	147.760000
262.024780	147.720000
262.117706	148.280000
262.210663	148.100000
262.303589	147.920000
262.396515	147.720000
262.489471	148.420000
262.582397	148.020000
262.675354	147.300000
262.768280	147.460000
262.861237	147.500000
262.954163	147.460000
263.047119	147.800000
263.140045	147.640000
263.233002	147.400000
263.325958	147.060000
263.418884	146.340000
263.511841	146.000000
263.604797	146.360000
263.697723	146.380000
263.790680	146.400000
263.883636	146.900000
263.976593	146.560000
264.069550	146.620000
264.162476	146.500000
264.255463	146.500000
264.348419	146.200000
264.441376	146.840000
264.534332	146.360000
264.627289	146.380000
264.720245	146.940000
264.813202	146.700000
264.906158	146.660000
264.999115	147.460000
265.092072	147.540000
265.185028	147.560000
265.277985	148.120000
265.370941	148.080000
265.463898	147.660000
265.556854	147.500000
265.649811	146.580000
265.742798	146.420000
265.835754	146.300000
265.928711	146.860000
266.021667	147.160000
266.114655	147.820000
266.207611	148.300000
266.300568	147.960000
266.393585	147.360000
266.486511	147.680000
266.579498	146.840000
266.672485	146.600000
266.765442	146.280000
266.858429	146.780000
266.951385	146.200000
267.044342	146.540000
267.137329	146.420000
267.230316	147.340000
267.323273	146.780000
267.416260	147.640000
267.509216	147.700000
267.602203	147.540000
267.695160	147.600000
267.788147	147.900000
267.881134	146.940000
267.974091	147.120000
268.067078	147.080000
268.160065	146.700000
268.253052	146.460000
268.346008	146.760000
268.438995	146.480000
268.531982	146.740000
268.624969	146.580000
268.717987	147.040000
268.810944	147.040000
268.903961	147.180000
268.996948	146.760000
269.089905	147.160000
269.182892	147.200000
269.275879	147.200000
269.368866	146.900000
269.461853	147.240000
269.554871	146.820000
269.647858	146.520000
269.740845	147.140000
269.833832	147.620000
269.926819	147.420000
270.019806	147.720000
270.112793	147.360000
270.205811	147.220000
270.298798	147.040000
270.391785	147.380000
270.484772	147.440000
270.577789	148.020000
270.670776	147.360000
270.763763	147.280000
270.856750	147.440000
270.949768	147.060000
271.042786	146.660000
271.135773	146.760000
271.228790	147.080000
271.321808	146.460000
271.414795	146.260000
271.507782	146.220000
271.600800	146.020000
271.693817	146.060000
271.786804	146.660000
271.879822	147.220000
271.972809	147.120000
272.065826	147.620000
272.158844	147.040000
272.251831	147.340000
272.344849	147.220000
272.437866	146.820000
272.530853	146.340000
272.623871	146.540000
272.716888	145.280000
272.809906	145.340000
272.902893	145.500000
272.995911	145.620000
273.088928	145.880000
273.181946	146.640000
273.274963	146.300000
273.367981	146.740000
273.460999	146.960000
273.554047	146.960000
273.647003	147.640000
273.740051	147.660000
273.833069	148.080000
273.926086	148.120000
274.019135	148.020000
274.112152	146.980000
274.205170	147.260000
274.298187	147.140000
274.391205	146.680000
274.484222	146.540000
274.577240	146.500000
274.670258	146.260000
274.763306	145.880000
274.856323	146.440000
274.949341	146.660000
275.042358	147.400000
275.135406	147.480000
275.228424	147.760000
275.321442	147.660000
275.414490	147.240000
275.507507	147.160000
275.600525	147.580000
275.693573	147.080000
275.786591	146.760000
275.879669	147.100000
275.972656	146.680000
276.065735	146.460000
276.158752	147.200000
276.251801	148.040000
276.344818	148.220000
276.437866	148.340000
276.530884	147.760000
276.623932	146.880000
276.716980	146.820000
276.809998	146.460000
276.903046	146.600000
276.996094	147.920000
277.089111	148.920000
277.182159	149.020000
277.275208	149.060000
277.368256	148.740000
277.461304	148.080000
277.554321	147.360000
277.647369	146.920000
277.740417	147.040000
277.833466	147.120000
277.926514	146.860000
278.019562	147.380000
278.112610	147.040000
278.205688	147.380000
278.298706	147.280000
278.391785	146.900000
278.484833	146.180000
278.577881	146.220000
278.670929	146.140000
278.763977	146.740000
278.857025	147.220000
278.950073	147.660000
279.043121	147.360000
279.136169	147.140000
279.229248	146.920000
279.322296	146.960000
279.415344	146.860000
279.508392	147.160000
279.601440	147.140000
279.694519	146.820000
279.787567	146.600000
279.880615	146.540000
279.973694	146.740000
280.066742	146.880000
280.159790	147.120000
280.252869	146.860000
280.345917	146.980000
280.438995	146.660000
280.532074	146.240000
280.625122	146.580000
280.718201	147.720000
280.811279	147.760000
280.904327	147.960000
280.997406	148.400000
281.090454	148.100000
281.183533	147.320000
281.276581	147.240000
281.369659	146.960000
281.462738	146.700000
281.555786	146.900000
281.648865	147.260000
281.741943	147.000000
281.835022	147.600000
281.928070	147.620000
282.021149	147.240000
282.114227	146.920000
282.207306	147.200000
282.300385	147.140000
282.393433	147.420000
282.486511	147.380000
282.579590	147.940000
282.672668	148.080000
282.765747	147.640000
282.858856	147.400000
282.951904	147.660000
283.045013	147.400000
283.138062	147.380000
283.231171	147.840000
283.324249	148.260000
283.417328	148.360000
283.510406	147.740000
283.603485	147.980000
283.696564	147.740000
283.789642	147.520000
283.882751	147.300000
283.975830	148.140000
284.068909	147.320000
284.161987	147.980000
284.255066	147.380000
284.348175	147.420000
284.441254	146.940000
284.534332	147.620000
284.627441	147.100000
284.720520	146.960000
284.813599	146.840000
284.906708	146.880000
284.999786	146.140000
285.092896	145.520000
285.185974	146.920000
285.279053	146.460000
285.372192	146.640000
285.465240	147.600000
285.558380	147.980000
285.651459	147.360000
285.744568	148.280000
285.837677	147.840000
285.930756	147.560000
286.023865	147.900000
286.116943	147.440000
286.210052	147.280000
286.303162	147.380000
286.396240	147.360000
286.489349	147.000000
286.582458	147.460000
286.675568	147.220000
286.768646	147.540000
286.861755	147.400000
286.954865	147.880000
287.047974	147.360000
287.141083	147.140000
287.234161	146.700000
287.327271	146.780000
287.420380	146.800000
287.513519	146.900000
287.606598	147.200000
287.699738	147.680000
287.792816	147.380000
287.885956	147.280000
287.979034	147.280000
288.072174	147.360000
288.165283	147.200000
288.258392	147.640000
288.351501	147.040000
288.444611	147.280000
288.537720	147.520000
288.630859	147.400000
288.723969	147.440000
288.817078	148.060000
288.910187	147.840000
289.003296	147.220000
289.096436	146.900000
289.189545	146.500000
289.282654	145.940000
289.375763	146.400000
289.468903	146.920000
289.562012	147.460000
289.655121	147.620000
289.748260	147.940000
289.841400	148.180000
289.934509	148.160000
290.027649	147.980000
290.120728	148.100000
290.213898	148.160000
290.306976	147.560000
290.400146	147.640000
290.493256	147.260000
290.586395	147.280000
290.679535	147.280000
290.772644	147.120000
290.865784	146.100000
290.958893	146.260000
291.052032	145.860000
291.145172	145.860000
291.238281	145.900000
291.331421	146.280000
291.424561	146.800000
291.517670	146.820000
291.610809	147.080000
291.703949	146.900000
291.797089	147.500000
291.890228	146.820000
291.983337	146.860000
292.076477	146.500000
292.169617	146.920000
292.262756	146.580000
292.355927	146.840000
292.449036	146.900000
292.542206	146.900000
292.635315	147.040000
292.728485	147.260000
292.821625	146.900000
292.914764	148.160000
293.007904	148.260000
293.101044	148.100000
293.194183	147.880000
293.287323	148.200000
293.380463	147.140000
293.473602	147.020000
293.566742	147.300000
293.659882	147.700000
293.753021	147.880000
293.846191	147.640000
293.939331	147.400000
294.032471	147.020000
294.125610	146.480000
294.218781	146.940000
294.311920	147.540000
294.405060	147.920000
294.498230	147.880000
294.591370	147.960000
294.684540	147.040000
294.777679	146.440000
294.870850	146.380000
294.963959	146.500000
295.057159	146.580000
295.150299	146.980000
295.243469	147.180000
295.336609	146.700000
295.429779	146.820000
295.522919	146.940000
295.616089	147.040000
295.709229	147.500000
295.802399	147.780000
295.895569	147.340000
295.988708	147.360000
296.081879	147.320000
296.175018	146.660000
296.268188	146.820000
296.361359	147.540000
296.454529	147.540000
296.547668	147.480000
296.640839	147.920000
296.734009	147.860000
296.827179	147.960000
296.920319	148.220000
297.013519	147.820000
297.106659	147.660000
297.199860	147.440000
297.292999	147.220000
297.386200	146.660000
297.479309	146.840000
297.572510	146.840000
297.665680	146.820000
297.758850	146.640000
297.852020	146.600000
297.945190	146.580000
298.038361	146.200000
298.131531	147.220000
298.224701	147.180000
298.317871	147.080000
298.411072	146.700000
298.504242	146.800000
298.597412	145.960000
298.690582	145.900000
298.783752	146.000000
298.876923	146.540000
298.970093	146.660000
299.063293	147.140000
299.156464	147.460000
299.249634	147.740000
299.342834	147.760000
299.436005	148.160000
299.529205	147.680000
299.622345	147.680000
299.715576	147.140000
299.808716	147.020000
299.901917	146.720000
299.995117	147.140000
300.088287	147.220000
300.181488	147.080000
300.274658	146.820000
300.367828	146.860000
300.461029	146.660000
300.554199	146.660000
300.647400	146.980000
300.740601	147.740000
300.833771	147.560000
300.926971	147.620000
301.020142	146.980000
301.113342	147.120000
301.206512	146.940000
301.299713	147.220000
301.392914	147.100000
301.486084	147.620000
301.579285	147.500000
301.672516	147.660000
301.765686	147.380000
301.858887	147.460000
301.952057	147.340000
302.045288	147.360000
302.138458	147.220000
302.231659	147.040000
302.324860	146.580000
302.418060	146.220000
302.511261	145.960000
302.604462	145.880000
302.697662	145.960000
302.790863	146.180000
302.884064	145.860000
302.977264	146.060000
303.070465	146.060000
303.163666	146.700000
303.256866	147.100000
303.350067	147.480000
303.443268	147.680000
303.536469	148.000000
303.629669	147.260000
303.722870	147.220000
303.816071	147.260000
303.909271	147.200000
304.002472	146.280000
304.095673	146.260000
304.188934	145.480000
304.282104	146.340000
304.375336	146.420000
304.468506	146.680000
304.561768	146.760000
304.654968	147.620000
304.748169	146.720000
304.841370	146.320000
304.934601	146.860000
305.027802	146.900000
305.121002	146.360000
305.214233	146.700000
305.307434	147.220000
305.400665	147.360000
305.493866	147.240000
305.587097	147.500000
305.680298	147.280000
305.773499	147.600000
305.866730	147.360000
305.959930	148.020000
306.053162	148.400000
306.146393	148.260000
306.239594	147.220000
306.332825	147.000000
306.426025	146.880000
306.519287	146.120000
306.612488	146.520000
306.705719	146.980000
306.798920	147.140000
306.892181	146.420000
306.985352	146.320000
307.078613	145.760000
307.171844	146.260000
307.265045	145.820000
307.358276	146.000000
307.451508	146.580000
307.544739	147.000000
307.637970	146.440000
307.731201	146.700000
307.824402	147.160000
307.917633	147.400000
308.010864	148.120000
308.104095	148.540000
308.197327	148.600000
308.290558	148.640000
308.383789	147.780000
308.477020	146.900000
308.570251	146.040000
308.663483	145.880000
308.756714	145.540000
308.849976	146.020000
308.943176	146.460000
309.036438	146.600000
309.129639	146.400000
309.222900	146.560000
309.316101	146.480000
309.409393	145.840000
309.502625	145.940000
309.595856	146.320000
309.689087	146.440000
309.782318	146.300000
309.875580	146.480000
309.968811	146.680000
310.062042	146.460000
310.155273	146.240000
310.248535	146.840000
310.341766	146.760000
310.434998	146.460000
310.528259	146.220000
310.621490	146.620000
310.714722	145.700000
310.807983	145.940000
310.901215	146.020000
310.994476	146.640000
311.087708	146.060000
311.181000	146.640000
311.274200	146.260000
311.367462	146.520000
311.460693	145.820000
311.553986	146.480000
311.647186	146.640000
311.740479	147.400000
311.833710	146.980000
311.926971	147.160000
312.020203	146.420000
312.113464	146.320000
312.206726	145.520000
312.299957	145.960000
312.393219	146.560000
312.486481	146.780000
312.579712	146.500000
312.672974	146.460000
312.766235	146.540000
312.859497	146.180000
312.952759	146.180000
313.045990	147.100000
313.139252	146.920000
313.232513	147.060000
313.325775	147.260000
313.419037	147.000000
313.512299	145.800000
313.605530	146.600000
313.698822	146.540000
313.792053	146.760000
313.885345	146.700000
313.978577	147.280000
314.071869	146.560000
314.165131	146.680000
314.258392	146.600000
314.351654	147.020000
314.444916	146.400000
314.538177	147.120000
314.631439	146.940000
314.724701	146.860000
314.817993	146.720000
314.911255	147.080000
315.004517	146.680000
315.097778	146.620000
315.191040	146.880000
315.284302	147.100000
315.377594	146.860000
315.470856	146.980000
315.564117	146.400000
315.657379	145.500000
315.750671	145.100000
315.843933	145.620000
315.937195	145.380000
316.030518	145.740000
316.123749	146.340000
316.217041	147.240000
316.310303	147.000000
316.403595	147.540000
316.496857	147.540000
316.590149	147.500000
316.683411	146.700000
316.776703	146.720000
316.869965	146.240000
316.963257	146.320000
317.056519	145.620000
317.149811	145.600000
317.243073	145.540000
317.336365	145.620000
317.429626	146.020000
317.522919	147.000000
317.616180	147.160000
317.709473	146.900000
317.802765	147.020000
317.896027	146.540000
317.989319	146.440000
318.082611	146.280000
318.175873	146.220000
318.269165	146.240000
318.362488	146.480000
318.455750	146.180000
318.549042	146.540000
318.642303	147.380000
318.735626	147.100000
318.828888	147.020000
318.922211	146.820000
319.015472	147.260000
319.108765	146.440000
319.202057	146.320000
319.295349	146.660000
319.388641	146.340000
319.481934	145.640000
319.575226	145.800000
319.668518	146.080000
319.761810	145.960000
319.855103	146.200000
319.948395	146.380000
320.041687	146.500000
320.134979	146.420000
320.228271	146.000000
320.321564	146.000000
320.414856	145.840000
320.508148	145.680000
320.601440	145.360000
320.694763	145.240000
320.788025	145.920000
320.881348	146.140000
320.974640	146.060000
321.067963	146.000000
321.161224	146.460000
321.254547	145.740000
321.347839	146.040000
321.441162	145.940000
321.534454	146.340000
321.627747	146.200000
321.721069	146.940000
321.814362	147.020000
321.907654	147.300000
322.000946	147.140000
322.094269	147.800000
322.187561	147.220000
322.280884	147.320000
322.374176	147.340000
322.467468	147.940000
322.560791	147.500000
322.654083	148.120000
322.747406	147.820000
322.840698	148.220000
322.934021	148.180000
323.027344	148.320000
323.120636	147.940000
323.213959	147.720000
323.307251	146.960000
323.400574	146.660000
323.493866	146.300000
323.587219	146.780000
323.680511	147.300000
323.773834	147.680000
323.867157	147.900000
323.960449	148.060000
324.053772	147.660000
324.147095	147.080000
324.240387	147.700000
324.333710	147.380000
324.427032	147.440000
324.520355	147.220000
324.613647	147.240000
324.706970	146.580000
324.800293	146.660000
324.893616	146.700000
324.986938	147.000000
325.080231	147.060000
325.173553	147.420000
325.266876	147.740000
325.360199	147.580000
325.453522	146.800000
325.546875	146.460000
325.640167	146.520000
325.733521	146.800000
325.826813	147.220000
325.920166	147.300000
326.013489	147.460000
326.106812	146.540000
326.200134	146.000000
326.293457	145.300000
326.386780	145.760000
326.480103	146.000000
326.573425	146.140000
326.666748	146.060000
326.760071	146.600000
326.853424	146.560000
326.946747	146.580000
327.040070	147.480000
327.133392	147.440000
327.226715	146.700000
327.320068	145.940000
327.413391	146.240000
327.506714	145.620000
327.600037	145.620000
327.693390	146.320000
327.786713	146.860000
327.880066	146.700000
327.973358	147.100000
328.066742	147.700000
328.160034	147.540000
328.253418	148.020000
328.346710	147.720000
328.440063	147.300000
328.533417	146.720000
328.626740	147.140000
328.720093	146.900000
328.813416	146.960000
328.906769	147.040000
329.000092	147.080000
329.093445	146.680000
329.186768	146.400000
329.280121	146.780000
329.373444	147.140000
329.466797	147.160000
329.560120	147.120000
329.653473	147.640000
329.746796	147.080000
329.840149	146.740000
329.933502	146.840000
330.026825	146.680000
330.120178	146.440000
330.213562	146.500000
330.306854	146.500000
330.400238	146.500000
330.493561	146.320000
330.586945	146.760000
330.680237	147.100000
330.773621	147.360000
330.866974	147.640000
330.960327	148.360000
331.053680	147.900000
331.147003	147.880000
331.240356	147.860000
331.333710	147.580000
331.427063	146.960000
331.520416	147.120000
331.613770	146.980000
331.707123	147.220000
331.800476	147.200000
331.893829	148.280000
331.987152	148.180000
332.080505	148.180000
332.173859	147.820000
332.267212	147.400000
332.360565	146.760000
332.453918	146.480000
332.547333	146.420000
332.640656	146.400000
332.734039	146.700000
332.827362	146.180000
332.920746	147.000000
333.014069	147.180000
333.107452	147.560000
333.200806	147.800000
333.294159	148.000000
333.387543	147.280000
333.480896	146.760000
333.574249	146.400000
333.667603	145.800000
333.760956	146.100000
333.854340	145.860000
333.947693	146.240000
334.041046	146.480000
334.134430	147.100000
334.227783	146.620000
334.321136	146.880000
334.414520	146.560000
334.507874	146.440000
334.601227	146.360000
334.694611	146.560000
334.787964	146.780000
334.881348	147.320000
334.974701	147.120000
335.068085	146.740000
335.161438	146.960000
335.254822	146.680000
335.348175	145.940000
335.441559	145.580000
335.534943	146.260000
335.628296	146.180000
335.721680	146.340000
335.815033	146.840000
335.908417	147.620000
336.001770	147.440000
336.095154	147.320000
336.188538	147.080000
336.281891	146.840000
336.375275	145.880000
336.468658	145.580000
336.562012	145.880000
336.655396	146.000000
336.748779	146.400000
336.842133	146.840000
336.935516	147.180000
337.028900	146.720000
337.122284	146.600000
337.215637	146.560000
337.309021	146.340000
337.402435	145.960000
337.495789	146.060000
337.589203	145.980000
337.682526	145.740000
337.775940	146.320000
337.869324	146.400000
337.962708	146.400000
338.056091	147.080000
338.149475	146.940000
338.242859	146.960000
338.336243	146.760000
338.429626	146.760000
338.523010	146.420000
338.616394	146.300000
338.709778	146.400000
338.803162	146.720000
338.896545	146.900000
338.989929	146.780000
339.083313	147.240000
339.176697	146.540000
339.270081	146.300000
339.363464	146.360000
339.456848	146.740000
339.550232	146.320000
339.643616	146.580000
339.737030	146.800000
339.830383	146.500000
339.923828	146.620000
340.017181	146.820000
340.110596	146.860000
340.203949	146.600000
340.297363	146.340000
340.390778	145.700000
340.484161	145.680000
340.577545	145.560000
340.670959	145.540000
340.764343	145.880000
340.857727	146.300000
340.951111	145.600000
341.044525	146.140000
341.137909	145.960000
341.231293	145.800000
341.324707	145.100000
341.418091	146.380000
341.511505	145.980000
341.604889	146.280000
341.698303	146.400000
341.791687	146.600000
341.885071	145.820000
341.978485	145.580000
342.071899	145.640000
342.165283	145.980000
342.258698	146.400000
342.352081	147.220000
342.445496	147.980000
342.538879	147.900000
342.632324	147.260000
342.725708	147.220000
342.819122	146.300000
342.912506	145.800000
343.005920	145.840000
343.099335	146.860000
343.192719	146.700000
343.286133	146.660000
343.379547	147.000000
343.472931	147.100000
343.566345	146.260000
343.659760	146.580000
343.753143	146.680000
343.846558	146.480000
343.939972	146.360000
344.033386	146.940000
344.126770	146.840000
344.220184	147.060000
344.313599	147.340000
344.407043	147.360000
344.500427	146.820000
344.593872	147.140000
344.687225	147.000000
344.780670	146.420000
344.874054	146.300000
344.967499	146.780000
345.060913	146.660000
345.154327	146.580000
345.247742	146.400000
345.341156	146.400000
345.434570	145.860000
345.527985	145.540000
345.621399	145.900000
345.714813	145.920000
345.808228	146.140000
345.901642	145.880000
345.995056	145.680000
346.088470	145.660000
346.181885	145.860000
346.275299	145.540000
346.368713	145.780000
346.462128	145.640000
346.555573	145.720000
346.648987	146.140000
346.742401	146.480000
346.835815	146.880000
346.929260	146.840000
347.022644	146.600000
347.116119	146.340000
347.209503	146.360000
347.302948	147.140000
347.396362	147.720000
347.489807	147.980000
347.583221	148.400000
347.676636	148.060000
347.770050	146.980000
347.863495	146.460000
347.956909	146.420000
348.050323	146.220000
348.143768	146.220000
348.237183	146.200000
348.330597	146.900000
348.424042	147.240000
348.517456	147.180000
348.610901	147.460000
348.704315	147.400000
348.797760	146.660000
348.891174	145.960000
348.984619	145.640000
349.078033	146.060000
349.171448	146.740000
349.264923	146.840000
349.358337	146.980000
349.451782	147.060000
349.545197	146.360000
349.638641	145.360000
349.732086	145.020000
349.825500	145.440000
349.918945	145.280000
350.012390	145.840000
350.105804	146.680000
350.199249	147.100000
350.292664	147.220000
350.386108	147.220000
350.479553	147.320000
350.572968	147.060000
350.666412	147.160000
350.759857	147.080000
350.853302	147.740000
350.946716	147.500000
351.040161	147.780000
351.133606	147.840000
351.227081	147.520000
351.320465	148.020000
351.413940	147.880000
351.507355	147.740000
351.600830	147.920000
351.694244	147.640000
351.787720	147.040000
351.881104	146.960000
351.974579	146.900000
352.067993	147.340000
352.161469	147.600000
352.254883	147.340000
352.348358	147.500000
352.441803	147.400000
352.535248	146.780000
352.628693	146.960000
352.722137	146.960000
352.815582	147.160000
352.909027	147.300000
353.002472	147.240000
353.095917	147.260000
353.189362	147.360000
353.282806	147.040000
353.376251	146.900000
353.469696	146.560000
353.563141	146.760000
353.656586	146.720000
353.750061	146.280000
353.843475	146.320000
353.936981	147.060000
354.030396	146.580000
354.123871	146.560000
354.217285	147.740000
354.310760	148.180000
354.404175	147.880000
354.497681	147.820000
354.591095	147.720000
354.684570	146.620000
354.777985	145.980000
354.871490	145.780000
354.964935	146.160000
355.058380	146.020000
355.151855	145.700000
355.245300	146.240000
355.338745	146.740000
355.432220	146.720000
355.525665	146.440000
355.619110	147.360000
355.712585	146.880000
355.806030	146.420000
355.899475	145.940000
355.992950	146.480000
356.086426	146.560000
356.179871	146.660000
356.273346	146.580000
356.366791	146.820000
356.460266	147.140000
356.553711	146.540000
356.647186	146.620000
356.740631	146.640000
356.834106	146.700000
356.927551	146.520000
357.021027	146.680000
357.114471	146.800000
357.207947	147.060000
357.301422	147.340000
357.394867	147.180000
357.488342	147.600000
357.581818	147.680000
357.675262	147.720000
357.768738	147.300000
357.862213	146.920000
357.955658	146.740000
358.049133	146.320000
358.142609	146.660000
358.236053	146.360000
358.329529	146.600000
358.423035	146.860000
358.516449	146.800000
358.609955	146.760000
358.703400	147.740000
358.796906	147.900000
358.890350	147.100000
358.983826	147.480000
359.077271	146.580000
359.170776	145.720000
359.264221	145.440000
359.357727	145.920000
359.451172	146.180000
359.544647	146.680000
359.638123	146.760000
359.731598	146.980000
359.825073	147.340000
359.918549	146.780000
360.012024	147.040000
360.105499	146.820000
360.198975	146.820000
360.292450	146.720000
360.385925	146.920000
360.479401	146.480000
360.572876	147.140000
360.666351	147.520000
360.759857	147.360000
360.853302	147.300000
360.946808	147.120000
361.040253	147.060000
361.133759	146.560000
361.227203	146.660000
361.320709	146.460000
361.414154	146.980000
361.507660	147.180000
361.601105	147.480000
361.694641	147.800000
361.788086	147.760000
361.881592	147.960000
361.975067	147.560000
362.068542	147.800000
362.162018	147.420000
362.255524	147.220000
362.348999	147.140000
362.442474	147.160000
362.535950	146.620000
362.629456	146.460000
362.722931	146.460000
362.816406	146.640000
362.909882	146.800000
363.003387	146.520000
363.096863	146.760000
363.190338	147.060000
363.283875	146.600000
363.377319	146.480000
363.470825	147.200000
363.564301	146.760000
363.657806	146.980000
363.751282	146.780000
363.844788	147.420000
363.938232	147.140000
364.031769	147.820000
364.125214	147.820000
364.218750	148.240000
364.312225	147.160000
364.405731	147.240000
364.499207	146.740000
364.592712	146.420000
364.686188	146.480000
364.779694	146.900000
364.873169	146.720000
364.966675	146.580000
365.060150	146.580000
365.153656	146.900000
365.247131	146.840000
365.340637	147.140000
365.434143	148.080000
365.527618	148.480000
365.621155	147.620000
365.714600	147.640000
365.808136	147.520000
365.901611	146.360000
365.995117	146.160000
366.088593	146.240000
366.182129	146.060000
366.275604	146.220000
366.369110	146.440000
366.462585	146.360000
366.556122	147.140000
366.649567	147.220000
366.743103	147.040000
366.836609	147.200000
366.930115	147.580000
367.023590	147.420000
367.117096	147.460000
367.210602	147.460000
367.304108	148.000000
367.397614	148.580000
367.491119	148.440000
367.584595	148.440000
367.678101	148.800000
367.771606	148.300000
367.865112	147.480000
367.958649	146.760000
368.052124	146.620000
368.145660	146.080000
368.239136	146.660000
368.332672	146.620000
368.426147	146.940000
368.519684	146.820000
368.613159	147.380000
368.706696	146.700000
368.800171	147.000000
368.893707	147.180000
368.987183	147.440000
369.080719	147.320000
369.174225	147.140000
369.267731	147.120000
369.361237	147.380000
369.454742	147.240000
369.548248	147.380000
369.641754	147.500000
369.735260	147.200000
369.828766	146.280000
369.922272	147.000000
370.015808	146.340000
370.109314	146.320000
370.202820	146.080000
370.296356	147.440000
370.389832	146.800000
370.483368	146.820000
370.576874	146.700000
370.670410	146.980000
370.763885	145.820000
370.857422	145.900000
370.950928	145.800000
371.044464	146.540000
371.137939	146.560000
371.231476	147.120000
371.324982	147.640000
371.418518	148.100000
371.512024	147.780000
371.605560	147.600000
371.699066	147.620000
371.792572	146.960000
371.886108	147.360000
371.979614	147.120000
372.073120	147.520000
372.166656	147.340000
372.260162	147.680000
372.353668	147.000000
372.447205	146.740000
372.540710	146.700000
372.634277	146.480000
372.727753	146.500000
372.821320	146.720000
372.914795	147.040000
373.008362	146.700000
373.101837	146.820000
373.195404	146.560000
373.288879	146.340000
373.382446	146.980000
373.475922	147.140000
373.569489	147.740000
373.662964	148.300000
373.756531	148.400000
373.850037	147.980000
373.943573	147.900000
374.037109	146.820000
374.130615	146.940000
374.224152	147.140000
374.317657	146.820000
374.411194	147.740000
374.504730	147.960000
374.598236	147.440000
374.691772	147.020000
374.785309	147.460000
374.878815	146.100000
374.972351	146.920000
375.065887	146.600000
375.159454	147.520000
375.252930	147.020000
375.346497	147.780000
375.440002	147.840000
375.533569	148.160000
375.627045	147.240000
375.720612	147.260000
375.814117	147.140000
375.907684	146.560000
376.001160	146.000000
376.094727	145.760000
376.188232	146.580000
376.281799	146.760000
376.375336	146.860000
376.468872	147.640000
376.562408	147.820000
376.655914	147.260000
376.749451	147.020000
376.842987	147.140000
376.936523	146.980000
377.030060	147.200000
377.123596	147.220000
377.217133	146.980000
377.310669	146.880000
377.404205	147.180000
377.497772	147.360000
377.591278	147.220000
377.684845	147.800000
377.778351	147.960000
377.871918	147.640000
377.965424	146.880000
378.058990	146.620000
378.152496	146.360000
378.246063	146.340000
378.339569	146.600000
378.433136	147.080000
378.526642	147.520000
378.620209	147.380000
378.713745	146.880000
378.807312	147.080000
378.900848	147.260000
378.994385	147.340000
379.087921	146.740000
379.181458	147.100000
379.274994	146.260000
379.368530	145.820000
379.462097	145.980000
379.555634	146.600000
379.649170	146.360000
379.742706	146.360000
379.836273	146.940000
379.929810	146.400000
380.023376	146.020000
380.116882	146.100000
380.210449	146.300000
380.303986	145.820000
380.397552	145.620000
380.491058	145.980000
380.584656	146.100000
380.678162	146.380000
380.771729	146.640000
380.865265	147.500000
380.958832	147.560000
381.052368	147.760000
381.145935	148.120000
381.239471	148.380000
381.333008	148.260000
381.426575	148.040000
381.520111	148.060000
381.613647	147.800000
381.707214	147.440000
381.800751	146.660000
381.894318	146.840000
381.987854	146.340000
382.081421	146.000000
382.174988	145.920000
382.268524	146.180000
382.362091	146.060000
382.455627	147.140000
382.549194	147.020000
382.642731	146.900000
382.736298	146.560000
382.829834	146.560000
382.923401	146.540000
383.016937	146.520000
383.110504	146.760000
383.204041	147.080000
383.297607	147.360000
383.391174	146.360000
383.484741	147.160000
383.578278	146.660000
383.671844	146.220000
383.765411	145.720000
383.858948	146.140000
383.952515	145.740000
384.046051	146.440000
384.139618	147.260000
384.233185	147.720000
384.326721	147.480000
384.420288	148.060000
384.513855	147.720000
384.607422	147.740000
384.700989	147.980000
384.794525	147.920000
384.888123	147.520000
384.981659	147.880000
385.075226	147.460000
385.168762	146.900000
385.262360	146.900000
385.355896	146.040000
385.449463	145.780000
385.542999	145.680000
385.636597	146.180000
385.730164	146.400000
385.823730	146.520000
385.917267	146.380000
386.010834	146.540000
386.104401	146.340000
386.197968	146.620000
386.291534	147.260000
386.385101	147.240000
386.478668	147.600000
386.572235	147.260000
386.665802	146.740000
386.759338	146.160000
386.852905	145.960000
386.946472	145.440000
387.040070	145.880000
387.133606	146.040000
387.227203	145.880000
387.320740	146.360000
387.414337	146.120000
387.507874	145.780000
387.601471	145.560000
387.695007	145.700000
387.788605	145.780000
387.882141	146.300000
387.975739	146.360000
388.069275	146.060000
388.162872	146.500000
388.256439	146.080000
388.350037	145.720000
388.443604	145.880000
388.537170	146.260000
388.630737	146.580000
388.724304	146.940000
388.817871	146.960000
388.911438	146.920000
389.005005	147.040000
389.098602	147.000000
389.192169	146.600000
389.285736	147.060000
389.379333	147.020000
389.472870	146.540000
389.566467	146.440000
389.660034	146.540000
389.753632	145.880000
389.847168	146.260000
389.940765	146.760000
390.034332	146.580000
390.127930	146.540000
390.221466	146.720000
390.315063	146.300000
390.408630	145.580000
390.502228	145.080000
390.595795	145.240000
390.689362	145.540000
390.782959	145.780000
390.876526	146.260000
390.970093	146.280000
391.063690	146.800000
391.157257	146.780000
391.250824	147.100000
391.344421	147.100000
391.437988	147.800000
391.531555	147.780000
391.625153	147.880000
391.718750	147.880000
391.812317	148.220000
391.905914	147.780000
391.999481	147.440000
392.093079	147.480000
392.186615	147.260000
392.280243	147.020000
392.373779	147.020000
392.467407	147.380000
392.560944	147.080000
392.654572	146.960000
392.748108	146.840000
392.841736	146.880000
392.935303	146.400000
393.028900	146.560000
393.122467	146.560000
393.216064	146.300000
393.309631	146.100000
393.403229	145.680000
393.496796	145.640000
393.590393	144.880000
393.683990	145.300000
393.777557	146.120000
393.871155	146.720000
393.964722	146.960000
394.058350	147.580000
394.151917	147.580000
394.245514	146.860000
394.339081	146.900000
394.432678	146.840000
394.526245	146.680000
394.619873	146.100000
394.713409	146.220000
394.807037	145.920000
394.900604	146.060000
394.994202	146.260000
395.087769	146.600000
395.181396	146.140000
395.274994	146.880000
395.368561	146.040000
395.462158	146.340000
395.555756	145.920000
395.649353	146.740000
395.742920	146.240000
395.836517	147.160000
395.930115	146.360000
396.023712	146.940000
396.117279	146.860000
396.210876	146.300000
396.304474	146.060000
396.398071	146.460000
396.491669	146.540000
396.585266	146.220000
396.678833	146.200000
396.772461	146.400000
396.866028	146.380000
396.959656	146.740000
397.053223	147.140000
397.146851	147.480000
397.240417	147.980000
397.334015	148.840000
397.427582	148.840000
397.521210	149.260000
397.614807	150.180000
397.708405	150.720000
397.802002	151.400000
397.895599	153.180000
397.989197	154.540000
398.082794	156.340000
398.176392	158.800000
398.269989	161.700000
398.363586	164.780000
398.457184	169.480000
398.550781	174.280000
398.644379	178.540000
398.737976	183.060000
398.831573	188.000000
398.925201	192.000000
399.018768	196.680000
399.112396	202.440000
399.205963	209.160000
399.299591	217.340000
399.393158	227.360000
399.486786	239.020000
399.580353	250.180000
399.673981	261.320000
399.767578	271.260000
399.861206	280.060000
399.954773	286.380000
400.048401	291.200000
400.141998	293.680000
400.235596	296.340000
400.329193	296.680000
400.422791	296.760000
400.516418	296.080000
400.610016	295.380000
400.703613	292.220000
400.797211	286.780000
400.890808	279.220000
400.984436	271.140000
401.078033	261.460000
401.171631	251.040000
401.265259	241.400000
401.358826	232.240000
401.452484	222.400000
401.546051	213.340000
401.639679	203.240000
401.733246	194.860000
401.826904	186.360000
401.920471	178.760000
402.014099	172.200000
402.107697	167.600000
402.201324	163.260000
402.294891	159.860000
402.388550	157.060000
402.482147	154.740000
402.575745	152.280000
402.669373	149.980000
402.762970	148.920000
402.856567	148.180000
402.950195	147.680000
403.043793	147.600000
403.137390	148.300000
403.231018	147.540000
403.324615	148.060000
403.418243	147.360000
403.511841	147.580000
403.605469	147.160000
403.699066	147.640000
403.792694	147.500000
403.886292	147.800000
403.979919	147.720000
404.073517	147.160000
404.167145	147.400000
404.260712	147.060000
404.354370	147.000000
404.447937	147.080000
404.541595	147.700000
404.635162	147.700000
404.728821	148.000000
404.822418	147.740000
404.916046	147.660000
405.009644	147.800000
405.103271	147.680000
405.196899	147.360000
405.290497	147.400000
405.384125	147.460000
405.477722	146.580000
405.571350	146.140000
405.664948	146.420000
405.758575	146.620000
405.852203	146.400000
405.945801	146.920000
406.039429	147.180000
406.133057	146.900000
406.226654	146.540000
406.320312	146.480000
406.413879	146.460000
406.507538	146.560000
406.601135	146.180000
406.694763	146.940000
406.788361	146.980000
406.882019	146.760000
406.975586	147.040000
407.069244	147.620000
407.162872	147.240000
407.256470	147.300000
407.350098	147.380000
407.443726	146.820000
407.537323	146.540000
407.630951	146.780000
407.724579	146.240000
407.818207	146.600000
407.911804	146.740000
408.005432	146.680000
408.099060	146.900000
408.192688	147.380000
408.286285	147.060000
408.379913	146.700000
408.473572	146.740000
408.567169	145.740000
408.660828	145.720000
408.754395	145.460000
408.848053	145.480000
408.941650	145.740000
409.035309	145.700000
409.128906	145.420000
409.222565	146.000000
409.316132	146.420000
409.409790	145.760000
409.503387	145.760000
409.597046	146.140000
409.690674	146.140000
409.784302	146.320000
409.877930	146.760000
409.971558	147.180000
410.065186	146.820000
410.158783	146.380000
410.252411	146.060000
410.346039	146.320000
410.439667	146.460000
410.533295	146.720000
410.626923	147.140000
410.720551	146.880000
410.814209	147.140000
410.907806	147.180000
411.001465	146.960000
411.095062	146.740000
411.188721	147.040000
411.282318	146.520000
411.375977	146.320000
411.469574	146.760000
411.563232	146.800000
411.656830	146.820000
411.750488	146.960000
411.844086	146.640000
411.937744	146.300000
412.031372	146.380000
412.125000	146.340000
412.218628	146.260000
412.312256	147.340000
412.405884	147.860000
412.499512	147.560000
412.593170	147.580000
412.686798	147.660000
412.780426	146.800000
412.874054	146.680000
412.967682	147.040000
413.061310	147.780000
413.154968	148.020000
413.248566	148.480000
413.342224	148.380000
413.435852	148.480000
413.529510	147.560000
413.623108	146.920000
413.716766	146.620000
413.810364	146.680000
413.904022	146.280000
413.997650	146.280000
414.091309	147.140000
414.184906	146.940000
414.278564	146.640000
414.372192	147.140000
414.465851	147.460000
414.559479	146.940000
414.653107	148.000000
414.746735	147.900000
414.840393	147.800000
414.934021	147.880000
415.027649	147.440000
415.121277	146.880000
415.214935	147.300000
415.308563	146.880000
415.402191	146.380000
415.495850	146.920000
415.589478	146.420000
415.683136	146.600000
415.776733	147.280000
415.870422	147.860000
415.964020	147.040000
416.057678	147.280000
416.151306	146.780000
416.244965	146.560000
416.338562	146.540000
416.432251	147.240000
416.525848	148.060000
416.619507	148.160000
416.713165	148.280000
416.806793	148.080000
416.900421	148.240000
416.994080	147.280000
417.087708	147.300000
417.181366	146.960000
417.274994	146.900000
417.368622	147.120000
417.462280	147.680000
417.555908	147.560000
417.649567	147.480000
417.743195	147.400000
417.836853	146.960000
417.930481	146.940000
418.024170	147.120000
418.117767	147.660000
418.211426	148.000000
418.305054	148.300000
418.398712	147.640000
418.492340	147.840000
418.585999	148.020000
418.679626	148.140000
418.773285	148.280000
418.866913	148.920000
418.960571	148.880000
419.054230	148.440000
419.147858	148.380000
419.241516	148.340000
419.335144	147.940000
419.428802	147.680000
419.522461	147.220000
419.616089	146.600000
419.709747	146.400000
419.803375	146.700000
419.897034	146.820000
419.990662	147.120000
420.084320	147.720000
420.177979	148.260000
420.271606	148.300000
420.365295	148.520000
420.458893	148.800000
420.552582	148.840000
420.646210	148.460000
420.739868	148.260000
420.833496	148.000000
420.927155	147.400000
421.020782	147.180000
421.114471	146.880000
421.208069	146.700000
421.301758	146.900000
421.395386	147.280000
421.489044	147.040000
421.582703	147.200000
421.676361	147.880000
421.769989	147.500000
421.863647	147.920000
421.957306	147.960000
422.050934	148.260000
422.144592	148.000000
422.238251	147.900000
422.331909	147.460000
422.425537	147.540000
422.519196	147.260000
422.612854	146.680000
422.706543	146.360000
422.800140	146.540000
422.893829	146.120000
422.987457	145.840000
423.081146	146.280000
423.174744	147.300000
423.268433	146.980000
423.362061	147.340000
423.455750	147.020000
423.549347	146.820000
423.643036	145.860000
423.736664	146.580000
423.830353	146.820000
423.924011	147.620000
424.017639	147.420000
424.111298	147.800000
424.204956	147.180000
424.298615	146.820000
424.392273	146.620000
424.485931	146.840000
424.579559	146.740000
424.673218	146.880000
424.766876	147.100000
424.860535	146.480000
424.954193	146.260000
425.047882	146.740000
425.141510	146.540000
425.235199	146.660000
425.328796	146.800000
425.422485	146.880000
425.516113	146.200000
425.609802	146.140000
425.703430	146.140000
425.797119	146.480000
425.890747	146.600000
425.984436	146.620000
426.078064	146.980000
426.171753	146.800000
426.265411	146.280000
426.359070	146.380000
426.452728	146.660000
426.546356	146.180000
426.640015	146.380000
426.733673	146.540000
426.827332	146.060000
426.920990	146.520000
427.014648	146.340000
427.108307	146.280000
427.201965	147.000000
427.295624	147.440000
427.389282	146.880000
427.482941	147.480000
427.576630	147.260000
427.670258	146.600000
427.763947	146.640000
427.857574	146.560000
427.951263	146.280000
428.044922	146.220000
428.138611	146.340000
428.232239	146.640000
428.325928	147.120000
428.419556	147.560000
428.513245	147.240000
428.606903	147.460000
428.700562	146.680000
428.794220	145.680000
428.887878	144.840000
428.981537	145.400000
429.075195	145.320000
429.168854	146.020000
429.262512	146.600000
429.356201	147.040000
429.449860	146.860000
429.543518	146.780000
429.637177	146.500000
429.730835	146.540000
429.824493	146.600000
429.918182	146.740000
430.011810	146.560000
430.105530	146.200000
430.199158	146.280000
430.292847	146.040000
430.386475	145.920000
430.480164	145.800000
430.573792	145.680000
430.667511	145.380000
430.761139	145.380000
430.854828	145.960000
430.948456	146.080000
431.042145	146.660000
431.135834	146.740000
431.229492	146.900000
431.323151	146.600000
431.416809	146.760000
431.510468	146.640000
431.604156	146.980000
431.697815	147.180000
431.791473	146.800000
431.885132	146.360000
431.978821	146.600000
432.072479	146.620000
432.166138	146.860000
432.259827	146.700000
432.353485	147.120000
432.447174	147.020000
432.540802	146.720000
432.634491	146.500000
432.728149	146.760000
432.821838	147.580000
432.915466	147.460000
433.009186	147.560000
433.102814	147.100000
433.196503	147.060000
433.290131	146.240000
433.383850	146.300000
433.477509	146.340000
433.571167	147.240000
433.664856	147.600000
433.758514	148.200000
433.852173	148.180000
433.945862	148.120000
434.039520	147.680000
434.133179	147.220000
434.226868	146.820000
434.320526	146.360000
434.414185	146.900000
434.507874	146.660000
434.601562	146.980000
434.695221	146.720000
434.788910	147.100000
434.882538	146.740000
434.976257	146.620000
435.069885	146.520000
435.163574	146.840000
435.257233	146.740000
435.350922	146.560000
435.444580	146.360000
435.538269	146.080000
435.631897	146.480000
435.725616	147.040000
435.819275	147.640000
435.912964	148.260000
436.006622	148.600000
436.100311	147.920000
436.193970	147.040000
436.287628	146.620000
436.381317	146.280000
436.474976	146.160000
436.568665	145.900000
436.662323	146.140000
436.756012	146.020000
436.849670	145.900000
436.943390	145.620000
437.037018	145.940000
437.130737	145.940000
437.224365	145.700000
437.318085	145.820000
437.411713	146.000000
437.505432	146.360000
437.599060	146.760000
437.692780	147.560000
437.786407	147.460000
437.880127	147.680000
437.973755	147.260000
438.067474	146.600000
438.161133	146.500000
438.254822	147.000000
438.348480	146.740000
438.442169	147.540000
438.535828	148.240000
438.629517	147.420000
438.723175	147.020000
438.816864	147.340000
438.910553	146.440000
439.004211	146.280000
439.097900	146.540000
439.191559	146.560000
439.285248	146.100000
439.378906	146.440000
439.472626	146.140000
439.566284	146.020000
439.659973	146.480000
439.753632	146.620000
439.847321	147.160000
439.940979	147.400000
440.034698	147.460000
440.128326	146.780000
440.222046	146.600000
440.315674	145.520000
440.409393	145.900000
440.503082	145.900000
440.596741	146.240000
440.690430	146.740000
440.784088	146.880000
440.877777	145.880000
440.971466	146.040000
441.065125	145.840000
441.158813	145.440000
441.252502	145.620000
441.346161	146.260000
441.439850	146.560000
441.533539	146.200000
441.627197	146.820000
441.720886	146.880000
441.814606	147.040000
441.908234	147.320000
442.001953	147.420000
442.095612	147.160000
442.189301	147.160000
442.282959	147.000000
442.376678	146.160000
442.470306	146.960000
442.564026	146.540000
442.657684	146.720000
442.751404	146.800000
442.845032	148.000000
442.938751	147.300000
443.032440	147.700000
443.126099	147.320000
443.219788	147.700000
443.313477	146.700000
443.407166	147.220000
443.500824	147.000000
443.594513	147.120000
443.688202	146.780000
443.781891	146.320000
443.875549	145.580000
443.969238	145.720000
444.062927	145.940000
444.156647	145.820000
444.250275	146.520000
444.343994	147.280000
444.437653	147.260000
444.531372	147.100000
444.625031	146.840000
444.718719	146.580000
444.812378	146.080000
444.906097	145.980000
444.999756	145.600000
445.093445	145.880000
445.187103	146.040000
445.280823	146.640000
445.374512	146.100000
445.468201	146.400000
445.561859	146.180000
445.655548	146.100000
445.749237	145.640000
445.842926	146.420000
445.936615	146.820000
446.030304	146.880000
446.123962	147.120000
446.217651	146.940000
446.311340	146.920000
446.405029	146.480000
446.498749	146.300000
446.592407	145.840000
446.686096	146.120000
446.779755	146.120000
446.873474	146.180000
446.967133	146.280000
447.060852	146.380000
447.154510	146.260000
447.248230	146.020000
447.341858	146.040000
447.435577	146.020000
447.529236	145.860000
447.622955	145.780000
447.716644	146.100000
447.810333	146.220000
447.904022	146.540000
447.997711	146.620000
448.091400	147.120000
448.185059	146.820000
448.278748	147.000000
448.372437	146.640000
448.466125	147.060000
448.559814	146.880000
448.653503	147.300000
448.747192	147.440000
448.840912	148.060000
448.934570	147.780000
449.028290	147.900000
449.121948	147.580000
449.215637	147.000000
449.309296	146.380000
449.403015	146.700000
449.496674	146.660000
449.590393	146.560000
449.684052	146.500000
449.777771	147.140000
449.871429	146.260000
449.965149	146.200000
450.058838	146.500000
450.152527	147.240000
450.246216	147.080000
450.339905	147.500000
450.433594	146.940000
450.527283	147.260000
450.620972	146.780000
450.714661	146.160000
450.808350	146.320000
450.902039	146.760000
450.995728	146.120000
451.089417	146.000000
451.183105	146.460000
451.276794	146.720000
451.370514	146.380000
451.464172	146.040000
451.557892	146.100000
451.651550	146.520000
451.745270	146.020000
451.838928	145.720000
451.932648	146.360000
452.026306	146.820000
452.120026	145.940000
452.213684	146.700000
452.307404	146.820000
452.401062	146.820000
452.494781	146.900000
452.588470	147.360000
452.682159	146.700000
452.775848	147.300000
452.869537	146.660000
452.963226	145.700000
453.056915	145.420000
453.150604	145.700000
453.244293	145.520000
453.337982	146.520000
453.431671	147.180000
453.525360	147.840000
453.619049	147.760000
453.712769	147.660000
453.806427	146.860000
453.900146	146.540000
453.993805	146.180000
454.087555	146.600000
454.181213	146.880000
454.274933	147.040000
454.368591	147.300000
454.462311	147.320000
454.555969	146.500000
454.649689	147.000000
454.743347	146.720000
454.837067	147.320000
454.930756	147.600000
455.024445	147.860000
455.118134	147.300000
455.211853	147.600000
455.305542	146.640000
455.399231	146.300000
455.492920	146.240000
455.586609	146.220000
455.680298	146.280000
455.773987	146.100000
455.867676	146.180000
455.961365	146.280000
456.055084	146.080000
456.148773	145.800000
456.242493	146.160000
456.336151	146.040000
456.429871	146.480000
456.523529	146.740000
456.617249	146.600000
456.710907	147.360000
456.804626	147.360000
456.898315	146.760000
456.992035	146.860000
457.085693	147.020000
457.179413	145.860000
457.273102	146.620000
457.366791	146.720000
457.460480	146.980000
457.554199	147.460000
457.647888	147.880000
457.741577	147.120000
457.835266	147.360000
457.928955	147.060000
458.022644	147.040000
458.116364	147.440000
458.210052	147.420000
458.303741	147.380000
458.397461	146.900000
458.491119	146.280000
458.584839	146.040000
458.678528	145.820000
458.772247	145.580000
458.865906	145.880000
458.959625	146.720000
459.053284	146.400000
459.147003	146.320000
459.240692	146.940000
459.334412	146.900000
459.428070	146.580000
459.521790	146.640000
459.615479	146.560000
459.709198	146.920000
459.802887	146.700000
459.896576	146.360000
459.990265	146.660000
460.083954	147.280000
460.177673	146.260000
460.271362	146.560000
460.365051	146.720000
460.458740	146.060000
460.552429	145.460000
460.646149	145.800000
460.739838	145.380000
460.833527	145.400000
460.927246	145.740000
461.020905	145.860000
461.114655	145.840000
461.208313	146.300000
461.302032	145.840000
461.395691	146.040000
461.489441	146.060000
461.583099	145.980000
461.676819	145.860000
461.770477	146.480000
461.864197	146.040000
461.957916	145.920000
462.051605	145.500000
462.145294	146.080000
462.238983	145.500000
462.332703	146.360000
462.426392	147.120000
462.520081	147.320000
462.613770	146.880000
462.707489	147.340000
462.801178	146.720000
462.894867	146.340000
462.988556	146.420000
463.082275	146.300000
463.175964	146.200000
463.269684	146.460000
463.363342	146.420000
463.457092	145.820000
463.550751	146.200000
463.644470	146.480000
463.738129	146.400000
463.831879	146.640000
463.925537	147.640000
464.019257	147.600000
464.112946	147.340000
464.206665	147.340000
464.300323	146.960000
464.394043	146.620000
464.487762	146.440000
464.581451	146.780000
464.675140	146.720000
464.768829	147.020000
464.862549	147.200000
464.956238	147.380000
465.049927	147.220000
465.143646	147.540000
465.237335	147.440000
465.331024	147.580000
465.424713	147.380000
465.518433	147.340000
465.612152	146.920000
465.705811	147.080000
465.799561	146.960000
465.893219	147.020000
465.986938	147.020000
466.080597	146.660000
466.174347	146.440000
466.268005	146.420000
466.361725	146.280000
466.455414	146.360000
466.549133	146.540000
466.642792	146.820000
466.736542	146.440000
466.830231	146.520000
466.923920	146.320000
467.017609	146.520000
467.111328	146.020000
467.205017	146.160000
467.298706	146.180000
467.392426	146.340000
467.486115	146.440000
467.579803	146.180000
467.673523	146.560000
467.767212	146.620000
467.860901	146.700000
467.954651	146.840000
468.048309	147.400000
468.142029	146.960000
468.235718	146.920000
468.329437	146.620000
468.423096	146.700000
468.516846	146.580000
468.610504	146.580000
468.704224	146.220000
468.797913	146.500000
468.891632	146.420000
468.985291	146.180000
469.079010	146.480000
469.172729	146.200000
469.266418	146.140000
469.360107	146.140000
469.453827	146.120000
469.547516	145.980000
469.641205	146.920000
469.734924	147.180000
469.828613	147.360000
469.922302	147.880000
470.016022	147.680000
470.109711	147.200000
470.203430	146.520000
470.297150	145.740000
470.390808	145.700000
470.484558	145.860000
470.578217	146.480000
470.671936	147.200000
470.765625	147.960000
470.859344	147.640000
470.953003	147.900000
471.046753	147.240000
471.140411	146.400000
471.234131	146.220000
471.327820	146.640000
471.421539	146.460000
471.515228	145.960000
471.608948	146.580000
471.702637	146.080000
471.796326	145.760000
471.890045	145.820000
471.983734	146.640000
472.077423	146.180000
472.171143	146.600000
472.264832	146.760000
472.358521	146.580000
472.452240	146.160000
472.545929	146.860000
472.639648	146.940000
472.733337	147.080000
472.827057	147.220000
472.920746	147.320000
473.014465	147.280000
473.108124	147.420000
473.201874	147.300000
473.295532	147.260000
473.389252	147.780000
473.482941	147.360000
473.576660	146.880000
473.670319	146.780000
473.764069	146.760000
473.857727	146.580000
473.951477	147.200000
474.045166	147.900000
474.138855	147.840000
474.232574	148.020000
474.326263	148.100000
474.419952	147.940000
474.513672	147.660000
474.607361	147.380000
474.701050	147.400000
474.794769	147.320000
474.888458	147.340000
474.982178	147.560000
475.075867	147.840000
475.169586	147.640000
475.263275	147.380000
475.356995	147.360000
475.450653	146.640000
475.544403	146.440000
475.638062	147.420000
475.731812	147.140000
475.825470	146.900000
475.919189	147.200000
476.012878	147.440000
476.106598	146.300000
476.200256	147.040000
476.294006	146.900000
476.387695	147.080000
476.481384	146.760000
476.575104	146.880000
476.668793	146.340000
476.762512	145.880000
476.856201	146.120000
476.949890	145.940000
477.043610	145.520000
477.137299	145.660000
477.230988	146.160000
477.324707	146.100000
477.418396	146.840000
477.512146	147.060000
477.605804	146.940000
477.699524	147.180000
477.793213	146.840000
477.886932	146.260000
477.980591	146.300000
478.074341	146.180000
478.167999	145.380000
478.261749	145.300000
478.355408	145.500000
478.449127	145.960000
478.542816	147.020000
478.636536	147.980000
478.730225	148.140000
478.823944	148.480000
478.917633	148.240000
479.011322	147.520000
479.105042	147.140000
479.198730	147.320000
479.292450	147.080000
479.386139	147.280000
479.479828	147.500000
479.573547	147.800000
479.667267	147.480000
479.760925	147.360000
479.854675	147.520000
479.948334	147.600000
480.042084	147.160000
480.135742	147.520000
480.229462	147.060000
480.323151	146.720000
480.416870	145.740000
480.510529	145.600000
480.604279	145.400000
480.697937	146.200000
480.791656	145.980000
480.885345	146.180000
480.979065	146.340000
481.072754	146.800000
481.166473	147.020000
481.260132	146.880000
481.353882	147.080000
481.447540	147.100000
481.541260	146.620000
481.635010	146.040000
481.728668	146.240000
481.822388	146.420000
481.916077	146.680000
482.009796	146.700000
482.103485	147.080000
482.197205	147.220000
482.290863	147.280000
482.384613	146.960000
482.478271	146.580000
482.571991	146.460000
482.665680	146.440000
482.759399	147.020000
482.853058	147.660000
482.946808	147.920000
483.040466	147.660000
483.134216	147.460000
483.227875	146.440000
483.321594	146.460000
483.415283	146.760000
483.509003	146.940000
483.602661	146.720000
483.696411	147.260000
483.790070	146.800000
483.883789	146.580000
483.977478	146.940000
484.071198	147.080000
484.164917	146.600000
484.258606	146.120000
484.352325	146.240000
484.445984	145.680000
484.539734	145.880000
484.633392	145.800000
484.727142	146.220000
484.820801	146.060000
484.914520	146.100000
485.008209	146.380000
485.101929	146.960000
485.195587	146.780000
485.289337	146.780000
485.382996	146.920000
485.476715	146.940000
485.570404	147.060000
485.664124	147.060000
485.757782	147.620000
485.851532	147.440000
485.945190	147.360000
486.038910	147.480000
486.132599	147.780000
486.226318	146.900000
486.319977	146.980000
486.413727	147.460000
486.507446	146.700000
486.601105	146.380000
486.694855	146.480000
486.788513	146.440000
486.882233	145.880000
486.975922	146.160000
487.069641	146.260000
487.163300	146.060000
487.257050	147.060000
487.350708	146.700000
487.444427	146.540000
487.538116	146.260000
487.631836	146.220000
487.725494	145.300000
487.819214	145.320000
487.912903	145.380000
488.006622	146.100000
488.100281	146.820000
488.194031	147.100000
488.287689	147.740000
488.381409	148.700000
488.475098	148.360000
488.568817	148.280000
488.662476	147.940000
488.756226	147.460000
488.849945	146.060000
488.943604	146.120000
489.037354	145.880000
489.131012	146.060000
489.224731	145.740000
489.318390	145.960000
489.412140	145.920000
489.505798	145.940000
489.599518	145.600000
489.693207	145.860000
489.786926	145.840000
489.880585	145.880000
489.974335	146.300000
490.067993	147.340000
490.161713	147.580000
490.255371	148.440000
490.349121	148.500000
490.442780	148.320000
490.536499	147.280000
490.630188	147.400000
490.723907	146.780000
490.817566	146.920000
490.911285	146.740000
491.004974	146.640000
491.098694	146.060000
491.192413	146.900000
491.286102	146.580000
491.379822	146.480000
491.473480	146.740000
491.567200	146.880000
491.660889	146.220000
491.754608	146.260000
491.848267	146.200000
491.941986	146.220000
492.035675	146.380000
492.129395	146.500000
492.223053	146.200000
492.316772	146.560000
492.410461	146.620000
492.504181	146.520000
492.597839	146.200000
492.691559	146.620000
492.785248	146.500000
492.878967	146.460000
492.972626	146.200000
493.066345	146.120000
493.160034	145.600000
493.253754	145.520000
493.347412	145.160000
493.441132	145.700000
493.534882	146.140000
493.628540	146.580000
493.722260	147.040000
493.815918	147.500000
493.909668	148.080000
494.003326	148.420000
494.097046	148.140000
494.190704	147.540000
494.284454	147.580000
494.378113	147.040000
494.471832	146.480000
494.565491	146.460000
494.659210	146.840000
494.752899	146.800000
494.846619	146.740000
494.940277	147.060000
495.033997	147.000000
495.127686	146.380000
495.221405	146.160000
495.315063	146.260000
495.408783	146.140000
495.502441	146.400000
495.596191	146.580000
495.689850	146.420000
495.783569	146.500000
495.877228	146.340000
495.970947	145.960000
496.064697	145.940000
496.158356	146.800000
496.252075	146.720000
496.345734	146.800000
496.439453	147.880000
496.533142	147.980000
496.626862	147.820000
496.720520	147.680000
496.814240	147.580000
496.907898	146.980000
497.001617	147.260000
497.095306	146.700000
497.189026	146.940000
497.282684	147.140000
497.376404	147.300000
497.470062	146.800000
497.563782	146.820000
497.657471	146.540000
497.751190	146.220000
497.844849	146.060000
497.938568	146.420000
498.032227	146.420000
498.125946	146.380000
498.219635	146.400000
498.313354	146.480000
498.407074	146.180000
498.500732	146.520000
498.594452	146.900000
498.688110	146.680000
498.781830	146.280000
498.875519	146.440000
498.969238	145.960000
499.062897	145.440000
499.156616	145.860000
499.250275	145.940000
499.343994	145.440000
499.437653	145.900000
499.531372	146.320000
499.625061	146.980000
499.718781	147.460000
499.812439	148.240000
499.906158	148.060000
499.999817	147.740000
500.093536	147.060000
500.187195	147.000000
500.280914	146.840000
500.374573	147.060000
500.468323	146.800000
500.561981	147.100000
500.655701	146.400000
500.749420	146.620000
500.843079	146.620000
500.936798	146.680000
501.030457	146.700000
501.124176	147.440000
501.217834	147.020000
501.311554	146.980000
501.405212	147.240000
501.498962	146.580000
501.592621	146.320000
501.686340	146.800000
501.779999	146.760000
501.873718	146.760000
501.967377	147.420000
502.061096	147.580000
502.154755	146.820000
502.248474	146.520000
502.342133	146.440000
502.435852	145.920000
502.529510	146.300000
502.623230	147.000000
502.716888	146.780000
502.810608	147.200000
502.904266	147.760000
502.997986	147.200000
503.091705	146.720000
503.185364	146.600000
503.279083	146.220000
503.372772	146.020000
503.466492	145.740000
503.560150	145.940000
503.653870	146.540000
503.747528	146.480000
503.841248	146.280000
503.934906	146.640000
504.028625	146.400000
504.122284	146.440000
504.216003	147.220000
504.309662	146.660000
504.403381	146.640000
504.497040	146.740000
504.590759	146.340000
504.684418	146.100000
504.778137	146.920000
504.871796	147.260000
504.965515	147.060000
505.059174	147.160000
505.152893	146.520000
505.246521	145.660000
505.340240	145.340000
505.433899	145.440000
505.527618	145.780000
505.621338	146.320000
505.714996	146.400000
505.808716	146.160000
505.902374	146.860000
505.996094	146.840000
506.089752	146.380000
506.183472	146.960000
506.277130	147.200000
506.370850	146.960000
506.464508	146.720000
506.558228	146.920000
506.651886	146.340000
506.745605	146.480000
506.839264	146.460000
506.932983	146.480000
507.026611	146.140000
507.120331	146.900000
507.213989	146.120000
507.307709	145.920000
507.401367	146.180000
507.495087	147.500000
507.588745	146.760000
507.682465	147.720000
507.776123	147.560000
507.869843	147.400000
507.963531	146.460000
508.057190	147.160000
508.150909	146.640000
508.244568	146.760000
508.338287	146.460000
508.431946	146.260000
508.525665	145.860000
508.619324	145.860000
508.713013	146.080000
508.806671	146.460000
508.900391	147.220000
508.994049	147.440000
509.087769	147.260000
509.181427	147.080000
509.275146	146.840000
509.368774	146.080000
509.462494	145.980000
509.556152	146.220000
509.649872	146.520000
509.743530	146.580000
509.837250	146.740000
509.930878	146.780000
510.024597	146.520000
510.118256	146.460000
510.211975	146.680000
510.305695	146.180000
510.399353	146.740000
510.493042	147.600000
510.586700	147.580000
510.680420	148.100000
510.774078	148.420000
510.867798	148.100000
510.961426	146.820000
511.055145	146.640000
511.148804	145.800000
511.242523	146.560000
511.336151	146.640000
511.429871	147.640000
511.523529	147.840000
511.617249	147.800000
511.710876	147.320000
511.804596	146.960000
511.898254	146.640000
511.991974	146.540000
512.085632	146.760000
512.179321	146.680000
512.272949	146.960000
512.366699	147.460000
512.460327	147.260000
512.554077	148.100000
512.647766	147.960000
512.741394	147.800000
512.835144	148.080000
512.928772	147.740000
513.022461	147.160000
513.116150	147.380000
513.209839	147.800000
513.303467	146.960000
513.397217	147.260000
513.490845	147.040000
513.584595	146.820000
513.678223	146.160000
513.771912	145.840000
513.865601	145.560000
513.959290	145.320000
514.052917	145.500000
514.146667	146.360000
514.240295	146.940000
514.333984	147.560000
514.427673	147.500000
514.521362	147.460000
514.614990	146.780000
514.708740	146.720000
514.802368	146.800000
514.896057	147.180000
514.989746	147.940000
515.083435	147.820000
515.177124	147.980000
515.270752	147.760000
515.364502	147.620000
515.458130	147.200000
515.551819	147.160000
515.645508	146.920000
515.739197	146.880000
515.832825	147.020000
515.926575	146.460000
516.020203	146.860000
516.113892	147.280000
516.207520	147.380000
516.301270	147.300000
516.394897	147.540000
516.488586	147.760000
516.582275	147.440000
516.675964	146.820000
516.769592	146.700000
516.863281	147.620000
516.956970	147.700000
517.050659	147.500000
517.144287	147.920000
517.238037	148.100000
517.331665	147.000000
517.425354	146.440000
517.519043	146.360000
517.612732	146.460000
517.706421	146.460000
517.800049	146.480000
517.893738	146.660000
517.987427	146.940000
518.081116	146.760000
518.174744	146.000000
518.268433	146.300000
518.362122	146.740000
518.455811	146.500000
518.549438	146.960000
518.643127	148.080000
518.736816	147.700000
518.830505	147.020000
518.924133	147.020000
519.017822	146.940000
519.111511	146.780000
519.205200	147.240000
519.298828	147.340000
519.392517	146.880000
519.486206	146.940000
519.579895	146.800000
519.673523	146.740000
519.767212	146.620000
519.860901	147.380000
519.954590	147.040000
520.048279	146.480000
520.141907	146.320000
520.235596	147.040000
520.329224	147.040000
520.422974	147.120000
520.516602	147.160000
520.610291	146.960000
520.703918	146.540000
520.797607	146.620000
520.891296	146.640000
520.984985	147.280000
521.078613	147.960000
521.172302	147.620000
521.265930	148.120000
521.359680	148.620000
521.453308	148.080000
521.546997	147.720000
521.640625	148.060000
521.734314	147.440000
521.827942	147.180000
521.921692	147.520000
522.015320	147.420000
522.109009	147.040000
522.202698	146.980000
522.296326	146.780000
522.390015	147.000000
522.483704	147.020000
522.577393	146.920000
522.671021	146.560000
522.764709	146.440000
522.858337	146.400000
522.952026	146.600000
523.045654	147.480000
523.139404	148.460000
523.233032	148.620000
523.326721	148.480000
523.420349	148.200000
523.514038	147.580000
523.607666	147.620000
523.701355	147.340000
523.795044	147.340000
523.888733	147.560000
523.982361	147.560000
524.076050	146.740000
524.169678	147.220000
524.263367	146.820000
524.356995	146.480000
524.450684	146.520000
524.544373	146.720000
524.638062	146.560000
524.731750	147.040000
524.825378	147.220000
524.919067	146.800000
525.012695	146.880000
525.106384	146.520000
525.200012	146.560000
525.293701	146.120000
525.387329	146.860000
525.481018	146.620000
525.574646	147.080000
525.668396	146.720000
525.762024	147.320000
525.855713	147.040000
525.949341	146.500000
526.043030	146.400000
526.136658	146.380000
526.230347	146.260000
526.323975	146.160000
526.417664	146.580000
526.511292	146.360000
526.604980	146.640000
526.698608	146.560000
526.792297	146.640000
526.885925	146.900000
526.979614	147.140000
527.073303	146.940000
527.166931	146.960000
527.260620	147.140000
527.354309	147.340000
527.447998	147.160000
527.541626	146.820000
527.635315	146.980000
527.728943	147.280000
527.822632	147.540000
527.916260	147.680000
528.009949	148.200000
528.103577	147.940000
528.197266	147.220000
528.290894	147.120000
528.384583	146.860000
528.478210	146.740000
528.571899	147.200000
528.665527	147.840000
528.759216	147.600000
528.852844	147.780000
528.946533	147.860000
529.040161	147.460000
529.133850	146.780000
529.227478	146.840000
529.321167	147.260000
529.414856	147.540000
529.508484	148.240000
529.602173	148.440000
529.695801	148.420000
529.789490	148.040000
529.883057	147.580000
529.976746	147.540000
530.070374	148.040000
530.164062	148.020000
530.257690	148.360000
530.351379	148.720000
530.445007	147.960000
530.538696	147.220000
530.632324	147.280000
530.726013	147.200000
530.819641	147.260000
530.913330	147.760000
531.006958	148.040000
531.100647	147.540000
531.194275	147.100000
531.287964	146.860000
531.381592	146.580000
531.475220	146.700000
531.568848	146.920000
531.662537	147.100000
531.756226	147.580000
531.849854	147.600000
531.943542	147.640000
532.037170	147.220000
532.130859	147.540000
532.224487	146.800000
532.318176	146.380000
532.411804	146.560000
532.505432	146.980000
532.599060	146.420000
532.692749	146.720000
532.786377	147.140000
532.880066	146.640000
532.973694	146.120000
533.067383	146.180000
533.161011	146.040000
533.254639	145.760000
533.348267	145.640000
533.441956	146.440000
533.535583	146.540000
533.629272	146.740000
533.722900	146.460000
533.816589	146.700000
533.910156	146.940000
534.003845	146.580000
534.097534	146.640000
534.191162	147.440000
534.284851	147.460000
534.378479	146.920000
534.472107	147.180000
534.565735	147.020000
534.659424	147.240000
534.753052	147.460000
534.846741	147.380000
534.940369	148.020000
535.033997	147.920000
535.127625	147.720000
535.221313	148.100000
535.314941	147.720000
535.408630	147.040000
535.502197	147.200000
535.595886	146.760000
535.689514	146.200000
535.783203	147.140000
535.876831	147.340000
535.970459	147.560000
536.064087	147.460000
536.157776	147.660000
536.251404	147.300000
536.345093	147.320000
536.438721	146.600000
536.532349	146.920000
536.626038	146.680000
536.719666	146.660000
536.813293	146.500000
536.906921	146.900000
537.000610	147.080000
537.094238	146.980000
537.187866	146.980000
537.281494	146.900000
537.375183	147.280000
537.468811	146.960000
537.562439	146.960000
537.656067	146.940000
537.749756	146.960000
537.843384	147.160000
537.937012	147.480000
538.030640	147.620000
538.124329	147.820000
538.217896	148.520000
538.311584	148.400000
538.405212	148.160000
538.498901	148.360000
538.592468	148.760000
538.686157	147.800000
538.779785	147.280000
538.873413	147.040000
538.967102	146.700000
539.060730	146.320000
539.154358	146.920000
539.247986	147.220000
539.341675	147.540000
539.435242	147.280000
539.528931	147.000000
539.622559	146.500000
539.716187	146.780000
539.809814	146.660000
539.903503	146.720000
539.997070	146.600000
540.090759	146.880000
540.184387	146.700000
540.278015	146.840000
540.371643	147.460000
540.465332	147.900000
540.558899	147.740000
540.652588	147.480000
540.746216	147.440000
540.839844	147.500000
540.933472	147.380000
541.027100	147.380000
541.120728	147.560000
541.214417	147.660000
541.308044	147.580000
541.401672	147.440000
541.495300	147.280000
541.588928	147.080000
541.682617	146.520000
541.776184	146.240000
541.869873	146.540000
541.963440	146.760000
542.057129	146.620000
542.150757	147.040000
542.244385	146.760000
542.338013	146.300000
542.431641	146.340000
542.525269	146.280000
542.618958	146.480000
542.712524	146.860000
542.806213	146.800000
542.899780	147.100000
542.993469	147.180000
543.087036	146.820000
543.180725	146.600000
543.274292	147.160000
543.367981	147.300000
543.461548	147.340000
543.555237	147.300000
543.648926	147.760000
543.742493	148.080000
543.836182	147.760000
543.929749	147.800000
544.023437	148.000000
544.117004	147.880000
544.210693	147.580000
544.304260	147.420000
544.397949	147.200000
544.491516	147.280000
544.585205	146.960000
544.678772	146.620000
544.772461	147.140000
544.866028	147.440000
544.959717	147.620000
545.053284	147.700000
545.146973	148.080000
545.240540	148.120000
545.334229	148.700000
545.427795	148.980000
545.521423	149.060000
545.615051	148.860000
545.708679	149.120000
545.802307	148.900000
545.895935	148.920000
545.989624	149.520000
546.083191	149.700000
546.176880	149.220000
546.270447	148.540000
546.364136	148.440000
546.457703	147.980000
546.551331	147.840000
546.644958	147.900000
546.738586	148.260000
546.832214	147.740000
546.925842	147.660000
547.019409	147.800000
547.113098	147.340000
547.206665	147.040000
547.300354	147.160000
547.393921	147.160000
547.487549	147.460000
547.581177	147.520000
547.674805	147.720000
547.768433	147.180000
547.862061	147.180000
547.955627	146.000000
548.049316	146.640000
548.142883	146.820000
548.236572	147.540000
548.330139	147.600000
548.423767	147.700000
548.517456	147.000000
548.611023	147.400000
548.704651	146.580000
548.798279	146.380000
548.891907	147.260000
548.985474	147.380000
549.079163	147.060000
549.172729	147.180000
549.266357	146.800000
549.359985	146.160000
549.453613	145.740000
549.547180	145.400000
549.640869	145.920000
549.734436	146.260000
549.828064	147.040000
549.921631	147.000000
550.015320	146.660000
550.108887	147.060000
550.202515	146.860000
550.296143	146.260000
550.389771	146.700000
550.483337	147.180000
550.576965	146.900000
550.670593	147.340000
550.764221	147.600000
550.857849	147.240000
550.951477	146.760000
551.045105	146.280000
551.138672	146.360000
551.232300	145.640000
551.325928	146.160000
551.419556	146.720000
551.513123	147.040000
551.606750	146.680000
551.700378	146.880000
551.794006	146.660000
551.887573	146.360000
551.981201	146.660000
552.074768	146.400000
552.168457	146.360000
552.262024	147.260000
552.355652	147.280000
552.449219	147.440000
552.542847	148.000000
552.636475	147.900000
552.730103	147.140000
552.823669	147.120000
552.917297	146.580000
553.010864	146.520000
553.104553	146.960000
553.198181	146.600000
553.291748	146.860000
553.385376	146.960000
553.478943	146.580000
553.572571	146.500000
553.666199	146.880000
553.759827	146.440000
553.853394	146.060000
553.947021	146.300000
554.040588	146.340000
554.134216	146.440000
554.227783	147.440000
554.321411	148.080000
554.415039	147.640000
554.508667	147.500000
554.602234	147.740000
554.695862	146.920000
554.789429	146.860000
554.883057	147.000000
554.976624	146.880000
555.070251	146.680000
555.163818	146.600000
555.257507	146.640000
555.351074	146.960000
555.444702	148.120000
555.538330	147.720000
555.631897	148.180000
555.725525	147.920000
555.819092	147.640000
555.912720	146.360000
556.006287	146.820000
556.099915	146.260000
556.193481	146.220000
556.287109	146.240000
556.380676	146.360000
556.474304	146.320000
556.567871	146.760000
556.661499	146.380000
556.755066	146.740000
556.848694	147.120000
556.942261	146.840000
557.035889	146.880000
557.129517	146.980000
557.223145	147.000000
557.316711	146.660000
557.410339	147.000000
557.503906	146.720000
557.597473	147.260000
557.691040	147.120000
557.784668	147.200000
557.878296	147.020000
557.971863	147.120000
558.065491	147.140000
558.159058	146.960000
558.252686	147.440000
558.346252	147.920000
558.439880	147.660000
558.533447	147.060000
558.627075	146.700000
558.720642	146.400000
558.814270	146.200000
558.907837	146.220000
559.001465	146.260000
559.095032	147.240000
559.188660	147.240000
559.282227	146.700000
559.375854	147.440000
559.469360	147.440000
559.562988	147.340000
559.656555	147.180000
559.750183	147.520000
559.843750	147.500000
559.937378	147.680000
560.030945	147.220000
560.124573	0.000000
560.218140	0.000000
560.311707	0.000000
560.405334	0.000000
560.498901	0.000000
560.592529	0.000000
560.686096	0.000000
560.779724	0.000000
560.873291	0.000000
560.966858	0.000000
561.060425	0.000000
561.154053	0.000000
561.247620	0.000000
561.341248	0.000000
561.434814	0.000000
561.528381	0.000000
561.621948	0.000000
561.715576	0.000000
561.809143	0.000000
561.902771	0.000000
561.996277	0.000000
562.089905	0.000000
562.183472	0.000000
562.277100	0.000000
