Model Number: SPM-002-B   
Serial Number: 70087108
Firmware Version: 004.15.4
Exposure Time: 100000.000000us
Data Taken on: 11-12-2020 19:29:23.682
Wavelength	Amplitude
221.570786	0.000000
221.663406	0.000000
221.756027	0.000000
221.848648	0.000000
221.941269	0.000000
222.033905	0.000000
222.126526	0.000000
222.219162	0.000000
222.311798	0.000000
222.404419	0.000000
222.497055	0.000000
222.589676	0.000000
222.682312	0.000000
222.774933	0.000000
222.867569	0.000000
222.960205	0.000000
223.052841	0.000000
223.145462	0.000000
223.238098	0.000000
223.330734	0.000000
223.423386	0.000000
223.516022	0.000000
223.608658	0.000000
223.701309	0.000000
223.793945	0.000000
223.886581	0.000000
223.979218	0.000000
224.071869	0.000000
224.164505	0.000000
224.257156	0.000000
224.349792	0.000000
224.442444	0.000000
224.535095	0.000000
224.627747	0.000000
224.720398	0.000000
224.813034	0.000000
224.905685	0.000000
224.998337	145.740000
225.090988	145.380000
225.183640	145.420000
225.276291	144.980000
225.368942	145.620000
225.461594	145.940000
225.554245	146.140000
225.646912	145.980000
225.739578	146.720000
225.832230	147.240000
225.924896	146.260000
226.017548	146.440000
226.110199	147.040000
226.202866	146.340000
226.295532	145.620000
226.388184	146.140000
226.480850	145.420000
226.573517	144.760000
226.666168	145.400000
226.758835	146.080000
226.851501	146.440000
226.944183	147.000000
227.036850	147.060000
227.129517	146.600000
227.222183	146.300000
227.314850	146.220000
227.407516	146.200000
227.500198	146.800000
227.592865	146.680000
227.685532	146.340000
227.778214	146.100000
227.870880	146.440000
227.963562	146.700000
228.056229	147.160000
228.148926	147.380000
228.241592	148.200000
228.334274	147.740000
228.426956	147.140000
228.519638	147.260000
228.612305	146.980000
228.704987	146.500000
228.797668	146.640000
228.890350	146.460000
228.983032	145.820000
229.075714	146.320000
229.168396	146.140000
229.261108	145.800000
229.353790	145.980000
229.446472	146.380000
229.539169	146.120000
229.631851	145.960000
229.724533	146.280000
229.817230	146.520000
229.909912	147.400000
230.002609	147.640000
230.095306	147.740000
230.187988	147.760000
230.280685	147.520000
230.373383	146.160000
230.466095	145.520000
230.558792	145.660000
230.651474	145.620000
230.744171	145.520000
230.836868	145.640000
230.929581	146.300000
231.022278	146.380000
231.114975	146.460000
231.207672	146.460000
231.300369	146.960000
231.393082	147.000000
231.485779	146.860000
231.578506	146.780000
231.671204	146.820000
231.763916	146.760000
231.856613	146.480000
231.949326	146.660000
232.042023	146.820000
232.134735	146.800000
232.227448	146.540000
232.320160	146.780000
232.412872	146.880000
232.505585	147.280000
232.598297	147.840000
232.691010	147.660000
232.783722	147.360000
232.876450	147.640000
232.969162	147.160000
233.061874	146.180000
233.154587	146.000000
233.247314	146.140000
233.340027	145.460000
233.432739	145.700000
233.525467	145.640000
233.618179	146.140000
233.710907	146.020000
233.803635	146.480000
233.896347	146.220000
233.989090	147.300000
234.081818	147.220000
234.174545	147.340000
234.267258	146.940000
234.359985	147.180000
234.452713	147.040000
234.545441	146.840000
234.638168	146.540000
234.730896	147.000000
234.823639	146.800000
234.916367	146.880000
235.009094	147.140000
235.101822	147.320000
235.194580	146.900000
235.287308	146.760000
235.380051	146.360000
235.472778	146.380000
235.565521	146.540000
235.658249	146.300000
235.750992	146.560000
235.843719	146.360000
235.936462	146.440000
236.029205	146.280000
236.121948	146.280000
236.214691	146.760000
236.307449	147.360000
236.400192	147.060000
236.492935	146.720000
236.585678	147.040000
236.678421	146.500000
236.771164	146.420000
236.863907	146.760000
236.956665	147.040000
237.049408	148.320000
237.142151	148.060000
237.234909	148.500000
237.327652	148.380000
237.420410	148.300000
237.513153	147.160000
237.605927	147.020000
237.698669	146.400000
237.791428	145.780000
237.884186	146.120000
237.976944	145.800000
238.069702	145.940000
238.162445	145.520000
238.255203	145.900000
238.347961	146.260000
238.440720	146.440000
238.533478	146.420000
238.626266	146.460000
238.719025	146.660000
238.811783	146.160000
238.904541	146.160000
238.997314	145.920000
239.090073	145.780000
239.182831	146.060000
239.275604	146.820000
239.368362	146.700000
239.461136	147.060000
239.553909	147.160000
239.646667	146.760000
239.739441	146.220000
239.832214	146.320000
239.925003	146.540000
240.017761	146.980000
240.110535	147.580000
240.203308	147.060000
240.296082	147.060000
240.388855	146.860000
240.481628	146.800000
240.574417	146.460000
240.667191	146.780000
240.759964	146.680000
240.852737	146.860000
240.945526	146.680000
241.038315	146.440000
241.131088	146.700000
241.223877	147.020000
241.316650	146.480000
241.409439	146.540000
241.502228	146.560000
241.595001	146.800000
241.687790	146.520000
241.780579	146.800000
241.873367	146.920000
241.966141	147.080000
242.058929	146.360000
242.151718	146.480000
242.244507	146.880000
242.337311	146.360000
242.430099	146.820000
242.522903	147.140000
242.615692	146.880000
242.708481	146.680000
242.801270	147.200000
242.894073	146.720000
242.986862	146.580000
243.079651	147.240000
243.172455	146.920000
243.265244	146.900000
243.358063	146.500000
243.450867	146.640000
243.543655	146.080000
243.636459	146.180000
243.729263	146.460000
243.822067	147.040000
243.914856	147.560000
244.007660	147.780000
244.100464	147.860000
244.193268	147.240000
244.286072	146.760000
244.378876	145.920000
244.471680	145.480000
244.564499	145.460000
244.657318	146.100000
244.750122	146.500000
244.842926	145.980000
244.935745	146.440000
245.028549	146.060000
245.121368	145.700000
245.214172	145.360000
245.306992	146.180000
245.399796	145.900000
245.492615	146.300000
245.585434	146.140000
245.678253	146.440000
245.771072	146.220000
245.863892	146.480000
245.956711	146.680000
246.049530	146.560000
246.142349	146.440000
246.235168	146.900000
246.327988	147.100000
246.420807	146.840000
246.513626	147.100000
246.606445	146.760000
246.699280	146.260000
246.792099	146.000000
246.884918	145.860000
246.977753	145.220000
247.070587	145.420000
247.163422	145.640000
247.256241	145.740000
247.349075	145.980000
247.441895	146.400000
247.534729	146.360000
247.627563	146.100000
247.720383	146.680000
247.813217	146.400000
247.906052	146.360000
247.998886	146.400000
248.091736	146.320000
248.184570	145.720000
248.277405	145.980000
248.370239	146.960000
248.463074	147.920000
248.555908	148.340000
248.648743	148.260000
248.741592	148.480000
248.834427	147.580000
248.927261	146.220000
249.020111	146.540000
249.112946	147.260000
249.205795	146.840000
249.298630	147.240000
249.391495	147.420000
249.484344	146.960000
249.577179	146.460000
249.670029	146.720000
249.762878	147.100000
249.855728	147.280000
249.948563	147.340000
250.041412	146.700000
250.134262	146.760000
250.227112	146.240000
250.319962	146.260000
250.412827	146.240000
250.505692	146.300000
250.598541	146.120000
250.691391	145.860000
250.784241	146.080000
250.877106	146.100000
250.969955	146.180000
251.062805	146.840000
251.155670	147.340000
251.248520	147.140000
251.341385	147.220000
251.434235	147.080000
251.527100	146.380000
251.619965	145.960000
251.712814	146.620000
251.805695	146.800000
251.898560	147.240000
251.991425	147.580000
252.084290	147.920000
252.177155	147.180000
252.270020	146.720000
252.362885	146.460000
252.455750	146.140000
252.548615	145.600000
252.641479	145.240000
252.734360	144.980000
252.827240	144.700000
252.920105	144.980000
253.012970	145.040000
253.105850	145.360000
253.198715	145.520000
253.291595	145.920000
253.384460	145.360000
253.477341	145.500000
253.570221	145.700000
253.663086	145.500000
253.755966	146.220000
253.848846	146.880000
253.941727	147.340000
254.034592	147.420000
254.127472	147.120000
254.220367	146.940000
254.313248	146.900000
254.406128	146.220000
254.499008	146.120000
254.591904	147.240000
254.684784	147.200000
254.777664	146.860000
254.870544	146.660000
254.963440	146.660000
255.056335	146.180000
255.149216	145.860000
255.242111	146.520000
255.334991	147.080000
255.427887	147.080000
255.520767	147.320000
255.613663	147.520000
255.706558	146.900000
255.799438	146.680000
255.892334	146.540000
255.985229	146.520000
256.078125	146.380000
256.171021	146.840000
256.263916	147.220000
256.356812	147.340000
256.449707	147.440000
256.542603	147.060000
256.635498	146.840000
256.728394	146.680000
256.821289	146.660000
256.914215	146.800000
257.007080	147.520000
257.100006	147.660000
257.192932	147.940000
257.285828	148.340000
257.378723	147.800000
257.471619	147.100000
257.564545	146.620000
257.657440	146.340000
257.750336	146.340000
257.843262	146.280000
257.936157	147.440000
258.029053	147.940000
258.121979	148.180000
258.214874	147.640000
258.307800	147.520000
258.400696	146.600000
258.493622	146.380000
258.586517	145.660000
258.679443	146.340000
258.772339	146.180000
258.865265	146.260000
258.958160	145.780000
259.051086	146.840000
259.144012	146.280000
259.236938	147.240000
259.329834	147.260000
259.422791	147.420000
259.515717	146.380000
259.608612	146.180000
259.701538	146.080000
259.794464	145.860000
259.887390	145.740000
259.980316	145.940000
260.073212	145.900000
260.166138	144.900000
260.259064	145.300000
260.351990	146.060000
260.444916	146.160000
260.537842	146.700000
260.630768	147.940000
260.723694	147.720000
260.816620	147.340000
260.909546	147.260000
261.002472	146.900000
261.095398	146.160000
261.188354	146.140000
261.281281	145.960000
261.374207	146.080000
261.467133	146.860000
261.560089	146.900000
261.653015	146.720000
261.745972	147.220000
261.838867	147.800000
261.931824	147.460000
262.024780	147.200000
262.117706	147.600000
262.210663	147.360000
262.303589	146.880000
262.396515	146.720000
262.489471	147.540000
262.582397	147.560000
262.675354	147.320000
262.768280	147.320000
262.861237	147.340000
262.954163	147.040000
263.047119	146.840000
263.140045	146.720000
263.233002	146.460000
263.325958	146.380000
263.418884	145.800000
263.511841	145.780000
263.604797	146.120000
263.697723	146.360000
263.790680	146.320000
263.883636	146.980000
263.976593	146.700000
264.069550	146.420000
264.162476	146.120000
264.255463	146.140000
264.348419	145.860000
264.441376	146.280000
264.534332	146.060000
264.627289	146.260000
264.720245	146.780000
264.813202	146.340000
264.906158	146.400000
264.999115	146.840000
265.092072	146.760000
265.185028	147.140000
265.277985	147.540000
265.370941	147.140000
265.463898	147.080000
265.556854	146.920000
265.649811	145.800000
265.742798	145.580000
265.835754	145.900000
265.928711	146.100000
266.021667	146.280000
266.114655	146.480000
266.207611	147.120000
266.300568	146.460000
266.393585	145.860000
266.486511	146.140000
266.579498	145.700000
266.672485	145.280000
266.765442	145.640000
266.858429	146.500000
266.951385	146.060000
267.044342	146.400000
267.137329	146.400000
267.230316	146.540000
267.323273	145.960000
267.416260	146.820000
267.509216	146.860000
267.602203	146.840000
267.695160	147.200000
267.788147	147.500000
267.881134	146.680000
267.974091	147.000000
268.067078	146.620000
268.160065	146.300000
268.253052	145.760000
268.346008	145.700000
268.438995	145.240000
268.531982	145.880000
268.624969	145.780000
268.717987	146.320000
268.810944	146.440000
268.903961	146.720000
268.996948	146.100000
269.089905	146.740000
269.182892	146.900000
269.275879	147.200000
269.368866	146.740000
269.461853	147.360000
269.554871	147.060000
269.647858	146.680000
269.740845	147.060000
269.833832	147.540000
269.926819	147.300000
270.019806	147.300000
270.112793	147.140000
270.205811	146.940000
270.298798	146.560000
270.391785	147.020000
270.484772	146.600000
270.577789	146.820000
270.670776	146.500000
270.763763	146.580000
270.856750	146.380000
270.949768	146.180000
271.042786	146.320000
271.135773	146.160000
271.228790	146.580000
271.321808	146.000000
271.414795	145.980000
271.507782	145.600000
271.600800	145.580000
271.693817	145.460000
271.786804	146.200000
271.879822	146.520000
271.972809	146.420000
272.065826	146.980000
272.158844	146.420000
272.251831	146.680000
272.344849	147.000000
272.437866	146.960000
272.530853	146.600000
272.623871	147.140000
272.716888	146.060000
272.809906	146.080000
272.902893	146.180000
272.995911	145.860000
273.088928	145.820000
273.181946	146.260000
273.274963	145.680000
273.367981	145.580000
273.460999	145.940000
273.554047	146.400000
273.647003	146.980000
273.740051	147.180000
273.833069	147.660000
273.926086	147.800000
274.019135	147.320000
274.112152	146.920000
274.205170	146.780000
274.298187	146.820000
274.391205	146.220000
274.484222	146.220000
274.577240	146.080000
274.670258	146.340000
274.763306	146.320000
274.856323	146.920000
274.949341	147.080000
275.042358	147.520000
275.135406	147.460000
275.228424	147.460000
275.321442	147.380000
275.414490	146.920000
275.507507	147.060000
275.600525	147.640000
275.693573	147.320000
275.786591	147.060000
275.879669	147.440000
275.972656	146.780000
276.065735	146.100000
276.158752	146.560000
276.251801	147.280000
276.344818	147.340000
276.437866	147.480000
276.530884	147.400000
276.623932	146.880000
276.716980	146.900000
276.809998	146.820000
276.903046	146.880000
276.996094	147.780000
277.089111	148.520000
277.182159	148.720000
277.275208	148.400000
277.368256	148.340000
277.461304	148.260000
277.554321	147.080000
277.647369	146.760000
277.740417	146.980000
277.833466	146.840000
277.926514	146.220000
278.019562	147.400000
278.112610	146.760000
278.205688	146.940000
278.298706	147.080000
278.391785	146.880000
278.484833	146.340000
278.577881	146.340000
278.670929	146.440000
278.763977	146.520000
278.857025	147.000000
278.950073	146.960000
279.043121	147.140000
279.136169	146.880000
279.229248	146.900000
279.322296	146.960000
279.415344	146.740000
279.508392	146.600000
279.601440	146.420000
279.694519	146.000000
279.787567	145.440000
279.880615	145.580000
279.973694	145.580000
280.066742	145.580000
280.159790	146.100000
280.252869	145.860000
280.345917	145.940000
280.438995	145.640000
280.532074	145.520000
280.625122	145.380000
280.718201	146.600000
280.811279	146.440000
280.904327	146.680000
280.997406	146.780000
281.090454	147.080000
281.183533	146.080000
281.276581	145.980000
281.369659	145.840000
281.462738	145.880000
281.555786	145.800000
281.648865	146.300000
281.741943	146.500000
281.835022	147.080000
281.928070	147.060000
282.021149	146.760000
282.114227	146.620000
282.207306	146.520000
282.300385	146.700000
282.393433	147.080000
282.486511	147.300000
282.579590	147.580000
282.672668	148.020000
282.765747	147.480000
282.858856	147.100000
282.951904	146.900000
283.045013	146.940000
283.138062	147.080000
283.231171	147.180000
283.324249	147.380000
283.417328	147.740000
283.510406	147.200000
283.603485	146.860000
283.696564	146.940000
283.789642	147.240000
283.882751	147.080000
283.975830	147.680000
284.068909	147.240000
284.161987	147.860000
284.255066	147.220000
284.348175	147.140000
284.441254	146.900000
284.534332	147.600000
284.627441	147.000000
284.720520	146.660000
284.813599	146.700000
284.906708	146.580000
284.999786	145.800000
285.092896	145.480000
285.185974	146.700000
285.279053	146.040000
285.372192	146.160000
285.465240	147.120000
285.558380	147.260000
285.651459	147.040000
285.744568	148.180000
285.837677	147.680000
285.930756	147.160000
286.023865	147.180000
286.116943	146.860000
286.210052	146.600000
286.303162	146.800000
286.396240	146.900000
286.489349	146.920000
286.582458	147.140000
286.675568	147.000000
286.768646	147.060000
286.861755	147.500000
286.954865	148.080000
287.047974	147.460000
287.141083	147.440000
287.234161	147.480000
287.327271	146.960000
287.420380	146.880000
287.513519	147.300000
287.606598	147.160000
287.699738	147.440000
287.792816	147.260000
287.885956	146.940000
287.979034	146.900000
288.072174	147.080000
288.165283	146.760000
288.258392	147.220000
288.351501	146.760000
288.444611	147.180000
288.537720	147.300000
288.630859	147.300000
288.723969	147.040000
288.817078	147.640000
288.910187	147.060000
289.003296	146.640000
289.096436	146.220000
289.189545	146.260000
289.282654	145.680000
289.375763	146.140000
289.468903	146.580000
289.562012	146.960000
289.655121	147.120000
289.748260	147.320000
289.841400	147.340000
289.934509	146.980000
290.027649	147.360000
290.120728	147.080000
290.213898	147.220000
290.306976	146.920000
290.400146	146.940000
290.493256	146.380000
290.586395	146.660000
290.679535	147.180000
290.772644	146.800000
290.865784	146.340000
290.958893	146.240000
291.052032	146.000000
291.145172	145.600000
291.238281	145.440000
291.331421	145.660000
291.424561	146.340000
291.517670	146.000000
291.610809	146.360000
291.703949	146.660000
291.797089	146.960000
291.890228	146.680000
291.983337	146.900000
292.076477	146.380000
292.169617	146.720000
292.262756	146.480000
292.355927	146.000000
292.449036	145.640000
292.542206	145.800000
292.635315	145.640000
292.728485	145.980000
292.821625	145.860000
292.914764	147.140000
293.007904	147.300000
293.101044	147.220000
293.194183	146.900000
293.287323	147.180000
293.380463	146.380000
293.473602	145.960000
293.566742	146.100000
293.659882	146.580000
293.753021	146.720000
293.846191	146.940000
293.939331	146.920000
294.032471	147.000000
294.125610	146.520000
294.218781	146.940000
294.311920	147.320000
294.405060	147.520000
294.498230	147.580000
294.591370	147.800000
294.684540	147.160000
294.777679	146.200000
294.870850	146.440000
294.963959	146.300000
295.057159	146.000000
295.150299	146.480000
295.243469	146.840000
295.336609	146.220000
295.429779	146.060000
295.522919	146.380000
295.616089	146.420000
295.709229	146.740000
295.802399	147.000000
295.895569	146.960000
295.988708	146.840000
296.081879	146.960000
296.175018	146.520000
296.268188	146.500000
296.361359	147.040000
296.454529	147.320000
296.547668	147.120000
296.640839	147.300000
296.734009	147.100000
296.827179	146.940000
296.920319	146.840000
297.013519	146.420000
297.106659	146.540000
297.199860	146.380000
297.292999	146.120000
297.386200	145.940000
297.479309	145.860000
297.572510	145.820000
297.665680	145.880000
297.758850	145.920000
297.852020	145.940000
297.945190	145.900000
298.038361	145.760000
298.131531	146.780000
298.224701	146.620000
298.317871	146.220000
298.411072	145.680000
298.504242	145.220000
298.597412	144.580000
298.690582	144.800000
298.783752	145.260000
298.876923	146.080000
298.970093	146.500000
299.063293	146.700000
299.156464	147.100000
299.249634	146.800000
299.342834	147.140000
299.436005	147.420000
299.529205	147.240000
299.622345	146.920000
299.715576	146.720000
299.808716	146.380000
299.901917	146.200000
299.995117	146.500000
300.088287	146.820000
300.181488	146.820000
300.274658	146.560000
300.367828	146.780000
300.461029	146.540000
300.554199	146.700000
300.647400	146.880000
300.740601	147.540000
300.833771	147.160000
300.926971	147.500000
301.020142	146.860000
301.113342	146.960000
301.206512	146.800000
301.299713	146.980000
301.392914	146.920000
301.486084	147.120000
301.579285	146.960000
301.672516	147.260000
301.765686	147.060000
301.858887	146.720000
301.952057	146.740000
302.045288	146.880000
302.138458	146.360000
302.231659	146.300000
302.324860	146.180000
302.418060	145.880000
302.511261	145.960000
302.604462	146.280000
302.697662	146.060000
302.790863	145.960000
302.884064	146.140000
302.977264	146.360000
303.070465	146.400000
303.163666	147.360000
303.256866	147.680000
303.350067	147.380000
303.443268	147.240000
303.536469	147.020000
303.629669	146.380000
303.722870	146.660000
303.816071	146.640000
303.909271	146.340000
304.002472	145.640000
304.095673	145.660000
304.188934	144.820000
304.282104	145.940000
304.375336	146.260000
304.468506	146.740000
304.561768	146.480000
304.654968	147.240000
304.748169	146.440000
304.841370	146.040000
304.934601	146.440000
305.027802	146.340000
305.121002	145.820000
305.214233	145.680000
305.307434	145.860000
305.400665	146.120000
305.493866	146.060000
305.587097	146.420000
305.680298	146.240000
305.773499	146.780000
305.866730	146.380000
305.959930	147.060000
306.053162	147.260000
306.146393	147.420000
306.239594	146.720000
306.332825	146.440000
306.426025	146.360000
306.519287	145.960000
306.612488	146.020000
306.705719	146.160000
306.798920	146.460000
306.892181	146.000000
306.985352	145.680000
307.078613	145.200000
307.171844	145.500000
307.265045	145.160000
307.358276	144.980000
307.451508	145.840000
307.544739	146.580000
307.637970	146.140000
307.731201	146.260000
307.824402	147.040000
307.917633	146.640000
308.010864	147.060000
308.104095	147.780000
308.197327	147.720000
308.290558	147.560000
308.383789	147.380000
308.477020	146.380000
308.570251	145.300000
308.663483	145.000000
308.756714	144.860000
308.849976	144.960000
308.943176	145.680000
309.036438	145.800000
309.129639	145.800000
309.222900	145.880000
309.316101	145.680000
309.409393	145.220000
309.502625	145.200000
309.595856	145.280000
309.689087	145.580000
309.782318	145.700000
309.875580	145.540000
309.968811	145.820000
310.062042	146.080000
310.155273	145.320000
310.248535	145.500000
310.341766	145.520000
310.434998	145.620000
310.528259	145.400000
310.621490	146.080000
310.714722	145.620000
310.807983	145.960000
310.901215	145.760000
310.994476	146.080000
311.087708	145.480000
311.181000	145.900000
311.274200	145.360000
311.367462	145.280000
311.460693	144.720000
311.553986	145.540000
311.647186	145.840000
311.740479	146.420000
311.833710	146.420000
311.926971	146.480000
312.020203	145.580000
312.113464	145.380000
312.206726	144.980000
312.299957	145.300000
312.393219	145.940000
312.486481	146.180000
312.579712	145.920000
312.672974	145.980000
312.766235	146.000000
312.859497	145.920000
312.952759	146.120000
313.045990	146.680000
313.139252	146.500000
313.232513	146.740000
313.325775	146.900000
313.419037	146.580000
313.512299	145.660000
313.605530	146.200000
313.698822	146.120000
313.792053	145.820000
313.885345	145.760000
313.978577	145.980000
314.071869	145.220000
314.165131	145.360000
314.258392	145.720000
314.351654	145.740000
314.444916	145.420000
314.538177	146.380000
314.631439	146.340000
314.724701	146.040000
314.817993	145.980000
314.911255	146.460000
315.004517	145.620000
315.097778	145.540000
315.191040	146.140000
315.284302	146.720000
315.377594	146.580000
315.470856	146.800000
315.564117	146.120000
315.657379	145.340000
315.750671	144.860000
315.843933	145.400000
315.937195	145.040000
316.030518	145.060000
316.123749	145.100000
316.217041	146.000000
316.310303	145.540000
316.403595	146.260000
316.496857	146.760000
316.590149	147.180000
316.683411	146.260000
316.776703	146.180000
316.869965	145.880000
316.963257	145.600000
317.056519	144.700000
317.149811	144.640000
317.243073	144.560000
317.336365	144.780000
317.429626	145.160000
317.522919	145.780000
317.616180	145.820000
317.709473	145.620000
317.802765	145.260000
317.896027	145.260000
317.989319	145.380000
318.082611	145.220000
318.175873	145.360000
318.269165	145.640000
318.362488	145.360000
318.455750	145.300000
318.549042	145.900000
318.642303	146.580000
318.735626	146.200000
318.828888	146.580000
318.922211	146.140000
319.015472	146.540000
319.108765	145.620000
319.202057	145.700000
319.295349	145.260000
319.388641	145.400000
319.481934	144.900000
319.575226	145.020000
319.668518	145.240000
319.761810	145.440000
319.855103	145.740000
319.948395	145.900000
320.041687	146.200000
320.134979	146.080000
320.228271	145.920000
320.321564	145.580000
320.414856	145.180000
320.508148	144.980000
320.601440	145.040000
320.694763	145.020000
320.788025	145.800000
320.881348	145.860000
320.974640	146.040000
321.067963	145.640000
321.161224	146.000000
321.254547	145.100000
321.347839	146.060000
321.441162	145.820000
321.534454	146.060000
321.627747	145.560000
321.721069	146.200000
321.814362	145.700000
321.907654	146.000000
322.000946	146.200000
322.094269	147.020000
322.187561	146.600000
322.280884	146.960000
322.374176	147.040000
322.467468	147.560000
322.560791	147.480000
322.654083	148.240000
322.747406	148.100000
322.840698	148.020000
322.934021	147.940000
323.027344	147.920000
323.120636	147.320000
323.213959	147.120000
323.307251	146.780000
323.400574	146.360000
323.493866	145.920000
323.587219	146.120000
323.680511	146.160000
323.773834	146.460000
323.867157	146.640000
323.960449	146.700000
324.053772	146.580000
324.147095	146.400000
324.240387	146.900000
324.333710	146.740000
324.427032	146.800000
324.520355	146.940000
324.613647	146.980000
324.706970	146.540000
324.800293	146.440000
324.893616	146.580000
324.986938	146.540000
325.080231	146.280000
325.173553	146.600000
325.266876	147.020000
325.360199	146.860000
325.453522	146.460000
325.546875	146.300000
325.640167	146.460000
325.733521	146.580000
325.826813	146.980000
325.920166	146.800000
326.013489	146.880000
326.106812	146.100000
326.200134	145.680000
326.293457	144.940000
326.386780	145.480000
326.480103	145.500000
326.573425	145.700000
326.666748	145.740000
326.760071	146.180000
326.853424	145.860000
326.946747	146.080000
327.040070	146.480000
327.133392	146.300000
327.226715	145.860000
327.320068	145.820000
327.413391	146.040000
327.506714	145.480000
327.600037	145.440000
327.693390	145.660000
327.786713	145.840000
327.880066	145.380000
327.973358	145.800000
328.066742	146.460000
328.160034	146.640000
328.253418	146.860000
328.346710	146.640000
328.440063	146.000000
328.533417	145.440000
328.626740	145.620000
328.720093	145.260000
328.813416	145.500000
328.906769	145.720000
329.000092	146.120000
329.093445	145.700000
329.186768	145.360000
329.280121	145.900000
329.373444	146.280000
329.466797	145.980000
329.560120	146.420000
329.653473	147.020000
329.746796	146.500000
329.840149	146.300000
329.933502	146.260000
330.026825	146.040000
330.120178	145.960000
330.213562	146.060000
330.306854	146.000000
330.400238	145.940000
330.493561	145.660000
330.586945	146.160000
330.680237	146.180000
330.773621	146.460000
330.866974	146.660000
330.960327	147.080000
331.053680	146.520000
331.147003	146.800000
331.240356	146.900000
331.333710	146.800000
331.427063	146.700000
331.520416	146.660000
331.613770	146.140000
331.707123	145.920000
331.800476	146.020000
331.893829	146.760000
331.987152	146.940000
332.080505	147.280000
332.173859	147.340000
332.267212	146.760000
332.360565	146.000000
332.453918	145.560000
332.547333	145.260000
332.640656	145.300000
332.734039	145.660000
332.827362	145.760000
332.920746	146.600000
333.014069	146.980000
333.107452	147.180000
333.200806	147.360000
333.294159	147.200000
333.387543	146.680000
333.480896	146.340000
333.574249	146.040000
333.667603	145.780000
333.760956	146.100000
333.854340	146.140000
333.947693	146.400000
334.041046	146.740000
334.134430	147.220000
334.227783	146.660000
334.321136	146.560000
334.414520	146.180000
334.507874	146.020000
334.601227	145.600000
334.694611	145.940000
334.787964	145.980000
334.881348	146.460000
334.974701	146.560000
335.068085	146.620000
335.161438	146.780000
335.254822	146.600000
335.348175	146.500000
335.441559	146.040000
335.534943	146.720000
335.628296	146.380000
335.721680	146.600000
335.815033	146.320000
335.908417	146.640000
336.001770	146.300000
336.095154	146.240000
336.188538	145.740000
336.281891	145.640000
336.375275	145.260000
336.468658	144.820000
336.562012	144.820000
336.655396	145.400000
336.748779	145.840000
336.842133	146.220000
336.935516	146.620000
337.028900	146.360000
337.122284	146.280000
337.215637	146.560000
337.309021	146.020000
337.402435	145.580000
337.495789	145.880000
337.589203	145.720000
337.682526	145.120000
337.775940	145.800000
337.869324	146.060000
337.962708	145.840000
338.056091	146.160000
338.149475	145.940000
338.242859	146.040000
338.336243	145.900000
338.429626	146.240000
338.523010	146.220000
338.616394	145.960000
338.709778	145.660000
338.803162	145.760000
338.896545	145.840000
338.989929	145.500000
339.083313	146.280000
339.176697	145.860000
339.270081	145.940000
339.363464	146.060000
339.456848	146.580000
339.550232	145.740000
339.643616	145.880000
339.737030	145.480000
339.830383	145.020000
339.923828	144.640000
340.017181	145.360000
340.110596	145.840000
340.203949	146.040000
340.297363	146.000000
340.390778	146.140000
340.484161	145.920000
340.577545	145.540000
340.670959	145.660000
340.764343	145.660000
340.857727	145.860000
340.951111	145.400000
341.044525	145.720000
341.137909	145.340000
341.231293	145.300000
341.324707	144.780000
341.418091	145.820000
341.511505	145.520000
341.604889	146.020000
341.698303	146.260000
341.791687	146.460000
341.885071	145.820000
341.978485	145.820000
342.071899	146.060000
342.165283	146.400000
342.258698	146.560000
342.352081	146.940000
342.445496	147.280000
342.538879	146.980000
342.632324	146.560000
342.725708	146.680000
342.819122	146.420000
342.912506	146.120000
343.005920	146.100000
343.099335	146.880000
343.192719	146.520000
343.286133	146.560000
343.379547	146.360000
343.472931	146.480000
343.566345	145.720000
343.659760	145.920000
343.753143	145.680000
343.846558	145.600000
343.939972	145.200000
344.033386	146.000000
344.126770	145.720000
344.220184	145.960000
344.313599	146.820000
344.407043	147.140000
344.500427	146.220000
344.593872	146.800000
344.687225	146.420000
344.780670	145.460000
344.874054	145.280000
344.967499	145.920000
345.060913	145.780000
345.154327	146.160000
345.247742	146.280000
345.341156	146.060000
345.434570	145.460000
345.527985	145.180000
345.621399	145.100000
345.714813	145.520000
345.808228	145.940000
345.901642	146.020000
345.995056	145.780000
346.088470	145.940000
346.181885	145.660000
346.275299	145.440000
346.368713	145.560000
346.462128	145.520000
346.555573	145.420000
346.648987	145.820000
346.742401	146.060000
346.835815	146.380000
346.929260	146.280000
347.022644	146.160000
347.116119	145.960000
347.209503	146.120000
347.302948	146.720000
347.396362	147.680000
347.489807	148.040000
347.583221	148.660000
347.676636	148.260000
347.770050	147.120000
347.863495	146.160000
347.956909	145.900000
348.050323	145.280000
348.143768	145.320000
348.237183	145.340000
348.330597	146.160000
348.424042	146.480000
348.517456	146.820000
348.610901	147.020000
348.704315	147.140000
348.797760	146.240000
348.891174	145.400000
348.984619	144.800000
349.078033	145.240000
349.171448	145.800000
349.264923	146.280000
349.358337	146.680000
349.451782	146.940000
349.545197	146.360000
349.638641	145.660000
349.732086	145.240000
349.825500	145.580000
349.918945	144.960000
350.012390	144.960000
350.105804	145.600000
350.199249	145.940000
350.292664	146.120000
350.386108	146.860000
350.479553	147.720000
350.572968	147.560000
350.666412	147.820000
350.759857	147.620000
350.853302	148.100000
350.946716	147.080000
351.040161	146.960000
351.133606	146.620000
351.227081	146.640000
351.320465	146.720000
351.413940	146.880000
351.507355	147.240000
351.600830	147.420000
351.694244	146.900000
351.787720	146.640000
351.881104	146.660000
351.974579	146.160000
352.067993	146.860000
352.161469	147.240000
352.254883	146.460000
352.348358	146.360000
352.441803	146.380000
352.535248	145.940000
352.628693	146.060000
352.722137	146.220000
352.815582	146.300000
352.909027	146.360000
353.002472	146.080000
353.095917	145.780000
353.189362	146.040000
353.282806	146.180000
353.376251	145.900000
353.469696	145.620000
353.563141	146.200000
353.656586	145.860000
353.750061	145.580000
353.843475	145.580000
353.936981	146.080000
354.030396	145.440000
354.123871	145.580000
354.217285	146.320000
354.310760	146.800000
354.404175	146.640000
354.497681	146.380000
354.591095	146.340000
354.684570	145.260000
354.777985	145.100000
354.871490	144.920000
354.964935	145.740000
355.058380	146.200000
355.151855	146.300000
355.245300	146.860000
355.338745	146.980000
355.432220	146.440000
355.525665	145.780000
355.619110	146.360000
355.712585	145.540000
355.806030	145.540000
355.899475	145.600000
355.992950	146.320000
356.086426	146.500000
356.179871	146.960000
356.273346	147.040000
356.366791	147.060000
356.460266	146.860000
356.553711	146.460000
356.647186	146.280000
356.740631	146.040000
356.834106	145.840000
356.927551	146.040000
357.021027	146.040000
357.114471	146.160000
357.207947	146.300000
357.301422	146.820000
357.394867	146.760000
357.488342	147.000000
357.581818	147.020000
357.675262	147.180000
357.768738	146.820000
357.862213	146.300000
357.955658	146.200000
358.049133	145.740000
358.142609	145.960000
358.236053	146.220000
358.329529	145.860000
358.423035	146.220000
358.516449	146.200000
358.609955	146.300000
358.703400	146.920000
358.796906	147.520000
358.890350	146.860000
358.983826	147.040000
359.077271	146.500000
359.170776	145.560000
359.264221	145.480000
359.357727	145.840000
359.451172	146.300000
359.544647	146.400000
359.638123	146.560000
359.731598	146.960000
359.825073	147.120000
359.918549	146.920000
360.012024	146.900000
360.105499	146.400000
360.198975	146.180000
360.292450	145.880000
360.385925	145.560000
360.479401	145.480000
360.572876	146.040000
360.666351	146.320000
360.759857	146.340000
360.853302	146.640000
360.946808	146.140000
361.040253	146.280000
361.133759	145.700000
361.227203	146.000000
361.320709	145.520000
361.414154	146.180000
361.507660	146.260000
361.601105	146.920000
361.694641	147.180000
361.788086	147.340000
361.881592	147.360000
361.975067	146.760000
362.068542	146.700000
362.162018	146.440000
362.255524	146.120000
362.348999	146.040000
362.442474	146.400000
362.535950	145.660000
362.629456	145.400000
362.722931	145.540000
362.816406	145.960000
362.909882	146.300000
363.003387	146.500000
363.096863	146.820000
363.190338	147.000000
363.283875	146.640000
363.377319	146.480000
363.470825	146.980000
363.564301	146.240000
363.657806	146.220000
363.751282	146.300000
363.844788	146.940000
363.938232	146.280000
364.031769	147.080000
364.125214	147.380000
364.218750	147.920000
364.312225	146.780000
364.405731	147.060000
364.499207	146.460000
364.592712	146.300000
364.686188	145.600000
364.779694	145.860000
364.873169	145.920000
364.966675	146.180000
365.060150	145.920000
365.153656	146.280000
365.247131	146.320000
365.340637	146.280000
365.434143	146.560000
365.527618	146.860000
365.621155	145.980000
365.714600	146.060000
365.808136	146.420000
365.901611	145.400000
365.995117	144.880000
366.088593	145.200000
366.182129	145.100000
366.275604	145.080000
366.369110	145.640000
366.462585	145.840000
366.556122	146.680000
366.649567	146.760000
366.743103	146.840000
366.836609	146.580000
366.930115	146.920000
367.023590	146.700000
367.117096	146.680000
367.210602	146.240000
367.304108	147.040000
367.397614	147.380000
367.491119	147.460000
367.584595	147.400000
367.678101	147.580000
367.771606	147.060000
367.865112	146.580000
367.958649	145.680000
368.052124	145.580000
368.145660	145.440000
368.239136	145.960000
368.332672	146.160000
368.426147	146.600000
368.519684	146.480000
368.613159	146.920000
368.706696	146.480000
368.800171	145.980000
368.893707	146.060000
368.987183	146.400000
369.080719	146.220000
369.174225	145.980000
369.267731	146.600000
369.361237	146.320000
369.454742	146.220000
369.548248	146.280000
369.641754	146.200000
369.735260	146.000000
369.828766	145.620000
369.922272	146.060000
370.015808	145.760000
370.109314	145.940000
370.202820	145.620000
370.296356	146.920000
370.389832	146.380000
370.483368	146.120000
370.576874	145.800000
370.670410	146.200000
370.763885	144.960000
370.857422	144.940000
370.950928	145.260000
371.044464	146.060000
371.137939	146.100000
371.231476	146.700000
371.324982	147.420000
371.418518	147.180000
371.512024	146.960000
371.605560	146.660000
371.699066	146.720000
371.792572	145.900000
371.886108	146.300000
371.979614	145.760000
372.073120	146.220000
372.166656	145.940000
372.260162	146.520000
372.353668	146.440000
372.447205	146.540000
372.540710	146.260000
372.634277	146.220000
372.727753	146.020000
372.821320	145.940000
372.914795	146.100000
373.008362	145.940000
373.101837	146.220000
373.195404	146.040000
373.288879	146.040000
373.382446	146.860000
373.475922	146.880000
373.569489	147.220000
373.662964	147.660000
373.756531	147.440000
373.850037	147.100000
373.943573	147.020000
374.037109	145.980000
374.130615	145.860000
374.224152	146.080000
374.317657	145.660000
374.411194	146.460000
374.504730	146.840000
374.598236	146.480000
374.691772	146.140000
374.785309	146.460000
374.878815	145.500000
374.972351	145.980000
375.065887	146.100000
375.159454	147.040000
375.252930	146.760000
375.346497	146.840000
375.440002	147.100000
375.533569	147.000000
375.627045	146.240000
375.720612	146.060000
375.814117	146.500000
375.907684	145.860000
376.001160	145.540000
376.094727	145.140000
376.188232	146.100000
376.281799	146.160000
376.375336	146.060000
376.468872	146.900000
376.562408	147.260000
376.655914	146.480000
376.749451	146.500000
376.842987	147.020000
376.936523	146.540000
377.030060	146.700000
377.123596	147.240000
377.217133	146.760000
377.310669	146.660000
377.404205	147.140000
377.497772	147.440000
377.591278	146.840000
377.684845	148.040000
377.778351	148.000000
377.871918	147.480000
377.965424	146.880000
378.058990	146.660000
378.152496	145.880000
378.246063	145.900000
378.339569	146.220000
378.433136	146.120000
378.526642	146.560000
378.620209	146.340000
378.713745	145.960000
378.807312	146.340000
378.900848	146.500000
378.994385	146.420000
379.087921	145.780000
379.181458	146.120000
379.274994	145.360000
379.368530	145.440000
379.462097	145.680000
379.555634	146.260000
379.649170	145.820000
379.742706	145.940000
379.836273	146.060000
379.929810	145.680000
380.023376	145.580000
380.116882	145.640000
380.210449	145.520000
380.303986	145.340000
380.397552	145.060000
380.491058	145.140000
380.584656	145.340000
380.678162	145.400000
380.771729	145.180000
380.865265	145.840000
380.958832	146.100000
381.052368	146.120000
381.145935	146.520000
381.239471	147.100000
381.333008	146.820000
381.426575	146.800000
381.520111	147.100000
381.613647	147.180000
381.707214	146.520000
381.800751	146.160000
381.894318	146.160000
381.987854	145.360000
382.081421	144.980000
382.174988	145.600000
382.268524	145.520000
382.362091	145.380000
382.455627	146.580000
382.549194	146.640000
382.642731	145.640000
382.736298	145.780000
382.829834	145.620000
382.923401	145.600000
383.016937	145.580000
383.110504	146.640000
383.204041	146.660000
383.297607	146.940000
383.391174	146.000000
383.484741	146.620000
383.578278	145.960000
383.671844	146.000000
383.765411	145.440000
383.858948	146.040000
383.952515	145.660000
384.046051	146.300000
384.139618	146.600000
384.233185	147.140000
384.326721	146.700000
384.420288	147.040000
384.513855	146.720000
384.607422	146.640000
384.700989	146.460000
384.794525	146.340000
384.888123	146.120000
384.981659	146.480000
385.075226	146.060000
385.168762	145.940000
385.262360	146.120000
385.355896	145.260000
385.449463	144.880000
385.542999	145.160000
385.636597	145.860000
385.730164	145.940000
385.823730	145.860000
385.917267	145.640000
386.010834	145.740000
386.104401	145.460000
386.197968	145.560000
386.291534	146.360000
386.385101	146.580000
386.478668	146.860000
386.572235	146.820000
386.665802	146.460000
386.759338	146.040000
386.852905	146.020000
386.946472	145.600000
387.040070	145.700000
387.133606	145.880000
387.227203	145.700000
387.320740	145.680000
387.414337	145.620000
387.507874	145.500000
387.601471	145.840000
387.695007	145.920000
387.788605	145.560000
387.882141	145.960000
387.975739	145.800000
388.069275	145.380000
388.162872	145.940000
388.256439	146.300000
388.350037	146.120000
388.443604	145.880000
388.537170	145.760000
388.630737	145.720000
388.724304	146.100000
388.817871	145.960000
388.911438	146.300000
389.005005	146.860000
389.098602	147.040000
389.192169	146.320000
389.285736	146.700000
389.379333	146.620000
389.472870	145.940000
389.566467	145.680000
389.660034	146.100000
389.753632	145.560000
389.847168	145.980000
389.940765	146.460000
390.034332	146.420000
390.127930	146.100000
390.221466	146.200000
390.315063	145.420000
390.408630	144.780000
390.502228	144.280000
390.595795	144.480000
390.689362	144.520000
390.782959	144.880000
390.876526	145.520000
390.970093	145.560000
391.063690	146.120000
391.157257	146.260000
391.250824	146.680000
391.344421	146.580000
391.437988	147.240000
391.531555	146.980000
391.625153	147.020000
391.718750	146.960000
391.812317	146.840000
391.905914	146.460000
391.999481	146.520000
392.093079	146.580000
392.186615	146.960000
392.280243	146.960000
392.373779	146.860000
392.467407	147.220000
392.560944	147.000000
392.654572	146.240000
392.748108	146.300000
392.841736	146.480000
392.935303	145.660000
393.028900	145.620000
393.122467	145.700000
393.216064	145.320000
393.309631	145.080000
393.403229	145.240000
393.496796	145.280000
393.590393	144.880000
393.683990	145.300000
393.777557	146.000000
393.871155	146.280000
393.964722	146.700000
394.058350	146.940000
394.151917	146.980000
394.245514	146.400000
394.339081	146.480000
394.432678	146.360000
394.526245	146.620000
394.619873	146.120000
394.713409	146.360000
394.807037	146.160000
394.900604	146.220000
394.994202	146.320000
395.087769	146.840000
395.181396	146.480000
395.274994	147.140000
395.368561	146.380000
395.462158	146.300000
395.555756	145.880000
395.649353	146.520000
395.742920	145.960000
395.836517	146.960000
395.930115	146.460000
396.023712	146.800000
396.117279	146.620000
396.210876	146.060000
396.304474	145.720000
396.398071	145.960000
396.491669	146.060000
396.585266	145.940000
396.678833	146.080000
396.772461	146.240000
396.866028	146.220000
396.959656	146.520000
397.053223	146.660000
397.146851	146.800000
397.240417	147.020000
397.334015	148.020000
397.427582	147.740000
397.521210	148.240000
397.614807	149.480000
397.708405	150.060000
397.802002	150.880000
397.895599	152.940000
397.989197	154.580000
398.082794	155.940000
398.176392	158.600000
398.269989	161.320000
398.363586	164.140000
398.457184	168.220000
398.550781	172.540000
398.644379	175.680000
398.737976	178.920000
398.831573	182.400000
398.925201	184.800000
399.018768	187.020000
399.112396	190.260000
399.205963	193.240000
399.299591	196.780000
399.393158	200.360000
399.486786	205.180000
399.580353	209.240000
399.673981	213.160000
399.767578	216.600000
399.861206	220.560000
399.954773	223.740000
400.048401	226.160000
400.141998	227.440000
400.235596	228.180000
400.329193	226.900000
400.422791	225.100000
400.516418	222.560000
400.610016	220.600000
400.703613	218.220000
400.797211	215.060000
400.890808	211.320000
400.984436	208.400000
401.078033	204.300000
401.171631	200.060000
401.265259	196.100000
401.358826	192.340000
401.452484	187.460000
401.546051	183.700000
401.639679	178.960000
401.733246	175.280000
401.826904	170.720000
401.920471	166.700000
402.014099	162.860000
402.107697	159.740000
402.201324	156.900000
402.294891	155.040000
402.388550	153.420000
402.482147	151.760000
402.575745	150.420000
402.669373	149.060000
402.762970	148.080000
402.856567	147.660000
402.950195	147.560000
403.043793	147.100000
403.137390	147.680000
403.231018	147.020000
403.324615	147.540000
403.418243	147.120000
403.511841	147.600000
403.605469	146.940000
403.699066	147.460000
403.792694	147.160000
403.886292	147.400000
403.979919	147.280000
404.073517	147.100000
404.167145	147.280000
404.260712	147.160000
404.354370	146.720000
404.447937	146.680000
404.541595	146.960000
404.635162	146.880000
404.728821	147.220000
404.822418	147.180000
404.916046	146.940000
405.009644	147.100000
405.103271	147.400000
405.196899	146.740000
405.290497	146.880000
405.384125	147.240000
405.477722	146.880000
405.571350	146.020000
405.664948	146.340000
405.758575	146.400000
405.852203	146.140000
405.945801	146.120000
406.039429	146.280000
406.133057	145.920000
406.226654	145.660000
406.320312	145.400000
406.413879	145.800000
406.507538	146.240000
406.601135	146.060000
406.694763	146.600000
406.788361	146.420000
406.882019	145.900000
406.975586	146.240000
407.069244	147.000000
407.162872	146.760000
407.256470	147.080000
407.350098	147.020000
407.443726	146.400000
407.537323	145.480000
407.630951	145.720000
407.724579	145.220000
407.818207	146.000000
407.911804	145.920000
408.005432	146.040000
408.099060	146.040000
408.192688	146.700000
408.286285	146.120000
408.379913	145.940000
408.473572	146.180000
408.567169	145.600000
408.660828	145.640000
408.754395	145.540000
408.848053	145.700000
408.941650	145.800000
409.035309	145.600000
409.128906	145.420000
409.222565	145.600000
409.316132	145.580000
409.409790	145.560000
409.503387	145.880000
409.597046	146.000000
409.690674	145.860000
409.784302	146.220000
409.877930	146.200000
409.971558	146.420000
410.065186	146.140000
410.158783	146.160000
410.252411	146.040000
410.346039	146.240000
410.439667	146.180000
410.533295	146.460000
410.626923	146.900000
410.720551	146.480000
410.814209	146.720000
410.907806	146.900000
411.001465	146.400000
411.095062	146.020000
411.188721	146.220000
411.282318	146.020000
411.375977	145.520000
411.469574	146.000000
411.563232	146.020000
411.656830	145.920000
411.750488	145.640000
411.844086	145.760000
411.937744	145.800000
412.031372	145.820000
412.125000	145.720000
412.218628	146.000000
412.312256	146.700000
412.405884	146.780000
412.499512	146.480000
412.593170	146.800000
412.686798	147.040000
412.780426	146.540000
412.874054	146.940000
412.967682	147.160000
413.061310	147.640000
413.154968	147.420000
413.248566	147.360000
413.342224	146.780000
413.435852	147.160000
413.529510	146.620000
413.623108	146.160000
413.716766	146.100000
413.810364	146.560000
413.904022	146.060000
413.997650	146.040000
414.091309	147.000000
414.184906	146.960000
414.278564	146.240000
414.372192	146.720000
414.465851	146.860000
414.559479	146.320000
414.653107	147.300000
414.746735	147.520000
414.840393	147.300000
414.934021	147.620000
415.027649	146.860000
415.121277	146.340000
415.214935	146.660000
415.308563	146.720000
415.402191	145.980000
415.495850	146.480000
415.589478	146.340000
415.683136	146.160000
415.776733	146.260000
415.870422	147.220000
415.964020	146.760000
416.057678	146.620000
416.151306	146.780000
416.244965	146.500000
416.338562	146.040000
416.432251	146.800000
416.525848	147.560000
416.619507	147.880000
416.713165	148.400000
416.806793	148.260000
416.900421	148.220000
416.994080	147.360000
417.087708	146.900000
417.181366	146.240000
417.274994	146.080000
417.368622	146.320000
417.462280	146.820000
417.555908	146.340000
417.649567	146.160000
417.743195	146.320000
417.836853	146.340000
417.930481	146.340000
418.024170	147.060000
418.117767	147.980000
418.211426	148.380000
418.305054	148.300000
418.398712	147.720000
418.492340	147.620000
418.585999	147.440000
418.679626	147.140000
418.773285	146.920000
418.866913	147.560000
418.960571	147.660000
419.054230	147.780000
419.147858	148.200000
419.241516	148.160000
419.335144	147.720000
419.428802	147.380000
419.522461	146.920000
419.616089	146.020000
419.709747	146.460000
419.803375	146.780000
419.897034	146.520000
419.990662	146.620000
420.084320	147.280000
420.177979	147.200000
420.271606	147.100000
420.365295	147.800000
420.458893	147.840000
420.552582	147.940000
420.646210	147.680000
420.739868	147.420000
420.833496	147.220000
420.927155	146.760000
421.020782	146.380000
421.114471	146.060000
421.208069	146.260000
421.301758	146.440000
421.395386	146.960000
421.489044	146.900000
421.582703	147.180000
421.676361	147.780000
421.769989	147.520000
421.863647	147.860000
421.957306	147.880000
422.050934	147.960000
422.144592	147.300000
422.238251	147.100000
422.331909	146.280000
422.425537	146.480000
422.519196	146.440000
422.612854	146.260000
422.706543	145.940000
422.800140	146.420000
422.893829	146.020000
422.987457	145.720000
423.081146	145.680000
423.174744	146.440000
423.268433	145.800000
423.362061	145.640000
423.455750	145.520000
423.549347	145.800000
423.643036	145.020000
423.736664	145.840000
423.830353	146.200000
423.924011	146.820000
424.017639	146.360000
424.111298	146.540000
424.204956	146.360000
424.298615	146.200000
424.392273	145.920000
424.485931	146.180000
424.579559	146.420000
424.673218	146.120000
424.766876	146.280000
424.860535	145.960000
424.954193	145.700000
425.047882	146.140000
425.141510	146.220000
425.235199	146.180000
425.328796	145.960000
425.422485	146.100000
425.516113	144.960000
425.609802	145.120000
425.703430	145.060000
425.797119	145.500000
425.890747	145.560000
425.984436	146.140000
426.078064	146.020000
426.171753	146.200000
426.265411	145.720000
426.359070	145.920000
426.452728	145.860000
426.546356	145.880000
426.640015	145.740000
426.733673	146.240000
426.827332	145.940000
426.920990	146.500000
427.014648	146.000000
427.108307	146.460000
427.201965	146.800000
427.295624	147.200000
427.389282	146.440000
427.482941	146.900000
427.576630	146.580000
427.670258	145.860000
427.763947	145.520000
427.857574	145.760000
427.951263	145.680000
428.044922	145.460000
428.138611	145.720000
428.232239	145.980000
428.325928	146.280000
428.419556	146.660000
428.513245	146.440000
428.606903	146.400000
428.700562	145.880000
428.794220	145.340000
428.887878	144.840000
428.981537	145.360000
429.075195	145.640000
429.168854	146.240000
429.262512	146.340000
429.356201	146.460000
429.449860	146.380000
429.543518	146.160000
429.637177	146.060000
429.730835	146.180000
429.824493	145.980000
429.918182	145.960000
430.011810	145.540000
430.105530	145.080000
430.199158	145.240000
430.292847	145.440000
430.386475	145.260000
430.480164	145.020000
430.573792	145.080000
430.667511	144.520000
430.761139	144.680000
430.854828	145.240000
430.948456	145.600000
431.042145	146.300000
431.135834	146.620000
431.229492	146.740000
431.323151	146.540000
431.416809	146.800000
431.510468	146.340000
431.604156	146.240000
431.697815	146.060000
431.791473	145.740000
431.885132	145.240000
431.978821	145.340000
432.072479	145.500000
432.166138	145.760000
432.259827	145.600000
432.353485	146.180000
432.447174	146.100000
432.540802	146.000000
432.634491	145.980000
432.728149	146.360000
432.821838	146.680000
432.915466	146.720000
433.009186	146.760000
433.102814	146.020000
433.196503	145.920000
433.290131	145.360000
433.383850	145.360000
433.477509	145.720000
433.571167	146.660000
433.664856	146.800000
433.758514	147.600000
433.852173	147.560000
433.945862	147.220000
434.039520	147.040000
434.133179	146.760000
434.226868	146.100000
434.320526	145.620000
434.414185	146.160000
434.507874	145.680000
434.601562	145.780000
434.695221	145.900000
434.788910	146.340000
434.882538	146.340000
434.976257	146.200000
435.069885	146.580000
435.163574	146.320000
435.257233	145.980000
435.350922	145.720000
435.444580	145.500000
435.538269	144.840000
435.631897	145.200000
435.725616	145.940000
435.819275	146.360000
435.912964	147.100000
436.006622	147.800000
436.100311	147.520000
436.193970	146.700000
436.287628	146.060000
436.381317	145.860000
436.474976	145.000000
436.568665	144.980000
436.662323	145.320000
436.756012	145.260000
436.849670	144.900000
436.943390	145.420000
437.037018	145.220000
437.130737	145.080000
437.224365	144.880000
437.318085	145.260000
437.411713	145.360000
437.505432	145.980000
437.599060	146.460000
437.692780	147.180000
437.786407	147.160000
437.880127	146.820000
437.973755	146.360000
438.067474	146.080000
438.161133	145.900000
438.254822	146.300000
438.348480	146.440000
438.442169	147.080000
438.535828	147.340000
438.629517	146.920000
438.723175	146.100000
438.816864	146.580000
438.910553	145.980000
439.004211	145.640000
439.097900	145.780000
439.191559	146.180000
439.285248	145.220000
439.378906	145.540000
439.472626	145.640000
439.566284	145.160000
439.659973	145.360000
439.753632	145.580000
439.847321	145.800000
439.940979	145.920000
440.034698	146.480000
440.128326	146.080000
440.222046	146.040000
440.315674	145.180000
440.409393	145.520000
440.503082	145.180000
440.596741	145.280000
440.690430	145.540000
440.784088	145.880000
440.877777	145.080000
440.971466	145.360000
441.065125	145.320000
441.158813	145.020000
441.252502	145.080000
441.346161	145.560000
441.439850	145.720000
441.533539	145.440000
441.627197	145.740000
441.720886	145.800000
441.814606	145.940000
441.908234	146.340000
442.001953	146.560000
442.095612	146.720000
442.189301	147.060000
442.282959	146.980000
442.376678	145.980000
442.470306	146.780000
442.564026	146.400000
442.657684	146.460000
442.751404	146.220000
442.845032	147.380000
442.938751	146.500000
443.032440	146.820000
443.126099	146.120000
443.219788	146.540000
443.313477	146.060000
443.407166	146.560000
443.500824	146.660000
443.594513	147.240000
443.688202	147.260000
443.781891	146.840000
443.875549	146.340000
443.969238	146.180000
444.062927	146.100000
444.156647	145.740000
444.250275	146.420000
444.343994	146.460000
444.437653	146.480000
444.531372	146.420000
444.625031	146.380000
444.718719	145.680000
444.812378	145.920000
444.906097	145.720000
444.999756	145.160000
445.093445	145.160000
445.187103	145.620000
445.280823	146.120000
445.374512	145.860000
445.468201	146.300000
445.561859	146.400000
445.655548	146.200000
445.749237	145.220000
445.842926	145.620000
445.936615	145.940000
446.030304	145.560000
446.123962	145.700000
446.217651	145.860000
446.311340	145.700000
446.405029	145.160000
446.498749	145.380000
446.592407	145.180000
446.686096	145.660000
446.779755	145.860000
446.873474	146.120000
446.967133	146.340000
447.060852	146.240000
447.154510	145.900000
447.248230	146.180000
447.341858	146.100000
447.435577	145.560000
447.529236	145.300000
447.622955	145.320000
447.716644	145.100000
447.810333	145.300000
447.904022	146.000000
447.997711	146.080000
448.091400	146.440000
448.185059	146.540000
448.278748	146.640000
448.372437	146.300000
448.466125	146.560000
448.559814	146.280000
448.653503	146.520000
448.747192	146.720000
448.840912	147.040000
448.934570	147.040000
449.028290	147.500000
449.121948	146.920000
449.215637	146.400000
449.309296	145.800000
449.403015	146.020000
449.496674	145.660000
449.590393	145.720000
449.684052	145.560000
449.777771	146.460000
449.871429	145.800000
449.965149	145.760000
450.058838	145.860000
450.152527	146.600000
450.246216	145.980000
450.339905	146.440000
450.433594	146.340000
450.527283	147.320000
450.620972	146.960000
450.714661	147.160000
450.808350	147.000000
450.902039	147.520000
450.995728	146.820000
451.089417	146.500000
451.183105	146.520000
451.276794	147.280000
451.370514	146.560000
451.464172	145.940000
451.557892	146.060000
451.651550	146.380000
451.745270	145.760000
451.838928	145.640000
451.932648	146.220000
452.026306	146.720000
452.120026	145.920000
452.213684	146.220000
452.307404	146.380000
452.401062	146.440000
452.494781	146.280000
452.588470	146.760000
452.682159	146.160000
452.775848	146.240000
452.869537	145.600000
452.963226	145.100000
453.056915	144.940000
453.150604	145.140000
453.244293	145.200000
453.337982	146.080000
453.431671	146.640000
453.525360	146.940000
453.619049	147.220000
453.712769	147.100000
453.806427	146.560000
453.900146	145.840000
453.993805	145.700000
454.087555	145.900000
454.181213	146.080000
454.274933	145.960000
454.368591	146.340000
454.462311	146.140000
454.555969	145.580000
454.649689	146.360000
454.743347	146.280000
454.837067	146.860000
454.930756	147.560000
455.024445	147.740000
455.118134	147.160000
455.211853	147.320000
455.305542	146.380000
455.399231	145.960000
455.492920	145.940000
455.586609	145.740000
455.680298	145.960000
455.773987	146.140000
455.867676	145.740000
455.961365	146.080000
456.055084	145.900000
456.148773	145.580000
456.242493	145.700000
456.336151	145.820000
456.429871	145.780000
456.523529	146.260000
456.617249	145.940000
456.710907	146.460000
456.804626	146.460000
456.898315	146.200000
456.992035	145.740000
457.085693	145.900000
457.179413	144.960000
457.273102	146.020000
457.366791	145.820000
457.460480	146.380000
457.554199	147.240000
457.647888	147.500000
457.741577	146.640000
457.835266	146.820000
457.928955	146.580000
458.022644	146.440000
458.116364	146.940000
458.210052	146.640000
458.303741	146.800000
458.397461	146.400000
458.491119	145.660000
458.584839	145.500000
458.678528	145.640000
458.772247	145.380000
458.865906	145.560000
458.959625	146.500000
459.053284	146.440000
459.147003	146.560000
459.240692	146.920000
459.334412	147.080000
459.428070	146.520000
459.521790	146.100000
459.615479	145.940000
459.709198	146.220000
459.802887	145.980000
459.896576	146.120000
459.990265	146.440000
460.083954	146.600000
460.177673	146.060000
460.271362	146.220000
460.365051	145.960000
460.458740	145.980000
460.552429	145.700000
460.646149	145.780000
460.739838	145.540000
460.833527	145.560000
460.927246	145.300000
461.020905	145.160000
461.114655	145.360000
461.208313	145.780000
461.302032	145.360000
461.395691	145.680000
461.489441	145.880000
461.583099	145.460000
461.676819	145.140000
461.770477	145.840000
461.864197	145.480000
461.957916	145.500000
462.051605	145.300000
462.145294	146.320000
462.238983	146.060000
462.332703	146.880000
462.426392	147.380000
462.520081	147.440000
462.613770	146.540000
462.707489	146.920000
462.801178	146.300000
462.894867	146.300000
462.988556	146.380000
463.082275	146.380000
463.175964	145.660000
463.269684	145.960000
463.363342	145.380000
463.457092	145.200000
463.550751	145.580000
463.644470	146.040000
463.738129	145.860000
463.831879	146.080000
463.925537	146.640000
464.019257	146.560000
464.112946	146.360000
464.206665	146.180000
464.300323	146.020000
464.394043	145.800000
464.487762	145.820000
464.581451	146.060000
464.675140	146.200000
464.768829	146.500000
464.862549	146.440000
464.956238	146.400000
465.049927	146.300000
465.143646	146.300000
465.237335	146.240000
465.331024	146.840000
465.424713	146.740000
465.518433	146.660000
465.612152	146.440000
465.705811	146.560000
465.799561	146.180000
465.893219	146.120000
465.986938	146.060000
466.080597	146.080000
466.174347	146.040000
466.268005	145.760000
466.361725	145.720000
466.455414	145.960000
466.549133	145.780000
466.642792	146.040000
466.736542	146.040000
466.830231	146.160000
466.923920	145.920000
467.017609	146.260000
467.111328	145.480000
467.205017	145.600000
467.298706	145.660000
467.392426	146.040000
467.486115	146.380000
467.579803	146.520000
467.673523	146.820000
467.767212	146.760000
467.860901	146.260000
467.954651	146.220000
468.048309	146.540000
468.142029	146.340000
468.235718	146.320000
468.329437	146.360000
468.423096	146.100000
468.516846	145.780000
468.610504	145.680000
468.704224	145.480000
468.797913	145.420000
468.891632	145.480000
468.985291	145.620000
469.079010	145.660000
469.172729	145.400000
469.266418	146.120000
469.360107	146.240000
469.453827	146.220000
469.547516	146.080000
469.641205	146.640000
469.734924	146.720000
469.828613	147.020000
469.922302	146.860000
470.016022	146.940000
470.109711	146.660000
470.203430	145.580000
470.297150	144.600000
470.390808	144.900000
470.484558	144.760000
470.578217	145.100000
470.671936	145.920000
470.765625	146.900000
470.859344	146.620000
470.953003	146.640000
471.046753	146.260000
471.140411	145.580000
471.234131	145.480000
471.327820	146.000000
471.421539	146.180000
471.515228	146.100000
471.608948	146.420000
471.702637	145.880000
471.796326	145.240000
471.890045	145.440000
471.983734	145.420000
472.077423	145.240000
472.171143	145.460000
472.264832	145.880000
472.358521	145.540000
472.452240	145.600000
472.545929	146.520000
472.639648	146.700000
472.733337	146.700000
472.827057	147.060000
472.920746	147.120000
473.014465	146.880000
473.108124	146.820000
473.201874	146.660000
473.295532	146.120000
473.389252	146.540000
473.482941	146.280000
473.576660	145.860000
473.670319	145.880000
473.764069	146.520000
473.857727	146.480000
473.951477	146.560000
474.045166	147.180000
474.138855	147.020000
474.232574	146.800000
474.326263	146.640000
474.419952	147.080000
474.513672	146.980000
474.607361	147.280000
474.701050	147.140000
474.794769	147.320000
474.888458	147.280000
474.982178	147.380000
475.075867	147.400000
475.169586	147.540000
475.263275	147.460000
475.356995	147.020000
475.450653	146.380000
475.544403	146.200000
475.638062	146.780000
475.731812	146.420000
475.825470	146.300000
475.919189	146.540000
476.012878	146.520000
476.106598	145.720000
476.200256	145.880000
476.294006	145.740000
476.387695	145.940000
476.481384	145.760000
476.575104	145.840000
476.668793	145.500000
476.762512	145.360000
476.856201	145.780000
476.949890	145.780000
477.043610	145.300000
477.137299	145.780000
477.230988	146.000000
477.324707	145.420000
477.418396	145.840000
477.512146	146.220000
477.605804	145.840000
477.699524	145.940000
477.793213	145.800000
477.886932	145.620000
477.980591	145.440000
478.074341	145.320000
478.167999	144.860000
478.261749	145.180000
478.355408	145.060000
478.449127	145.740000
478.542816	146.700000
478.636536	147.560000
478.730225	147.600000
478.823944	147.960000
478.917633	147.400000
479.011322	147.240000
479.105042	147.140000
479.198730	147.260000
479.292450	146.560000
479.386139	146.980000
479.479828	146.960000
479.573547	146.980000
479.667267	146.520000
479.760925	146.840000
479.854675	146.780000
479.948334	146.560000
480.042084	145.920000
480.135742	146.160000
480.229462	145.820000
480.323151	145.520000
480.416870	144.700000
480.510529	144.860000
480.604279	144.240000
480.697937	145.180000
480.791656	145.040000
480.885345	145.120000
480.979065	145.120000
481.072754	146.040000
481.166473	145.760000
481.260132	145.780000
481.353882	146.000000
481.447540	145.960000
481.541260	145.880000
481.635010	145.560000
481.728668	145.820000
481.822388	145.820000
481.916077	146.180000
482.009796	145.980000
482.103485	146.500000
482.197205	146.500000
482.290863	146.600000
482.384613	145.960000
482.478271	145.700000
482.571991	145.280000
482.665680	145.480000
482.759399	146.320000
482.853058	146.880000
482.946808	146.920000
483.040466	146.700000
483.134216	146.460000
483.227875	145.640000
483.321594	146.020000
483.415283	146.040000
483.509003	146.060000
483.602661	145.600000
483.696411	146.200000
483.790070	145.780000
483.883789	145.700000
483.977478	146.180000
484.071198	146.500000
484.164917	145.860000
484.258606	145.460000
484.352325	145.740000
484.445984	145.620000
484.539734	145.840000
484.633392	145.520000
484.727142	146.040000
484.820801	145.760000
484.914520	145.640000
485.008209	145.740000
485.101929	146.380000
485.195587	146.120000
485.289337	146.040000
485.382996	146.240000
485.476715	146.340000
485.570404	146.640000
485.664124	146.560000
485.757782	147.420000
485.851532	146.720000
485.945190	146.340000
486.038910	146.060000
486.132599	146.540000
486.226318	145.660000
486.319977	145.980000
486.413727	146.500000
486.507446	146.100000
486.601105	145.340000
486.694855	145.300000
486.788513	145.060000
486.882233	144.600000
486.975922	144.840000
487.069641	145.040000
487.163300	145.040000
487.257050	146.380000
487.350708	146.100000
487.444427	145.860000
487.538116	145.840000
487.631836	145.700000
487.725494	144.720000
487.819214	145.220000
487.912903	145.360000
488.006622	145.560000
488.100281	145.860000
488.194031	145.880000
488.287689	146.220000
488.381409	146.780000
488.475098	146.960000
488.568817	147.220000
488.662476	146.980000
488.756226	146.060000
488.849945	145.000000
488.943604	144.920000
489.037354	144.960000
489.131012	145.280000
489.224731	145.500000
489.318390	146.080000
489.412140	145.880000
489.505798	145.740000
489.599518	145.460000
489.693207	145.780000
489.786926	145.500000
489.880585	145.500000
489.974335	145.900000
490.067993	147.020000
490.161713	147.020000
490.255371	147.800000
490.349121	147.780000
490.442780	147.140000
490.536499	145.740000
490.630188	145.800000
490.723907	145.240000
490.817566	145.600000
490.911285	146.020000
491.004974	146.120000
491.098694	145.660000
491.192413	146.260000
491.286102	145.860000
491.379822	145.820000
491.473480	146.400000
491.567200	146.620000
491.660889	145.880000
491.754608	146.000000
491.848267	145.720000
491.941986	145.640000
492.035675	145.640000
492.129395	145.760000
492.223053	145.520000
492.316772	146.040000
492.410461	145.740000
492.504181	145.840000
492.597839	145.740000
492.691559	145.960000
492.785248	145.640000
492.878967	146.180000
492.972626	145.900000
493.066345	146.220000
493.160034	145.600000
493.253754	145.320000
493.347412	144.600000
493.441132	144.900000
493.534882	145.060000
493.628540	146.080000
493.722260	146.440000
493.815918	147.020000
493.909668	147.600000
494.003326	147.880000
494.097046	147.540000
494.190704	147.080000
494.284454	147.120000
494.378113	146.880000
494.471832	146.380000
494.565491	146.180000
494.659210	146.560000
494.752899	146.220000
494.846619	145.820000
494.940277	145.800000
495.033997	145.580000
495.127686	145.400000
495.221405	145.200000
495.315063	145.220000
495.408783	145.480000
495.502441	145.740000
495.596191	145.820000
495.689850	146.040000
495.783569	146.560000
495.877228	146.380000
495.970947	146.140000
496.064697	146.020000
496.158356	146.460000
496.252075	145.980000
496.345734	145.920000
496.439453	147.020000
496.533142	147.380000
496.626862	147.500000
496.720520	147.500000
496.814240	147.540000
496.907898	146.780000
497.001617	146.580000
497.095306	145.560000
497.189026	145.520000
497.282684	145.640000
497.376404	146.080000
497.470062	145.920000
497.563782	146.540000
497.657471	146.520000
497.751190	146.060000
497.844849	145.660000
497.938568	145.920000
498.032227	145.800000
498.125946	145.640000
498.219635	145.600000
498.313354	145.660000
498.407074	145.520000
498.500732	145.720000
498.594452	145.880000
498.688110	145.880000
498.781830	145.660000
498.875519	145.480000
498.969238	145.080000
499.062897	144.920000
499.156616	145.660000
499.250275	145.880000
499.343994	145.760000
499.437653	145.920000
499.531372	146.180000
499.625061	146.240000
499.718781	146.080000
499.812439	146.720000
499.906158	146.740000
499.999817	146.300000
500.093536	145.920000
500.187195	146.080000
500.280914	145.640000
500.374573	145.780000
500.468323	146.020000
500.561981	145.980000
500.655701	145.520000
500.749420	145.660000
500.843079	145.620000
500.936798	146.040000
501.030457	146.600000
501.124176	147.060000
501.217834	147.000000
501.311554	146.760000
501.405212	146.100000
501.498962	145.140000
501.592621	144.920000
501.686340	145.280000
501.779999	145.400000
501.873718	145.680000
501.967377	146.000000
502.061096	146.400000
502.154755	145.560000
502.248474	145.600000
502.342133	146.040000
502.435852	146.040000
502.529510	146.540000
502.623230	147.300000
502.716888	146.960000
502.810608	146.580000
502.904266	147.240000
502.997986	146.560000
503.091705	145.900000
503.185364	146.020000
503.279083	145.980000
503.372772	145.200000
503.466492	145.060000
503.560150	145.560000
503.653870	145.940000
503.747528	145.880000
503.841248	145.960000
503.934906	146.120000
504.028625	145.680000
504.122284	145.680000
504.216003	146.280000
504.309662	146.180000
504.403381	146.260000
504.497040	146.640000
504.590759	146.360000
504.684418	146.280000
504.778137	146.880000
504.871796	147.140000
504.965515	146.580000
505.059174	146.860000
505.152893	146.140000
505.246521	145.280000
505.340240	144.660000
505.433899	145.160000
505.527618	145.100000
505.621338	145.820000
505.714996	146.060000
505.808716	146.220000
505.902374	146.400000
505.996094	146.420000
506.089752	145.940000
506.183472	146.340000
506.277130	146.400000
506.370850	146.340000
506.464508	146.140000
506.558228	146.160000
506.651886	145.600000
506.745605	145.680000
506.839264	145.580000
506.932983	145.940000
507.026611	145.980000
507.120331	146.460000
507.213989	146.080000
507.307709	146.160000
507.401367	146.160000
507.495087	146.860000
507.588745	146.320000
507.682465	146.960000
507.776123	146.860000
507.869843	146.680000
507.963531	146.280000
508.057190	147.080000
508.150909	146.480000
508.244568	146.660000
508.338287	146.380000
508.431946	145.840000
508.525665	145.240000
508.619324	145.200000
508.713013	145.220000
508.806671	145.620000
508.900391	146.500000
508.994049	146.800000
509.087769	146.660000
509.181427	146.660000
509.275146	145.980000
509.368774	145.320000
509.462494	145.140000
509.556152	145.400000
509.649872	145.580000
509.743530	146.220000
509.837250	146.180000
509.930878	146.060000
510.024597	145.820000
510.118256	145.380000
510.211975	145.340000
510.305695	145.340000
510.399353	145.820000
510.493042	146.520000
510.586700	146.740000
510.680420	147.060000
510.774078	146.980000
510.867798	146.900000
510.961426	146.380000
511.055145	146.400000
511.148804	146.000000
511.242523	146.680000
511.336151	146.760000
511.429871	146.980000
511.523529	146.860000
511.617249	146.740000
511.710876	146.160000
511.804596	145.800000
511.898254	145.560000
511.991974	145.860000
512.085632	145.800000
512.179321	145.960000
512.272949	146.480000
512.366699	146.940000
512.460327	146.580000
512.554077	147.520000
512.647766	147.360000
512.741394	146.960000
512.835144	147.380000
512.928772	147.440000
513.022461	146.960000
513.116150	146.800000
513.209839	147.080000
513.303467	146.140000
513.397217	145.700000
513.490845	145.120000
513.584595	145.100000
513.678223	144.700000
513.771912	144.520000
513.865601	144.760000
513.959290	145.040000
514.052917	145.180000
514.146667	145.940000
514.240295	146.480000
514.333984	146.980000
514.427673	146.920000
514.521362	147.240000
514.614990	146.380000
514.708740	146.320000
514.802368	146.400000
514.896057	146.360000
514.989746	146.960000
515.083435	146.780000
515.177124	147.220000
515.270752	146.700000
515.364502	146.620000
515.458130	146.080000
515.551819	146.160000
515.645508	145.600000
515.739197	145.500000
515.832825	145.880000
515.926575	145.380000
516.020203	145.840000
516.113892	146.240000
516.207520	146.240000
516.301270	146.280000
516.394897	146.700000
516.488586	147.180000
516.582275	146.800000
516.675964	146.580000
516.769592	146.280000
516.863281	146.920000
516.956970	146.860000
517.050659	146.820000
517.144287	147.160000
517.238037	147.100000
517.331665	146.020000
517.425354	145.420000
517.519043	145.620000
517.612732	145.740000
517.706421	145.800000
517.800049	145.940000
517.893738	145.700000
517.987427	145.520000
518.081116	145.260000
518.174744	144.900000
518.268433	145.180000
518.362122	145.800000
518.455811	145.860000
518.549438	146.460000
518.643127	147.460000
518.736816	147.260000
518.830505	146.800000
518.924133	146.800000
519.017822	146.620000
519.111511	146.000000
519.205200	146.400000
519.298828	146.560000
519.392517	146.460000
519.486206	146.720000
519.579895	146.860000
519.673523	146.500000
519.767212	146.340000
519.860901	146.620000
519.954590	146.340000
520.048279	145.820000
520.141907	145.800000
520.235596	146.640000
520.329224	146.720000
520.422974	146.420000
520.516602	146.680000
520.610291	146.660000
520.703918	146.140000
520.797607	145.880000
520.891296	146.040000
520.984985	146.420000
521.078613	146.940000
521.172302	146.520000
521.265930	147.300000
521.359680	147.740000
521.453308	147.260000
521.546997	146.800000
521.640625	147.080000
521.734314	146.300000
521.827942	145.880000
521.921692	146.480000
522.015320	146.420000
522.109009	146.300000
522.202698	146.280000
522.296326	146.260000
522.390015	146.160000
522.483704	146.440000
522.577393	146.440000
522.671021	146.560000
522.764709	146.200000
522.858337	146.600000
522.952026	146.580000
523.045654	147.140000
523.139404	147.720000
523.233032	148.320000
523.326721	147.860000
523.420349	147.760000
523.514038	147.260000
523.607666	147.140000
523.701355	146.660000
523.795044	146.420000
523.888733	146.560000
523.982361	146.560000
524.076050	146.020000
524.169678	146.600000
524.263367	146.460000
524.356995	146.020000
524.450684	145.940000
524.544373	145.740000
524.638062	145.800000
524.731750	146.100000
524.825378	146.340000
524.919067	146.160000
525.012695	146.420000
525.106384	145.680000
525.200012	145.900000
525.293701	145.960000
525.387329	146.280000
525.481018	146.260000
525.574646	146.860000
525.668396	146.580000
525.762024	146.860000
525.855713	147.000000
525.949341	146.680000
526.043030	146.560000
526.136658	146.500000
526.230347	146.140000
526.323975	145.980000
526.417664	145.880000
526.511292	146.060000
526.604980	146.420000
526.698608	146.140000
526.792297	146.140000
526.885925	146.720000
526.979614	146.620000
527.073303	146.300000
527.166931	146.500000
527.260620	146.560000
527.354309	146.620000
527.447998	146.280000
527.541626	145.980000
527.635315	145.960000
527.728943	146.400000
527.822632	146.360000
527.916260	146.460000
528.009949	146.780000
528.103577	146.800000
528.197266	146.080000
528.290894	146.140000
528.384583	145.980000
528.478210	145.960000
528.571899	146.260000
528.665527	146.760000
528.759216	146.740000
528.852844	147.280000
528.946533	147.280000
529.040161	147.040000
529.133850	146.460000
529.227478	146.780000
529.321167	146.960000
529.414856	147.260000
529.508484	147.740000
529.602173	147.840000
529.695801	147.420000
529.789490	146.820000
529.883057	146.460000
529.976746	146.320000
530.070374	146.840000
530.164062	146.820000
530.257690	147.360000
530.351379	147.440000
530.445007	147.260000
530.538696	146.440000
530.632324	146.740000
530.726013	146.420000
530.819641	146.500000
530.913330	146.500000
531.006958	146.920000
531.100647	146.600000
531.194275	146.600000
531.287964	146.280000
531.381592	146.160000
531.475220	146.080000
531.568848	145.900000
531.662537	145.620000
531.756226	146.200000
531.849854	146.100000
531.943542	146.360000
532.037170	146.140000
532.130859	146.560000
532.224487	145.800000
532.318176	145.600000
532.411804	145.880000
532.505432	146.380000
532.599060	145.860000
532.692749	146.120000
532.786377	146.720000
532.880066	145.940000
532.973694	145.500000
533.067383	145.660000
533.161011	145.680000
533.254639	145.200000
533.348267	145.220000
533.441956	145.620000
533.535583	145.400000
533.629272	145.620000
533.722900	145.260000
533.816589	145.380000
533.910156	145.340000
534.003845	145.320000
534.097534	145.660000
534.191162	146.440000
534.284851	146.580000
534.378479	146.160000
534.472107	146.260000
534.565735	145.660000
534.659424	145.640000
534.753052	145.800000
534.846741	145.900000
534.940369	146.420000
535.033997	146.660000
535.127625	146.600000
535.221313	147.180000
535.314941	147.400000
535.408630	146.940000
535.502197	147.360000
535.595886	147.160000
535.689514	146.300000
535.783203	146.640000
535.876831	146.880000
535.970459	146.360000
536.064087	146.100000
536.157776	146.560000
536.251404	146.360000
536.345093	146.520000
536.438721	146.580000
536.532349	147.040000
536.626038	146.800000
536.719666	147.000000
536.813293	146.400000
536.906921	146.580000
537.000610	146.860000
537.094238	146.980000
537.187866	146.860000
537.281494	146.860000
537.375183	147.060000
537.468811	146.580000
537.562439	146.440000
537.656067	146.220000
537.749756	146.520000
537.843384	146.860000
537.937012	147.100000
538.030640	146.640000
538.124329	146.600000
538.217896	147.040000
538.311584	146.620000
538.405212	146.160000
538.498901	146.840000
538.592468	147.780000
538.686157	147.340000
538.779785	146.540000
538.873413	146.860000
538.967102	146.460000
539.060730	145.160000
539.154358	145.360000
539.247986	146.160000
539.341675	146.160000
539.435242	146.180000
539.528931	146.960000
539.622559	146.540000
539.716187	146.860000
539.809814	146.760000
539.903503	146.980000
539.997070	146.780000
540.090759	147.080000
540.184387	146.420000
540.278015	146.980000
540.371643	147.100000
540.465332	147.160000
540.558899	146.860000
540.652588	146.860000
540.746216	146.220000
540.839844	146.640000
540.933472	146.580000
541.027100	146.860000
541.120728	147.140000
541.214417	147.680000
541.308044	147.240000
541.401672	147.100000
541.495300	146.820000
541.588928	146.680000
541.682617	146.360000
541.776184	145.980000
541.869873	146.380000
541.963440	146.520000
542.057129	146.480000
542.150757	146.400000
542.244385	146.200000
542.338013	145.620000
542.431641	145.820000
542.525269	145.680000
542.618958	146.160000
542.712524	146.720000
542.806213	146.640000
542.899780	146.900000
542.993469	146.700000
543.087036	146.300000
543.180725	145.860000
543.274292	146.500000
543.367981	146.580000
543.461548	147.460000
543.555237	147.620000
543.648926	148.260000
543.742493	148.660000
543.836182	148.420000
543.929749	147.920000
544.023437	147.700000
544.117004	147.740000
544.210693	147.500000
544.304260	147.540000
544.397949	147.520000
544.491516	147.840000
544.585205	147.660000
544.678772	146.940000
544.772461	147.440000
544.866028	147.260000
544.959717	147.300000
545.053284	147.000000
545.146973	147.460000
545.240540	147.060000
545.334229	147.900000
545.427795	147.800000
545.521423	148.020000
545.615051	147.960000
545.708679	148.360000
545.802307	147.820000
545.895935	148.140000
545.989624	148.820000
546.083191	148.880000
546.176880	148.660000
546.270447	148.700000
546.364136	148.780000
546.457703	148.460000
546.551331	148.460000
546.644958	148.580000
546.738586	148.760000
546.832214	148.240000
546.925842	147.700000
547.019409	147.900000
547.113098	147.380000
547.206665	146.740000
547.300354	146.800000
547.393921	147.060000
547.487549	147.040000
547.581177	146.780000
547.674805	146.900000
547.768433	146.020000
547.862061	146.040000
547.955627	145.420000
548.049316	145.780000
548.142883	146.080000
548.236572	147.040000
548.330139	147.020000
548.423767	147.140000
548.517456	147.460000
548.611023	147.800000
548.704651	147.540000
548.798279	147.440000
548.891907	147.960000
548.985474	147.400000
549.079163	147.100000
549.172729	146.700000
549.266357	146.360000
549.359985	146.120000
549.453613	145.860000
549.547180	145.660000
549.640869	146.080000
549.734436	146.020000
549.828064	146.320000
549.921631	146.600000
550.015320	146.280000
550.108887	146.440000
550.202515	146.600000
550.296143	146.120000
550.389771	146.260000
550.483337	146.520000
550.576965	146.300000
550.670593	146.820000
550.764221	146.920000
550.857849	146.640000
550.951477	146.300000
551.045105	146.260000
551.138672	145.960000
551.232300	145.500000
551.325928	145.940000
551.419556	146.600000
551.513123	146.720000
551.606750	146.580000
551.700378	147.100000
551.794006	146.840000
551.887573	146.500000
551.981201	146.700000
552.074768	146.820000
552.168457	146.340000
552.262024	147.320000
552.355652	147.340000
552.449219	147.900000
552.542847	147.680000
552.636475	147.680000
552.730103	146.520000
552.823669	146.400000
552.917297	145.480000
553.010864	145.720000
553.104553	146.240000
553.198181	145.860000
553.291748	146.300000
553.385376	146.720000
553.478943	146.460000
553.572571	146.340000
553.666199	146.860000
553.759827	146.420000
553.853394	145.960000
553.947021	146.120000
554.040588	145.920000
554.134216	146.100000
554.227783	146.920000
554.321411	147.720000
554.415039	147.440000
554.508667	147.740000
554.602234	147.700000
554.695862	146.840000
554.789429	146.200000
554.883057	146.280000
554.976624	146.200000
555.070251	146.500000
555.163818	146.460000
555.257507	146.400000
555.351074	146.620000
555.444702	147.460000
555.538330	146.580000
555.631897	147.020000
555.725525	147.060000
555.819092	146.920000
555.912720	146.040000
556.006287	146.900000
556.099915	146.800000
556.193481	147.060000
556.287109	147.140000
556.380676	146.840000
556.474304	146.660000
556.567871	146.740000
556.661499	145.980000
556.755066	145.940000
556.848694	146.060000
556.942261	145.800000
557.035889	145.820000
557.129517	146.520000
557.223145	147.140000
557.316711	147.360000
557.410339	147.580000
557.503906	147.360000
557.597473	147.400000
557.691040	146.780000
557.784668	146.680000
557.878296	146.620000
557.971863	146.820000
558.065491	147.000000
558.159058	146.960000
558.252686	147.680000
558.346252	148.020000
558.439880	147.620000
558.533447	147.200000
558.627075	147.060000
558.720642	146.120000
558.814270	146.080000
558.907837	146.260000
559.001465	146.080000
559.095032	146.820000
559.188660	147.400000
559.282227	146.460000
559.375854	146.860000
559.469360	146.780000
559.562988	147.060000
559.656555	147.100000
559.750183	147.680000
559.843750	147.640000
559.937378	148.060000
560.030945	147.380000
560.124573	0.000000
560.218140	0.000000
560.311707	0.000000
560.405334	0.000000
560.498901	0.000000
560.592529	0.000000
560.686096	0.000000
560.779724	0.000000
560.873291	0.000000
560.966858	0.000000
561.060425	0.000000
561.154053	0.000000
561.247620	0.000000
561.341248	0.000000
561.434814	0.000000
561.528381	0.000000
561.621948	0.000000
561.715576	0.000000
561.809143	0.000000
561.902771	0.000000
561.996277	0.000000
562.089905	0.000000
562.183472	0.000000
562.277100	0.000000
