Model Number: SPM-002-B   
Serial Number: 70087108
Firmware Version: 004.15.4
Exposure Time: 100000.000000us
Data Taken on: 11-12-2020 19:29:57.530
Wavelength	Amplitude
221.570786	0.000000
221.663406	0.000000
221.756027	0.000000
221.848648	0.000000
221.941269	0.000000
222.033905	0.000000
222.126526	0.000000
222.219162	0.000000
222.311798	0.000000
222.404419	0.000000
222.497055	0.000000
222.589676	0.000000
222.682312	0.000000
222.774933	0.000000
222.867569	0.000000
222.960205	0.000000
223.052841	0.000000
223.145462	0.000000
223.238098	0.000000
223.330734	0.000000
223.423386	0.000000
223.516022	0.000000
223.608658	0.000000
223.701309	0.000000
223.793945	0.000000
223.886581	0.000000
223.979218	0.000000
224.071869	0.000000
224.164505	0.000000
224.257156	0.000000
224.349792	0.000000
224.442444	0.000000
224.535095	0.000000
224.627747	0.000000
224.720398	0.000000
224.813034	0.000000
224.905685	0.000000
224.998337	145.860000
225.090988	145.880000
225.183640	145.640000
225.276291	145.740000
225.368942	146.220000
225.461594	146.680000
225.554245	146.880000
225.646912	146.780000
225.739578	147.040000
225.832230	147.200000
225.924896	146.300000
226.017548	146.580000
226.110199	147.340000
226.202866	146.920000
226.295532	146.580000
226.388184	146.720000
226.480850	146.020000
226.573517	145.560000
226.666168	145.680000
226.758835	146.200000
226.851501	146.720000
226.944183	146.960000
227.036850	146.460000
227.129517	146.240000
227.222183	146.060000
227.314850	145.920000
227.407516	146.180000
227.500198	146.900000
227.592865	146.680000
227.685532	146.260000
227.778214	145.780000
227.870880	146.080000
227.963562	146.340000
228.056229	146.940000
228.148926	147.060000
228.241592	147.900000
228.334274	147.480000
228.426956	147.240000
228.519638	146.940000
228.612305	146.600000
228.704987	146.200000
228.797668	146.220000
228.890350	145.860000
228.983032	145.500000
229.075714	146.280000
229.168396	146.180000
229.261108	145.960000
229.353790	146.280000
229.446472	146.800000
229.539169	146.400000
229.631851	146.060000
229.724533	146.160000
229.817230	146.180000
229.909912	146.760000
230.002609	146.660000
230.095306	146.700000
230.187988	146.980000
230.280685	146.820000
230.373383	145.660000
230.466095	145.540000
230.558792	146.080000
230.651474	145.820000
230.744171	145.540000
230.836868	145.460000
230.929581	145.860000
231.022278	145.900000
231.114975	145.760000
231.207672	145.800000
231.300369	146.640000
231.393082	146.580000
231.485779	146.220000
231.578506	146.580000
231.671204	146.760000
231.763916	146.580000
231.856613	146.560000
231.949326	146.620000
232.042023	146.440000
232.134735	146.220000
232.227448	145.620000
232.320160	145.760000
232.412872	145.820000
232.505585	146.420000
232.598297	147.100000
232.691010	147.360000
232.783722	146.860000
232.876450	147.580000
232.969162	146.940000
233.061874	146.540000
233.154587	146.160000
233.247314	146.620000
233.340027	146.040000
233.432739	146.740000
233.525467	146.340000
233.618179	146.640000
233.710907	146.280000
233.803635	146.520000
233.896347	145.920000
233.989090	146.680000
234.081818	146.680000
234.174545	146.900000
234.267258	146.360000
234.359985	146.580000
234.452713	146.480000
234.545441	146.460000
234.638168	146.420000
234.730896	146.760000
234.823639	146.720000
234.916367	146.820000
235.009094	147.280000
235.101822	147.020000
235.194580	146.900000
235.287308	146.700000
235.380051	146.180000
235.472778	146.000000
235.565521	146.360000
235.658249	145.820000
235.750992	145.880000
235.843719	145.860000
235.936462	145.860000
236.029205	145.360000
236.121948	145.660000
236.214691	146.020000
236.307449	146.800000
236.400192	146.820000
236.492935	146.900000
236.585678	146.920000
236.678421	146.800000
236.771164	146.260000
236.863907	146.500000
236.956665	146.860000
237.049408	148.240000
237.142151	147.620000
237.234909	148.240000
237.327652	147.900000
237.420410	147.620000
237.513153	146.560000
237.605927	146.480000
237.698669	145.920000
237.791428	145.420000
237.884186	145.920000
237.976944	145.620000
238.069702	146.200000
238.162445	145.820000
238.255203	146.000000
238.347961	146.380000
238.440720	146.700000
238.533478	146.280000
238.626266	146.260000
238.719025	146.900000
238.811783	146.540000
238.904541	146.120000
238.997314	146.400000
239.090073	146.260000
239.182831	146.400000
239.275604	146.820000
239.368362	146.820000
239.461136	146.900000
239.553909	146.820000
239.646667	146.360000
239.739441	145.920000
239.832214	146.200000
239.925003	146.480000
240.017761	147.120000
240.110535	147.620000
240.203308	147.240000
240.296082	147.400000
240.388855	147.060000
240.481628	147.200000
240.574417	147.200000
240.667191	147.260000
240.759964	147.000000
240.852737	146.860000
240.945526	146.280000
241.038315	145.720000
241.131088	145.940000
241.223877	146.120000
241.316650	145.980000
241.409439	146.360000
241.502228	146.200000
241.595001	146.380000
241.687790	146.240000
241.780579	146.440000
241.873367	146.760000
241.966141	147.180000
242.058929	146.700000
242.151718	146.720000
242.244507	146.900000
242.337311	146.020000
242.430099	146.180000
242.522903	146.460000
242.615692	146.280000
242.708481	146.260000
242.801270	146.740000
242.894073	146.620000
242.986862	146.740000
243.079651	147.240000
243.172455	146.980000
243.265244	147.240000
243.358063	146.720000
243.450867	146.500000
243.543655	146.240000
243.636459	146.160000
243.729263	146.180000
243.822067	146.620000
243.914856	147.180000
244.007660	147.300000
244.100464	147.460000
244.193268	147.000000
244.286072	146.720000
244.378876	146.080000
244.471680	145.720000
244.564499	145.840000
244.657318	146.540000
244.750122	146.940000
244.842926	146.380000
244.935745	146.760000
245.028549	146.500000
245.121368	146.020000
245.214172	145.800000
245.306992	146.600000
245.399796	146.240000
245.492615	146.420000
245.585434	146.340000
245.678253	146.460000
245.771072	146.380000
245.863892	146.880000
245.956711	147.280000
246.049530	147.080000
246.142349	146.560000
246.235168	146.600000
246.327988	146.760000
246.420807	146.480000
246.513626	146.600000
246.606445	146.900000
246.699280	146.860000
246.792099	146.500000
246.884918	145.960000
246.977753	145.840000
247.070587	145.900000
247.163422	145.740000
247.256241	145.780000
247.349075	146.480000
247.441895	146.320000
247.534729	146.440000
247.627563	146.320000
247.720383	146.920000
247.813217	146.580000
247.906052	146.760000
247.998886	146.420000
248.091736	146.320000
248.184570	145.520000
248.277405	145.740000
248.370239	146.640000
248.463074	147.840000
248.555908	148.240000
248.648743	148.580000
248.741592	148.700000
248.834427	148.300000
248.927261	146.820000
249.020111	147.440000
249.112946	147.780000
249.205795	147.460000
249.298630	147.300000
249.391495	147.660000
249.484344	147.100000
249.577179	146.480000
249.670029	146.580000
249.762878	146.840000
249.855728	146.940000
249.948563	146.820000
250.041412	146.440000
250.134262	146.740000
250.227112	146.520000
250.319962	146.580000
250.412827	146.660000
250.505692	146.780000
250.598541	146.480000
250.691391	146.300000
250.784241	146.200000
250.877106	146.080000
250.969955	146.000000
251.062805	146.540000
251.155670	147.140000
251.248520	147.180000
251.341385	147.420000
251.434235	147.540000
251.527100	147.000000
251.619965	146.540000
251.712814	147.240000
251.805695	147.100000
251.898560	147.120000
251.991425	147.220000
252.084290	147.220000
252.177155	146.220000
252.270020	146.060000
252.362885	146.080000
252.455750	146.140000
252.548615	145.920000
252.641479	145.900000
252.734360	145.820000
252.827240	145.680000
252.920105	145.500000
253.012970	145.180000
253.105850	145.300000
253.198715	145.200000
253.291595	145.340000
253.384460	145.460000
253.477341	145.740000
253.570221	146.180000
253.663086	146.180000
253.755966	147.080000
253.848846	146.780000
253.941727	147.420000
254.034592	147.200000
254.127472	146.620000
254.220367	146.080000
254.313248	146.320000
254.406128	145.240000
254.499008	145.440000
254.591904	146.740000
254.684784	147.160000
254.777664	147.180000
254.870544	147.500000
254.963440	147.260000
255.056335	147.200000
255.149216	146.700000
255.242111	147.040000
255.334991	147.600000
255.427887	147.920000
255.520767	147.740000
255.613663	147.700000
255.706558	147.240000
255.799438	146.780000
255.892334	146.420000
255.985229	146.400000
256.078125	146.500000
256.171021	146.500000
256.263916	146.940000
256.356812	147.200000
256.449707	147.120000
256.542603	146.760000
256.635498	147.300000
256.728394	146.860000
256.821289	146.660000
256.914215	146.940000
257.007080	147.300000
257.100006	147.240000
257.192932	147.660000
257.285828	147.840000
257.378723	147.340000
257.471619	147.000000
257.564545	146.560000
257.657440	146.680000
257.750336	147.080000
257.843262	146.900000
257.936157	148.100000
258.029053	148.240000
258.121979	147.840000
258.214874	147.460000
258.307800	147.580000
258.400696	146.540000
258.493622	146.520000
258.586517	145.920000
258.679443	146.000000
258.772339	145.500000
258.865265	145.300000
258.958160	145.160000
259.051086	146.500000
259.144012	146.400000
259.236938	147.360000
259.329834	147.920000
259.422791	147.600000
259.515717	146.760000
259.608612	146.440000
259.701538	146.380000
259.794464	146.140000
259.887390	146.260000
259.980316	146.300000
260.073212	146.280000
260.166138	145.540000
260.259064	145.620000
260.351990	146.120000
260.444916	146.000000
260.537842	146.440000
260.630768	147.320000
260.723694	147.360000
260.816620	146.980000
260.909546	147.180000
261.002472	146.660000
261.095398	145.920000
261.188354	145.760000
261.281281	145.700000
261.374207	145.540000
261.467133	146.240000
261.560089	146.580000
261.653015	146.500000
261.745972	147.280000
261.838867	147.920000
261.931824	147.880000
262.024780	147.360000
262.117706	147.800000
262.210663	147.480000
262.303589	147.120000
262.396515	147.020000
262.489471	148.100000
262.582397	147.680000
262.675354	147.240000
262.768280	147.300000
262.861237	147.220000
262.954163	146.820000
263.047119	146.860000
263.140045	146.660000
263.233002	146.280000
263.325958	146.240000
263.418884	145.720000
263.511841	145.800000
263.604797	146.180000
263.697723	146.460000
263.790680	146.380000
263.883636	146.860000
263.976593	146.500000
264.069550	146.280000
264.162476	145.960000
264.255463	146.120000
264.348419	145.740000
264.441376	146.100000
264.534332	145.900000
264.627289	146.200000
264.720245	146.380000
264.813202	145.860000
264.906158	145.980000
264.999115	146.520000
265.092072	146.540000
265.185028	146.740000
265.277985	147.360000
265.370941	147.100000
265.463898	147.120000
265.556854	146.820000
265.649811	146.000000
265.742798	146.160000
265.835754	146.440000
265.928711	146.760000
266.021667	146.680000
266.114655	146.820000
266.207611	147.120000
266.300568	146.460000
266.393585	145.700000
266.486511	146.380000
266.579498	146.040000
266.672485	145.680000
266.765442	145.760000
266.858429	146.680000
266.951385	145.960000
267.044342	146.240000
267.137329	146.180000
267.230316	146.720000
267.323273	145.960000
267.416260	146.440000
267.509216	146.320000
267.602203	146.480000
267.695160	146.700000
267.788147	146.780000
267.881134	146.400000
267.974091	146.860000
268.067078	146.460000
268.160065	145.940000
268.253052	145.900000
268.346008	146.060000
268.438995	145.700000
268.531982	145.960000
268.624969	145.780000
268.717987	146.200000
268.810944	146.080000
268.903961	146.420000
268.996948	146.040000
269.089905	146.840000
269.182892	146.960000
269.275879	147.400000
269.368866	146.720000
269.461853	147.120000
269.554871	146.840000
269.647858	146.480000
269.740845	146.780000
269.833832	147.280000
269.926819	147.060000
270.019806	146.920000
270.112793	146.740000
270.205811	146.460000
270.298798	146.480000
270.391785	147.060000
270.484772	146.700000
270.577789	146.720000
270.670776	146.400000
270.763763	146.280000
270.856750	146.360000
270.949768	146.500000
271.042786	146.540000
271.135773	146.560000
271.228790	146.940000
271.321808	146.060000
271.414795	145.620000
271.507782	145.620000
271.600800	145.180000
271.693817	145.060000
271.786804	145.720000
271.879822	146.240000
271.972809	146.040000
272.065826	146.940000
272.158844	146.640000
272.251831	147.020000
272.344849	146.860000
272.437866	146.720000
272.530853	146.580000
272.623871	146.720000
272.716888	145.800000
272.809906	146.360000
272.902893	146.500000
272.995911	145.840000
273.088928	145.780000
273.181946	146.340000
273.274963	145.980000
273.367981	146.300000
273.460999	146.680000
273.554047	147.200000
273.647003	147.500000
273.740051	147.720000
273.833069	148.060000
273.926086	148.260000
274.019135	147.740000
274.112152	147.020000
274.205170	146.760000
274.298187	146.520000
274.391205	145.880000
274.484222	146.040000
274.577240	146.600000
274.670258	146.340000
274.763306	146.020000
274.856323	146.480000
274.949341	146.260000
275.042358	146.280000
275.135406	146.460000
275.228424	146.660000
275.321442	146.800000
275.414490	146.740000
275.507507	146.700000
275.600525	147.120000
275.693573	146.780000
275.786591	146.200000
275.879669	146.440000
275.972656	146.300000
276.065735	146.040000
276.158752	146.400000
276.251801	147.480000
276.344818	147.600000
276.437866	147.640000
276.530884	147.340000
276.623932	146.900000
276.716980	146.580000
276.809998	146.640000
276.903046	146.640000
276.996094	147.500000
277.089111	148.040000
277.182159	148.320000
277.275208	147.780000
277.368256	147.780000
277.461304	147.360000
277.554321	146.860000
277.647369	146.740000
277.740417	146.700000
277.833466	146.340000
277.926514	146.140000
278.019562	146.820000
278.112610	146.000000
278.205688	146.500000
278.298706	146.720000
278.391785	146.540000
278.484833	145.780000
278.577881	145.780000
278.670929	145.680000
278.763977	145.780000
278.857025	146.260000
278.950073	146.440000
279.043121	146.460000
279.136169	146.860000
279.229248	146.420000
279.322296	146.120000
279.415344	145.940000
279.508392	146.000000
279.601440	145.420000
279.694519	145.440000
279.787567	145.480000
279.880615	145.800000
279.973694	145.620000
280.066742	146.140000
280.159790	146.440000
280.252869	146.220000
280.345917	146.260000
280.438995	146.500000
280.532074	146.100000
280.625122	146.400000
280.718201	147.080000
280.811279	147.000000
280.904327	146.740000
280.997406	146.940000
281.090454	146.960000
281.183533	146.320000
281.276581	146.120000
281.369659	146.160000
281.462738	145.980000
281.555786	145.860000
281.648865	145.920000
281.741943	145.820000
281.835022	146.620000
281.928070	146.420000
282.021149	146.280000
282.114227	146.360000
282.207306	146.620000
282.300385	146.680000
282.393433	147.020000
282.486511	147.020000
282.579590	147.480000
282.672668	147.640000
282.765747	146.700000
282.858856	146.280000
282.951904	146.360000
283.045013	146.220000
283.138062	146.340000
283.231171	146.860000
283.324249	147.500000
283.417328	147.520000
283.510406	146.920000
283.603485	147.040000
283.696564	146.780000
283.789642	146.460000
283.882751	146.120000
283.975830	146.980000
284.068909	146.180000
284.161987	147.060000
284.255066	146.700000
284.348175	147.020000
284.441254	146.720000
284.534332	147.500000
284.627441	146.880000
284.720520	146.600000
284.813599	146.440000
284.906708	146.280000
284.999786	145.660000
285.092896	145.260000
285.185974	146.560000
285.279053	146.260000
285.372192	146.400000
285.465240	147.100000
285.558380	147.340000
285.651459	146.580000
285.744568	147.460000
285.837677	146.940000
285.930756	146.620000
286.023865	146.320000
286.116943	146.080000
286.210052	146.120000
286.303162	146.420000
286.396240	146.400000
286.489349	146.680000
286.582458	147.260000
286.675568	146.780000
286.768646	146.640000
286.861755	146.860000
286.954865	147.660000
287.047974	146.920000
287.141083	146.520000
287.234161	146.160000
287.327271	145.820000
287.420380	145.860000
287.513519	145.960000
287.606598	146.180000
287.699738	146.720000
287.792816	146.800000
287.885956	146.280000
287.979034	146.260000
288.072174	146.700000
288.165283	146.540000
288.258392	146.880000
288.351501	146.320000
288.444611	146.580000
288.537720	146.800000
288.630859	146.760000
288.723969	146.700000
288.817078	147.440000
288.910187	147.420000
289.003296	146.800000
289.096436	146.540000
289.189545	146.500000
289.282654	145.780000
289.375763	146.520000
289.468903	146.820000
289.562012	147.280000
289.655121	147.080000
289.748260	147.500000
289.841400	147.300000
289.934509	147.260000
290.027649	147.360000
290.120728	147.500000
290.213898	147.460000
290.306976	146.880000
290.400146	146.780000
290.493256	146.280000
290.586395	146.260000
290.679535	146.520000
290.772644	146.680000
290.865784	145.940000
290.958893	145.880000
291.052032	145.560000
291.145172	145.380000
291.238281	145.220000
291.331421	145.840000
291.424561	146.640000
291.517670	146.700000
291.610809	146.880000
291.703949	146.860000
291.797089	147.140000
291.890228	146.760000
291.983337	146.780000
292.076477	146.360000
292.169617	146.760000
292.262756	146.600000
292.355927	146.340000
292.449036	146.280000
292.542206	146.840000
292.635315	146.780000
292.728485	147.040000
292.821625	147.180000
292.914764	148.060000
293.007904	148.020000
293.101044	147.940000
293.194183	147.720000
293.287323	147.920000
293.380463	147.360000
293.473602	146.800000
293.566742	147.160000
293.659882	147.440000
293.753021	147.280000
293.846191	147.000000
293.939331	147.000000
294.032471	146.580000
294.125610	145.980000
294.218781	146.500000
294.311920	147.020000
294.405060	147.260000
294.498230	147.420000
294.591370	147.560000
294.684540	146.720000
294.777679	146.120000
294.870850	145.880000
294.963959	145.520000
295.057159	145.320000
295.150299	145.820000
295.243469	145.740000
295.336609	145.560000
295.429779	145.860000
295.522919	146.380000
295.616089	146.200000
295.709229	147.080000
295.802399	147.280000
295.895569	146.940000
295.988708	146.800000
296.081879	146.880000
296.175018	146.340000
296.268188	146.300000
296.361359	146.820000
296.454529	146.920000
296.547668	146.700000
296.640839	146.820000
296.734009	146.540000
296.827179	146.460000
296.920319	146.660000
297.013519	146.900000
297.106659	146.980000
297.199860	147.260000
297.292999	147.080000
297.386200	146.820000
297.479309	146.380000
297.572510	146.300000
297.665680	146.120000
297.758850	146.120000
297.852020	145.800000
297.945190	145.860000
298.038361	145.340000
298.131531	146.100000
298.224701	145.760000
298.317871	145.520000
298.411072	145.300000
298.504242	145.280000
298.597412	144.920000
298.690582	145.580000
298.783752	145.760000
298.876923	146.380000
298.970093	146.580000
299.063293	146.580000
299.156464	146.600000
299.249634	146.800000
299.342834	146.640000
299.436005	147.080000
299.529205	147.220000
299.622345	147.020000
299.715576	146.660000
299.808716	146.760000
299.901917	146.720000
299.995117	147.100000
300.088287	147.300000
300.181488	147.120000
300.274658	146.800000
300.367828	146.840000
300.461029	146.340000
300.554199	146.340000
300.647400	146.760000
300.740601	147.240000
300.833771	146.640000
300.926971	146.900000
301.020142	146.500000
301.113342	146.240000
301.206512	146.080000
301.299713	146.520000
301.392914	146.280000
301.486084	146.620000
301.579285	146.660000
301.672516	147.160000
301.765686	147.000000
301.858887	147.080000
301.952057	146.920000
302.045288	147.040000
302.138458	146.600000
302.231659	146.380000
302.324860	146.160000
302.418060	145.800000
302.511261	145.620000
302.604462	145.820000
302.697662	145.780000
302.790863	145.760000
302.884064	145.320000
302.977264	145.520000
303.070465	145.800000
303.163666	146.480000
303.256866	146.920000
303.350067	147.760000
303.443268	147.860000
303.536469	147.680000
303.629669	147.020000
303.722870	146.920000
303.816071	146.400000
303.909271	146.520000
304.002472	145.820000
304.095673	145.840000
304.188934	144.860000
304.282104	146.040000
304.375336	145.660000
304.468506	145.980000
304.561768	145.640000
304.654968	146.680000
304.748169	145.740000
304.841370	145.640000
304.934601	146.100000
305.027802	146.180000
305.121002	145.740000
305.214233	145.940000
305.307434	146.300000
305.400665	146.580000
305.493866	146.500000
305.587097	147.100000
305.680298	146.980000
305.773499	147.520000
305.866730	146.780000
305.959930	147.580000
306.053162	147.220000
306.146393	147.240000
306.239594	146.220000
306.332825	146.340000
306.426025	146.440000
306.519287	145.740000
306.612488	145.760000
306.705719	146.160000
306.798920	146.320000
306.892181	145.700000
306.985352	145.740000
307.078613	145.240000
307.171844	145.440000
307.265045	144.780000
307.358276	144.460000
307.451508	145.420000
307.544739	145.960000
307.637970	145.560000
307.731201	145.760000
307.824402	146.720000
307.917633	146.380000
308.010864	146.900000
308.104095	147.260000
308.197327	147.400000
308.290558	147.180000
308.383789	146.860000
308.477020	146.300000
308.570251	145.680000
308.663483	145.420000
308.756714	145.200000
308.849976	145.120000
308.943176	145.560000
309.036438	145.880000
309.129639	145.760000
309.222900	145.840000
309.316101	145.820000
309.409393	145.220000
309.502625	145.060000
309.595856	145.480000
309.689087	145.320000
309.782318	145.520000
309.875580	145.780000
309.968811	146.020000
310.062042	145.640000
310.155273	145.520000
310.248535	146.140000
310.341766	145.980000
310.434998	145.840000
310.528259	145.880000
310.621490	146.300000
310.714722	145.700000
310.807983	145.620000
310.901215	145.660000
310.994476	145.980000
311.087708	145.440000
311.181000	145.360000
311.274200	145.060000
311.367462	145.180000
311.460693	144.800000
311.553986	145.880000
311.647186	146.200000
311.740479	147.060000
311.833710	146.840000
311.926971	147.060000
312.020203	145.820000
312.113464	145.540000
312.206726	144.760000
312.299957	145.040000
312.393219	145.700000
312.486481	146.480000
312.579712	146.520000
312.672974	146.640000
312.766235	146.500000
312.859497	146.000000
312.952759	145.600000
313.045990	146.300000
313.139252	145.940000
313.232513	146.360000
313.325775	146.360000
313.419037	146.280000
313.512299	145.380000
313.605530	146.120000
313.698822	145.960000
313.792053	146.240000
313.885345	146.080000
313.978577	146.400000
314.071869	146.000000
314.165131	146.220000
314.258392	146.240000
314.351654	146.620000
314.444916	145.780000
314.538177	146.240000
314.631439	146.240000
314.724701	145.920000
314.817993	145.720000
314.911255	146.580000
315.004517	146.000000
315.097778	145.420000
315.191040	145.920000
315.284302	146.320000
315.377594	146.060000
315.470856	146.080000
315.564117	145.900000
315.657379	145.040000
315.750671	144.460000
315.843933	144.700000
315.937195	144.300000
316.030518	144.240000
316.123749	144.540000
316.217041	145.220000
316.310303	145.400000
316.403595	146.100000
316.496857	146.640000
316.590149	146.860000
316.683411	146.280000
316.776703	145.960000
316.869965	145.860000
316.963257	145.520000
317.056519	144.740000
317.149811	144.560000
317.243073	144.340000
317.336365	144.460000
317.429626	144.920000
317.522919	145.700000
317.616180	146.180000
317.709473	146.080000
317.802765	145.740000
317.896027	145.420000
317.989319	145.620000
318.082611	145.460000
318.175873	145.680000
318.269165	146.060000
318.362488	146.320000
318.455750	145.880000
318.549042	146.120000
318.642303	146.700000
318.735626	146.320000
318.828888	146.200000
318.922211	145.740000
319.015472	146.160000
319.108765	145.220000
319.202057	145.000000
319.295349	145.220000
319.388641	145.720000
319.481934	145.200000
319.575226	145.580000
319.668518	146.020000
319.761810	145.800000
319.855103	145.740000
319.948395	145.860000
320.041687	146.000000
320.134979	146.080000
320.228271	145.900000
320.321564	145.880000
320.414856	145.800000
320.508148	145.380000
320.601440	144.980000
320.694763	144.980000
320.788025	145.720000
320.881348	145.740000
320.974640	146.140000
321.067963	145.920000
321.161224	146.180000
321.254547	145.280000
321.347839	145.460000
321.441162	144.940000
321.534454	145.280000
321.627747	144.800000
321.721069	145.320000
321.814362	145.440000
321.907654	145.780000
322.000946	145.860000
322.094269	146.840000
322.187561	146.580000
322.280884	146.840000
322.374176	146.800000
322.467468	147.380000
322.560791	146.860000
322.654083	147.560000
322.747406	147.340000
322.840698	147.680000
322.934021	147.700000
323.027344	147.840000
323.120636	147.060000
323.213959	146.840000
323.307251	146.580000
323.400574	145.980000
323.493866	145.520000
323.587219	145.820000
323.680511	145.980000
323.773834	146.100000
323.867157	146.000000
323.960449	146.040000
324.053772	145.520000
324.147095	145.240000
324.240387	145.700000
324.333710	146.020000
324.427032	146.320000
324.520355	146.560000
324.613647	146.400000
324.706970	145.880000
324.800293	145.420000
324.893616	145.740000
324.986938	146.160000
325.080231	146.040000
325.173553	146.500000
325.266876	147.420000
325.360199	146.900000
325.453522	146.080000
325.546875	146.020000
325.640167	145.860000
325.733521	145.460000
325.826813	145.940000
325.920166	146.200000
326.013489	146.260000
326.106812	145.340000
326.200134	144.900000
326.293457	144.300000
326.386780	144.400000
326.480103	144.320000
326.573425	144.680000
326.666748	145.060000
326.760071	145.620000
326.853424	145.720000
326.946747	145.920000
327.040070	146.720000
327.133392	146.500000
327.226715	145.900000
327.320068	145.280000
327.413391	145.820000
327.506714	144.640000
327.600037	144.500000
327.693390	144.680000
327.786713	145.160000
327.880066	144.760000
327.973358	145.440000
328.066742	146.060000
328.160034	146.280000
328.253418	146.780000
328.346710	146.460000
328.440063	146.160000
328.533417	145.660000
328.626740	146.020000
328.720093	145.780000
328.813416	146.000000
328.906769	145.940000
329.000092	146.380000
329.093445	145.920000
329.186768	145.580000
329.280121	145.980000
329.373444	146.360000
329.466797	146.080000
329.560120	146.060000
329.653473	146.240000
329.746796	145.920000
329.840149	145.960000
329.933502	146.060000
330.026825	145.880000
330.120178	145.580000
330.213562	145.240000
330.306854	145.240000
330.400238	145.160000
330.493561	145.140000
330.586945	146.220000
330.680237	146.740000
330.773621	146.820000
330.866974	146.920000
330.960327	147.160000
331.053680	146.360000
331.147003	146.760000
331.240356	147.040000
331.333710	147.120000
331.427063	146.920000
331.520416	146.760000
331.613770	146.100000
331.707123	145.920000
331.800476	145.820000
331.893829	146.960000
331.987152	147.260000
332.080505	147.480000
332.173859	147.100000
332.267212	146.680000
332.360565	145.680000
332.453918	145.500000
332.547333	145.220000
332.640656	145.480000
332.734039	145.760000
332.827362	146.000000
332.920746	146.600000
333.014069	146.960000
333.107452	147.400000
333.200806	147.560000
333.294159	147.460000
333.387543	146.940000
333.480896	146.260000
333.574249	145.840000
333.667603	145.360000
333.760956	145.560000
333.854340	145.460000
333.947693	145.900000
334.041046	145.700000
334.134430	146.260000
334.227783	145.880000
334.321136	145.840000
334.414520	145.340000
334.507874	145.560000
334.601227	145.400000
334.694611	145.420000
334.787964	145.560000
334.881348	146.100000
334.974701	145.900000
335.068085	145.560000
335.161438	145.920000
335.254822	145.780000
335.348175	145.980000
335.441559	145.780000
335.534943	146.440000
335.628296	146.000000
335.721680	146.160000
335.815033	146.260000
335.908417	146.680000
336.001770	146.640000
336.095154	146.680000
336.188538	146.480000
336.281891	145.800000
336.375275	145.260000
336.468658	144.880000
336.562012	145.060000
336.655396	145.740000
336.748779	146.300000
336.842133	146.780000
336.935516	147.220000
337.028900	147.060000
337.122284	146.160000
337.215637	146.340000
337.309021	146.200000
337.402435	145.740000
337.495789	145.740000
337.589203	145.920000
337.682526	145.460000
337.775940	145.660000
337.869324	146.000000
337.962708	145.640000
338.056091	146.100000
338.149475	145.960000
338.242859	145.980000
338.336243	145.700000
338.429626	146.240000
338.523010	146.020000
338.616394	145.760000
338.709778	146.120000
338.803162	146.460000
338.896545	146.220000
338.989929	145.840000
339.083313	146.220000
339.176697	145.640000
339.270081	145.120000
339.363464	145.400000
339.456848	145.800000
339.550232	145.360000
339.643616	145.280000
339.737030	145.580000
339.830383	145.300000
339.923828	145.160000
340.017181	145.580000
340.110596	145.580000
340.203949	145.640000
340.297363	145.440000
340.390778	145.540000
340.484161	145.320000
340.577545	145.380000
340.670959	145.600000
340.764343	145.760000
340.857727	146.100000
340.951111	146.040000
341.044525	146.360000
341.137909	145.560000
341.231293	145.740000
341.324707	144.880000
341.418091	145.620000
341.511505	145.320000
341.604889	145.960000
341.698303	145.900000
341.791687	146.540000
341.885071	145.700000
341.978485	145.540000
342.071899	145.440000
342.165283	145.820000
342.258698	145.660000
342.352081	146.360000
342.445496	146.900000
342.538879	146.820000
342.632324	146.020000
342.725708	145.920000
342.819122	145.360000
342.912506	144.960000
343.005920	144.640000
343.099335	145.800000
343.192719	145.920000
343.286133	146.180000
343.379547	146.460000
343.472931	146.920000
343.566345	146.380000
343.659760	146.500000
343.753143	146.240000
343.846558	145.680000
343.939972	145.420000
344.033386	145.800000
344.126770	145.560000
344.220184	145.480000
344.313599	146.100000
344.407043	146.320000
344.500427	145.460000
344.593872	146.000000
344.687225	145.820000
344.780670	145.360000
344.874054	145.280000
344.967499	145.920000
345.060913	145.700000
345.154327	146.100000
345.247742	145.800000
345.341156	145.600000
345.434570	145.200000
345.527985	144.760000
345.621399	144.700000
345.714813	145.000000
345.808228	145.300000
345.901642	145.140000
345.995056	145.020000
346.088470	145.080000
346.181885	145.440000
346.275299	145.060000
346.368713	145.220000
346.462128	145.160000
346.555573	145.640000
346.648987	145.420000
346.742401	145.620000
346.835815	146.140000
346.929260	146.180000
347.022644	145.900000
347.116119	146.240000
347.209503	146.380000
347.302948	146.800000
347.396362	147.500000
347.489807	147.480000
347.583221	147.540000
347.676636	147.120000
347.770050	145.880000
347.863495	145.560000
347.956909	145.640000
348.050323	144.940000
348.143768	144.920000
348.237183	144.740000
348.330597	145.180000
348.424042	145.480000
348.517456	146.140000
348.610901	146.600000
348.704315	147.020000
348.797760	146.340000
348.891174	145.600000
348.984619	144.960000
349.078033	145.260000
349.171448	145.700000
349.264923	145.600000
349.358337	145.680000
349.451782	145.900000
349.545197	145.040000
349.638641	144.560000
349.732086	144.160000
349.825500	144.540000
349.918945	144.380000
350.012390	144.860000
350.105804	145.160000
350.199249	145.840000
350.292664	146.040000
350.386108	146.260000
350.479553	146.940000
350.572968	147.080000
350.666412	147.060000
350.759857	147.080000
350.853302	147.360000
350.946716	146.540000
351.040161	146.000000
351.133606	145.920000
351.227081	145.480000
351.320465	146.100000
351.413940	146.200000
351.507355	146.280000
351.600830	146.400000
351.694244	146.180000
351.787720	145.640000
351.881104	145.600000
351.974579	145.680000
352.067993	146.360000
352.161469	146.600000
352.254883	145.940000
352.348358	146.040000
352.441803	146.100000
352.535248	145.540000
352.628693	145.940000
352.722137	146.180000
352.815582	146.260000
352.909027	146.520000
353.002472	146.560000
353.095917	146.160000
353.189362	146.540000
353.282806	146.360000
353.376251	145.960000
353.469696	145.260000
353.563141	145.760000
353.656586	145.440000
353.750061	144.920000
353.843475	144.940000
353.936981	145.740000
354.030396	145.280000
354.123871	145.420000
354.217285	146.700000
354.310760	146.980000
354.404175	146.920000
354.497681	146.620000
354.591095	146.820000
354.684570	145.640000
354.777985	145.420000
354.871490	144.920000
354.964935	145.480000
355.058380	145.180000
355.151855	145.280000
355.245300	145.780000
355.338745	146.220000
355.432220	146.140000
355.525665	145.800000
355.619110	146.360000
355.712585	146.000000
355.806030	146.000000
355.899475	145.700000
355.992950	146.360000
356.086426	146.760000
356.179871	146.760000
356.273346	146.700000
356.366791	146.900000
356.460266	146.880000
356.553711	146.160000
356.647186	146.120000
356.740631	145.460000
356.834106	145.340000
356.927551	145.280000
357.021027	145.240000
357.114471	145.560000
357.207947	146.040000
357.301422	146.120000
357.394867	146.040000
357.488342	146.400000
357.581818	146.260000
357.675262	146.660000
357.768738	146.180000
357.862213	145.520000
357.955658	145.400000
358.049133	145.260000
358.142609	145.440000
358.236053	145.420000
358.329529	145.680000
358.423035	145.900000
358.516449	145.520000
358.609955	145.480000
358.703400	146.320000
358.796906	146.720000
358.890350	146.400000
358.983826	147.160000
359.077271	146.700000
359.170776	146.320000
359.264221	145.820000
359.357727	145.700000
359.451172	145.880000
359.544647	146.160000
359.638123	146.200000
359.731598	146.960000
359.825073	147.340000
359.918549	146.900000
360.012024	146.800000
360.105499	146.320000
360.198975	145.960000
360.292450	145.700000
360.385925	145.560000
360.479401	145.260000
360.572876	145.780000
360.666351	146.380000
360.759857	146.300000
360.853302	146.600000
360.946808	146.240000
361.040253	146.480000
361.133759	145.580000
361.227203	145.800000
361.320709	145.200000
361.414154	145.860000
361.507660	145.720000
361.601105	146.080000
361.694641	146.700000
361.788086	146.660000
361.881592	146.760000
361.975067	146.440000
362.068542	146.800000
362.162018	146.080000
362.255524	146.220000
362.348999	146.120000
362.442474	146.440000
362.535950	145.700000
362.629456	145.380000
362.722931	145.300000
362.816406	145.480000
362.909882	145.720000
363.003387	145.760000
363.096863	146.540000
363.190338	146.480000
363.283875	146.380000
363.377319	146.320000
363.470825	147.020000
363.564301	146.140000
363.657806	146.400000
363.751282	145.860000
363.844788	146.540000
363.938232	145.880000
364.031769	146.780000
364.125214	147.220000
364.218750	147.840000
364.312225	146.340000
364.405731	146.760000
364.499207	146.280000
364.592712	145.680000
364.686188	145.520000
364.779694	146.240000
364.873169	145.980000
364.966675	145.660000
365.060150	145.640000
365.153656	146.220000
365.247131	146.040000
365.340637	146.380000
365.434143	147.060000
365.527618	147.400000
365.621155	146.420000
365.714600	146.180000
365.808136	145.860000
365.901611	145.140000
365.995117	144.480000
366.088593	144.760000
366.182129	144.660000
366.275604	144.780000
366.369110	145.020000
366.462585	145.160000
366.556122	145.680000
366.649567	146.080000
366.743103	146.240000
366.836609	145.980000
366.930115	146.500000
367.023590	146.400000
367.117096	146.340000
367.210602	146.340000
367.304108	147.080000
367.397614	147.440000
367.491119	147.420000
367.584595	147.500000
367.678101	147.840000
367.771606	147.520000
367.865112	147.180000
367.958649	146.620000
368.052124	146.440000
368.145660	146.000000
368.239136	146.400000
368.332672	146.340000
368.426147	146.720000
368.519684	146.640000
368.613159	146.880000
368.706696	146.400000
368.800171	146.220000
368.893707	145.840000
368.987183	146.060000
369.080719	146.240000
369.174225	146.060000
369.267731	146.260000
369.361237	146.440000
369.454742	146.200000
369.548248	146.260000
369.641754	146.020000
369.735260	145.840000
369.828766	145.300000
369.922272	145.960000
370.015808	145.340000
370.109314	145.460000
370.202820	145.240000
370.296356	146.480000
370.389832	146.100000
370.483368	145.760000
370.576874	145.900000
370.670410	146.420000
370.763885	145.040000
370.857422	145.000000
370.950928	145.080000
371.044464	145.740000
371.137939	145.580000
371.231476	146.520000
371.324982	146.800000
371.418518	147.180000
371.512024	147.040000
371.605560	146.860000
371.699066	146.720000
371.792572	146.060000
371.886108	146.140000
371.979614	145.520000
372.073120	145.960000
372.166656	145.840000
372.260162	146.580000
372.353668	146.140000
372.447205	146.100000
372.540710	145.960000
372.634277	145.900000
372.727753	145.740000
372.821320	146.000000
372.914795	146.080000
373.008362	145.880000
373.101837	145.860000
373.195404	145.580000
373.288879	145.500000
373.382446	146.300000
373.475922	146.120000
373.569489	146.880000
373.662964	147.300000
373.756531	147.320000
373.850037	146.880000
373.943573	146.980000
374.037109	145.940000
374.130615	145.880000
374.224152	146.140000
374.317657	145.900000
374.411194	146.540000
374.504730	146.580000
374.598236	146.100000
374.691772	145.740000
374.785309	146.080000
374.878815	145.040000
374.972351	145.500000
375.065887	145.660000
375.159454	146.720000
375.252930	146.480000
375.346497	147.300000
375.440002	147.520000
375.533569	147.260000
375.627045	146.140000
375.720612	146.300000
375.814117	146.400000
375.907684	145.940000
376.001160	146.040000
376.094727	145.760000
376.188232	146.420000
376.281799	146.080000
376.375336	146.160000
376.468872	146.640000
376.562408	147.080000
376.655914	146.160000
376.749451	146.060000
376.842987	146.200000
376.936523	145.960000
377.030060	145.980000
377.123596	146.380000
377.217133	146.300000
377.310669	146.280000
377.404205	146.520000
377.497772	147.020000
377.591278	146.900000
377.684845	147.540000
377.778351	147.720000
377.871918	147.700000
377.965424	146.840000
378.058990	146.400000
378.152496	145.900000
378.246063	145.840000
378.339569	145.900000
378.433136	146.300000
378.526642	146.540000
378.620209	146.560000
378.713745	146.240000
378.807312	146.380000
378.900848	146.180000
378.994385	146.400000
379.087921	146.060000
379.181458	146.360000
379.274994	145.240000
379.368530	145.180000
379.462097	145.140000
379.555634	145.680000
379.649170	145.220000
379.742706	145.880000
379.836273	146.340000
379.929810	146.000000
380.023376	145.440000
380.116882	145.380000
380.210449	145.000000
380.303986	144.420000
380.397552	144.340000
380.491058	144.860000
380.584656	145.080000
380.678162	145.400000
380.771729	145.520000
380.865265	146.480000
380.958832	146.160000
381.052368	146.540000
381.145935	146.980000
381.239471	147.460000
381.333008	146.900000
381.426575	147.020000
381.520111	147.060000
381.613647	146.800000
381.707214	146.480000
381.800751	145.960000
381.894318	146.260000
381.987854	145.560000
382.081421	145.640000
382.174988	145.620000
382.268524	145.520000
382.362091	145.160000
382.455627	146.280000
382.549194	145.980000
382.642731	145.380000
382.736298	145.600000
382.829834	145.560000
382.923401	145.500000
383.016937	145.820000
383.110504	146.640000
383.204041	146.720000
383.297607	147.140000
383.391174	146.080000
383.484741	146.480000
383.578278	145.780000
383.671844	145.760000
383.765411	145.100000
383.858948	145.840000
383.952515	145.400000
384.046051	146.440000
384.139618	146.800000
384.233185	146.980000
384.326721	146.580000
384.420288	147.040000
384.513855	146.640000
384.607422	146.720000
384.700989	147.120000
384.794525	146.960000
384.888123	146.440000
384.981659	146.500000
385.075226	145.920000
385.168762	145.600000
385.262360	145.900000
385.355896	145.440000
385.449463	145.260000
385.542999	145.480000
385.636597	146.040000
385.730164	145.940000
385.823730	146.140000
385.917267	145.840000
386.010834	146.080000
386.104401	145.940000
386.197968	146.340000
386.291534	146.840000
386.385101	146.840000
386.478668	146.920000
386.572235	146.540000
386.665802	146.040000
386.759338	145.400000
386.852905	145.660000
386.946472	145.160000
387.040070	145.100000
387.133606	145.100000
387.227203	144.980000
387.320740	144.960000
387.414337	145.060000
387.507874	145.200000
387.601471	145.360000
387.695007	145.320000
387.788605	144.720000
387.882141	144.860000
387.975739	144.740000
388.069275	144.280000
388.162872	144.540000
388.256439	144.960000
388.350037	144.920000
388.443604	144.640000
388.537170	144.660000
388.630737	145.400000
388.724304	145.760000
388.817871	145.420000
388.911438	145.860000
389.005005	146.420000
389.098602	146.440000
389.192169	145.780000
389.285736	146.820000
389.379333	147.080000
389.472870	146.620000
389.566467	146.060000
389.660034	146.480000
389.753632	145.640000
389.847168	145.500000
389.940765	145.840000
390.034332	146.140000
390.127930	145.320000
390.221466	145.180000
390.315063	144.660000
390.408630	143.820000
390.502228	143.120000
390.595795	144.060000
390.689362	144.440000
390.782959	144.980000
390.876526	145.980000
390.970093	146.080000
391.063690	146.400000
391.157257	146.380000
391.250824	146.400000
391.344421	146.060000
391.437988	146.240000
391.531555	146.260000
391.625153	146.400000
391.718750	146.480000
391.812317	146.240000
391.905914	146.200000
391.999481	145.900000
392.093079	145.760000
392.186615	146.020000
392.280243	146.340000
392.373779	146.360000
392.467407	146.740000
392.560944	146.700000
392.654572	145.960000
392.748108	145.820000
392.841736	146.020000
392.935303	145.360000
393.028900	145.180000
393.122467	145.440000
393.216064	145.080000
393.309631	144.580000
393.403229	144.420000
393.496796	144.640000
393.590393	144.360000
393.683990	145.180000
393.777557	145.640000
393.871155	145.980000
393.964722	146.280000
394.058350	146.640000
394.151917	146.160000
394.245514	145.880000
394.339081	146.240000
394.432678	146.160000
394.526245	146.000000
394.619873	145.680000
394.713409	146.020000
394.807037	145.720000
394.900604	145.780000
394.994202	145.840000
395.087769	146.360000
395.181396	145.940000
395.274994	146.640000
395.368561	146.020000
395.462158	146.240000
395.555756	145.860000
395.649353	146.500000
395.742920	145.740000
395.836517	146.720000
395.930115	145.880000
396.023712	146.140000
396.117279	146.060000
396.210876	145.840000
396.304474	145.580000
396.398071	146.060000
396.491669	146.280000
396.585266	146.000000
396.678833	146.120000
396.772461	146.000000
396.866028	145.980000
396.959656	146.180000
397.053223	146.340000
397.146851	146.320000
397.240417	146.440000
397.334015	147.220000
397.427582	147.060000
397.521210	147.460000
397.614807	148.440000
397.708405	149.260000
397.802002	149.640000
397.895599	151.180000
397.989197	152.120000
398.082794	153.440000
398.176392	155.220000
398.269989	157.580000
398.363586	160.220000
398.457184	163.940000
398.550781	167.000000
398.644379	169.420000
398.737976	171.460000
398.831573	173.540000
398.925201	174.460000
399.018768	175.760000
399.112396	177.240000
399.205963	179.580000
399.299591	181.200000
399.393158	183.420000
399.486786	185.840000
399.580353	188.080000
399.673981	190.040000
399.767578	192.140000
399.861206	195.100000
399.954773	198.600000
400.048401	201.560000
400.141998	203.120000
400.235596	205.020000
400.329193	204.800000
400.422791	203.940000
400.516418	202.680000
400.610016	201.940000
400.703613	200.780000
400.797211	198.780000
400.890808	196.700000
400.984436	194.580000
401.078033	191.380000
401.171631	187.560000
401.265259	184.420000
401.358826	180.800000
401.452484	176.820000
401.546051	173.640000
401.639679	170.200000
401.733246	167.280000
401.826904	163.880000
401.920471	160.640000
402.014099	158.340000
402.107697	156.060000
402.201324	154.360000
402.294891	153.020000
402.388550	152.200000
402.482147	151.120000
402.575745	149.920000
402.669373	148.540000
402.762970	147.440000
402.856567	146.880000
402.950195	146.480000
403.043793	146.100000
403.137390	146.600000
403.231018	146.040000
403.324615	146.520000
403.418243	146.140000
403.511841	146.840000
403.605469	146.700000
403.699066	147.540000
403.792694	147.220000
403.886292	147.320000
403.979919	147.140000
404.073517	146.820000
404.167145	146.800000
404.260712	146.920000
404.354370	146.620000
404.447937	146.380000
404.541595	146.260000
404.635162	146.360000
404.728821	146.620000
404.822418	146.640000
404.916046	146.540000
405.009644	146.680000
405.103271	146.840000
405.196899	146.040000
405.290497	145.980000
405.384125	146.420000
405.477722	146.000000
405.571350	145.340000
405.664948	145.720000
405.758575	145.920000
405.852203	145.240000
405.945801	145.640000
406.039429	145.840000
406.133057	145.940000
406.226654	145.700000
406.320312	146.000000
406.413879	146.220000
406.507538	146.220000
406.601135	145.760000
406.694763	146.220000
406.788361	145.920000
406.882019	145.400000
406.975586	145.960000
407.069244	146.780000
407.162872	146.740000
407.256470	146.840000
407.350098	146.960000
407.443726	146.260000
407.537323	145.360000
407.630951	145.440000
407.724579	145.280000
407.818207	145.440000
407.911804	145.380000
408.005432	145.620000
408.099060	145.720000
408.192688	146.180000
408.286285	146.200000
408.379913	146.180000
408.473572	146.100000
408.567169	145.180000
408.660828	145.160000
408.754395	144.840000
408.848053	144.980000
408.941650	145.480000
409.035309	145.480000
409.128906	145.300000
409.222565	145.700000
409.316132	145.940000
409.409790	145.280000
409.503387	145.480000
409.597046	145.540000
409.690674	145.520000
409.784302	145.340000
409.877930	145.260000
409.971558	145.620000
410.065186	145.560000
410.158783	145.440000
410.252411	145.340000
410.346039	145.980000
410.439667	145.900000
410.533295	146.100000
410.626923	146.240000
410.720551	146.340000
410.814209	146.680000
410.907806	146.720000
411.001465	146.300000
411.095062	146.520000
411.188721	146.660000
411.282318	146.000000
411.375977	146.120000
411.469574	146.380000
411.563232	146.020000
411.656830	145.540000
411.750488	145.460000
411.844086	145.020000
411.937744	145.160000
412.031372	145.120000
412.125000	145.220000
412.218628	145.600000
412.312256	146.380000
412.405884	146.760000
412.499512	146.640000
412.593170	147.260000
412.686798	147.160000
412.780426	146.520000
412.874054	146.320000
412.967682	146.440000
413.061310	146.620000
413.154968	146.720000
413.248566	147.080000
413.342224	146.920000
413.435852	147.160000
413.529510	146.660000
413.623108	146.040000
413.716766	145.720000
413.810364	146.240000
413.904022	145.920000
413.997650	145.600000
414.091309	146.680000
414.184906	146.800000
414.278564	146.000000
414.372192	146.560000
414.465851	147.040000
414.559479	146.280000
414.653107	147.020000
414.746735	147.100000
414.840393	146.920000
414.934021	147.300000
415.027649	146.900000
415.121277	146.400000
415.214935	146.800000
415.308563	146.680000
415.402191	145.680000
415.495850	146.080000
415.589478	145.600000
415.683136	145.180000
415.776733	145.280000
415.870422	146.280000
415.964020	145.900000
416.057678	146.300000
416.151306	146.420000
416.244965	146.140000
416.338562	145.760000
416.432251	146.480000
416.525848	147.040000
416.619507	147.320000
416.713165	147.800000
416.806793	147.620000
416.900421	147.520000
416.994080	146.680000
417.087708	146.420000
417.181366	145.740000
417.274994	145.420000
417.368622	145.620000
417.462280	146.180000
417.555908	146.240000
417.649567	146.300000
417.743195	146.740000
417.836853	146.600000
417.930481	146.420000
418.024170	146.660000
418.117767	147.260000
418.211426	147.560000
418.305054	147.740000
418.398712	147.080000
418.492340	146.880000
418.585999	146.760000
418.679626	146.560000
418.773285	146.400000
418.866913	147.380000
418.960571	147.620000
419.054230	147.600000
419.147858	147.660000
419.241516	147.640000
419.335144	147.140000
419.428802	146.880000
419.522461	146.580000
419.616089	146.400000
419.709747	146.700000
419.803375	146.800000
419.897034	146.400000
419.990662	146.320000
420.084320	146.600000
420.177979	146.480000
420.271606	146.440000
420.365295	147.180000
420.458893	147.260000
420.552582	147.240000
420.646210	147.180000
420.739868	146.920000
420.833496	146.360000
420.927155	146.280000
421.020782	145.780000
421.114471	145.180000
421.208069	145.620000
421.301758	146.060000
421.395386	146.340000
421.489044	146.520000
421.582703	146.700000
421.676361	146.900000
421.769989	146.300000
421.863647	146.520000
421.957306	146.480000
422.050934	146.680000
422.144592	146.460000
422.238251	146.620000
422.331909	146.080000
422.425537	146.020000
422.519196	146.080000
422.612854	145.640000
422.706543	145.020000
422.800140	145.380000
422.893829	145.140000
422.987457	145.080000
423.081146	145.360000
423.174744	146.440000
423.268433	146.140000
423.362061	145.920000
423.455750	145.440000
423.549347	145.260000
423.643036	144.440000
423.736664	144.980000
423.830353	145.360000
423.924011	146.220000
424.017639	145.940000
424.111298	146.100000
424.204956	145.400000
424.298615	145.620000
424.392273	144.940000
424.485931	145.480000
424.579559	145.800000
424.673218	145.980000
424.766876	145.680000
424.860535	145.380000
424.954193	144.700000
425.047882	145.060000
425.141510	145.060000
425.235199	145.440000
425.328796	145.800000
425.422485	145.980000
425.516113	145.220000
425.609802	145.460000
425.703430	145.260000
425.797119	145.140000
425.890747	145.400000
425.984436	145.800000
426.078064	145.900000
426.171753	146.120000
426.265411	146.040000
426.359070	146.280000
426.452728	146.100000
426.546356	145.860000
426.640015	145.620000
426.733673	145.820000
426.827332	145.240000
426.920990	145.880000
427.014648	145.500000
427.108307	145.560000
427.201965	145.900000
427.295624	146.380000
427.389282	145.500000
427.482941	146.140000
427.576630	145.960000
427.670258	145.640000
427.763947	145.480000
427.857574	145.740000
427.951263	145.380000
428.044922	145.360000
428.138611	145.340000
428.232239	145.900000
428.325928	146.360000
428.419556	146.880000
428.513245	146.520000
428.606903	146.760000
428.700562	145.980000
428.794220	145.440000
428.887878	144.680000
428.981537	144.960000
429.075195	144.960000
429.168854	145.420000
429.262512	145.540000
429.356201	145.960000
429.449860	145.980000
429.543518	145.740000
429.637177	145.960000
429.730835	146.040000
429.824493	145.820000
429.918182	146.020000
430.011810	145.380000
430.105530	144.720000
430.199158	144.840000
430.292847	144.860000
430.386475	145.000000
430.480164	145.300000
430.573792	144.880000
430.667511	144.740000
430.761139	144.960000
430.854828	145.340000
430.948456	145.760000
431.042145	146.800000
431.135834	146.540000
431.229492	146.500000
431.323151	146.260000
431.416809	145.940000
431.510468	145.620000
431.604156	145.820000
431.697815	145.920000
431.791473	145.380000
431.885132	145.460000
431.978821	145.620000
432.072479	145.820000
432.166138	145.880000
432.259827	145.720000
432.353485	146.160000
432.447174	146.180000
432.540802	145.880000
432.634491	146.220000
432.728149	146.680000
432.821838	146.780000
432.915466	146.460000
433.009186	146.640000
433.102814	145.440000
433.196503	145.260000
433.290131	144.940000
433.383850	145.140000
433.477509	145.220000
433.571167	146.320000
433.664856	146.600000
433.758514	146.940000
433.852173	147.080000
433.945862	146.720000
434.039520	146.640000
434.133179	146.200000
434.226868	145.680000
434.320526	145.140000
434.414185	145.940000
434.507874	145.320000
434.601562	145.860000
434.695221	145.820000
434.788910	146.160000
434.882538	145.880000
434.976257	145.860000
435.069885	145.620000
435.163574	145.820000
435.257233	145.280000
435.350922	145.060000
435.444580	144.860000
435.538269	144.660000
435.631897	144.800000
435.725616	145.780000
435.819275	146.420000
435.912964	147.340000
436.006622	147.820000
436.100311	147.860000
436.193970	146.680000
436.287628	146.040000
436.381317	145.560000
436.474976	144.960000
436.568665	144.440000
436.662323	145.300000
436.756012	145.440000
436.849670	145.180000
436.943390	145.140000
437.037018	145.500000
437.130737	145.120000
437.224365	144.880000
437.318085	145.220000
437.411713	145.640000
437.505432	145.780000
437.599060	146.240000
437.692780	147.220000
437.786407	146.920000
437.880127	146.900000
437.973755	146.660000
438.067474	146.300000
438.161133	145.540000
438.254822	146.040000
438.348480	145.820000
438.442169	146.480000
438.535828	146.960000
438.629517	146.660000
438.723175	146.060000
438.816864	146.440000
438.910553	145.940000
439.004211	145.340000
439.097900	145.480000
439.191559	145.780000
439.285248	145.340000
439.378906	145.680000
439.472626	146.000000
439.566284	146.000000
439.659973	146.240000
439.753632	146.460000
439.847321	146.800000
439.940979	146.580000
440.034698	146.640000
440.128326	146.140000
440.222046	145.880000
440.315674	144.940000
440.409393	145.220000
440.503082	144.980000
440.596741	145.240000
440.690430	145.720000
440.784088	145.940000
440.877777	145.520000
440.971466	145.480000
441.065125	145.420000
441.158813	145.180000
441.252502	145.140000
441.346161	145.320000
441.439850	145.560000
441.533539	145.320000
441.627197	145.580000
441.720886	145.280000
441.814606	145.700000
441.908234	146.020000
442.001953	146.260000
442.095612	146.000000
442.189301	146.520000
442.282959	146.220000
442.376678	145.380000
442.470306	146.280000
442.564026	146.380000
442.657684	146.520000
442.751404	146.600000
442.845032	147.840000
442.938751	146.880000
443.032440	146.800000
443.126099	146.180000
443.219788	146.600000
443.313477	146.000000
443.407166	146.180000
443.500824	146.160000
443.594513	146.680000
443.688202	146.640000
443.781891	146.100000
443.875549	145.760000
443.969238	145.780000
444.062927	145.660000
444.156647	145.340000
444.250275	146.120000
444.343994	146.440000
444.437653	146.340000
444.531372	146.100000
444.625031	145.840000
444.718719	145.100000
444.812378	144.920000
444.906097	144.900000
444.999756	144.620000
445.093445	144.640000
445.187103	145.120000
445.280823	145.780000
445.374512	145.520000
445.468201	145.880000
445.561859	145.600000
445.655548	145.760000
445.749237	144.920000
445.842926	145.320000
445.936615	145.840000
446.030304	146.080000
446.123962	146.120000
446.217651	146.600000
446.311340	146.640000
446.405029	145.840000
446.498749	145.880000
446.592407	145.580000
446.686096	145.740000
446.779755	145.860000
446.873474	146.120000
446.967133	146.360000
447.060852	146.140000
447.154510	145.820000
447.248230	145.760000
447.341858	145.980000
447.435577	145.220000
447.529236	145.100000
447.622955	144.900000
447.716644	144.660000
447.810333	144.500000
447.904022	145.380000
447.997711	145.360000
448.091400	145.780000
448.185059	145.560000
448.278748	145.740000
448.372437	145.180000
448.466125	145.560000
448.559814	145.600000
448.653503	146.420000
448.747192	146.300000
448.840912	146.780000
448.934570	146.820000
449.028290	147.020000
449.121948	146.480000
449.215637	146.480000
449.309296	146.060000
449.403015	146.280000
449.496674	146.020000
449.590393	146.100000
449.684052	145.760000
449.777771	146.540000
449.871429	145.900000
449.965149	145.840000
450.058838	146.220000
450.152527	146.800000
450.246216	146.320000
450.339905	146.580000
450.433594	146.220000
450.527283	146.540000
450.620972	146.160000
450.714661	146.260000
450.808350	146.300000
450.902039	146.620000
450.995728	145.920000
451.089417	145.440000
451.183105	145.420000
451.276794	145.720000
451.370514	145.240000
451.464172	144.760000
451.557892	145.100000
451.651550	145.160000
451.745270	144.700000
451.838928	144.660000
451.932648	144.980000
452.026306	145.660000
452.120026	145.200000
452.213684	145.540000
452.307404	145.820000
452.401062	146.100000
452.494781	145.920000
452.588470	146.280000
452.682159	145.760000
452.775848	145.640000
452.869537	145.120000
452.963226	144.480000
453.056915	144.400000
453.150604	144.780000
453.244293	145.420000
453.337982	146.180000
453.431671	146.920000
453.525360	147.380000
453.619049	147.260000
453.712769	146.860000
453.806427	146.140000
453.900146	145.340000
453.993805	144.840000
454.087555	145.440000
454.181213	145.480000
454.274933	145.520000
454.368591	145.920000
454.462311	145.860000
454.555969	145.200000
454.649689	146.020000
454.743347	145.980000
454.837067	146.480000
454.930756	146.940000
455.024445	147.140000
455.118134	146.420000
455.211853	146.920000
455.305542	146.380000
455.399231	146.060000
455.492920	146.240000
455.586609	146.560000
455.680298	146.760000
455.773987	146.660000
455.867676	146.640000
455.961365	146.800000
456.055084	146.380000
456.148773	145.520000
456.242493	145.560000
456.336151	145.580000
456.429871	145.740000
456.523529	146.120000
456.617249	146.300000
456.710907	146.800000
456.804626	146.680000
456.898315	145.980000
456.992035	145.620000
457.085693	145.600000
457.179413	144.820000
457.273102	145.900000
457.366791	146.160000
457.460480	146.600000
457.554199	147.340000
457.647888	147.680000
457.741577	146.700000
457.835266	146.860000
457.928955	146.880000
458.022644	146.980000
458.116364	147.240000
458.210052	147.240000
458.303741	147.320000
458.397461	146.500000
458.491119	145.480000
458.584839	145.680000
458.678528	145.420000
458.772247	144.940000
458.865906	145.580000
458.959625	146.680000
459.053284	146.460000
459.147003	146.480000
459.240692	147.380000
459.334412	147.280000
459.428070	146.780000
459.521790	146.500000
459.615479	146.800000
459.709198	146.480000
459.802887	146.580000
459.896576	146.500000
459.990265	146.820000
460.083954	146.940000
460.177673	146.380000
460.271362	145.880000
460.365051	145.700000
460.458740	145.360000
460.552429	144.760000
460.646149	144.920000
460.739838	144.700000
460.833527	144.920000
460.927246	144.940000
461.020905	145.100000
461.114655	145.240000
461.208313	145.780000
461.302032	145.240000
461.395691	145.400000
461.489441	145.660000
461.583099	145.560000
461.676819	145.160000
461.770477	145.960000
461.864197	145.680000
461.957916	145.340000
462.051605	144.760000
462.145294	145.960000
462.238983	145.580000
462.332703	145.940000
462.426392	146.480000
462.520081	146.860000
462.613770	145.860000
462.707489	146.020000
462.801178	145.940000
462.894867	145.920000
462.988556	146.040000
463.082275	146.100000
463.175964	145.780000
463.269684	145.920000
463.363342	145.620000
463.457092	145.320000
463.550751	145.740000
463.644470	146.140000
463.738129	145.740000
463.831879	146.060000
463.925537	146.640000
464.019257	146.540000
464.112946	146.240000
464.206665	146.460000
464.300323	146.200000
464.394043	146.060000
464.487762	145.620000
464.581451	145.960000
464.675140	145.680000
464.768829	146.240000
464.862549	146.200000
464.956238	146.400000
465.049927	146.420000
465.143646	146.460000
465.237335	145.520000
465.331024	145.980000
465.424713	146.040000
465.518433	145.860000
465.612152	145.880000
465.705811	146.200000
465.799561	145.780000
465.893219	145.880000
465.986938	145.940000
466.080597	145.780000
466.174347	146.180000
466.268005	146.320000
466.361725	146.160000
466.455414	146.180000
466.549133	146.220000
466.642792	146.160000
466.736542	145.680000
466.830231	145.820000
466.923920	145.580000
467.017609	145.960000
467.111328	145.420000
467.205017	145.500000
467.298706	145.400000
467.392426	145.540000
467.486115	145.800000
467.579803	145.760000
467.673523	146.140000
467.767212	146.160000
467.860901	145.900000
467.954651	145.780000
468.048309	146.140000
468.142029	146.160000
468.235718	146.440000
468.329437	146.480000
468.423096	146.300000
468.516846	145.920000
468.610504	145.440000
468.704224	144.980000
468.797913	145.120000
468.891632	145.420000
468.985291	145.920000
469.079010	146.260000
469.172729	146.280000
469.266418	146.700000
469.360107	146.540000
469.453827	146.260000
469.547516	146.080000
469.641205	146.180000
469.734924	146.420000
469.828613	146.560000
469.922302	146.900000
470.016022	146.780000
470.109711	146.500000
470.203430	145.460000
470.297150	144.640000
470.390808	144.660000
470.484558	144.680000
470.578217	145.380000
470.671936	146.160000
470.765625	147.080000
470.859344	146.740000
470.953003	147.300000
471.046753	146.840000
471.140411	146.120000
471.234131	146.380000
471.327820	146.580000
471.421539	146.320000
471.515228	146.180000
471.608948	146.460000
471.702637	145.600000
471.796326	145.480000
471.890045	145.820000
471.983734	145.840000
472.077423	145.880000
472.171143	146.080000
472.264832	145.940000
472.358521	145.240000
472.452240	145.040000
472.545929	145.560000
472.639648	145.820000
472.733337	146.140000
472.827057	146.600000
472.920746	146.540000
473.014465	146.480000
473.108124	146.440000
473.201874	146.540000
473.295532	146.080000
473.389252	146.920000
473.482941	147.080000
473.576660	146.580000
473.670319	146.620000
473.764069	147.160000
473.857727	147.020000
473.951477	146.840000
474.045166	147.740000
474.138855	147.360000
474.232574	147.000000
474.326263	146.760000
474.419952	146.820000
474.513672	146.260000
474.607361	146.220000
474.701050	146.400000
474.794769	146.820000
474.888458	146.900000
474.982178	147.120000
475.075867	147.340000
475.169586	147.440000
475.263275	147.060000
475.356995	146.920000
475.450653	146.680000
475.544403	146.260000
475.638062	146.780000
475.731812	146.620000
475.825470	146.400000
475.919189	146.560000
476.012878	147.040000
476.106598	146.300000
476.200256	146.640000
476.294006	146.800000
476.387695	146.840000
476.481384	146.580000
476.575104	146.600000
476.668793	146.100000
476.762512	145.480000
476.856201	145.820000
476.949890	145.620000
477.043610	145.380000
477.137299	145.560000
477.230988	146.140000
477.324707	145.660000
477.418396	146.320000
477.512146	146.620000
477.605804	146.580000
477.699524	146.580000
477.793213	146.280000
477.886932	146.020000
477.980591	145.660000
478.074341	145.580000
478.167999	145.140000
478.261749	145.420000
478.355408	145.120000
478.449127	145.740000
478.542816	146.520000
478.636536	147.120000
478.730225	147.240000
478.823944	147.540000
478.917633	147.120000
479.011322	147.020000
479.105042	146.740000
479.198730	146.620000
479.292450	146.380000
479.386139	146.580000
479.479828	146.420000
479.573547	146.960000
479.667267	146.960000
479.760925	147.200000
479.854675	147.260000
479.948334	147.340000
480.042084	146.380000
480.135742	146.640000
480.229462	146.160000
480.323151	145.960000
480.416870	145.400000
480.510529	145.640000
480.604279	145.080000
480.697937	145.640000
480.791656	145.380000
480.885345	145.140000
480.979065	145.000000
481.072754	145.600000
481.166473	145.780000
481.260132	146.000000
481.353882	146.280000
481.447540	146.380000
481.541260	146.260000
481.635010	145.700000
481.728668	145.460000
481.822388	145.380000
481.916077	145.640000
482.009796	145.620000
482.103485	146.440000
482.197205	146.680000
482.290863	146.980000
482.384613	146.740000
482.478271	146.580000
482.571991	145.820000
482.665680	145.820000
482.759399	146.460000
482.853058	146.980000
482.946808	146.840000
483.040466	146.760000
483.134216	146.700000
483.227875	145.700000
483.321594	145.780000
483.415283	145.680000
483.509003	145.640000
483.602661	145.600000
483.696411	146.120000
483.790070	145.620000
483.883789	145.800000
483.977478	146.160000
484.071198	146.160000
484.164917	145.700000
484.258606	145.400000
484.352325	145.620000
484.445984	145.640000
484.539734	145.680000
484.633392	145.320000
484.727142	145.880000
484.820801	145.680000
484.914520	145.480000
485.008209	145.560000
485.101929	146.240000
485.195587	145.760000
485.289337	145.800000
485.382996	145.840000
485.476715	145.940000
485.570404	146.140000
485.664124	146.220000
485.757782	146.780000
485.851532	146.580000
485.945190	146.280000
486.038910	146.360000
486.132599	146.700000
486.226318	145.520000
486.319977	145.580000
486.413727	146.340000
486.507446	145.740000
486.601105	145.380000
486.694855	145.660000
486.788513	145.640000
486.882233	145.140000
486.975922	145.220000
487.069641	145.180000
487.163300	145.000000
487.257050	146.100000
487.350708	145.800000
487.444427	145.700000
487.538116	145.740000
487.631836	146.000000
487.725494	145.140000
487.819214	145.320000
487.912903	145.180000
488.006622	145.900000
488.100281	146.060000
488.194031	146.120000
488.287689	146.500000
488.381409	147.140000
488.475098	146.620000
488.568817	146.880000
488.662476	146.520000
488.756226	145.860000
488.849945	144.980000
488.943604	144.800000
489.037354	144.720000
489.131012	144.780000
489.224731	144.780000
489.318390	145.380000
489.412140	145.440000
489.505798	145.380000
489.599518	145.160000
489.693207	145.840000
489.786926	145.640000
489.880585	145.560000
489.974335	145.800000
490.067993	147.040000
490.161713	146.660000
490.255371	147.280000
490.349121	147.660000
490.442780	147.200000
490.536499	146.240000
490.630188	146.420000
490.723907	145.800000
490.817566	145.540000
490.911285	145.620000
491.004974	145.580000
491.098694	145.120000
491.192413	145.900000
491.286102	145.860000
491.379822	146.180000
491.473480	146.540000
491.567200	146.880000
491.660889	145.840000
491.754608	146.060000
491.848267	145.820000
491.941986	145.780000
492.035675	145.940000
492.129395	146.520000
492.223053	146.080000
492.316772	146.300000
492.410461	146.220000
492.504181	145.720000
492.597839	145.440000
492.691559	145.700000
492.785248	145.640000
492.878967	145.440000
492.972626	145.560000
493.066345	145.520000
493.160034	145.140000
493.253754	144.780000
493.347412	144.360000
493.441132	144.440000
493.534882	144.860000
493.628540	145.340000
493.722260	145.940000
493.815918	146.460000
493.909668	146.900000
494.003326	147.060000
494.097046	146.940000
494.190704	146.260000
494.284454	146.380000
494.378113	146.160000
494.471832	145.680000
494.565491	145.580000
494.659210	145.960000
494.752899	145.960000
494.846619	145.940000
494.940277	146.420000
495.033997	146.500000
495.127686	146.120000
495.221405	145.860000
495.315063	146.080000
495.408783	145.900000
495.502441	145.880000
495.596191	146.120000
495.689850	146.100000
495.783569	146.020000
495.877228	145.740000
495.970947	145.540000
496.064697	145.520000
496.158356	146.480000
496.252075	146.580000
496.345734	146.680000
496.439453	147.240000
496.533142	147.240000
496.626862	146.800000
496.720520	146.520000
496.814240	146.600000
496.907898	146.160000
497.001617	146.660000
497.095306	145.880000
497.189026	145.860000
497.282684	146.000000
497.376404	146.320000
497.470062	145.500000
497.563782	146.040000
497.657471	146.180000
497.751190	145.700000
497.844849	145.520000
497.938568	146.160000
498.032227	146.080000
498.125946	146.320000
498.219635	146.420000
498.313354	146.540000
498.407074	146.120000
498.500732	146.200000
498.594452	145.960000
498.688110	145.740000
498.781830	145.420000
498.875519	145.400000
498.969238	145.300000
499.062897	145.240000
499.156616	145.920000
499.250275	146.060000
499.343994	145.680000
499.437653	145.660000
499.531372	145.660000
499.625061	145.920000
499.718781	146.200000
499.812439	146.680000
499.906158	146.560000
499.999817	146.540000
500.093536	145.820000
500.187195	145.840000
500.280914	146.040000
500.374573	146.260000
500.468323	145.980000
500.561981	146.380000
500.655701	145.840000
500.749420	145.860000
500.843079	146.020000
500.936798	146.060000
501.030457	146.320000
501.124176	146.760000
501.217834	146.480000
501.311554	146.440000
501.405212	146.440000
501.498962	145.620000
501.592621	145.740000
501.686340	146.060000
501.779999	146.100000
501.873718	146.460000
501.967377	146.640000
502.061096	146.540000
502.154755	146.020000
502.248474	145.820000
502.342133	145.780000
502.435852	145.880000
502.529510	146.400000
502.623230	146.960000
502.716888	146.420000
502.810608	146.640000
502.904266	146.900000
502.997986	146.120000
503.091705	145.500000
503.185364	145.900000
503.279083	145.640000
503.372772	145.320000
503.466492	144.980000
503.560150	145.160000
503.653870	145.200000
503.747528	145.220000
503.841248	145.300000
503.934906	145.760000
504.028625	145.780000
504.122284	145.980000
504.216003	146.400000
504.309662	146.220000
504.403381	146.320000
504.497040	146.280000
504.590759	146.080000
504.684418	146.340000
504.778137	146.900000
504.871796	147.360000
504.965515	147.360000
505.059174	147.400000
505.152893	146.540000
505.246521	145.780000
505.340240	145.020000
505.433899	145.160000
505.527618	145.180000
505.621338	145.380000
505.714996	145.500000
505.808716	145.700000
505.902374	146.120000
505.996094	146.280000
506.089752	146.160000
506.183472	146.540000
506.277130	146.640000
506.370850	146.400000
506.464508	146.080000
506.558228	146.140000
506.651886	145.840000
506.745605	145.980000
506.839264	146.220000
506.932983	146.340000
507.026611	145.920000
507.120331	146.460000
507.213989	145.780000
507.307709	145.300000
507.401367	145.780000
507.495087	146.920000
507.588745	146.380000
507.682465	147.780000
507.776123	148.000000
507.869843	147.520000
507.963531	146.820000
508.057190	147.340000
508.150909	145.740000
508.244568	145.880000
508.338287	145.540000
508.431946	145.540000
508.525665	145.300000
508.619324	145.620000
508.713013	145.640000
508.806671	146.420000
508.900391	147.220000
508.994049	147.160000
509.087769	147.280000
509.181427	147.380000
509.275146	146.980000
509.368774	145.940000
509.462494	145.820000
509.556152	145.800000
509.649872	145.780000
509.743530	146.180000
509.837250	146.220000
509.930878	146.220000
510.024597	146.360000
510.118256	146.100000
510.211975	145.720000
510.305695	145.700000
510.399353	146.220000
510.493042	146.720000
510.586700	146.820000
510.680420	147.140000
510.774078	147.400000
510.867798	147.280000
510.961426	146.620000
511.055145	146.660000
511.148804	146.400000
511.242523	146.720000
511.336151	146.580000
511.429871	147.100000
511.523529	146.760000
511.617249	146.500000
511.710876	146.220000
511.804596	145.660000
511.898254	145.300000
511.991974	145.720000
512.085632	145.760000
512.179321	145.720000
512.272949	146.320000
512.366699	146.660000
512.460327	146.540000
512.554077	147.400000
512.647766	147.360000
512.741394	147.140000
512.835144	147.560000
512.928772	147.340000
513.022461	146.820000
513.116150	146.740000
513.209839	147.120000
513.303467	146.200000
513.397217	146.120000
513.490845	145.940000
513.584595	145.680000
513.678223	145.140000
513.771912	144.620000
513.865601	144.760000
513.959290	144.500000
514.052917	144.640000
514.146667	145.500000
514.240295	146.180000
514.333984	146.320000
514.427673	146.480000
514.521362	146.880000
514.614990	146.140000
514.708740	146.280000
514.802368	146.180000
514.896057	146.160000
514.989746	146.940000
515.083435	146.900000
515.177124	146.700000
515.270752	146.400000
515.364502	146.460000
515.458130	146.060000
515.551819	146.180000
515.645508	146.320000
515.739197	146.480000
515.832825	146.540000
515.926575	146.040000
516.020203	146.000000
516.113892	146.540000
516.207520	146.280000
516.301270	146.200000
516.394897	146.220000
516.488586	146.960000
516.582275	146.600000
516.675964	146.240000
516.769592	146.380000
516.863281	146.920000
516.956970	146.540000
517.050659	146.420000
517.144287	146.880000
517.238037	146.880000
517.331665	145.980000
517.425354	145.740000
517.519043	145.420000
517.612732	145.820000
517.706421	145.620000
517.800049	145.480000
517.893738	144.840000
517.987427	145.000000
518.081116	144.820000
518.174744	144.360000
518.268433	145.180000
518.362122	146.380000
518.455811	146.480000
518.549438	146.940000
518.643127	148.120000
518.736816	147.660000
518.830505	146.900000
518.924133	146.600000
519.017822	146.280000
519.111511	145.740000
519.205200	146.100000
519.298828	146.340000
519.392517	146.320000
519.486206	146.760000
519.579895	146.780000
519.673523	146.360000
519.767212	146.120000
519.860901	146.640000
519.954590	146.040000
520.048279	145.560000
520.141907	145.580000
520.235596	146.440000
520.329224	146.480000
520.422974	146.340000
520.516602	146.820000
520.610291	146.540000
520.703918	146.140000
520.797607	145.740000
520.891296	146.180000
520.984985	146.360000
521.078613	146.980000
521.172302	146.740000
521.265930	147.520000
521.359680	147.820000
521.453308	147.780000
521.546997	147.580000
521.640625	147.840000
521.734314	147.200000
521.827942	146.980000
521.921692	147.100000
522.015320	147.100000
522.109009	146.800000
522.202698	146.740000
522.296326	146.720000
522.390015	147.000000
522.483704	147.080000
522.577393	146.960000
522.671021	147.280000
522.764709	146.740000
522.858337	146.700000
522.952026	146.600000
523.045654	147.000000
523.139404	147.240000
523.233032	147.480000
523.326721	146.860000
523.420349	147.080000
523.514038	146.600000
523.607666	146.640000
523.701355	146.340000
523.795044	146.360000
523.888733	145.960000
523.982361	146.480000
524.076050	145.900000
524.169678	146.520000
524.263367	146.520000
524.356995	146.680000
524.450684	146.200000
524.544373	146.120000
524.638062	145.900000
524.731750	145.960000
524.825378	145.800000
524.919067	145.640000
525.012695	145.660000
525.106384	145.380000
525.200012	145.640000
525.293701	145.540000
525.387329	146.040000
525.481018	146.400000
525.574646	146.880000
525.668396	146.520000
525.762024	147.060000
525.855713	147.040000
525.949341	146.440000
526.043030	146.320000
526.136658	146.340000
526.230347	146.120000
526.323975	145.660000
526.417664	145.720000
526.511292	145.640000
526.604980	145.820000
526.698608	145.820000
526.792297	146.020000
526.885925	146.620000
526.979614	146.780000
527.073303	146.380000
527.166931	146.240000
527.260620	146.320000
527.354309	146.540000
527.447998	146.400000
527.541626	146.520000
527.635315	146.880000
527.728943	147.600000
527.822632	147.480000
527.916260	147.520000
528.009949	147.780000
528.103577	147.540000
528.197266	146.280000
528.290894	146.140000
528.384583	146.100000
528.478210	146.040000
528.571899	146.120000
528.665527	146.760000
528.759216	146.800000
528.852844	147.160000
528.946533	147.080000
529.040161	147.080000
529.133850	146.660000
529.227478	146.700000
529.321167	146.860000
529.414856	147.280000
529.508484	147.600000
529.602173	147.820000
529.695801	147.620000
529.789490	147.400000
529.883057	146.960000
529.976746	146.860000
530.070374	146.700000
530.164062	146.560000
530.257690	146.560000
530.351379	147.080000
530.445007	146.780000
530.538696	146.600000
530.632324	146.960000
530.726013	147.140000
530.819641	146.800000
530.913330	146.800000
531.006958	147.140000
531.100647	147.120000
531.194275	146.340000
531.287964	146.320000
531.381592	146.060000
531.475220	146.060000
531.568848	145.680000
531.662537	146.020000
531.756226	146.120000
531.849854	146.040000
531.943542	145.840000
532.037170	145.440000
532.130859	145.820000
532.224487	145.540000
532.318176	145.280000
532.411804	146.020000
532.505432	146.660000
532.599060	146.060000
532.692749	146.040000
532.786377	147.000000
532.880066	146.280000
532.973694	145.660000
533.067383	145.760000
533.161011	145.540000
533.254639	145.260000
533.348267	145.160000
533.441956	145.720000
533.535583	145.660000
533.629272	146.100000
533.722900	145.540000
533.816589	145.980000
533.910156	146.240000
534.003845	146.000000
534.097534	146.360000
534.191162	147.240000
534.284851	146.980000
534.378479	146.580000
534.472107	146.720000
534.565735	146.100000
534.659424	146.100000
534.753052	146.380000
534.846741	146.060000
534.940369	146.700000
535.033997	146.900000
535.127625	146.740000
535.221313	146.940000
535.314941	147.020000
535.408630	146.460000
535.502197	146.860000
535.595886	146.740000
535.689514	146.100000
535.783203	146.860000
535.876831	147.200000
535.970459	146.900000
536.064087	146.640000
536.157776	147.000000
536.251404	146.500000
536.345093	146.220000
536.438721	145.960000
536.532349	146.360000
536.626038	146.260000
536.719666	146.780000
536.813293	146.340000
536.906921	146.460000
537.000610	146.160000
537.094238	146.140000
537.187866	145.540000
537.281494	145.860000
537.375183	146.040000
537.468811	145.900000
537.562439	145.960000
537.656067	146.080000
537.749756	146.340000
537.843384	146.740000
537.937012	147.060000
538.030640	146.800000
538.124329	147.000000
538.217896	147.360000
538.311584	147.060000
538.405212	146.800000
538.498901	147.080000
538.592468	147.580000
538.686157	147.000000
538.779785	146.380000
538.873413	146.560000
538.967102	146.340000
539.060730	145.440000
539.154358	145.860000
539.247986	146.440000
539.341675	146.420000
539.435242	146.560000
539.528931	146.620000
539.622559	146.040000
539.716187	146.180000
539.809814	146.000000
539.903503	145.840000
539.997070	146.360000
540.090759	146.620000
540.184387	146.180000
540.278015	146.620000
540.371643	147.140000
540.465332	146.880000
540.558899	146.720000
540.652588	146.880000
540.746216	146.320000
540.839844	146.240000
540.933472	146.260000
541.027100	146.200000
541.120728	146.200000
541.214417	146.880000
541.308044	147.120000
541.401672	146.680000
541.495300	146.820000
541.588928	146.900000
541.682617	146.400000
541.776184	146.000000
541.869873	146.640000
541.963440	146.740000
542.057129	146.560000
542.150757	146.860000
542.244385	146.700000
542.338013	146.200000
542.431641	146.420000
542.525269	146.480000
542.618958	146.520000
542.712524	146.740000
542.806213	146.600000
542.899780	146.500000
542.993469	146.320000
543.087036	145.820000
543.180725	145.480000
543.274292	146.020000
543.367981	145.980000
543.461548	146.480000
543.555237	146.880000
543.648926	147.400000
543.742493	148.220000
543.836182	148.160000
543.929749	148.000000
544.023437	148.020000
544.117004	147.820000
544.210693	146.960000
544.304260	147.160000
544.397949	146.980000
544.491516	147.280000
544.585205	147.400000
544.678772	147.160000
544.772461	147.080000
544.866028	147.100000
544.959717	146.900000
545.053284	146.560000
545.146973	147.040000
545.240540	147.060000
545.334229	147.660000
545.427795	147.780000
545.521423	148.040000
545.615051	147.800000
545.708679	148.220000
545.802307	147.760000
545.895935	147.860000
545.989624	148.620000
546.083191	148.220000
546.176880	147.980000
546.270447	147.960000
546.364136	148.160000
546.457703	147.440000
546.551331	147.840000
546.644958	147.940000
546.738586	147.880000
546.832214	147.440000
546.925842	147.400000
547.019409	147.440000
547.113098	146.820000
547.206665	146.700000
547.300354	146.640000
547.393921	146.640000
547.487549	146.800000
547.581177	146.900000
547.674805	147.000000
547.768433	146.220000
547.862061	146.340000
547.955627	145.680000
548.049316	146.360000
548.142883	146.540000
548.236572	147.280000
548.330139	147.140000
548.423767	147.280000
548.517456	146.780000
548.611023	147.040000
548.704651	146.500000
548.798279	146.240000
548.891907	146.840000
548.985474	146.520000
549.079163	146.440000
549.172729	146.380000
549.266357	146.080000
549.359985	146.060000
549.453613	145.760000
549.547180	145.120000
549.640869	145.560000
549.734436	145.580000
549.828064	145.600000
549.921631	146.020000
550.015320	145.880000
550.108887	146.220000
550.202515	146.540000
550.296143	145.900000
550.389771	145.880000
550.483337	146.100000
550.576965	145.620000
550.670593	145.880000
550.764221	145.880000
550.857849	145.600000
550.951477	145.100000
551.045105	145.020000
551.138672	144.720000
551.232300	144.620000
551.325928	145.500000
551.419556	146.180000
551.513123	146.340000
551.606750	146.400000
551.700378	146.420000
551.794006	145.860000
551.887573	145.500000
551.981201	145.560000
552.074768	145.580000
552.168457	145.320000
552.262024	146.240000
552.355652	146.560000
552.449219	147.280000
552.542847	147.520000
552.636475	147.800000
552.730103	146.840000
552.823669	146.780000
552.917297	146.040000
553.010864	145.760000
553.104553	146.000000
553.198181	146.060000
553.291748	146.420000
553.385376	146.500000
553.478943	146.400000
553.572571	146.400000
553.666199	146.420000
553.759827	146.020000
553.853394	145.800000
553.947021	145.740000
554.040588	145.800000
554.134216	145.880000
554.227783	146.800000
554.321411	147.380000
554.415039	147.080000
554.508667	147.060000
554.602234	147.320000
554.695862	146.700000
554.789429	146.500000
554.883057	146.840000
554.976624	146.700000
555.070251	146.380000
555.163818	145.860000
555.257507	145.660000
555.351074	145.560000
555.444702	146.480000
555.538330	146.180000
555.631897	146.640000
555.725525	146.560000
555.819092	146.580000
555.912720	145.540000
556.006287	146.380000
556.099915	146.160000
556.193481	146.540000
556.287109	146.800000
556.380676	146.880000
556.474304	146.600000
556.567871	146.960000
556.661499	146.460000
556.755066	146.400000
556.848694	146.480000
556.942261	146.260000
557.035889	146.260000
557.129517	146.620000
557.223145	147.020000
557.316711	147.080000
557.410339	146.960000
557.503906	146.600000
557.597473	146.820000
557.691040	146.580000
557.784668	146.520000
557.878296	146.560000
557.971863	146.640000
558.065491	146.500000
558.159058	146.360000
558.252686	147.100000
558.346252	147.900000
558.439880	147.300000
558.533447	147.080000
558.627075	146.940000
558.720642	146.080000
558.814270	145.480000
558.907837	146.000000
559.001465	145.560000
559.095032	146.180000
559.188660	146.700000
559.282227	146.420000
559.375854	146.760000
559.469360	146.880000
559.562988	146.900000
559.656555	146.640000
559.750183	146.820000
559.843750	146.860000
559.937378	147.200000
560.030945	147.000000
560.124573	0.000000
560.218140	0.000000
560.311707	0.000000
560.405334	0.000000
560.498901	0.000000
560.592529	0.000000
560.686096	0.000000
560.779724	0.000000
560.873291	0.000000
560.966858	0.000000
561.060425	0.000000
561.154053	0.000000
561.247620	0.000000
561.341248	0.000000
561.434814	0.000000
561.528381	0.000000
561.621948	0.000000
561.715576	0.000000
561.809143	0.000000
561.902771	0.000000
561.996277	0.000000
562.089905	0.000000
562.183472	0.000000
562.277100	0.000000
