Model Number: SPM-002-B   
Serial Number: 70087108
Firmware Version: 004.15.4
Exposure Time: 100000.000000us
Data Taken on: 11-12-2020 19:29:40.673
Wavelength	Amplitude
221.570786	0.000000
221.663406	0.000000
221.756027	0.000000
221.848648	0.000000
221.941269	0.000000
222.033905	0.000000
222.126526	0.000000
222.219162	0.000000
222.311798	0.000000
222.404419	0.000000
222.497055	0.000000
222.589676	0.000000
222.682312	0.000000
222.774933	0.000000
222.867569	0.000000
222.960205	0.000000
223.052841	0.000000
223.145462	0.000000
223.238098	0.000000
223.330734	0.000000
223.423386	0.000000
223.516022	0.000000
223.608658	0.000000
223.701309	0.000000
223.793945	0.000000
223.886581	0.000000
223.979218	0.000000
224.071869	0.000000
224.164505	0.000000
224.257156	0.000000
224.349792	0.000000
224.442444	0.000000
224.535095	0.000000
224.627747	0.000000
224.720398	0.000000
224.813034	0.000000
224.905685	0.000000
224.998337	145.640000
225.090988	145.380000
225.183640	145.320000
225.276291	145.280000
225.368942	145.680000
225.461594	146.140000
225.554245	146.520000
225.646912	146.560000
225.739578	147.060000
225.832230	147.440000
225.924896	146.700000
226.017548	147.200000
226.110199	148.060000
226.202866	147.260000
226.295532	146.860000
226.388184	146.860000
226.480850	146.360000
226.573517	145.360000
226.666168	145.680000
226.758835	145.840000
226.851501	146.600000
226.944183	146.700000
227.036850	146.500000
227.129517	146.600000
227.222183	146.740000
227.314850	146.580000
227.407516	146.840000
227.500198	147.900000
227.592865	147.000000
227.685532	146.720000
227.778214	146.360000
227.870880	146.620000
227.963562	146.460000
228.056229	147.280000
228.148926	146.860000
228.241592	147.620000
228.334274	146.960000
228.426956	146.580000
228.519638	146.780000
228.612305	146.800000
228.704987	146.380000
228.797668	146.420000
228.890350	146.380000
228.983032	145.620000
229.075714	146.400000
229.168396	146.100000
229.261108	145.600000
229.353790	145.800000
229.446472	146.360000
229.539169	146.040000
229.631851	145.720000
229.724533	146.620000
229.817230	146.580000
229.909912	147.340000
230.002609	147.180000
230.095306	147.620000
230.187988	147.300000
230.280685	147.040000
230.373383	145.880000
230.466095	145.880000
230.558792	146.020000
230.651474	145.960000
230.744171	146.100000
230.836868	146.140000
230.929581	146.620000
231.022278	146.420000
231.114975	146.520000
231.207672	146.180000
231.300369	146.720000
231.393082	146.700000
231.485779	146.420000
231.578506	146.320000
231.671204	146.860000
231.763916	146.800000
231.856613	146.600000
231.949326	146.960000
232.042023	146.780000
232.134735	146.740000
232.227448	146.100000
232.320160	146.400000
232.412872	146.500000
232.505585	147.400000
232.598297	147.420000
232.691010	147.500000
232.783722	147.200000
232.876450	147.800000
232.969162	147.180000
233.061874	146.640000
233.154587	146.540000
233.247314	146.620000
233.340027	145.660000
233.432739	145.940000
233.525467	146.100000
233.618179	146.800000
233.710907	146.280000
233.803635	146.920000
233.896347	146.460000
233.989090	147.220000
234.081818	147.040000
234.174545	147.480000
234.267258	146.860000
234.359985	147.020000
234.452713	146.280000
234.545441	145.800000
234.638168	145.660000
234.730896	146.240000
234.823639	146.220000
234.916367	146.780000
235.009094	146.960000
235.101822	147.080000
235.194580	146.880000
235.287308	146.980000
235.380051	146.140000
235.472778	146.360000
235.565521	146.600000
235.658249	146.320000
235.750992	146.620000
235.843719	146.820000
235.936462	146.980000
236.029205	146.560000
236.121948	146.460000
236.214691	146.420000
236.307449	147.400000
236.400192	147.240000
236.492935	146.980000
236.585678	147.320000
236.678421	147.220000
236.771164	146.720000
236.863907	147.400000
236.956665	147.940000
237.049408	149.120000
237.142151	148.560000
237.234909	149.320000
237.327652	148.740000
237.420410	148.340000
237.513153	147.340000
237.605927	147.480000
237.698669	146.860000
237.791428	146.560000
237.884186	147.260000
237.976944	146.680000
238.069702	147.320000
238.162445	147.020000
238.255203	147.240000
238.347961	147.100000
238.440720	147.220000
238.533478	146.700000
238.626266	146.380000
238.719025	146.640000
238.811783	146.560000
238.904541	146.740000
238.997314	146.580000
239.090073	146.300000
239.182831	146.340000
239.275604	146.660000
239.368362	146.420000
239.461136	146.600000
239.553909	146.940000
239.646667	146.800000
239.739441	146.220000
239.832214	146.300000
239.925003	146.740000
240.017761	147.140000
240.110535	147.440000
240.203308	147.200000
240.296082	147.360000
240.388855	146.760000
240.481628	146.540000
240.574417	146.380000
240.667191	146.880000
240.759964	146.860000
240.852737	147.100000
240.945526	147.000000
241.038315	146.840000
241.131088	146.840000
241.223877	147.200000
241.316650	146.900000
241.409439	147.320000
241.502228	146.780000
241.595001	147.100000
241.687790	146.500000
241.780579	146.580000
241.873367	146.600000
241.966141	147.120000
242.058929	146.280000
242.151718	146.880000
242.244507	147.160000
242.337311	146.500000
242.430099	147.060000
242.522903	147.580000
242.615692	147.080000
242.708481	147.280000
242.801270	147.720000
242.894073	147.020000
242.986862	146.860000
243.079651	147.260000
243.172455	147.060000
243.265244	147.200000
243.358063	147.080000
243.450867	147.620000
243.543655	147.160000
243.636459	147.160000
243.729263	147.280000
243.822067	147.280000
243.914856	147.300000
244.007660	147.740000
244.100464	147.620000
244.193268	147.260000
244.286072	147.300000
244.378876	146.260000
244.471680	145.780000
244.564499	145.900000
244.657318	146.740000
244.750122	147.140000
244.842926	146.880000
244.935745	147.420000
245.028549	147.200000
245.121368	146.740000
245.214172	146.600000
245.306992	147.440000
245.399796	146.780000
245.492615	146.940000
245.585434	146.740000
245.678253	146.660000
245.771072	146.540000
245.863892	147.320000
245.956711	147.520000
246.049530	147.280000
246.142349	147.040000
246.235168	147.120000
246.327988	147.380000
246.420807	146.960000
246.513626	147.040000
246.606445	146.900000
246.699280	146.920000
246.792099	146.400000
246.884918	146.300000
246.977753	146.000000
247.070587	146.320000
247.163422	146.380000
247.256241	146.640000
247.349075	147.000000
247.441895	147.260000
247.534729	147.380000
247.627563	147.140000
247.720383	147.420000
247.813217	147.180000
247.906052	146.960000
247.998886	146.820000
248.091736	146.860000
248.184570	146.320000
248.277405	146.580000
248.370239	147.960000
248.463074	148.940000
248.555908	149.220000
248.648743	148.960000
248.741592	148.960000
248.834427	147.840000
248.927261	146.720000
249.020111	147.100000
249.112946	147.880000
249.205795	147.580000
249.298630	147.680000
249.391495	147.940000
249.484344	147.280000
249.577179	146.920000
249.670029	147.240000
249.762878	147.720000
249.855728	147.600000
249.948563	147.540000
250.041412	146.960000
250.134262	147.100000
250.227112	146.920000
250.319962	146.940000
250.412827	146.880000
250.505692	147.020000
250.598541	146.780000
250.691391	146.480000
250.784241	146.600000
250.877106	147.080000
250.969955	146.820000
251.062805	147.520000
251.155670	147.980000
251.248520	147.800000
251.341385	147.680000
251.434235	147.820000
251.527100	147.060000
251.619965	146.580000
251.712814	147.140000
251.805695	147.180000
251.898560	147.620000
251.991425	147.880000
252.084290	148.080000
252.177155	147.480000
252.270020	147.140000
252.362885	146.620000
252.455750	146.600000
252.548615	146.060000
252.641479	146.020000
252.734360	145.940000
252.827240	146.040000
252.920105	146.080000
253.012970	146.160000
253.105850	145.960000
253.198715	145.780000
253.291595	146.020000
253.384460	145.580000
253.477341	145.680000
253.570221	146.080000
253.663086	146.040000
253.755966	146.400000
253.848846	146.720000
253.941727	146.940000
254.034592	146.700000
254.127472	146.480000
254.220367	146.320000
254.313248	146.320000
254.406128	146.020000
254.499008	146.380000
254.591904	147.460000
254.684784	147.880000
254.777664	147.700000
254.870544	147.380000
254.963440	147.120000
255.056335	147.060000
255.149216	146.460000
255.242111	147.220000
255.334991	147.780000
255.427887	147.800000
255.520767	147.660000
255.613663	147.740000
255.706558	146.640000
255.799438	146.460000
255.892334	146.420000
255.985229	146.280000
256.078125	146.180000
256.171021	146.380000
256.263916	146.880000
256.356812	147.040000
256.449707	147.200000
256.542603	147.120000
256.635498	147.560000
256.728394	146.860000
256.821289	146.680000
256.914215	146.860000
257.007080	147.200000
257.100006	147.220000
257.192932	147.940000
257.285828	148.020000
257.378723	147.460000
257.471619	147.500000
257.564545	147.200000
257.657440	147.080000
257.750336	147.480000
257.843262	147.200000
257.936157	147.880000
258.029053	148.320000
258.121979	148.040000
258.214874	147.360000
258.307800	147.460000
258.400696	146.580000
258.493622	146.260000
258.586517	145.720000
258.679443	146.400000
258.772339	145.980000
258.865265	145.620000
258.958160	145.400000
259.051086	146.100000
259.144012	145.600000
259.236938	146.620000
259.329834	146.760000
259.422791	146.520000
259.515717	146.120000
259.608612	146.220000
259.701538	146.240000
259.794464	146.140000
259.887390	146.440000
259.980316	146.520000
260.073212	146.280000
260.166138	145.140000
260.259064	145.860000
260.351990	146.160000
260.444916	146.240000
260.537842	146.960000
260.630768	147.840000
260.723694	147.300000
260.816620	147.000000
260.909546	147.000000
261.002472	146.100000
261.095398	145.780000
261.188354	145.780000
261.281281	145.580000
261.374207	145.560000
261.467133	146.820000
261.560089	147.120000
261.653015	147.000000
261.745972	147.860000
261.838867	148.180000
261.931824	148.020000
262.024780	147.320000
262.117706	147.520000
262.210663	147.300000
262.303589	147.220000
262.396515	146.820000
262.489471	147.900000
262.582397	147.960000
262.675354	147.260000
262.768280	147.140000
262.861237	147.040000
262.954163	146.760000
263.047119	146.680000
263.140045	146.800000
263.233002	146.620000
263.325958	146.680000
263.418884	146.180000
263.511841	146.320000
263.604797	146.640000
263.697723	146.760000
263.790680	146.600000
263.883636	147.340000
263.976593	146.960000
264.069550	146.900000
264.162476	146.660000
264.255463	146.620000
264.348419	146.000000
264.441376	146.340000
264.534332	145.840000
264.627289	145.860000
264.720245	146.520000
264.813202	146.100000
264.906158	146.080000
264.999115	146.940000
265.092072	147.140000
265.185028	147.180000
265.277985	147.700000
265.370941	147.580000
265.463898	147.040000
265.556854	146.840000
265.649811	145.760000
265.742798	145.900000
265.835754	146.080000
265.928711	146.660000
266.021667	146.560000
266.114655	147.000000
266.207611	147.140000
266.300568	146.560000
266.393585	145.860000
266.486511	146.220000
266.579498	145.480000
266.672485	145.480000
266.765442	145.820000
266.858429	146.400000
266.951385	146.220000
267.044342	146.940000
267.137329	146.700000
267.230316	147.060000
267.323273	146.540000
267.416260	147.220000
267.509216	146.940000
267.602203	146.860000
267.695160	147.040000
267.788147	147.340000
267.881134	146.540000
267.974091	146.840000
268.067078	146.640000
268.160065	146.240000
268.253052	145.680000
268.346008	146.160000
268.438995	145.780000
268.531982	145.880000
268.624969	145.800000
268.717987	146.360000
268.810944	145.840000
268.903961	145.900000
268.996948	145.660000
269.089905	145.980000
269.182892	146.000000
269.275879	146.540000
269.368866	146.320000
269.461853	147.000000
269.554871	146.940000
269.647858	146.680000
269.740845	146.700000
269.833832	147.000000
269.926819	146.500000
270.019806	146.220000
270.112793	146.320000
270.205811	146.400000
270.298798	146.420000
270.391785	147.000000
270.484772	146.980000
270.577789	146.900000
270.670776	146.460000
270.763763	146.460000
270.856750	146.220000
270.949768	146.080000
271.042786	146.120000
271.135773	146.200000
271.228790	146.400000
271.321808	145.760000
271.414795	145.740000
271.507782	145.420000
271.600800	145.140000
271.693817	145.340000
271.786804	146.220000
271.879822	146.460000
271.972809	146.720000
272.065826	147.420000
272.158844	146.700000
272.251831	147.200000
272.344849	147.440000
272.437866	147.240000
272.530853	146.940000
272.623871	147.440000
272.716888	146.380000
272.809906	146.380000
272.902893	146.700000
272.995911	146.180000
273.088928	146.340000
273.181946	146.540000
273.274963	145.940000
273.367981	145.780000
273.460999	146.060000
273.554047	146.200000
273.647003	146.660000
273.740051	146.760000
273.833069	146.920000
273.926086	147.320000
274.019135	146.740000
274.112152	146.280000
274.205170	146.580000
274.298187	146.840000
274.391205	146.340000
274.484222	146.400000
274.577240	146.260000
274.670258	145.840000
274.763306	145.660000
274.856323	146.200000
274.949341	146.580000
275.042358	147.280000
275.135406	147.320000
275.228424	146.960000
275.321442	146.860000
275.414490	146.560000
275.507507	146.660000
275.600525	147.220000
275.693573	147.380000
275.786591	147.100000
275.879669	147.460000
275.972656	146.940000
276.065735	146.720000
276.158752	147.320000
276.251801	148.040000
276.344818	147.760000
276.437866	147.860000
276.530884	147.760000
276.623932	146.800000
276.716980	146.740000
276.809998	146.940000
276.903046	147.000000
276.996094	147.920000
277.089111	148.580000
277.182159	148.580000
277.275208	148.200000
277.368256	147.940000
277.461304	147.160000
277.554321	146.500000
277.647369	146.120000
277.740417	146.140000
277.833466	146.120000
277.926514	145.980000
278.019562	146.760000
278.112610	146.320000
278.205688	146.600000
278.298706	146.740000
278.391785	146.700000
278.484833	146.100000
278.577881	146.040000
278.670929	146.440000
278.763977	146.320000
278.857025	146.740000
278.950073	147.100000
279.043121	147.080000
279.136169	146.480000
279.229248	146.440000
279.322296	146.340000
279.415344	146.020000
279.508392	146.080000
279.601440	146.360000
279.694519	146.080000
279.787567	146.060000
279.880615	146.100000
279.973694	145.940000
280.066742	145.840000
280.159790	146.120000
280.252869	145.700000
280.345917	145.820000
280.438995	145.820000
280.532074	145.660000
280.625122	146.020000
280.718201	146.960000
280.811279	146.880000
280.904327	147.060000
280.997406	147.420000
281.090454	147.380000
281.183533	146.800000
281.276581	146.700000
281.369659	146.380000
281.462738	146.400000
281.555786	146.420000
281.648865	146.260000
281.741943	146.400000
281.835022	147.500000
281.928070	147.100000
282.021149	146.900000
282.114227	146.720000
282.207306	146.600000
282.300385	146.440000
282.393433	146.840000
282.486511	146.820000
282.579590	147.580000
282.672668	147.840000
282.765747	146.960000
282.858856	146.460000
282.951904	146.600000
283.045013	146.520000
283.138062	146.680000
283.231171	147.320000
283.324249	147.760000
283.417328	147.860000
283.510406	147.260000
283.603485	146.900000
283.696564	146.560000
283.789642	146.460000
283.882751	145.900000
283.975830	146.680000
284.068909	146.440000
284.161987	147.280000
284.255066	146.920000
284.348175	147.220000
284.441254	146.720000
284.534332	147.360000
284.627441	146.660000
284.720520	146.300000
284.813599	146.320000
284.906708	146.440000
284.999786	145.420000
285.092896	145.340000
285.185974	146.820000
285.279053	146.320000
285.372192	146.220000
285.465240	147.240000
285.558380	147.220000
285.651459	146.600000
285.744568	147.900000
285.837677	147.600000
285.930756	147.600000
286.023865	147.640000
286.116943	147.080000
286.210052	146.360000
286.303162	146.620000
286.396240	146.600000
286.489349	146.520000
286.582458	146.960000
286.675568	146.980000
286.768646	147.100000
286.861755	146.960000
286.954865	147.500000
287.047974	146.960000
287.141083	146.580000
287.234161	146.080000
287.327271	146.080000
287.420380	146.220000
287.513519	146.160000
287.606598	146.300000
287.699738	146.560000
287.792816	146.340000
287.885956	145.980000
287.979034	146.220000
288.072174	146.300000
288.165283	146.300000
288.258392	146.620000
288.351501	146.080000
288.444611	146.340000
288.537720	147.000000
288.630859	146.780000
288.723969	147.060000
288.817078	147.580000
288.910187	147.420000
289.003296	146.520000
289.096436	146.660000
289.189545	146.180000
289.282654	145.660000
289.375763	146.240000
289.468903	146.800000
289.562012	147.020000
289.655121	146.860000
289.748260	147.320000
289.841400	147.220000
289.934509	146.920000
290.027649	147.000000
290.120728	147.160000
290.213898	146.980000
290.306976	146.580000
290.400146	146.840000
290.493256	146.280000
290.586395	146.320000
290.679535	146.780000
290.772644	146.520000
290.865784	145.860000
290.958893	145.880000
291.052032	145.540000
291.145172	145.300000
291.238281	145.540000
291.331421	146.000000
291.424561	146.600000
291.517670	146.420000
291.610809	146.720000
291.703949	146.340000
291.797089	146.520000
291.890228	146.160000
291.983337	146.420000
292.076477	146.100000
292.169617	146.620000
292.262756	146.280000
292.355927	146.040000
292.449036	146.060000
292.542206	146.240000
292.635315	146.380000
292.728485	146.720000
292.821625	146.840000
292.914764	147.980000
293.007904	147.900000
293.101044	147.500000
293.194183	147.200000
293.287323	147.280000
293.380463	146.280000
293.473602	146.040000
293.566742	146.340000
293.659882	147.040000
293.753021	147.320000
293.846191	147.500000
293.939331	147.120000
294.032471	146.580000
294.125610	146.140000
294.218781	146.180000
294.311920	146.360000
294.405060	146.700000
294.498230	146.920000
294.591370	146.760000
294.684540	146.360000
294.777679	145.660000
294.870850	145.960000
294.963959	146.040000
295.057159	145.920000
295.150299	146.460000
295.243469	146.740000
295.336609	146.000000
295.429779	146.180000
295.522919	146.560000
295.616089	146.420000
295.709229	146.640000
295.802399	147.220000
295.895569	146.900000
295.988708	146.580000
296.081879	146.660000
296.175018	146.540000
296.268188	146.380000
296.361359	147.160000
296.454529	147.120000
296.547668	147.020000
296.640839	147.000000
296.734009	146.960000
296.827179	146.860000
296.920319	147.280000
297.013519	146.920000
297.106659	147.260000
297.199860	147.380000
297.292999	147.080000
297.386200	146.700000
297.479309	146.740000
297.572510	146.640000
297.665680	146.280000
297.758850	146.120000
297.852020	146.380000
297.945190	146.460000
298.038361	145.920000
298.131531	147.040000
298.224701	147.000000
298.317871	146.800000
298.411072	146.280000
298.504242	146.480000
298.597412	145.740000
298.690582	146.000000
298.783752	145.760000
298.876923	146.320000
298.970093	146.280000
299.063293	146.380000
299.156464	146.740000
299.249634	147.240000
299.342834	147.520000
299.436005	147.800000
299.529205	147.960000
299.622345	147.840000
299.715576	147.140000
299.808716	147.140000
299.901917	147.080000
299.995117	146.880000
300.088287	146.840000
300.181488	146.780000
300.274658	146.280000
300.367828	146.400000
300.461029	146.560000
300.554199	146.920000
300.647400	147.240000
300.740601	147.800000
300.833771	147.640000
300.926971	147.880000
301.020142	146.880000
301.113342	146.940000
301.206512	146.680000
301.299713	147.000000
301.392914	146.840000
301.486084	147.400000
301.579285	147.320000
301.672516	147.580000
301.765686	147.100000
301.858887	147.180000
301.952057	146.920000
302.045288	147.100000
302.138458	146.620000
302.231659	146.420000
302.324860	145.960000
302.418060	145.920000
302.511261	145.960000
302.604462	146.380000
302.697662	146.600000
302.790863	146.620000
302.884064	146.280000
302.977264	146.360000
303.070465	146.620000
303.163666	147.380000
303.256866	147.780000
303.350067	148.060000
303.443268	147.780000
303.536469	147.600000
303.629669	146.920000
303.722870	147.040000
303.816071	146.920000
303.909271	147.140000
304.002472	146.420000
304.095673	146.180000
304.188934	145.660000
304.282104	146.360000
304.375336	146.460000
304.468506	146.540000
304.561768	146.500000
304.654968	147.200000
304.748169	146.620000
304.841370	146.000000
304.934601	146.640000
305.027802	146.480000
305.121002	145.580000
305.214233	145.520000
305.307434	145.820000
305.400665	146.060000
305.493866	146.060000
305.587097	146.660000
305.680298	146.600000
305.773499	147.160000
305.866730	146.600000
305.959930	147.480000
306.053162	147.500000
306.146393	147.400000
306.239594	146.600000
306.332825	146.800000
306.426025	146.820000
306.519287	146.160000
306.612488	146.460000
306.705719	146.380000
306.798920	146.420000
306.892181	145.820000
306.985352	145.980000
307.078613	145.420000
307.171844	146.120000
307.265045	145.640000
307.358276	145.340000
307.451508	145.780000
307.544739	146.720000
307.637970	146.260000
307.731201	146.380000
307.824402	147.080000
307.917633	147.020000
308.010864	146.960000
308.104095	147.480000
308.197327	147.860000
308.290558	147.900000
308.383789	147.460000
308.477020	146.940000
308.570251	146.200000
308.663483	145.520000
308.756714	145.280000
308.849976	145.660000
308.943176	146.400000
309.036438	146.360000
309.129639	146.500000
309.222900	146.740000
309.316101	146.280000
309.409393	145.840000
309.502625	145.840000
309.595856	146.320000
309.689087	146.220000
309.782318	146.380000
309.875580	146.180000
309.968811	146.420000
310.062042	145.960000
310.155273	145.700000
310.248535	146.400000
310.341766	146.420000
310.434998	146.220000
310.528259	145.880000
310.621490	146.480000
310.714722	145.400000
310.807983	145.620000
310.901215	145.800000
310.994476	146.240000
311.087708	145.520000
311.181000	146.240000
311.274200	145.800000
311.367462	145.920000
311.460693	145.660000
311.553986	146.760000
311.647186	147.060000
311.740479	147.580000
311.833710	147.180000
311.926971	147.460000
312.020203	146.340000
312.113464	145.780000
312.206726	145.340000
312.299957	145.620000
312.393219	146.080000
312.486481	146.560000
312.579712	146.500000
312.672974	146.520000
312.766235	146.580000
312.859497	146.320000
312.952759	146.140000
313.045990	147.020000
313.139252	146.840000
313.232513	147.040000
313.325775	147.060000
313.419037	146.880000
313.512299	146.120000
313.605530	146.880000
313.698822	147.020000
313.792053	146.960000
313.885345	146.760000
313.978577	146.820000
314.071869	146.020000
314.165131	146.100000
314.258392	146.360000
314.351654	146.460000
314.444916	146.080000
314.538177	146.860000
314.631439	146.820000
314.724701	146.560000
314.817993	146.660000
314.911255	146.900000
315.004517	146.340000
315.097778	146.280000
315.191040	146.620000
315.284302	146.820000
315.377594	146.660000
315.470856	146.840000
315.564117	146.340000
315.657379	145.540000
315.750671	145.060000
315.843933	145.340000
315.937195	144.900000
316.030518	144.740000
316.123749	145.020000
316.217041	145.880000
316.310303	146.160000
316.403595	146.600000
316.496857	146.920000
316.590149	147.140000
316.683411	146.520000
316.776703	145.920000
316.869965	145.700000
316.963257	145.620000
317.056519	144.940000
317.149811	144.800000
317.243073	145.080000
317.336365	145.480000
317.429626	145.860000
317.522919	146.640000
317.616180	146.840000
317.709473	146.640000
317.802765	146.040000
317.896027	145.880000
317.989319	145.920000
318.082611	145.960000
318.175873	146.240000
318.269165	146.640000
318.362488	146.760000
318.455750	146.400000
318.549042	146.740000
318.642303	147.340000
318.735626	147.040000
318.828888	147.020000
318.922211	146.860000
319.015472	147.100000
319.108765	145.980000
319.202057	145.920000
319.295349	145.800000
319.388641	145.900000
319.481934	145.520000
319.575226	145.600000
319.668518	145.960000
319.761810	146.060000
319.855103	146.200000
319.948395	146.220000
320.041687	146.660000
320.134979	146.280000
320.228271	146.060000
320.321564	145.900000
320.414856	145.760000
320.508148	145.320000
320.601440	145.420000
320.694763	145.320000
320.788025	146.000000
320.881348	146.240000
320.974640	146.600000
321.067963	146.140000
321.161224	146.480000
321.254547	145.680000
321.347839	146.160000
321.441162	145.700000
321.534454	146.040000
321.627747	145.540000
321.721069	146.200000
321.814362	145.700000
321.907654	145.960000
322.000946	146.080000
322.094269	146.940000
322.187561	146.660000
322.280884	147.040000
322.374176	147.200000
322.467468	147.660000
322.560791	147.620000
322.654083	147.820000
322.747406	147.660000
322.840698	147.920000
322.934021	148.280000
323.027344	148.520000
323.120636	148.240000
323.213959	147.880000
323.307251	147.320000
323.400574	146.820000
323.493866	146.180000
323.587219	146.460000
323.680511	146.740000
323.773834	147.040000
323.867157	146.960000
323.960449	147.040000
324.053772	146.820000
324.147095	146.760000
324.240387	147.460000
324.333710	147.600000
324.427032	147.520000
324.520355	147.500000
324.613647	147.280000
324.706970	146.580000
324.800293	146.600000
324.893616	146.940000
324.986938	147.320000
325.080231	147.500000
325.173553	147.880000
325.266876	148.260000
325.360199	148.240000
325.453522	147.540000
325.546875	147.060000
325.640167	147.080000
325.733521	147.160000
325.826813	147.260000
325.920166	147.400000
326.013489	147.520000
326.106812	146.540000
326.200134	146.000000
326.293457	145.240000
326.386780	145.300000
326.480103	145.580000
326.573425	146.100000
326.666748	146.100000
326.760071	146.860000
326.853424	146.840000
326.946747	146.620000
327.040070	147.460000
327.133392	147.180000
327.226715	146.420000
327.320068	146.280000
327.413391	146.920000
327.506714	145.640000
327.600037	145.820000
327.693390	145.980000
327.786713	145.700000
327.880066	144.980000
327.973358	145.700000
328.066742	146.080000
328.160034	146.560000
328.253418	147.360000
328.346710	147.260000
328.440063	146.800000
328.533417	146.560000
328.626740	146.660000
328.720093	146.220000
328.813416	146.220000
328.906769	146.400000
329.000092	146.400000
329.093445	146.000000
329.186768	146.100000
329.280121	146.720000
329.373444	146.940000
329.466797	146.800000
329.560120	147.120000
329.653473	147.180000
329.746796	146.740000
329.840149	146.360000
329.933502	146.620000
330.026825	146.240000
330.120178	145.920000
330.213562	146.020000
330.306854	146.180000
330.400238	146.000000
330.493561	145.960000
330.586945	146.820000
330.680237	146.880000
330.773621	147.060000
330.866974	147.100000
330.960327	147.120000
331.053680	146.600000
331.147003	147.100000
331.240356	147.340000
331.333710	147.440000
331.427063	147.180000
331.520416	147.160000
331.613770	146.600000
331.707123	146.280000
331.800476	146.440000
331.893829	147.720000
331.987152	147.780000
332.080505	147.860000
332.173859	147.960000
332.267212	147.180000
332.360565	146.260000
332.453918	146.380000
332.547333	146.400000
332.640656	146.420000
332.734039	146.900000
332.827362	146.620000
332.920746	146.720000
333.014069	146.980000
333.107452	146.980000
333.200806	147.140000
333.294159	147.620000
333.387543	146.920000
333.480896	146.280000
333.574249	145.900000
333.667603	145.240000
333.760956	145.380000
333.854340	145.880000
333.947693	146.040000
334.041046	146.500000
334.134430	147.220000
334.227783	146.720000
334.321136	146.660000
334.414520	146.380000
334.507874	146.520000
334.601227	146.500000
334.694611	146.820000
334.787964	146.820000
334.881348	147.320000
334.974701	146.880000
335.068085	146.300000
335.161438	146.440000
335.254822	146.260000
335.348175	146.000000
335.441559	145.580000
335.534943	146.460000
335.628296	145.800000
335.721680	145.840000
335.815033	146.120000
335.908417	146.760000
336.001770	146.500000
336.095154	146.740000
336.188538	146.620000
336.281891	146.060000
336.375275	145.560000
336.468658	144.980000
336.562012	145.180000
336.655396	145.480000
336.748779	146.080000
336.842133	146.580000
336.935516	147.220000
337.028900	146.960000
337.122284	146.860000
337.215637	146.880000
337.309021	146.740000
337.402435	145.940000
337.495789	146.160000
337.589203	146.000000
337.682526	145.460000
337.775940	145.780000
337.869324	146.340000
337.962708	146.100000
338.056091	146.580000
338.149475	146.560000
338.242859	146.620000
338.336243	146.360000
338.429626	146.340000
338.523010	146.140000
338.616394	146.280000
338.709778	146.280000
338.803162	146.620000
338.896545	146.620000
338.989929	146.420000
339.083313	146.820000
339.176697	146.220000
339.270081	145.700000
339.363464	146.160000
339.456848	146.460000
339.550232	145.440000
339.643616	145.540000
339.737030	146.000000
339.830383	145.480000
339.923828	145.500000
340.017181	146.240000
340.110596	146.420000
340.203949	146.040000
340.297363	145.960000
340.390778	145.960000
340.484161	145.940000
340.577545	145.920000
340.670959	146.240000
340.764343	146.360000
340.857727	146.460000
340.951111	146.140000
341.044525	146.160000
341.137909	145.720000
341.231293	145.820000
341.324707	144.900000
341.418091	145.980000
341.511505	145.580000
341.604889	146.120000
341.698303	146.220000
341.791687	146.580000
341.885071	145.700000
341.978485	145.740000
342.071899	145.700000
342.165283	145.780000
342.258698	146.340000
342.352081	146.720000
342.445496	147.360000
342.538879	147.220000
342.632324	146.920000
342.725708	146.540000
342.819122	146.160000
342.912506	146.040000
343.005920	146.040000
343.099335	146.700000
343.192719	146.860000
343.286133	146.920000
343.379547	146.980000
343.472931	146.920000
343.566345	146.420000
343.659760	146.680000
343.753143	146.360000
343.846558	145.800000
343.939972	145.980000
344.033386	146.600000
344.126770	146.260000
344.220184	146.760000
344.313599	147.120000
344.407043	147.000000
344.500427	146.040000
344.593872	146.640000
344.687225	146.300000
344.780670	146.260000
344.874054	146.240000
344.967499	147.220000
345.060913	146.840000
345.154327	146.740000
345.247742	146.300000
345.341156	146.000000
345.434570	145.160000
345.527985	144.920000
345.621399	145.420000
345.714813	145.660000
345.808228	146.200000
345.901642	146.220000
345.995056	146.060000
346.088470	145.840000
346.181885	145.640000
346.275299	145.240000
346.368713	145.440000
346.462128	145.140000
346.555573	145.160000
346.648987	145.880000
346.742401	145.880000
346.835815	146.100000
346.929260	146.200000
347.022644	146.240000
347.116119	146.080000
347.209503	146.420000
347.302948	147.240000
347.396362	147.700000
347.489807	147.840000
347.583221	148.200000
347.676636	147.800000
347.770050	146.440000
347.863495	146.180000
347.956909	146.080000
348.050323	145.580000
348.143768	145.620000
348.237183	145.460000
348.330597	145.940000
348.424042	146.140000
348.517456	146.340000
348.610901	146.880000
348.704315	147.180000
348.797760	146.420000
348.891174	145.580000
348.984619	145.020000
349.078033	144.780000
349.171448	145.640000
349.264923	145.700000
349.358337	146.040000
349.451782	146.380000
349.545197	145.900000
349.638641	144.900000
349.732086	144.860000
349.825500	145.380000
349.918945	145.080000
350.012390	145.840000
350.105804	146.460000
350.199249	146.740000
350.292664	147.120000
350.386108	147.340000
350.479553	147.300000
350.572968	147.020000
350.666412	147.020000
350.759857	146.580000
350.853302	146.940000
350.946716	146.640000
351.040161	146.680000
351.133606	146.860000
351.227081	146.640000
351.320465	146.760000
351.413940	147.080000
351.507355	147.340000
351.600830	147.440000
351.694244	147.300000
351.787720	147.520000
351.881104	147.020000
351.974579	146.620000
352.067993	147.160000
352.161469	147.440000
352.254883	146.640000
352.348358	146.900000
352.441803	147.080000
352.535248	146.600000
352.628693	146.780000
352.722137	146.700000
352.815582	146.540000
352.909027	146.420000
353.002472	146.020000
353.095917	145.660000
353.189362	146.160000
353.282806	146.020000
353.376251	145.860000
353.469696	145.660000
353.563141	146.200000
353.656586	146.020000
353.750061	145.720000
353.843475	145.740000
353.936981	146.700000
354.030396	145.960000
354.123871	145.720000
354.217285	146.700000
354.310760	146.920000
354.404175	146.260000
354.497681	146.080000
354.591095	146.380000
354.684570	145.300000
354.777985	145.280000
354.871490	145.060000
354.964935	145.700000
355.058380	145.600000
355.151855	145.640000
355.245300	146.040000
355.338745	146.480000
355.432220	146.400000
355.525665	145.920000
355.619110	146.720000
355.712585	146.440000
355.806030	146.220000
355.899475	145.820000
355.992950	146.480000
356.086426	146.440000
356.179871	146.600000
356.273346	146.500000
356.366791	147.100000
356.460266	147.020000
356.553711	146.780000
356.647186	146.400000
356.740631	146.440000
356.834106	145.780000
356.927551	145.500000
357.021027	145.580000
357.114471	146.080000
357.207947	146.300000
357.301422	146.920000
357.394867	147.020000
357.488342	146.900000
357.581818	146.640000
357.675262	146.680000
357.768738	146.180000
357.862213	145.800000
357.955658	145.800000
358.049133	145.460000
358.142609	145.660000
358.236053	145.300000
358.329529	145.400000
358.423035	145.800000
358.516449	145.780000
358.609955	146.120000
358.703400	147.240000
358.796906	147.540000
358.890350	147.000000
358.983826	147.100000
359.077271	146.220000
359.170776	145.820000
359.264221	145.680000
359.357727	145.860000
359.451172	146.280000
359.544647	146.600000
359.638123	146.320000
359.731598	146.680000
359.825073	147.140000
359.918549	146.720000
360.012024	146.720000
360.105499	146.480000
360.198975	146.360000
360.292450	146.060000
360.385925	146.120000
360.479401	145.880000
360.572876	146.340000
360.666351	146.660000
360.759857	146.440000
360.853302	146.560000
360.946808	146.360000
361.040253	146.340000
361.133759	145.860000
361.227203	146.320000
361.320709	146.080000
361.414154	146.420000
361.507660	146.460000
361.601105	146.920000
361.694641	147.200000
361.788086	147.160000
361.881592	147.620000
361.975067	147.360000
362.068542	147.360000
362.162018	147.040000
362.255524	146.920000
362.348999	146.540000
362.442474	146.680000
362.535950	146.320000
362.629456	146.160000
362.722931	146.200000
362.816406	146.540000
362.909882	147.000000
363.003387	146.580000
363.096863	146.960000
363.190338	147.240000
363.283875	146.980000
363.377319	146.640000
363.470825	147.380000
363.564301	146.620000
363.657806	146.520000
363.751282	146.280000
363.844788	147.320000
363.938232	146.620000
364.031769	147.420000
364.125214	147.640000
364.218750	148.160000
364.312225	146.520000
364.405731	146.940000
364.499207	146.280000
364.592712	146.300000
364.686188	146.120000
364.779694	146.640000
364.873169	146.660000
364.966675	146.560000
365.060150	146.280000
365.153656	146.580000
365.247131	146.600000
365.340637	146.800000
365.434143	147.460000
365.527618	147.660000
365.621155	146.500000
365.714600	146.460000
365.808136	146.280000
365.901611	145.300000
365.995117	145.060000
366.088593	145.580000
366.182129	145.620000
366.275604	145.680000
366.369110	146.020000
366.462585	145.760000
366.556122	146.380000
366.649567	146.260000
366.743103	146.240000
366.836609	146.120000
366.930115	146.860000
367.023590	146.640000
367.117096	146.580000
367.210602	146.380000
367.304108	147.100000
367.397614	147.320000
367.491119	147.600000
367.584595	147.780000
367.678101	148.380000
367.771606	147.920000
367.865112	147.480000
367.958649	146.380000
368.052124	146.080000
368.145660	145.540000
368.239136	146.120000
368.332672	146.240000
368.426147	146.520000
368.519684	146.620000
368.613159	147.020000
368.706696	146.460000
368.800171	146.680000
368.893707	147.000000
368.987183	147.120000
369.080719	147.140000
369.174225	146.980000
369.267731	146.920000
369.361237	146.960000
369.454742	147.000000
369.548248	147.020000
369.641754	146.940000
369.735260	146.360000
369.828766	145.560000
369.922272	146.220000
370.015808	145.800000
370.109314	145.580000
370.202820	145.660000
370.296356	147.020000
370.389832	146.040000
370.483368	145.820000
370.576874	145.840000
370.670410	146.020000
370.763885	144.900000
370.857422	145.220000
370.950928	145.420000
371.044464	146.280000
371.137939	146.220000
371.231476	146.680000
371.324982	147.320000
371.418518	147.460000
371.512024	147.160000
371.605560	146.840000
371.699066	147.240000
371.792572	146.440000
371.886108	146.460000
371.979614	146.380000
372.073120	147.040000
372.166656	146.500000
372.260162	146.780000
372.353668	146.600000
372.447205	146.260000
372.540710	146.100000
372.634277	146.060000
372.727753	146.240000
372.821320	146.400000
372.914795	146.480000
373.008362	146.420000
373.101837	146.360000
373.195404	146.120000
373.288879	145.620000
373.382446	146.500000
373.475922	146.220000
373.569489	146.980000
373.662964	147.380000
373.756531	147.740000
373.850037	147.540000
373.943573	147.460000
374.037109	146.340000
374.130615	146.220000
374.224152	146.400000
374.317657	145.960000
374.411194	146.860000
374.504730	147.320000
374.598236	146.800000
374.691772	146.860000
374.785309	146.900000
374.878815	145.880000
374.972351	146.260000
375.065887	146.240000
375.159454	146.620000
375.252930	146.480000
375.346497	146.800000
375.440002	147.000000
375.533569	147.200000
375.627045	146.460000
375.720612	146.380000
375.814117	146.640000
375.907684	146.120000
376.001160	145.780000
376.094727	145.320000
376.188232	146.020000
376.281799	146.180000
376.375336	146.140000
376.468872	147.100000
376.562408	147.600000
376.655914	147.160000
376.749451	146.840000
376.842987	147.100000
376.936523	146.660000
377.030060	146.640000
377.123596	146.800000
377.217133	146.380000
377.310669	146.260000
377.404205	146.620000
377.497772	147.140000
377.591278	147.100000
377.684845	148.000000
377.778351	148.280000
377.871918	148.000000
377.965424	147.140000
378.058990	147.020000
378.152496	146.760000
378.246063	146.760000
378.339569	146.800000
378.433136	147.120000
378.526642	147.140000
378.620209	147.140000
378.713745	146.860000
378.807312	147.280000
378.900848	147.400000
378.994385	147.460000
379.087921	146.520000
379.181458	146.900000
379.274994	146.120000
379.368530	146.160000
379.462097	146.400000
379.555634	147.060000
379.649170	146.140000
379.742706	146.040000
379.836273	146.120000
379.929810	145.400000
380.023376	145.340000
380.116882	145.480000
380.210449	145.580000
380.303986	145.000000
380.397552	144.960000
380.491058	145.000000
380.584656	145.080000
380.678162	145.160000
380.771729	145.360000
380.865265	146.220000
380.958832	146.680000
381.052368	146.780000
381.145935	147.160000
381.239471	147.520000
381.333008	147.100000
381.426575	146.580000
381.520111	146.820000
381.613647	146.820000
381.707214	146.840000
381.800751	146.500000
381.894318	146.700000
381.987854	146.140000
382.081421	145.980000
382.174988	145.920000
382.268524	145.600000
382.362091	145.600000
382.455627	146.700000
382.549194	146.200000
382.642731	145.540000
382.736298	145.800000
382.829834	145.580000
382.923401	145.940000
383.016937	146.480000
383.110504	147.080000
383.204041	147.440000
383.297607	147.940000
383.391174	146.880000
383.484741	147.460000
383.578278	147.140000
383.671844	146.780000
383.765411	145.880000
383.858948	146.360000
383.952515	145.940000
384.046051	146.320000
384.139618	146.920000
384.233185	147.660000
384.326721	147.120000
384.420288	147.360000
384.513855	147.020000
384.607422	147.100000
384.700989	146.940000
384.794525	146.760000
384.888123	146.640000
384.981659	147.020000
385.075226	146.360000
385.168762	145.980000
385.262360	146.200000
385.355896	145.320000
385.449463	145.100000
385.542999	144.980000
385.636597	146.060000
385.730164	146.220000
385.823730	146.320000
385.917267	146.020000
386.010834	146.440000
386.104401	145.820000
386.197968	146.120000
386.291534	146.320000
386.385101	146.300000
386.478668	146.580000
386.572235	146.300000
386.665802	145.500000
386.759338	145.460000
386.852905	145.500000
386.946472	145.040000
387.040070	145.400000
387.133606	145.800000
387.227203	145.780000
387.320740	146.380000
387.414337	146.260000
387.507874	145.840000
387.601471	145.780000
387.695007	145.500000
387.788605	145.060000
387.882141	144.980000
387.975739	145.580000
388.069275	145.400000
388.162872	145.860000
388.256439	145.660000
388.350037	146.020000
388.443604	145.560000
388.537170	145.960000
388.630737	146.520000
388.724304	146.920000
388.817871	146.700000
388.911438	146.900000
389.005005	147.020000
389.098602	146.860000
389.192169	146.300000
389.285736	146.960000
389.379333	146.800000
389.472870	146.080000
389.566467	146.080000
389.660034	146.360000
389.753632	145.520000
389.847168	145.760000
389.940765	146.320000
390.034332	145.920000
390.127930	145.500000
390.221466	145.720000
390.315063	145.100000
390.408630	144.360000
390.502228	144.020000
390.595795	144.520000
390.689362	144.680000
390.782959	145.520000
390.876526	146.420000
390.970093	146.700000
391.063690	147.360000
391.157257	147.280000
391.250824	147.260000
391.344421	146.600000
391.437988	146.940000
391.531555	147.140000
391.625153	147.080000
391.718750	146.940000
391.812317	147.260000
391.905914	146.680000
391.999481	146.320000
392.093079	146.360000
392.186615	146.760000
392.280243	146.640000
392.373779	147.160000
392.467407	147.520000
392.560944	147.500000
392.654572	146.940000
392.748108	147.020000
392.841736	146.920000
392.935303	146.360000
393.028900	146.440000
393.122467	146.540000
393.216064	146.300000
393.309631	145.640000
393.403229	145.240000
393.496796	144.960000
393.590393	144.540000
393.683990	145.080000
393.777557	145.840000
393.871155	146.000000
393.964722	146.560000
394.058350	146.720000
394.151917	146.440000
394.245514	146.140000
394.339081	146.440000
394.432678	146.580000
394.526245	146.680000
394.619873	146.480000
394.713409	146.520000
394.807037	146.040000
394.900604	145.960000
394.994202	146.160000
395.087769	146.420000
395.181396	146.260000
395.274994	147.320000
395.368561	146.360000
395.462158	146.120000
395.555756	145.760000
395.649353	146.080000
395.742920	145.380000
395.836517	146.440000
395.930115	145.780000
396.023712	146.120000
396.117279	146.340000
396.210876	145.820000
396.304474	145.860000
396.398071	146.680000
396.491669	146.860000
396.585266	146.440000
396.678833	146.720000
396.772461	146.660000
396.866028	146.300000
396.959656	146.460000
397.053223	146.700000
397.146851	146.860000
397.240417	146.960000
397.334015	148.100000
397.427582	148.040000
397.521210	148.640000
397.614807	149.840000
397.708405	151.080000
397.802002	151.800000
397.895599	154.260000
397.989197	156.180000
398.082794	158.200000
398.176392	160.940000
398.269989	164.480000
398.363586	168.200000
398.457184	173.560000
398.550781	179.420000
398.644379	184.360000
398.737976	189.240000
398.831573	194.300000
398.925201	199.080000
399.018768	203.460000
399.112396	208.840000
399.205963	215.620000
399.299591	223.680000
399.393158	231.420000
399.486786	240.580000
399.580353	248.520000
399.673981	255.180000
399.767578	260.220000
399.861206	264.360000
399.954773	266.680000
400.048401	268.660000
400.141998	267.880000
400.235596	266.080000
400.329193	262.000000
400.422791	256.600000
400.516418	249.620000
400.610016	243.880000
400.703613	237.140000
400.797211	230.140000
400.890808	223.080000
400.984436	216.740000
401.078033	209.440000
401.171631	202.380000
401.265259	196.100000
401.358826	190.460000
401.452484	184.720000
401.546051	179.960000
401.639679	175.100000
401.733246	171.120000
401.826904	167.240000
401.920471	163.380000
402.014099	160.460000
402.107697	157.860000
402.201324	155.900000
402.294891	153.880000
402.388550	152.860000
402.482147	151.420000
402.575745	150.060000
402.669373	148.460000
402.762970	147.740000
402.856567	147.460000
402.950195	147.280000
403.043793	147.260000
403.137390	147.800000
403.231018	147.220000
403.324615	147.460000
403.418243	147.060000
403.511841	147.140000
403.605469	147.340000
403.699066	147.940000
403.792694	147.520000
403.886292	147.880000
403.979919	147.740000
404.073517	146.920000
404.167145	147.140000
404.260712	147.180000
404.354370	146.520000
404.447937	146.760000
404.541595	147.040000
404.635162	147.040000
404.728821	147.460000
404.822418	147.520000
404.916046	147.240000
405.009644	147.400000
405.103271	147.620000
405.196899	146.760000
405.290497	146.900000
405.384125	147.480000
405.477722	147.140000
405.571350	146.280000
405.664948	146.580000
405.758575	146.320000
405.852203	145.580000
405.945801	145.840000
406.039429	146.040000
406.133057	145.960000
406.226654	146.080000
406.320312	146.320000
406.413879	146.340000
406.507538	146.720000
406.601135	146.140000
406.694763	146.700000
406.788361	146.300000
406.882019	146.140000
406.975586	146.340000
407.069244	147.220000
407.162872	147.120000
407.256470	147.460000
407.350098	147.300000
407.443726	146.600000
407.537323	146.240000
407.630951	146.220000
407.724579	145.920000
407.818207	146.340000
407.911804	146.440000
408.005432	146.420000
408.099060	146.700000
408.192688	147.080000
408.286285	146.520000
408.379913	146.600000
408.473572	146.580000
408.567169	145.600000
408.660828	145.400000
408.754395	145.820000
408.848053	145.340000
408.941650	145.480000
409.035309	145.500000
409.128906	145.480000
409.222565	145.400000
409.316132	145.880000
409.409790	145.520000
409.503387	145.580000
409.597046	145.740000
409.690674	145.820000
409.784302	145.960000
409.877930	146.100000
409.971558	146.460000
410.065186	146.640000
410.158783	146.440000
410.252411	146.380000
410.346039	146.900000
410.439667	146.860000
410.533295	147.000000
410.626923	147.560000
410.720551	147.180000
410.814209	147.300000
410.907806	147.540000
411.001465	146.820000
411.095062	146.540000
411.188721	146.940000
411.282318	146.000000
411.375977	145.760000
411.469574	146.180000
411.563232	145.600000
411.656830	145.420000
411.750488	145.900000
411.844086	145.740000
411.937744	145.880000
412.031372	146.200000
412.125000	146.420000
412.218628	146.140000
412.312256	147.020000
412.405884	147.580000
412.499512	147.380000
412.593170	147.480000
412.686798	148.080000
412.780426	147.160000
412.874054	146.780000
412.967682	147.160000
413.061310	147.340000
413.154968	147.220000
413.248566	147.420000
413.342224	147.000000
413.435852	147.060000
413.529510	146.520000
413.623108	145.960000
413.716766	145.880000
413.810364	146.220000
413.904022	145.780000
413.997650	145.780000
414.091309	146.560000
414.184906	146.580000
414.278564	146.400000
414.372192	146.920000
414.465851	147.040000
414.559479	146.420000
414.653107	147.320000
414.746735	146.960000
414.840393	146.840000
414.934021	147.280000
415.027649	147.180000
415.121277	146.620000
415.214935	147.180000
415.308563	147.180000
415.402191	146.460000
415.495850	146.200000
415.589478	145.680000
415.683136	145.300000
415.776733	145.360000
415.870422	145.540000
415.964020	145.540000
416.057678	145.940000
416.151306	146.160000
416.244965	146.080000
416.338562	146.140000
416.432251	146.660000
416.525848	147.180000
416.619507	147.380000
416.713165	147.540000
416.806793	147.240000
416.900421	147.320000
416.994080	146.400000
417.087708	146.140000
417.181366	145.780000
417.274994	146.100000
417.368622	146.460000
417.462280	147.400000
417.555908	147.440000
417.649567	147.320000
417.743195	147.300000
417.836853	146.940000
417.930481	147.020000
418.024170	147.300000
418.117767	147.920000
418.211426	148.580000
418.305054	148.860000
418.398712	147.680000
418.492340	147.560000
418.585999	147.520000
418.679626	147.140000
418.773285	147.220000
418.866913	148.240000
418.960571	148.300000
419.054230	148.080000
419.147858	148.140000
419.241516	147.980000
419.335144	147.420000
419.428802	147.240000
419.522461	147.000000
419.616089	146.440000
419.709747	146.280000
419.803375	146.320000
419.897034	146.000000
419.990662	146.120000
420.084320	146.620000
420.177979	147.120000
420.271606	147.340000
420.365295	147.880000
420.458893	147.980000
420.552582	148.220000
420.646210	147.800000
420.739868	147.660000
420.833496	147.300000
420.927155	146.960000
421.020782	146.560000
421.114471	146.280000
421.208069	146.200000
421.301758	146.580000
421.395386	146.520000
421.489044	146.400000
421.582703	146.520000
421.676361	147.100000
421.769989	146.480000
421.863647	147.240000
421.957306	147.240000
422.050934	147.340000
422.144592	146.920000
422.238251	146.900000
422.331909	146.260000
422.425537	146.420000
422.519196	146.260000
422.612854	145.980000
422.706543	145.820000
422.800140	145.900000
422.893829	145.440000
422.987457	145.340000
423.081146	145.440000
423.174744	146.120000
423.268433	145.920000
423.362061	145.760000
423.455750	145.540000
423.549347	145.780000
423.643036	145.040000
423.736664	145.720000
423.830353	145.940000
423.924011	146.500000
424.017639	146.000000
424.111298	146.180000
424.204956	145.940000
424.298615	145.980000
424.392273	145.720000
424.485931	145.940000
424.579559	146.200000
424.673218	145.980000
424.766876	146.280000
424.860535	145.960000
424.954193	145.680000
425.047882	145.960000
425.141510	146.160000
425.235199	146.220000
425.328796	146.540000
425.422485	146.520000
425.516113	145.860000
425.609802	145.780000
425.703430	145.800000
425.797119	145.500000
425.890747	145.800000
425.984436	146.140000
426.078064	146.140000
426.171753	146.080000
426.265411	146.020000
426.359070	146.020000
426.452728	146.080000
426.546356	145.980000
426.640015	145.980000
426.733673	146.420000
426.827332	146.140000
426.920990	146.680000
427.014648	146.320000
427.108307	146.420000
427.201965	146.760000
427.295624	147.440000
427.389282	146.740000
427.482941	147.020000
427.576630	146.600000
427.670258	145.820000
427.763947	145.320000
427.857574	145.340000
427.951263	145.360000
428.044922	145.460000
428.138611	145.660000
428.232239	146.060000
428.325928	146.640000
428.419556	146.920000
428.513245	146.540000
428.606903	146.920000
428.700562	146.440000
428.794220	145.540000
428.887878	145.320000
428.981537	146.020000
429.075195	145.460000
429.168854	145.940000
429.262512	146.000000
429.356201	146.040000
429.449860	145.480000
429.543518	145.340000
429.637177	145.240000
429.730835	145.340000
429.824493	145.480000
429.918182	146.060000
430.011810	146.060000
430.105530	145.480000
430.199158	145.980000
430.292847	145.520000
430.386475	145.120000
430.480164	145.080000
430.573792	145.100000
430.667511	144.640000
430.761139	144.820000
430.854828	145.360000
430.948456	145.320000
431.042145	145.480000
431.135834	145.640000
431.229492	145.800000
431.323151	145.600000
431.416809	146.100000
431.510468	146.260000
431.604156	145.860000
431.697815	145.800000
431.791473	145.280000
431.885132	144.980000
431.978821	145.320000
432.072479	145.580000
432.166138	145.880000
432.259827	146.280000
432.353485	146.620000
432.447174	146.640000
432.540802	146.660000
432.634491	146.600000
432.728149	146.580000
432.821838	147.120000
432.915466	146.580000
433.009186	146.420000
433.102814	145.840000
433.196503	145.620000
433.290131	144.940000
433.383850	145.500000
433.477509	145.920000
433.571167	146.720000
433.664856	147.100000
433.758514	147.440000
433.852173	147.200000
433.945862	147.080000
434.039520	146.740000
434.133179	146.120000
434.226868	145.860000
434.320526	145.360000
434.414185	145.800000
434.507874	145.720000
434.601562	146.280000
434.695221	145.820000
434.788910	146.280000
434.882538	146.100000
434.976257	145.800000
435.069885	145.860000
435.163574	146.200000
435.257233	145.900000
435.350922	145.640000
435.444580	145.480000
435.538269	145.000000
435.631897	145.480000
435.725616	145.900000
435.819275	146.300000
435.912964	147.060000
436.006622	147.820000
436.100311	147.420000
436.193970	146.420000
436.287628	146.120000
436.381317	145.800000
436.474976	145.240000
436.568665	145.180000
436.662323	145.760000
436.756012	145.800000
436.849670	145.780000
436.943390	145.740000
437.037018	145.560000
437.130737	145.620000
437.224365	145.460000
437.318085	145.180000
437.411713	145.020000
437.505432	145.820000
437.599060	146.440000
437.692780	147.220000
437.786407	147.400000
437.880127	147.740000
437.973755	147.040000
438.067474	146.460000
438.161133	146.240000
438.254822	146.540000
438.348480	146.220000
438.442169	147.000000
438.535828	147.160000
438.629517	146.320000
438.723175	145.680000
438.816864	146.500000
438.910553	145.620000
439.004211	145.440000
439.097900	145.580000
439.191559	145.720000
439.285248	144.660000
439.378906	145.060000
439.472626	144.920000
439.566284	145.140000
439.659973	145.560000
439.753632	145.760000
439.847321	146.200000
439.940979	146.640000
440.034698	146.580000
440.128326	146.040000
440.222046	146.240000
440.315674	145.280000
440.409393	145.260000
440.503082	145.160000
440.596741	145.780000
440.690430	145.680000
440.784088	145.600000
440.877777	144.960000
440.971466	145.020000
441.065125	144.420000
441.158813	144.220000
441.252502	144.680000
441.346161	145.320000
441.439850	145.560000
441.533539	145.860000
441.627197	146.240000
441.720886	146.260000
441.814606	146.300000
441.908234	146.480000
442.001953	146.180000
442.095612	146.300000
442.189301	146.380000
442.282959	146.520000
442.376678	145.940000
442.470306	146.780000
442.564026	146.480000
442.657684	146.660000
442.751404	146.440000
442.845032	147.380000
442.938751	146.680000
443.032440	147.100000
443.126099	146.500000
443.219788	146.680000
443.313477	146.020000
443.407166	146.140000
443.500824	146.200000
443.594513	146.700000
443.688202	146.360000
443.781891	146.040000
443.875549	146.040000
443.969238	145.920000
444.062927	146.180000
444.156647	146.400000
444.250275	146.960000
444.343994	147.240000
444.437653	147.180000
444.531372	146.780000
444.625031	146.620000
444.718719	146.420000
444.812378	146.340000
444.906097	146.200000
444.999756	145.840000
445.093445	146.040000
445.187103	145.780000
445.280823	146.240000
445.374512	145.760000
445.468201	145.980000
445.561859	145.820000
445.655548	146.000000
445.749237	145.480000
445.842926	145.780000
445.936615	146.440000
446.030304	146.300000
446.123962	146.720000
446.217651	146.400000
446.311340	146.760000
446.405029	146.100000
446.498749	145.840000
446.592407	145.260000
446.686096	145.460000
446.779755	145.460000
446.873474	145.780000
446.967133	146.220000
447.060852	146.060000
447.154510	146.180000
447.248230	145.940000
447.341858	145.660000
447.435577	145.160000
447.529236	145.180000
447.622955	145.120000
447.716644	145.380000
447.810333	145.640000
447.904022	146.280000
447.997711	146.180000
448.091400	146.360000
448.185059	146.300000
448.278748	146.400000
448.372437	145.980000
448.466125	146.500000
448.559814	146.400000
448.653503	146.820000
448.747192	147.040000
448.840912	147.700000
448.934570	147.520000
449.028290	148.040000
449.121948	147.420000
449.215637	146.960000
449.309296	146.220000
449.403015	146.540000
449.496674	146.080000
449.590393	146.240000
449.684052	146.060000
449.777771	147.000000
449.871429	146.220000
449.965149	146.020000
450.058838	146.260000
450.152527	146.760000
450.246216	146.400000
450.339905	146.680000
450.433594	146.700000
450.527283	146.920000
450.620972	146.540000
450.714661	146.420000
450.808350	146.820000
450.902039	147.220000
450.995728	146.660000
451.089417	146.600000
451.183105	146.860000
451.276794	147.100000
451.370514	146.440000
451.464172	145.960000
451.557892	145.780000
451.651550	145.780000
451.745270	145.220000
451.838928	145.040000
451.932648	145.800000
452.026306	146.240000
452.120026	145.560000
452.213684	145.900000
452.307404	146.380000
452.401062	146.260000
452.494781	146.460000
452.588470	146.900000
452.682159	146.320000
452.775848	146.460000
452.869537	146.040000
452.963226	145.580000
453.056915	145.540000
453.150604	145.800000
453.244293	145.860000
453.337982	146.480000
453.431671	146.860000
453.525360	147.220000
453.619049	147.140000
453.712769	146.940000
453.806427	146.340000
453.900146	145.960000
453.993805	145.460000
454.087555	145.940000
454.181213	146.020000
454.274933	145.900000
454.368591	145.940000
454.462311	145.980000
454.555969	145.540000
454.649689	146.040000
454.743347	146.220000
454.837067	146.680000
454.930756	147.100000
455.024445	147.360000
455.118134	146.760000
455.211853	147.140000
455.305542	146.820000
455.399231	146.300000
455.492920	146.180000
455.586609	146.480000
455.680298	146.560000
455.773987	146.280000
455.867676	146.640000
455.961365	146.920000
456.055084	146.760000
456.148773	146.300000
456.242493	146.600000
456.336151	146.300000
456.429871	146.440000
456.523529	146.640000
456.617249	146.480000
456.710907	147.120000
456.804626	147.220000
456.898315	146.660000
456.992035	146.640000
457.085693	146.740000
457.179413	145.660000
457.273102	146.040000
457.366791	146.240000
457.460480	146.380000
457.554199	146.880000
457.647888	147.020000
457.741577	146.380000
457.835266	146.600000
457.928955	146.320000
458.022644	146.460000
458.116364	147.040000
458.210052	147.200000
458.303741	146.840000
458.397461	146.280000
458.491119	145.340000
458.584839	145.000000
458.678528	144.800000
458.772247	144.800000
458.865906	145.180000
458.959625	146.340000
459.053284	146.320000
459.147003	146.280000
459.240692	146.980000
459.334412	147.320000
459.428070	146.380000
459.521790	146.220000
459.615479	146.480000
459.709198	146.380000
459.802887	146.120000
459.896576	146.080000
459.990265	146.360000
460.083954	146.220000
460.177673	145.680000
460.271362	145.600000
460.365051	145.720000
460.458740	145.400000
460.552429	145.140000
460.646149	144.960000
460.739838	144.900000
460.833527	145.260000
460.927246	145.260000
461.020905	145.400000
461.114655	145.800000
461.208313	145.840000
461.302032	145.460000
461.395691	145.520000
461.489441	145.620000
461.583099	145.320000
461.676819	144.920000
461.770477	145.300000
461.864197	145.080000
461.957916	145.020000
462.051605	144.700000
462.145294	145.920000
462.238983	145.540000
462.332703	146.140000
462.426392	146.900000
462.520081	146.980000
462.613770	146.200000
462.707489	146.800000
462.801178	146.340000
462.894867	145.660000
462.988556	146.020000
463.082275	146.320000
463.175964	145.780000
463.269684	146.380000
463.363342	146.520000
463.457092	146.020000
463.550751	146.100000
463.644470	146.240000
463.738129	145.940000
463.831879	146.120000
463.925537	147.080000
464.019257	147.080000
464.112946	147.160000
464.206665	146.800000
464.300323	146.680000
464.394043	146.020000
464.487762	145.600000
464.581451	145.880000
464.675140	145.820000
464.768829	145.820000
464.862549	146.020000
464.956238	146.460000
465.049927	146.320000
465.143646	146.620000
465.237335	146.480000
465.331024	146.800000
465.424713	146.740000
465.518433	146.860000
465.612152	146.700000
465.705811	146.940000
465.799561	146.720000
465.893219	146.360000
465.986938	145.860000
466.080597	145.480000
466.174347	145.580000
466.268005	145.700000
466.361725	145.900000
466.455414	146.180000
466.549133	146.240000
466.642792	146.320000
466.736542	145.760000
466.830231	145.800000
466.923920	145.620000
467.017609	146.060000
467.111328	145.400000
467.205017	145.680000
467.298706	145.660000
467.392426	145.860000
467.486115	146.040000
467.579803	146.340000
467.673523	146.580000
467.767212	146.660000
467.860901	146.760000
467.954651	146.940000
468.048309	147.040000
468.142029	146.940000
468.235718	146.920000
468.329437	146.520000
468.423096	146.520000
468.516846	146.380000
468.610504	145.920000
468.704224	145.560000
468.797913	145.840000
468.891632	145.940000
468.985291	146.200000
469.079010	146.660000
469.172729	146.180000
469.266418	146.580000
469.360107	146.680000
469.453827	146.280000
469.547516	146.280000
469.641205	147.140000
469.734924	147.280000
469.828613	147.240000
469.922302	147.560000
470.016022	147.800000
470.109711	147.640000
470.203430	146.740000
470.297150	145.720000
470.390808	146.200000
470.484558	145.660000
470.578217	145.880000
470.671936	146.420000
470.765625	147.640000
470.859344	146.960000
470.953003	147.660000
471.046753	147.400000
471.140411	146.680000
471.234131	146.500000
471.327820	146.960000
471.421539	146.680000
471.515228	146.440000
471.608948	147.000000
471.702637	146.440000
471.796326	146.060000
471.890045	146.120000
471.983734	146.180000
472.077423	145.960000
472.171143	146.160000
472.264832	146.120000
472.358521	145.820000
472.452240	145.360000
472.545929	145.860000
472.639648	146.000000
472.733337	146.180000
472.827057	146.380000
472.920746	147.060000
473.014465	147.040000
473.108124	147.000000
473.201874	146.860000
473.295532	146.720000
473.389252	146.960000
473.482941	146.980000
473.576660	146.580000
473.670319	146.500000
473.764069	146.680000
473.857727	146.560000
473.951477	146.500000
474.045166	147.020000
474.138855	147.100000
474.232574	146.960000
474.326263	147.220000
474.419952	147.280000
474.513672	147.240000
474.607361	147.340000
474.701050	147.580000
474.794769	147.400000
474.888458	147.560000
474.982178	147.540000
475.075867	147.600000
475.169586	147.380000
475.263275	147.340000
475.356995	146.800000
475.450653	146.300000
475.544403	145.860000
475.638062	146.520000
475.731812	146.160000
475.825470	146.500000
475.919189	146.740000
476.012878	147.060000
476.106598	146.300000
476.200256	146.740000
476.294006	146.460000
476.387695	146.600000
476.481384	146.640000
476.575104	146.820000
476.668793	146.460000
476.762512	146.180000
476.856201	146.480000
476.949890	146.320000
477.043610	145.700000
477.137299	145.600000
477.230988	146.160000
477.324707	145.540000
477.418396	145.800000
477.512146	146.000000
477.605804	146.100000
477.699524	145.880000
477.793213	146.040000
477.886932	146.120000
477.980591	146.100000
478.074341	146.040000
478.167999	145.680000
478.261749	145.900000
478.355408	145.540000
478.449127	145.920000
478.542816	146.660000
478.636536	147.440000
478.730225	147.520000
478.823944	148.000000
478.917633	148.040000
479.011322	147.820000
479.105042	147.460000
479.198730	147.120000
479.292450	146.620000
479.386139	146.620000
479.479828	146.340000
479.573547	146.600000
479.667267	146.740000
479.760925	147.020000
479.854675	147.140000
479.948334	147.360000
480.042084	146.840000
480.135742	147.220000
480.229462	146.560000
480.323151	146.400000
480.416870	145.800000
480.510529	145.980000
480.604279	145.280000
480.697937	146.100000
480.791656	145.680000
480.885345	145.920000
480.979065	145.400000
481.072754	145.800000
481.166473	145.600000
481.260132	145.680000
481.353882	145.560000
481.447540	145.880000
481.541260	145.940000
481.635010	145.620000
481.728668	145.740000
481.822388	145.660000
481.916077	145.820000
482.009796	145.720000
482.103485	146.220000
482.197205	146.340000
482.290863	146.640000
482.384613	146.520000
482.478271	146.140000
482.571991	146.240000
482.665680	146.060000
482.759399	146.600000
482.853058	147.300000
482.946808	147.360000
483.040466	147.020000
483.134216	147.340000
483.227875	146.520000
483.321594	146.680000
483.415283	146.940000
483.509003	146.800000
483.602661	146.200000
483.696411	146.580000
483.790070	146.080000
483.883789	146.160000
483.977478	146.620000
484.071198	147.020000
484.164917	146.560000
484.258606	146.300000
484.352325	146.200000
484.445984	146.100000
484.539734	145.880000
484.633392	145.660000
484.727142	145.760000
484.820801	145.540000
484.914520	145.120000
485.008209	145.580000
485.101929	146.200000
485.195587	146.240000
485.289337	146.240000
485.382996	146.560000
485.476715	146.680000
485.570404	147.060000
485.664124	146.780000
485.757782	147.760000
485.851532	147.360000
485.945190	146.960000
486.038910	146.520000
486.132599	147.040000
486.226318	146.240000
486.319977	146.320000
486.413727	146.980000
486.507446	146.880000
486.601105	146.180000
486.694855	145.960000
486.788513	146.020000
486.882233	145.420000
486.975922	145.280000
487.069641	145.780000
487.163300	145.960000
487.257050	146.640000
487.350708	146.520000
487.444427	146.740000
487.538116	146.500000
487.631836	146.320000
487.725494	145.820000
487.819214	145.840000
487.912903	145.580000
488.006622	145.920000
488.100281	146.220000
488.194031	146.340000
488.287689	146.860000
488.381409	147.740000
488.475098	147.440000
488.568817	147.500000
488.662476	147.320000
488.756226	146.720000
488.849945	145.640000
488.943604	145.820000
489.037354	145.740000
489.131012	145.460000
489.224731	145.380000
489.318390	145.440000
489.412140	145.540000
489.505798	145.400000
489.599518	145.440000
489.693207	145.820000
489.786926	145.900000
489.880585	145.720000
489.974335	145.900000
490.067993	147.120000
490.161713	147.460000
490.255371	148.400000
490.349121	148.320000
490.442780	148.300000
490.536499	146.900000
490.630188	146.480000
490.723907	145.620000
490.817566	145.660000
490.911285	145.600000
491.004974	145.780000
491.098694	145.560000
491.192413	146.140000
491.286102	145.960000
491.379822	146.260000
491.473480	146.740000
491.567200	146.900000
491.660889	146.260000
491.754608	146.280000
491.848267	145.880000
491.941986	145.560000
492.035675	145.440000
492.129395	146.120000
492.223053	145.880000
492.316772	146.220000
492.410461	146.240000
492.504181	146.640000
492.597839	146.080000
492.691559	146.400000
492.785248	146.460000
492.878967	146.420000
492.972626	145.780000
493.066345	145.800000
493.160034	145.420000
493.253754	145.060000
493.347412	144.500000
493.441132	145.060000
493.534882	145.820000
493.628540	146.580000
493.722260	146.900000
493.815918	147.460000
493.909668	147.780000
494.003326	147.720000
494.097046	147.360000
494.190704	147.200000
494.284454	147.580000
494.378113	147.280000
494.471832	146.880000
494.565491	146.700000
494.659210	146.620000
494.752899	146.000000
494.846619	145.640000
494.940277	145.720000
495.033997	145.860000
495.127686	145.580000
495.221405	145.720000
495.315063	146.120000
495.408783	146.000000
495.502441	145.860000
495.596191	146.440000
495.689850	146.180000
495.783569	146.480000
495.877228	146.540000
495.970947	146.600000
496.064697	146.280000
496.158356	147.340000
496.252075	147.020000
496.345734	146.800000
496.439453	147.780000
496.533142	147.740000
496.626862	147.600000
496.720520	147.420000
496.814240	147.880000
496.907898	147.120000
497.001617	147.500000
497.095306	146.580000
497.189026	146.780000
497.282684	146.580000
497.376404	146.820000
497.470062	146.520000
497.563782	146.860000
497.657471	146.840000
497.751190	146.420000
497.844849	146.140000
497.938568	146.280000
498.032227	146.360000
498.125946	146.200000
498.219635	146.280000
498.313354	146.580000
498.407074	146.180000
498.500732	146.460000
498.594452	146.700000
498.688110	146.460000
498.781830	146.100000
498.875519	146.100000
498.969238	145.880000
499.062897	145.560000
499.156616	146.040000
499.250275	146.180000
499.343994	146.100000
499.437653	146.240000
499.531372	146.600000
499.625061	147.240000
499.718781	147.600000
499.812439	147.820000
499.906158	147.600000
499.999817	147.360000
500.093536	146.800000
500.187195	146.520000
500.280914	146.840000
500.374573	146.860000
500.468323	146.480000
500.561981	146.520000
500.655701	146.080000
500.749420	145.680000
500.843079	146.100000
500.936798	146.440000
501.030457	146.640000
501.124176	147.240000
501.217834	147.260000
501.311554	146.880000
501.405212	146.720000
501.498962	146.200000
501.592621	145.880000
501.686340	146.500000
501.779999	146.920000
501.873718	147.100000
501.967377	147.240000
502.061096	147.660000
502.154755	146.980000
502.248474	146.700000
502.342133	147.020000
502.435852	147.060000
502.529510	147.180000
502.623230	147.820000
502.716888	147.260000
502.810608	147.020000
502.904266	147.460000
502.997986	146.760000
503.091705	146.220000
503.185364	146.660000
503.279083	146.620000
503.372772	146.400000
503.466492	146.140000
503.560150	146.360000
503.653870	146.660000
503.747528	146.740000
503.841248	146.300000
503.934906	146.960000
504.028625	146.840000
504.122284	146.840000
504.216003	147.240000
504.309662	147.400000
504.403381	147.520000
504.497040	147.560000
504.590759	147.060000
504.684418	147.000000
504.778137	147.500000
504.871796	147.360000
504.965515	147.160000
505.059174	147.260000
505.152893	146.380000
505.246521	145.580000
505.340240	145.120000
505.433899	145.320000
505.527618	145.620000
505.621338	146.400000
505.714996	146.700000
505.808716	146.820000
505.902374	147.420000
505.996094	147.520000
506.089752	146.960000
506.183472	147.240000
506.277130	147.660000
506.370850	147.420000
506.464508	146.940000
506.558228	147.040000
506.651886	146.600000
506.745605	146.700000
506.839264	146.540000
506.932983	146.980000
507.026611	147.100000
507.120331	147.700000
507.213989	146.800000
507.307709	146.660000
507.401367	146.740000
507.495087	147.440000
507.588745	146.920000
507.682465	148.100000
507.776123	147.860000
507.869843	147.780000
507.963531	147.340000
508.057190	147.620000
508.150909	146.600000
508.244568	146.740000
508.338287	146.280000
508.431946	146.040000
508.525665	145.560000
508.619324	145.620000
508.713013	145.980000
508.806671	146.620000
508.900391	147.280000
508.994049	147.660000
509.087769	147.680000
509.181427	147.680000
509.275146	147.200000
509.368774	146.460000
509.462494	146.460000
509.556152	146.640000
509.649872	146.660000
509.743530	146.740000
509.837250	146.860000
509.930878	146.780000
510.024597	146.640000
510.118256	146.260000
510.211975	146.240000
510.305695	146.200000
510.399353	146.460000
510.493042	147.100000
510.586700	147.080000
510.680420	147.620000
510.774078	147.760000
510.867798	147.820000
510.961426	146.940000
511.055145	146.900000
511.148804	146.380000
511.242523	146.760000
511.336151	146.720000
511.429871	147.360000
511.523529	147.380000
511.617249	146.920000
511.710876	146.500000
511.804596	145.880000
511.898254	145.780000
511.991974	146.280000
512.085632	146.460000
512.179321	146.200000
512.272949	147.120000
512.366699	147.300000
512.460327	146.900000
512.554077	147.900000
512.647766	148.120000
512.741394	147.700000
512.835144	148.060000
512.928772	147.920000
513.022461	147.360000
513.116150	147.340000
513.209839	147.780000
513.303467	147.340000
513.397217	147.040000
513.490845	146.580000
513.584595	146.160000
513.678223	145.520000
513.771912	144.800000
513.865601	145.380000
513.959290	145.320000
514.052917	145.680000
514.146667	146.320000
514.240295	146.800000
514.333984	147.300000
514.427673	147.260000
514.521362	147.840000
514.614990	147.040000
514.708740	147.120000
514.802368	146.620000
514.896057	147.100000
514.989746	147.300000
515.083435	147.400000
515.177124	147.540000
515.270752	147.180000
515.364502	146.840000
515.458130	146.560000
515.551819	146.580000
515.645508	146.340000
515.739197	146.600000
515.832825	146.640000
515.926575	145.960000
516.020203	146.280000
516.113892	147.280000
516.207520	147.040000
516.301270	147.500000
516.394897	147.840000
516.488586	148.080000
516.582275	147.520000
516.675964	147.100000
516.769592	146.700000
516.863281	147.280000
516.956970	147.440000
517.050659	147.000000
517.144287	147.340000
517.238037	147.380000
517.331665	146.460000
517.425354	146.020000
517.519043	145.800000
517.612732	146.080000
517.706421	145.780000
517.800049	145.660000
517.893738	145.100000
517.987427	145.380000
518.081116	145.160000
518.174744	145.220000
518.268433	145.780000
518.362122	146.680000
518.455811	146.540000
518.549438	147.180000
518.643127	148.220000
518.736816	147.860000
518.830505	147.200000
518.924133	147.260000
519.017822	147.000000
519.111511	146.240000
519.205200	146.640000
519.298828	146.780000
519.392517	146.940000
519.486206	147.020000
519.579895	147.080000
519.673523	147.060000
519.767212	147.180000
519.860901	147.520000
519.954590	147.200000
520.048279	147.040000
520.141907	146.620000
520.235596	147.500000
520.329224	147.480000
520.422974	147.620000
520.516602	147.420000
520.610291	147.440000
520.703918	146.800000
520.797607	146.280000
520.891296	146.340000
520.984985	146.760000
521.078613	147.680000
521.172302	147.140000
521.265930	148.120000
521.359680	148.720000
521.453308	148.480000
521.546997	148.160000
521.640625	148.580000
521.734314	147.440000
521.827942	146.960000
521.921692	147.560000
522.015320	147.060000
522.109009	146.700000
522.202698	146.780000
522.296326	146.600000
522.390015	146.380000
522.483704	146.600000
522.577393	146.680000
522.671021	146.820000
522.764709	146.640000
522.858337	147.060000
522.952026	146.880000
523.045654	147.400000
523.139404	148.000000
523.233032	148.280000
523.326721	147.680000
523.420349	147.620000
523.514038	147.180000
523.607666	147.260000
523.701355	146.640000
523.795044	146.480000
523.888733	146.960000
523.982361	147.160000
524.076050	146.460000
524.169678	147.000000
524.263367	146.820000
524.356995	146.100000
524.450684	145.840000
524.544373	145.860000
524.638062	146.100000
524.731750	146.420000
524.825378	146.760000
524.919067	146.460000
525.012695	146.580000
525.106384	145.940000
525.200012	146.160000
525.293701	146.020000
525.387329	146.380000
525.481018	146.280000
525.574646	146.660000
525.668396	146.420000
525.762024	146.800000
525.855713	146.920000
525.949341	146.860000
526.043030	147.000000
526.136658	146.840000
526.230347	146.500000
526.323975	145.840000
526.417664	145.640000
526.511292	145.680000
526.604980	146.000000
526.698608	146.260000
526.792297	147.020000
526.885925	147.360000
526.979614	147.500000
527.073303	147.160000
527.166931	146.780000
527.260620	146.760000
527.354309	147.120000
527.447998	146.720000
527.541626	146.540000
527.635315	146.840000
527.728943	147.100000
527.822632	147.160000
527.916260	147.400000
528.009949	147.800000
528.103577	147.720000
528.197266	147.040000
528.290894	146.780000
528.384583	146.640000
528.478210	146.720000
528.571899	146.980000
528.665527	147.340000
528.759216	147.380000
528.852844	147.480000
528.946533	147.100000
529.040161	146.780000
529.133850	146.500000
529.227478	146.620000
529.321167	146.820000
529.414856	147.120000
529.508484	147.380000
529.602173	147.260000
529.695801	147.020000
529.789490	146.940000
529.883057	146.900000
529.976746	147.040000
530.070374	147.340000
530.164062	147.540000
530.257690	147.560000
530.351379	147.620000
530.445007	147.480000
530.538696	146.960000
530.632324	146.840000
530.726013	146.660000
530.819641	146.360000
530.913330	146.400000
531.006958	146.720000
531.100647	146.600000
531.194275	146.640000
531.287964	146.620000
531.381592	146.160000
531.475220	146.280000
531.568848	146.080000
531.662537	146.060000
531.756226	147.000000
531.849854	147.140000
531.943542	146.980000
532.037170	147.020000
532.130859	147.580000
532.224487	146.780000
532.318176	146.720000
532.411804	147.280000
532.505432	147.540000
532.599060	146.760000
532.692749	146.720000
532.786377	147.140000
532.880066	146.540000
532.973694	145.880000
533.067383	145.880000
533.161011	145.780000
533.254639	145.480000
533.348267	145.440000
533.441956	146.060000
533.535583	145.700000
533.629272	145.900000
533.722900	145.500000
533.816589	145.500000
533.910156	145.880000
534.003845	146.000000
534.097534	146.100000
534.191162	146.860000
534.284851	147.180000
534.378479	146.660000
534.472107	146.780000
534.565735	146.820000
534.659424	146.780000
534.753052	146.600000
534.846741	146.120000
534.940369	146.740000
535.033997	146.540000
535.127625	146.320000
535.221313	146.880000
535.314941	147.280000
535.408630	146.620000
535.502197	147.040000
535.595886	146.920000
535.689514	146.340000
535.783203	146.700000
535.876831	147.160000
535.970459	147.020000
536.064087	146.800000
536.157776	146.620000
536.251404	146.440000
536.345093	146.140000
536.438721	145.880000
536.532349	146.200000
536.626038	146.060000
536.719666	146.360000
536.813293	146.300000
536.906921	146.200000
537.000610	146.540000
537.094238	146.840000
537.187866	146.580000
537.281494	146.520000
537.375183	146.820000
537.468811	146.320000
537.562439	146.260000
537.656067	146.320000
537.749756	146.280000
537.843384	146.760000
537.937012	146.860000
538.030640	146.780000
538.124329	146.640000
538.217896	147.120000
538.311584	146.800000
538.405212	146.660000
538.498901	147.040000
538.592468	147.620000
538.686157	146.860000
538.779785	146.120000
538.873413	146.220000
538.967102	145.920000
539.060730	145.240000
539.154358	145.920000
539.247986	146.620000
539.341675	146.560000
539.435242	146.940000
539.528931	147.260000
539.622559	146.640000
539.716187	147.160000
539.809814	147.140000
539.903503	146.720000
539.997070	146.540000
540.090759	146.940000
540.184387	146.480000
540.278015	146.860000
540.371643	147.160000
540.465332	147.080000
540.558899	146.620000
540.652588	146.720000
540.746216	146.460000
540.839844	146.520000
540.933472	146.560000
541.027100	147.120000
541.120728	146.820000
541.214417	146.820000
541.308044	147.200000
541.401672	146.940000
541.495300	146.580000
541.588928	146.600000
541.682617	146.480000
541.776184	145.500000
541.869873	145.920000
541.963440	146.180000
542.057129	146.180000
542.150757	146.360000
542.244385	146.200000
542.338013	145.920000
542.431641	145.860000
542.525269	145.800000
542.618958	146.100000
542.712524	146.640000
542.806213	146.480000
542.899780	146.520000
542.993469	146.120000
543.087036	145.680000
543.180725	145.340000
543.274292	145.880000
543.367981	146.060000
543.461548	146.680000
543.555237	146.880000
543.648926	147.680000
543.742493	148.040000
543.836182	148.180000
543.929749	148.020000
544.023437	147.840000
544.117004	147.800000
544.210693	147.680000
544.304260	147.460000
544.397949	147.500000
544.491516	148.020000
544.585205	147.800000
544.678772	147.120000
544.772461	147.460000
544.866028	147.340000
544.959717	147.000000
545.053284	146.600000
545.146973	147.220000
545.240540	147.420000
545.334229	147.860000
545.427795	148.140000
545.521423	148.560000
545.615051	148.560000
545.708679	148.400000
545.802307	148.040000
545.895935	147.940000
545.989624	148.420000
546.083191	148.100000
546.176880	148.080000
546.270447	147.940000
546.364136	148.380000
546.457703	147.960000
546.551331	147.760000
546.644958	147.840000
546.738586	148.200000
546.832214	147.580000
546.925842	147.420000
547.019409	147.820000
547.113098	146.840000
547.206665	146.440000
547.300354	146.720000
547.393921	146.800000
547.487549	146.800000
547.581177	147.320000
547.674805	147.400000
547.768433	146.560000
547.862061	146.600000
547.955627	145.940000
548.049316	146.280000
548.142883	146.600000
548.236572	147.220000
548.330139	147.480000
548.423767	147.640000
548.517456	147.300000
548.611023	147.420000
548.704651	146.860000
548.798279	146.500000
548.891907	146.900000
548.985474	146.800000
549.079163	146.300000
549.172729	146.280000
549.266357	145.820000
549.359985	145.640000
549.453613	145.160000
549.547180	145.260000
549.640869	145.660000
549.734436	145.860000
549.828064	146.180000
549.921631	146.300000
550.015320	146.040000
550.108887	146.560000
550.202515	146.740000
550.296143	146.380000
550.389771	146.800000
550.483337	146.820000
550.576965	146.260000
550.670593	146.160000
550.764221	146.320000
550.857849	146.080000
550.951477	145.960000
551.045105	145.540000
551.138672	145.760000
551.232300	145.200000
551.325928	145.540000
551.419556	146.020000
551.513123	146.380000
551.606750	145.900000
551.700378	146.140000
551.794006	145.920000
551.887573	145.680000
551.981201	146.200000
552.074768	146.400000
552.168457	146.280000
552.262024	147.060000
552.355652	146.940000
552.449219	147.020000
552.542847	147.040000
552.636475	147.020000
552.730103	145.840000
552.823669	145.780000
552.917297	145.220000
553.010864	145.460000
553.104553	145.740000
553.198181	145.680000
553.291748	146.220000
553.385376	146.440000
553.478943	146.140000
553.572571	145.960000
553.666199	146.720000
553.759827	146.040000
553.853394	145.580000
553.947021	145.640000
554.040588	145.780000
554.134216	145.280000
554.227783	146.160000
554.321411	146.700000
554.415039	146.160000
554.508667	146.020000
554.602234	146.460000
554.695862	145.440000
554.789429	145.420000
554.883057	145.760000
554.976624	145.760000
555.070251	145.600000
555.163818	145.920000
555.257507	145.860000
555.351074	146.040000
555.444702	147.140000
555.538330	146.680000
555.631897	147.060000
555.725525	146.980000
555.819092	146.960000
555.912720	145.700000
556.006287	146.580000
556.099915	146.100000
556.193481	146.280000
556.287109	146.540000
556.380676	146.440000
556.474304	146.080000
556.567871	146.460000
556.661499	145.600000
556.755066	145.580000
556.848694	145.880000
556.942261	145.700000
557.035889	145.900000
557.129517	146.440000
557.223145	146.680000
557.316711	146.620000
557.410339	146.720000
557.503906	146.320000
557.597473	146.760000
557.691040	146.540000
557.784668	146.760000
557.878296	146.820000
557.971863	147.180000
558.065491	147.040000
558.159058	146.520000
558.252686	147.020000
558.346252	147.640000
558.439880	147.000000
558.533447	146.560000
558.627075	146.400000
558.720642	146.180000
558.814270	145.360000
558.907837	145.400000
559.001465	145.180000
559.095032	146.120000
559.188660	145.940000
559.282227	145.860000
559.375854	146.600000
559.469360	146.720000
559.562988	146.880000
559.656555	146.760000
559.750183	146.920000
559.843750	146.820000
559.937378	146.920000
560.030945	146.600000
560.124573	0.000000
560.218140	0.000000
560.311707	0.000000
560.405334	0.000000
560.498901	0.000000
560.592529	0.000000
560.686096	0.000000
560.779724	0.000000
560.873291	0.000000
560.966858	0.000000
561.060425	0.000000
561.154053	0.000000
561.247620	0.000000
561.341248	0.000000
561.434814	0.000000
561.528381	0.000000
561.621948	0.000000
561.715576	0.000000
561.809143	0.000000
561.902771	0.000000
561.996277	0.000000
562.089905	0.000000
562.183472	0.000000
562.277100	0.000000
