Model Number: SPM-002-B   
Serial Number: 70087108
Firmware Version: 004.15.4
Exposure Time: 100000.000000us
Data Taken on: 11-12-2020 19:30:08.182
Wavelength	Amplitude
221.570786	0.000000
221.663406	0.000000
221.756027	0.000000
221.848648	0.000000
221.941269	0.000000
222.033905	0.000000
222.126526	0.000000
222.219162	0.000000
222.311798	0.000000
222.404419	0.000000
222.497055	0.000000
222.589676	0.000000
222.682312	0.000000
222.774933	0.000000
222.867569	0.000000
222.960205	0.000000
223.052841	0.000000
223.145462	0.000000
223.238098	0.000000
223.330734	0.000000
223.423386	0.000000
223.516022	0.000000
223.608658	0.000000
223.701309	0.000000
223.793945	0.000000
223.886581	0.000000
223.979218	0.000000
224.071869	0.000000
224.164505	0.000000
224.257156	0.000000
224.349792	0.000000
224.442444	0.000000
224.535095	0.000000
224.627747	0.000000
224.720398	0.000000
224.813034	0.000000
224.905685	0.000000
224.998337	145.660000
225.090988	145.360000
225.183640	145.580000
225.276291	145.300000
225.368942	145.640000
225.461594	145.940000
225.554245	146.440000
225.646912	146.020000
225.739578	146.540000
225.832230	146.720000
225.924896	145.940000
226.017548	145.980000
226.110199	146.660000
226.202866	146.040000
226.295532	145.880000
226.388184	146.280000
226.480850	145.920000
226.573517	145.360000
226.666168	145.620000
226.758835	145.760000
226.851501	146.260000
226.944183	146.500000
227.036850	146.380000
227.129517	146.500000
227.222183	146.560000
227.314850	146.260000
227.407516	146.520000
227.500198	147.420000
227.592865	147.000000
227.685532	146.580000
227.778214	146.220000
227.870880	146.500000
227.963562	146.500000
228.056229	147.100000
228.148926	147.240000
228.241592	147.980000
228.334274	147.140000
228.426956	146.820000
228.519638	146.520000
228.612305	146.120000
228.704987	146.000000
228.797668	146.160000
228.890350	145.940000
228.983032	145.360000
229.075714	146.120000
229.168396	145.580000
229.261108	145.060000
229.353790	145.280000
229.446472	145.920000
229.539169	145.780000
229.631851	145.620000
229.724533	146.160000
229.817230	146.120000
229.909912	146.620000
230.002609	146.500000
230.095306	146.660000
230.187988	146.540000
230.280685	146.480000
230.373383	145.340000
230.466095	145.240000
230.558792	145.500000
230.651474	145.460000
230.744171	145.220000
230.836868	145.380000
230.929581	145.680000
231.022278	145.600000
231.114975	145.880000
231.207672	145.760000
231.300369	146.340000
231.393082	146.060000
231.485779	145.720000
231.578506	145.640000
231.671204	145.980000
231.763916	145.840000
231.856613	146.080000
231.949326	146.400000
232.042023	146.200000
232.134735	145.940000
232.227448	145.740000
232.320160	145.680000
232.412872	145.460000
232.505585	146.480000
232.598297	147.040000
232.691010	147.080000
232.783722	146.900000
232.876450	147.460000
232.969162	146.620000
233.061874	146.020000
233.154587	145.360000
233.247314	145.620000
233.340027	145.120000
233.432739	145.380000
233.525467	145.360000
233.618179	146.100000
233.710907	145.800000
233.803635	146.420000
233.896347	146.200000
233.989090	147.200000
234.081818	147.040000
234.174545	147.320000
234.267258	146.620000
234.359985	147.060000
234.452713	146.500000
234.545441	146.120000
234.638168	145.720000
234.730896	146.280000
234.823639	145.820000
234.916367	146.120000
235.009094	146.460000
235.101822	146.780000
235.194580	146.660000
235.287308	146.580000
235.380051	145.880000
235.472778	146.100000
235.565521	145.960000
235.658249	145.340000
235.750992	145.520000
235.843719	145.840000
235.936462	146.080000
236.029205	146.000000
236.121948	145.840000
236.214691	146.060000
236.307449	146.560000
236.400192	146.340000
236.492935	146.020000
236.585678	146.580000
236.678421	146.640000
236.771164	145.840000
236.863907	145.860000
236.956665	146.340000
237.049408	147.760000
237.142151	147.280000
237.234909	148.140000
237.327652	148.180000
237.420410	147.760000
237.513153	146.640000
237.605927	146.540000
237.698669	145.840000
237.791428	145.360000
237.884186	146.020000
237.976944	145.500000
238.069702	145.900000
238.162445	145.880000
238.255203	146.220000
238.347961	146.300000
238.440720	146.340000
238.533478	146.320000
238.626266	146.020000
238.719025	146.140000
238.811783	145.880000
238.904541	145.680000
238.997314	145.320000
239.090073	145.080000
239.182831	145.220000
239.275604	145.860000
239.368362	146.100000
239.461136	146.360000
239.553909	146.740000
239.646667	146.400000
239.739441	145.740000
239.832214	146.000000
239.925003	146.100000
240.017761	146.860000
240.110535	147.420000
240.203308	147.000000
240.296082	146.900000
240.388855	146.820000
240.481628	146.600000
240.574417	146.480000
240.667191	147.040000
240.759964	146.720000
240.852737	146.380000
240.945526	145.880000
241.038315	145.420000
241.131088	145.480000
241.223877	145.840000
241.316650	145.720000
241.409439	146.060000
241.502228	145.920000
241.595001	146.120000
241.687790	145.940000
241.780579	146.140000
241.873367	146.180000
241.966141	146.580000
242.058929	145.800000
242.151718	146.020000
242.244507	146.560000
242.337311	145.660000
242.430099	145.880000
242.522903	146.240000
242.615692	145.520000
242.708481	145.400000
242.801270	146.320000
242.894073	146.340000
242.986862	146.380000
243.079651	147.220000
243.172455	146.680000
243.265244	146.720000
243.358063	146.000000
243.450867	146.300000
243.543655	146.280000
243.636459	146.600000
243.729263	146.680000
243.822067	147.080000
243.914856	147.340000
244.007660	147.160000
244.100464	147.060000
244.193268	146.660000
244.286072	146.520000
244.378876	145.680000
244.471680	145.440000
244.564499	145.840000
244.657318	146.440000
244.750122	146.800000
244.842926	146.340000
244.935745	146.800000
245.028549	146.420000
245.121368	145.980000
245.214172	145.700000
245.306992	146.760000
245.399796	146.260000
245.492615	146.220000
245.585434	145.940000
245.678253	145.820000
245.771072	145.560000
245.863892	145.960000
245.956711	146.360000
246.049530	146.420000
246.142349	146.420000
246.235168	146.300000
246.327988	146.760000
246.420807	146.340000
246.513626	146.560000
246.606445	146.420000
246.699280	146.460000
246.792099	146.000000
246.884918	145.900000
246.977753	145.520000
247.070587	145.640000
247.163422	145.420000
247.256241	145.300000
247.349075	145.760000
247.441895	146.120000
247.534729	146.220000
247.627563	146.460000
247.720383	147.180000
247.813217	147.060000
247.906052	146.720000
247.998886	146.580000
248.091736	146.160000
248.184570	145.580000
248.277405	145.380000
248.370239	146.360000
248.463074	147.320000
248.555908	147.820000
248.648743	147.720000
248.741592	147.800000
248.834427	147.140000
248.927261	145.900000
249.020111	146.180000
249.112946	146.660000
249.205795	146.260000
249.298630	146.240000
249.391495	146.500000
249.484344	146.000000
249.577179	145.800000
249.670029	146.520000
249.762878	147.020000
249.855728	147.160000
249.948563	147.140000
250.041412	146.660000
250.134262	146.280000
250.227112	146.180000
250.319962	146.020000
250.412827	146.240000
250.505692	145.960000
250.598541	146.080000
250.691391	145.540000
250.784241	145.660000
250.877106	145.660000
250.969955	145.520000
251.062805	146.120000
251.155670	146.600000
251.248520	146.520000
251.341385	146.740000
251.434235	147.140000
251.527100	146.760000
251.619965	146.400000
251.712814	147.020000
251.805695	146.600000
251.898560	146.440000
251.991425	146.580000
252.084290	146.880000
252.177155	146.100000
252.270020	146.260000
252.362885	146.700000
252.455750	146.440000
252.548615	145.880000
252.641479	146.120000
252.734360	145.920000
252.827240	145.780000
252.920105	145.540000
253.012970	145.520000
253.105850	145.440000
253.198715	145.160000
253.291595	144.980000
253.384460	145.180000
253.477341	145.340000
253.570221	145.440000
253.663086	145.340000
253.755966	146.000000
253.848846	145.860000
253.941727	145.960000
254.034592	145.740000
254.127472	145.760000
254.220367	145.580000
254.313248	145.780000
254.406128	145.420000
254.499008	145.760000
254.591904	146.460000
254.684784	146.560000
254.777664	146.480000
254.870544	146.340000
254.963440	146.400000
255.056335	146.140000
255.149216	145.700000
255.242111	146.000000
255.334991	146.640000
255.427887	146.280000
255.520767	146.320000
255.613663	146.420000
255.706558	145.580000
255.799438	145.140000
255.892334	145.140000
255.985229	145.320000
256.078125	145.560000
256.171021	145.860000
256.263916	146.340000
256.356812	146.620000
256.449707	146.540000
256.542603	146.000000
256.635498	146.480000
256.728394	146.300000
256.821289	145.880000
256.914215	146.200000
257.007080	146.800000
257.100006	146.520000
257.192932	146.780000
257.285828	147.100000
257.378723	146.340000
257.471619	145.860000
257.564545	145.520000
257.657440	145.640000
257.750336	145.900000
257.843262	145.780000
257.936157	146.860000
258.029053	147.380000
258.121979	147.100000
258.214874	146.700000
258.307800	146.540000
258.400696	145.300000
258.493622	144.940000
258.586517	144.300000
258.679443	144.680000
258.772339	144.460000
258.865265	144.740000
258.958160	144.740000
259.051086	145.620000
259.144012	145.180000
259.236938	146.320000
259.329834	146.240000
259.422791	145.880000
259.515717	145.440000
259.608612	145.760000
259.701538	145.600000
259.794464	145.480000
259.887390	145.640000
259.980316	145.460000
260.073212	145.060000
260.166138	144.080000
260.259064	144.320000
260.351990	145.100000
260.444916	145.420000
260.537842	146.040000
260.630768	147.200000
260.723694	147.520000
260.816620	147.080000
260.909546	146.860000
261.002472	146.260000
261.095398	145.580000
261.188354	145.400000
261.281281	144.700000
261.374207	144.820000
261.467133	145.500000
261.560089	145.700000
261.653015	145.440000
261.745972	146.740000
261.838867	147.040000
261.931824	147.020000
262.024780	146.680000
262.117706	146.920000
262.210663	146.620000
262.303589	146.400000
262.396515	146.380000
262.489471	147.420000
262.582397	147.140000
262.675354	146.740000
262.768280	146.860000
262.861237	146.660000
262.954163	146.140000
263.047119	146.400000
263.140045	146.560000
263.233002	146.200000
263.325958	146.000000
263.418884	145.600000
263.511841	145.720000
263.604797	145.400000
263.697723	145.740000
263.790680	145.820000
263.883636	146.420000
263.976593	146.000000
264.069550	146.260000
264.162476	145.860000
264.255463	145.960000
264.348419	145.500000
264.441376	145.820000
264.534332	145.540000
264.627289	145.740000
264.720245	145.940000
264.813202	146.020000
264.906158	146.060000
264.999115	146.520000
265.092072	146.720000
265.185028	147.020000
265.277985	147.040000
265.370941	146.860000
265.463898	146.600000
265.556854	146.240000
265.649811	145.120000
265.742798	144.940000
265.835754	145.080000
265.928711	145.640000
266.021667	145.580000
266.114655	146.320000
266.207611	146.520000
266.300568	145.980000
266.393585	145.100000
266.486511	145.560000
266.579498	144.800000
266.672485	144.820000
266.765442	144.860000
266.858429	145.520000
266.951385	145.020000
267.044342	145.380000
267.137329	145.200000
267.230316	145.800000
267.323273	145.320000
267.416260	146.140000
267.509216	146.200000
267.602203	146.480000
267.695160	146.720000
267.788147	146.820000
267.881134	145.920000
267.974091	146.200000
268.067078	145.900000
268.160065	145.420000
268.253052	145.520000
268.346008	145.660000
268.438995	145.320000
268.531982	145.360000
268.624969	145.280000
268.717987	145.660000
268.810944	145.720000
268.903961	145.800000
268.996948	145.500000
269.089905	145.900000
269.182892	145.820000
269.275879	146.100000
269.368866	145.600000
269.461853	145.940000
269.554871	145.680000
269.647858	145.520000
269.740845	145.720000
269.833832	146.320000
269.926819	146.260000
270.019806	146.260000
270.112793	145.740000
270.205811	145.620000
270.298798	145.380000
270.391785	146.200000
270.484772	146.040000
270.577789	146.260000
270.670776	145.960000
270.763763	146.060000
270.856750	145.700000
270.949768	145.640000
271.042786	146.120000
271.135773	146.360000
271.228790	146.620000
271.321808	145.960000
271.414795	145.520000
271.507782	144.560000
271.600800	144.300000
271.693817	144.440000
271.786804	145.120000
271.879822	145.880000
271.972809	146.560000
272.065826	146.920000
272.158844	146.300000
272.251831	146.480000
272.344849	146.380000
272.437866	146.080000
272.530853	146.200000
272.623871	146.720000
272.716888	145.920000
272.809906	146.100000
272.902893	145.960000
272.995911	145.500000
273.088928	145.420000
273.181946	145.980000
273.274963	145.620000
273.367981	145.800000
273.460999	146.000000
273.554047	146.240000
273.647003	146.660000
273.740051	146.660000
273.833069	147.220000
273.926086	147.320000
274.019135	146.920000
274.112152	146.420000
274.205170	146.320000
274.298187	146.360000
274.391205	145.820000
274.484222	145.840000
274.577240	145.740000
274.670258	145.980000
274.763306	145.640000
274.856323	146.180000
274.949341	146.400000
275.042358	146.740000
275.135406	146.620000
275.228424	146.620000
275.321442	146.600000
275.414490	146.320000
275.507507	146.520000
275.600525	147.020000
275.693573	146.540000
275.786591	145.880000
275.879669	146.180000
275.972656	145.560000
276.065735	145.040000
276.158752	145.740000
276.251801	146.780000
276.344818	146.620000
276.437866	146.740000
276.530884	146.580000
276.623932	145.820000
276.716980	145.580000
276.809998	145.600000
276.903046	145.800000
276.996094	146.740000
277.089111	147.460000
277.182159	147.700000
277.275208	147.360000
277.368256	146.860000
277.461304	146.340000
277.554321	145.760000
277.647369	145.800000
277.740417	145.880000
277.833466	145.980000
277.926514	145.920000
278.019562	146.740000
278.112610	146.120000
278.205688	146.440000
278.298706	146.660000
278.391785	146.260000
278.484833	145.480000
278.577881	145.580000
278.670929	145.760000
278.763977	145.860000
278.857025	146.560000
278.950073	146.820000
279.043121	146.640000
279.136169	146.440000
279.229248	145.940000
279.322296	145.520000
279.415344	145.280000
279.508392	145.060000
279.601440	144.880000
279.694519	145.060000
279.787567	145.040000
279.880615	145.240000
279.973694	145.780000
280.066742	146.100000
280.159790	146.460000
280.252869	146.220000
280.345917	146.220000
280.438995	145.860000
280.532074	145.420000
280.625122	145.660000
280.718201	146.660000
280.811279	146.620000
280.904327	146.980000
280.997406	147.260000
281.090454	147.060000
281.183533	146.080000
281.276581	146.020000
281.369659	145.640000
281.462738	145.740000
281.555786	145.580000
281.648865	145.880000
281.741943	145.860000
281.835022	146.600000
281.928070	146.420000
282.021149	146.200000
282.114227	146.340000
282.207306	146.420000
282.300385	146.060000
282.393433	146.280000
282.486511	146.360000
282.579590	146.600000
282.672668	146.980000
282.765747	146.600000
282.858856	146.280000
282.951904	146.520000
283.045013	146.380000
283.138062	146.700000
283.231171	147.120000
283.324249	147.540000
283.417328	147.660000
283.510406	147.520000
283.603485	146.900000
283.696564	146.540000
283.789642	146.600000
283.882751	146.320000
283.975830	146.700000
284.068909	146.540000
284.161987	147.300000
284.255066	146.480000
284.348175	146.400000
284.441254	146.180000
284.534332	146.460000
284.627441	145.740000
284.720520	145.680000
284.813599	145.820000
284.906708	145.880000
284.999786	145.300000
285.092896	145.160000
285.185974	146.640000
285.279053	146.300000
285.372192	146.220000
285.465240	147.080000
285.558380	147.020000
285.651459	146.020000
285.744568	147.080000
285.837677	146.560000
285.930756	146.460000
286.023865	146.700000
286.116943	146.420000
286.210052	146.020000
286.303162	146.400000
286.396240	146.500000
286.489349	146.380000
286.582458	146.680000
286.675568	146.320000
286.768646	146.260000
286.861755	146.120000
286.954865	146.920000
287.047974	146.340000
287.141083	146.200000
287.234161	146.100000
287.327271	145.760000
287.420380	145.660000
287.513519	146.000000
287.606598	146.080000
287.699738	146.440000
287.792816	146.580000
287.885956	146.360000
287.979034	146.300000
288.072174	146.520000
288.165283	146.320000
288.258392	146.560000
288.351501	145.720000
288.444611	146.240000
288.537720	146.420000
288.630859	146.440000
288.723969	146.400000
288.817078	146.980000
288.910187	146.860000
289.003296	146.620000
289.096436	146.320000
289.189545	145.820000
289.282654	145.660000
289.375763	145.740000
289.468903	145.860000
289.562012	146.140000
289.655121	146.600000
289.748260	146.720000
289.841400	146.820000
289.934509	146.660000
290.027649	146.760000
290.120728	146.620000
290.213898	146.380000
290.306976	146.240000
290.400146	146.380000
290.493256	145.840000
290.586395	146.060000
290.679535	146.560000
290.772644	146.020000
290.865784	145.200000
290.958893	145.300000
291.052032	144.960000
291.145172	144.760000
291.238281	144.720000
291.331421	145.280000
291.424561	145.900000
291.517670	145.700000
291.610809	145.760000
291.703949	145.840000
291.797089	146.100000
291.890228	145.180000
291.983337	145.480000
292.076477	145.020000
292.169617	145.640000
292.262756	145.240000
292.355927	145.540000
292.449036	145.360000
292.542206	145.700000
292.635315	145.500000
292.728485	145.800000
292.821625	145.580000
292.914764	146.760000
293.007904	146.940000
293.101044	146.940000
293.194183	146.660000
293.287323	147.140000
293.380463	146.040000
293.473602	145.740000
293.566742	145.800000
293.659882	146.320000
293.753021	146.380000
293.846191	146.420000
293.939331	146.220000
294.032471	146.040000
294.125610	145.780000
294.218781	145.960000
294.311920	146.300000
294.405060	146.640000
294.498230	146.400000
294.591370	146.280000
294.684540	145.640000
294.777679	145.340000
294.870850	145.720000
294.963959	145.600000
295.057159	145.520000
295.150299	146.060000
295.243469	145.960000
295.336609	145.080000
295.429779	145.680000
295.522919	146.060000
295.616089	145.960000
295.709229	146.360000
295.802399	146.660000
295.895569	145.860000
295.988708	145.600000
296.081879	145.540000
296.175018	144.720000
296.268188	144.880000
296.361359	145.760000
296.454529	145.880000
296.547668	145.820000
296.640839	146.420000
296.734009	146.300000
296.827179	146.440000
296.920319	146.620000
297.013519	146.420000
297.106659	146.200000
297.199860	146.200000
297.292999	145.480000
297.386200	145.060000
297.479309	145.040000
297.572510	145.060000
297.665680	144.800000
297.758850	145.220000
297.852020	145.380000
297.945190	145.260000
298.038361	145.260000
298.131531	146.440000
298.224701	146.180000
298.317871	145.800000
298.411072	145.720000
298.504242	145.880000
298.597412	145.060000
298.690582	145.440000
298.783752	145.820000
298.876923	146.400000
298.970093	146.120000
299.063293	146.380000
299.156464	146.660000
299.249634	146.640000
299.342834	146.580000
299.436005	146.840000
299.529205	146.580000
299.622345	146.180000
299.715576	145.780000
299.808716	145.380000
299.901917	145.460000
299.995117	145.840000
300.088287	145.820000
300.181488	145.740000
300.274658	145.800000
300.367828	145.920000
300.461029	145.620000
300.554199	145.880000
300.647400	145.960000
300.740601	146.520000
300.833771	146.280000
300.926971	146.460000
301.020142	145.980000
301.113342	146.340000
301.206512	145.760000
301.299713	146.020000
301.392914	146.100000
301.486084	146.560000
301.579285	146.280000
301.672516	146.820000
301.765686	146.440000
301.858887	146.180000
301.952057	146.120000
302.045288	146.220000
302.138458	145.940000
302.231659	146.020000
302.324860	145.980000
302.418060	145.600000
302.511261	145.420000
302.604462	145.980000
302.697662	146.180000
302.790863	146.080000
302.884064	145.840000
302.977264	146.080000
303.070465	145.860000
303.163666	146.060000
303.256866	146.360000
303.350067	146.680000
303.443268	146.660000
303.536469	146.320000
303.629669	145.920000
303.722870	146.240000
303.816071	146.060000
303.909271	146.140000
304.002472	145.780000
304.095673	145.500000
304.188934	144.700000
304.282104	145.660000
304.375336	145.500000
304.468506	145.640000
304.561768	145.540000
304.654968	145.860000
304.748169	145.120000
304.841370	144.900000
304.934601	145.120000
305.027802	145.220000
305.121002	145.180000
305.214233	145.360000
305.307434	145.840000
305.400665	146.540000
305.493866	146.680000
305.587097	146.960000
305.680298	146.620000
305.773499	147.100000
305.866730	146.540000
305.959930	146.920000
306.053162	146.920000
306.146393	146.800000
306.239594	145.880000
306.332825	145.800000
306.426025	146.000000
306.519287	145.560000
306.612488	145.980000
306.705719	146.100000
306.798920	146.240000
306.892181	145.740000
306.985352	145.380000
307.078613	144.520000
307.171844	145.040000
307.265045	144.660000
307.358276	143.860000
307.451508	144.560000
307.544739	145.500000
307.637970	144.960000
307.731201	144.900000
307.824402	146.100000
307.917633	146.260000
308.010864	146.360000
308.104095	147.080000
308.197327	147.280000
308.290558	147.240000
308.383789	146.700000
308.477020	146.180000
308.570251	145.380000
308.663483	145.140000
308.756714	144.720000
308.849976	145.100000
308.943176	145.940000
309.036438	146.020000
309.129639	146.140000
309.222900	146.100000
309.316101	145.600000
309.409393	144.640000
309.502625	144.760000
309.595856	144.820000
309.689087	144.980000
309.782318	145.420000
309.875580	145.700000
309.968811	145.660000
310.062042	145.500000
310.155273	145.180000
310.248535	145.500000
310.341766	145.440000
310.434998	145.160000
310.528259	145.180000
310.621490	145.880000
310.714722	145.100000
310.807983	145.320000
310.901215	145.600000
310.994476	145.840000
311.087708	145.340000
311.181000	145.520000
311.274200	144.940000
311.367462	144.760000
311.460693	144.400000
311.553986	145.180000
311.647186	145.560000
311.740479	146.560000
311.833710	146.380000
311.926971	146.560000
312.020203	145.540000
312.113464	145.340000
312.206726	144.400000
312.299957	144.760000
312.393219	145.300000
312.486481	145.860000
312.579712	145.960000
312.672974	146.220000
312.766235	146.080000
312.859497	145.600000
312.952759	145.300000
313.045990	145.860000
313.139252	145.520000
313.232513	145.700000
313.325775	146.040000
313.419037	146.260000
313.512299	145.320000
313.605530	146.100000
313.698822	146.340000
313.792053	146.260000
313.885345	145.500000
313.978577	145.700000
314.071869	144.900000
314.165131	144.920000
314.258392	144.760000
314.351654	145.260000
314.444916	144.980000
314.538177	145.860000
314.631439	146.120000
314.724701	146.140000
314.817993	146.240000
314.911255	146.620000
315.004517	146.120000
315.097778	145.620000
315.191040	146.040000
315.284302	146.020000
315.377594	145.740000
315.470856	145.660000
315.564117	145.220000
315.657379	144.500000
315.750671	144.180000
315.843933	144.660000
315.937195	144.440000
316.030518	144.540000
316.123749	144.840000
316.217041	146.160000
316.310303	145.940000
316.403595	146.120000
316.496857	146.620000
316.590149	146.660000
316.683411	145.580000
316.776703	145.380000
316.869965	145.540000
316.963257	145.360000
317.056519	144.860000
317.149811	144.760000
317.243073	144.720000
317.336365	144.780000
317.429626	145.280000
317.522919	145.880000
317.616180	145.860000
317.709473	145.900000
317.802765	145.820000
317.896027	145.280000
317.989319	145.580000
318.082611	145.560000
318.175873	145.440000
318.269165	145.460000
318.362488	145.740000
318.455750	145.180000
318.549042	145.680000
318.642303	146.460000
318.735626	146.180000
318.828888	146.220000
318.922211	145.800000
319.015472	145.840000
319.108765	144.960000
319.202057	144.880000
319.295349	144.820000
319.388641	145.320000
319.481934	145.400000
319.575226	145.600000
319.668518	145.820000
319.761810	145.960000
319.855103	145.980000
319.948395	145.600000
320.041687	145.420000
320.134979	145.540000
320.228271	145.320000
320.321564	145.260000
320.414856	145.380000
320.508148	145.360000
320.601440	145.340000
320.694763	144.940000
320.788025	145.460000
320.881348	145.280000
320.974640	145.240000
321.067963	144.860000
321.161224	145.040000
321.254547	144.220000
321.347839	144.900000
321.441162	144.800000
321.534454	145.040000
321.627747	144.960000
321.721069	145.740000
321.814362	145.660000
321.907654	145.600000
322.000946	145.620000
322.094269	146.280000
322.187561	146.020000
322.280884	146.060000
322.374176	146.560000
322.467468	146.880000
322.560791	146.620000
322.654083	147.060000
322.747406	146.840000
322.840698	146.960000
322.934021	147.120000
323.027344	147.360000
323.120636	146.800000
323.213959	146.700000
323.307251	146.400000
323.400574	146.020000
323.493866	145.300000
323.587219	145.640000
323.680511	145.740000
323.773834	145.900000
323.867157	146.120000
323.960449	146.620000
324.053772	146.400000
324.147095	146.440000
324.240387	147.060000
324.333710	147.020000
324.427032	147.180000
324.520355	147.080000
324.613647	146.720000
324.706970	146.080000
324.800293	146.000000
324.893616	146.020000
324.986938	146.300000
325.080231	146.160000
325.173553	146.420000
325.266876	146.560000
325.360199	146.400000
325.453522	146.060000
325.546875	146.140000
325.640167	146.180000
325.733521	146.440000
325.826813	146.620000
325.920166	146.460000
326.013489	146.460000
326.106812	145.640000
326.200134	145.240000
326.293457	144.940000
326.386780	144.980000
326.480103	144.660000
326.573425	144.780000
326.666748	144.760000
326.760071	144.880000
326.853424	144.960000
326.946747	145.040000
327.040070	146.020000
327.133392	145.940000
327.226715	145.320000
327.320068	145.040000
327.413391	145.800000
327.506714	144.840000
327.600037	144.840000
327.693390	145.040000
327.786713	145.100000
327.880066	144.680000
327.973358	145.300000
328.066742	145.720000
328.160034	146.200000
328.253418	146.820000
328.346710	146.580000
328.440063	146.080000
328.533417	145.640000
328.626740	145.880000
328.720093	145.500000
328.813416	145.420000
328.906769	145.540000
329.000092	145.620000
329.093445	145.140000
329.186768	144.800000
329.280121	145.200000
329.373444	145.480000
329.466797	145.420000
329.560120	145.600000
329.653473	145.960000
329.746796	145.680000
329.840149	145.540000
329.933502	145.540000
330.026825	145.320000
330.120178	145.160000
330.213562	145.300000
330.306854	145.300000
330.400238	145.500000
330.493561	145.520000
330.586945	146.260000
330.680237	146.420000
330.773621	146.760000
330.866974	146.540000
330.960327	146.760000
331.053680	146.160000
331.147003	146.380000
331.240356	146.060000
331.333710	146.260000
331.427063	145.620000
331.520416	145.320000
331.613770	145.100000
331.707123	145.220000
331.800476	145.140000
331.893829	146.140000
331.987152	146.520000
332.080505	146.440000
332.173859	146.360000
332.267212	146.220000
332.360565	145.720000
332.453918	145.500000
332.547333	145.280000
332.640656	145.360000
332.734039	145.460000
332.827362	145.260000
332.920746	145.560000
333.014069	145.860000
333.107452	146.440000
333.200806	146.300000
333.294159	146.540000
333.387543	146.280000
333.480896	146.000000
333.574249	145.360000
333.667603	145.320000
333.760956	145.560000
333.854340	145.580000
333.947693	145.620000
334.041046	145.820000
334.134430	146.400000
334.227783	145.820000
334.321136	145.660000
334.414520	145.540000
334.507874	145.320000
334.601227	145.100000
334.694611	145.480000
334.787964	145.900000
334.881348	146.380000
334.974701	146.460000
335.068085	146.060000
335.161438	146.200000
335.254822	146.000000
335.348175	145.680000
335.441559	145.380000
335.534943	146.180000
335.628296	145.740000
335.721680	145.600000
335.815033	145.780000
335.908417	146.260000
336.001770	145.840000
336.095154	145.860000
336.188538	145.980000
336.281891	145.640000
336.375275	145.000000
336.468658	144.700000
336.562012	144.860000
336.655396	145.080000
336.748779	145.400000
336.842133	145.580000
336.935516	145.900000
337.028900	145.360000
337.122284	145.120000
337.215637	145.360000
337.309021	145.700000
337.402435	145.300000
337.495789	145.600000
337.589203	145.460000
337.682526	145.040000
337.775940	145.260000
337.869324	145.520000
337.962708	145.460000
338.056091	146.300000
338.149475	146.040000
338.242859	145.960000
338.336243	145.700000
338.429626	146.080000
338.523010	145.740000
338.616394	145.920000
338.709778	145.980000
338.803162	146.220000
338.896545	146.160000
338.989929	145.540000
339.083313	145.760000
339.176697	145.180000
339.270081	145.080000
339.363464	145.400000
339.456848	145.620000
339.550232	144.940000
339.643616	144.940000
339.737030	145.200000
339.830383	144.940000
339.923828	145.200000
340.017181	145.720000
340.110596	145.980000
340.203949	145.720000
340.297363	145.220000
340.390778	145.180000
340.484161	145.120000
340.577545	145.100000
340.670959	145.400000
340.764343	145.680000
340.857727	145.620000
340.951111	145.220000
341.044525	145.500000
341.137909	144.920000
341.231293	144.820000
341.324707	144.240000
341.418091	145.460000
341.511505	145.340000
341.604889	145.960000
341.698303	146.120000
341.791687	146.600000
341.885071	145.620000
341.978485	145.240000
342.071899	145.160000
342.165283	145.160000
342.258698	145.380000
342.352081	146.180000
342.445496	146.840000
342.538879	146.680000
342.632324	146.340000
342.725708	145.920000
342.819122	145.300000
342.912506	145.060000
343.005920	144.980000
343.099335	146.180000
343.192719	146.320000
343.286133	146.220000
343.379547	146.320000
343.472931	146.080000
343.566345	144.980000
343.659760	145.240000
343.753143	145.140000
343.846558	144.660000
343.939972	144.800000
344.033386	145.320000
344.126770	145.160000
344.220184	145.500000
344.313599	146.120000
344.407043	146.240000
344.500427	145.820000
344.593872	146.180000
344.687225	145.720000
344.780670	145.200000
344.874054	145.020000
344.967499	145.400000
345.060913	145.100000
345.154327	145.400000
345.247742	145.300000
345.341156	145.420000
345.434570	145.260000
345.527985	145.400000
345.621399	145.580000
345.714813	145.600000
345.808228	145.820000
345.901642	145.840000
345.995056	145.460000
346.088470	145.480000
346.181885	145.600000
346.275299	145.400000
346.368713	145.220000
346.462128	144.960000
346.555573	144.940000
346.648987	145.300000
346.742401	145.240000
346.835815	145.740000
346.929260	145.500000
347.022644	145.540000
347.116119	145.500000
347.209503	145.900000
347.302948	146.500000
347.396362	147.420000
347.489807	147.540000
347.583221	147.800000
347.676636	147.380000
347.770050	146.020000
347.863495	145.360000
347.956909	145.240000
348.050323	144.680000
348.143768	144.680000
348.237183	144.940000
348.330597	145.780000
348.424042	145.920000
348.517456	146.140000
348.610901	146.440000
348.704315	146.340000
348.797760	145.440000
348.891174	145.040000
348.984619	144.580000
349.078033	144.780000
349.171448	145.420000
349.264923	145.800000
349.358337	145.780000
349.451782	146.240000
349.545197	145.600000
349.638641	144.800000
349.732086	144.220000
349.825500	144.900000
349.918945	144.240000
350.012390	144.840000
350.105804	145.880000
350.199249	146.640000
350.292664	146.660000
350.386108	147.100000
350.479553	147.380000
350.572968	147.200000
350.666412	147.120000
350.759857	146.680000
350.853302	147.060000
350.946716	146.360000
351.040161	145.760000
351.133606	145.580000
351.227081	145.400000
351.320465	145.680000
351.413940	145.740000
351.507355	146.180000
351.600830	146.540000
351.694244	146.520000
351.787720	146.180000
351.881104	146.300000
351.974579	146.060000
352.067993	146.560000
352.161469	146.640000
352.254883	145.900000
352.348358	145.760000
352.441803	145.500000
352.535248	144.960000
352.628693	145.300000
352.722137	145.560000
352.815582	145.700000
352.909027	146.100000
353.002472	145.680000
353.095917	145.140000
353.189362	145.540000
353.282806	145.640000
353.376251	145.300000
353.469696	145.420000
353.563141	146.400000
353.656586	146.120000
353.750061	145.600000
353.843475	145.700000
353.936981	146.040000
354.030396	145.180000
354.123871	145.440000
354.217285	146.300000
354.310760	146.720000
354.404175	146.680000
354.497681	146.380000
354.591095	146.080000
354.684570	145.100000
354.777985	144.500000
354.871490	144.120000
354.964935	144.740000
355.058380	144.920000
355.151855	145.100000
355.245300	145.460000
355.338745	146.100000
355.432220	146.220000
355.525665	145.660000
355.619110	146.180000
355.712585	146.160000
355.806030	145.760000
355.899475	145.160000
355.992950	145.720000
356.086426	145.760000
356.179871	145.460000
356.273346	145.460000
356.366791	145.600000
356.460266	145.820000
356.553711	145.360000
356.647186	145.460000
356.740631	145.320000
356.834106	145.440000
356.927551	145.420000
357.021027	145.480000
357.114471	145.940000
357.207947	146.140000
357.301422	146.300000
357.394867	146.220000
357.488342	146.840000
357.581818	146.560000
357.675262	146.740000
357.768738	146.440000
357.862213	145.980000
357.955658	145.600000
358.049133	145.600000
358.142609	145.540000
358.236053	145.340000
358.329529	145.480000
358.423035	145.680000
358.516449	145.340000
358.609955	145.920000
358.703400	146.820000
358.796906	147.080000
358.890350	146.560000
358.983826	146.880000
359.077271	146.020000
359.170776	145.220000
359.264221	144.900000
359.357727	145.120000
359.451172	145.300000
359.544647	145.480000
359.638123	145.560000
359.731598	145.980000
359.825073	146.140000
359.918549	146.120000
360.012024	146.180000
360.105499	145.940000
360.198975	145.840000
360.292450	145.700000
360.385925	145.620000
360.479401	145.320000
360.572876	145.700000
360.666351	145.980000
360.759857	146.020000
360.853302	146.160000
360.946808	145.640000
361.040253	145.680000
361.133759	145.380000
361.227203	145.660000
361.320709	145.140000
361.414154	145.840000
361.507660	146.020000
361.601105	146.480000
361.694641	146.640000
361.788086	146.640000
361.881592	146.840000
361.975067	146.480000
362.068542	146.320000
362.162018	146.080000
362.255524	145.720000
362.348999	145.520000
362.442474	145.780000
362.535950	145.360000
362.629456	144.940000
362.722931	145.100000
362.816406	145.520000
362.909882	145.860000
363.003387	145.420000
363.096863	146.040000
363.190338	146.500000
363.283875	146.140000
363.377319	145.760000
363.470825	146.640000
363.564301	146.060000
363.657806	145.960000
363.751282	145.720000
363.844788	146.580000
363.938232	145.900000
364.031769	146.440000
364.125214	146.460000
364.218750	147.080000
364.312225	145.840000
364.405731	146.160000
364.499207	145.540000
364.592712	145.160000
364.686188	144.660000
364.779694	145.080000
364.873169	145.160000
364.966675	145.320000
365.060150	145.360000
365.153656	145.520000
365.247131	145.540000
365.340637	145.540000
365.434143	145.900000
365.527618	146.120000
365.621155	145.640000
365.714600	145.380000
365.808136	145.640000
365.901611	144.840000
365.995117	144.760000
366.088593	144.940000
366.182129	145.080000
366.275604	144.780000
366.369110	145.280000
366.462585	145.180000
366.556122	145.460000
366.649567	145.460000
366.743103	145.620000
366.836609	145.400000
366.930115	145.940000
367.023590	146.080000
367.117096	146.260000
367.210602	146.100000
367.304108	147.100000
367.397614	147.160000
367.491119	147.500000
367.584595	147.200000
367.678101	147.440000
367.771606	146.660000
367.865112	146.060000
367.958649	145.420000
368.052124	145.360000
368.145660	145.200000
368.239136	145.540000
368.332672	145.900000
368.426147	146.080000
368.519684	146.100000
368.613159	146.440000
368.706696	146.000000
368.800171	145.820000
368.893707	145.600000
368.987183	145.760000
369.080719	145.680000
369.174225	145.720000
369.267731	146.160000
369.361237	146.260000
369.454742	146.100000
369.548248	146.200000
369.641754	145.920000
369.735260	145.480000
369.828766	144.720000
369.922272	145.640000
370.015808	145.540000
370.109314	145.580000
370.202820	145.520000
370.296356	146.900000
370.389832	145.960000
370.483368	145.220000
370.576874	145.340000
370.670410	145.600000
370.763885	144.480000
370.857422	144.660000
370.950928	145.020000
371.044464	145.920000
371.137939	146.120000
371.231476	146.720000
371.324982	147.420000
371.418518	147.480000
371.512024	146.820000
371.605560	146.300000
371.699066	146.240000
371.792572	145.580000
371.886108	145.980000
371.979614	145.880000
372.073120	146.500000
372.166656	146.560000
372.260162	146.620000
372.353668	146.100000
372.447205	146.020000
372.540710	145.680000
372.634277	145.480000
372.727753	145.560000
372.821320	145.780000
372.914795	145.900000
373.008362	145.800000
373.101837	146.020000
373.195404	146.020000
373.288879	145.800000
373.382446	146.520000
373.475922	146.620000
373.569489	146.960000
373.662964	147.440000
373.756531	147.660000
373.850037	147.220000
373.943573	146.920000
374.037109	146.020000
374.130615	145.720000
374.224152	145.820000
374.317657	145.420000
374.411194	146.260000
374.504730	146.440000
374.598236	145.960000
374.691772	145.600000
374.785309	146.020000
374.878815	145.060000
374.972351	145.360000
375.065887	145.480000
375.159454	146.440000
375.252930	145.820000
375.346497	146.340000
375.440002	146.820000
375.533569	146.800000
375.627045	145.480000
375.720612	145.900000
375.814117	146.280000
375.907684	145.740000
376.001160	145.420000
376.094727	145.420000
376.188232	145.920000
376.281799	145.520000
376.375336	145.680000
376.468872	146.620000
376.562408	147.240000
376.655914	146.420000
376.749451	146.200000
376.842987	146.060000
376.936523	145.420000
377.030060	145.220000
377.123596	145.520000
377.217133	145.200000
377.310669	145.060000
377.404205	145.440000
377.497772	146.000000
377.591278	145.920000
377.684845	146.760000
377.778351	147.060000
377.871918	146.940000
377.965424	145.920000
378.058990	145.780000
378.152496	145.340000
378.246063	145.340000
378.339569	145.380000
378.433136	145.700000
378.526642	146.140000
378.620209	146.200000
378.713745	145.820000
378.807312	146.380000
378.900848	146.740000
378.994385	146.780000
379.087921	146.200000
379.181458	146.540000
379.274994	145.520000
379.368530	145.200000
379.462097	145.140000
379.555634	145.860000
379.649170	145.260000
379.742706	145.460000
379.836273	145.780000
379.929810	145.320000
380.023376	145.280000
380.116882	145.340000
380.210449	145.340000
380.303986	144.700000
380.397552	144.520000
380.491058	144.500000
380.584656	144.440000
380.678162	144.720000
380.771729	145.220000
380.865265	146.200000
380.958832	146.240000
381.052368	146.940000
381.145935	147.200000
381.239471	147.520000
381.333008	147.300000
381.426575	147.060000
381.520111	147.320000
381.613647	147.340000
381.707214	146.660000
381.800751	145.580000
381.894318	145.880000
381.987854	145.000000
382.081421	144.540000
382.174988	144.620000
382.268524	144.980000
382.362091	144.840000
382.455627	145.820000
382.549194	145.660000
382.642731	145.220000
382.736298	145.060000
382.829834	145.000000
382.923401	145.020000
383.016937	145.060000
383.110504	146.060000
383.204041	146.260000
383.297607	146.620000
383.391174	145.700000
383.484741	146.440000
383.578278	145.700000
383.671844	145.700000
383.765411	144.980000
383.858948	145.740000
383.952515	145.240000
384.046051	145.920000
384.139618	146.140000
384.233185	146.380000
384.326721	146.100000
384.420288	146.700000
384.513855	146.400000
384.607422	146.740000
384.700989	147.100000
384.794525	146.560000
384.888123	146.300000
384.981659	146.540000
385.075226	146.140000
385.168762	145.660000
385.262360	146.120000
385.355896	145.640000
385.449463	145.200000
385.542999	145.180000
385.636597	146.040000
385.730164	146.260000
385.823730	146.120000
385.917267	146.100000
386.010834	146.680000
386.104401	146.200000
386.197968	146.140000
386.291534	146.480000
386.385101	146.700000
386.478668	146.700000
386.572235	146.780000
386.665802	146.400000
386.759338	146.040000
386.852905	145.780000
386.946472	145.160000
387.040070	145.080000
387.133606	145.320000
387.227203	145.260000
387.320740	145.440000
387.414337	145.580000
387.507874	145.540000
387.601471	145.360000
387.695007	145.200000
387.788605	144.900000
387.882141	144.920000
387.975739	144.960000
388.069275	144.620000
388.162872	145.080000
388.256439	145.300000
388.350037	145.280000
388.443604	145.240000
388.537170	145.580000
388.630737	145.940000
388.724304	146.380000
388.817871	145.960000
388.911438	145.920000
389.005005	146.140000
389.098602	146.020000
389.192169	145.360000
389.285736	146.180000
389.379333	146.220000
389.472870	145.560000
389.566467	145.320000
389.660034	145.560000
389.753632	144.760000
389.847168	145.040000
389.940765	145.600000
390.034332	145.860000
390.127930	145.300000
390.221466	145.620000
390.315063	145.180000
390.408630	144.500000
390.502228	143.660000
390.595795	144.240000
390.689362	144.060000
390.782959	144.400000
390.876526	144.940000
390.970093	145.140000
391.063690	145.560000
391.157257	145.960000
391.250824	146.140000
391.344421	145.960000
391.437988	146.340000
391.531555	146.300000
391.625153	146.280000
391.718750	146.260000
391.812317	146.340000
391.905914	145.960000
391.999481	146.160000
392.093079	146.040000
392.186615	146.360000
392.280243	146.360000
392.373779	146.660000
392.467407	146.800000
392.560944	146.660000
392.654572	145.900000
392.748108	145.880000
392.841736	146.060000
392.935303	145.340000
393.028900	145.360000
393.122467	145.600000
393.216064	145.620000
393.309631	144.920000
393.403229	144.560000
393.496796	144.640000
393.590393	144.200000
393.683990	144.620000
393.777557	145.400000
393.871155	146.000000
393.964722	146.420000
394.058350	146.400000
394.151917	146.140000
394.245514	145.900000
394.339081	146.240000
394.432678	145.980000
394.526245	146.160000
394.619873	145.640000
394.713409	145.540000
394.807037	145.060000
394.900604	145.320000
394.994202	145.300000
395.087769	145.820000
395.181396	145.620000
395.274994	146.160000
395.368561	145.100000
395.462158	145.540000
395.555756	145.300000
395.649353	145.860000
395.742920	145.520000
395.836517	146.640000
395.930115	145.680000
396.023712	146.140000
396.117279	145.980000
396.210876	145.460000
396.304474	145.180000
396.398071	145.800000
396.491669	145.720000
396.585266	145.560000
396.678833	145.760000
396.772461	145.900000
396.866028	145.560000
396.959656	145.840000
397.053223	146.460000
397.146851	146.500000
397.240417	146.680000
397.334015	147.660000
397.427582	147.840000
397.521210	148.340000
397.614807	150.180000
397.708405	151.640000
397.802002	153.120000
397.895599	155.700000
397.989197	158.220000
398.082794	160.560000
398.176392	164.260000
398.269989	168.480000
398.363586	172.980000
398.457184	178.200000
398.550781	183.940000
398.644379	188.420000
398.737976	193.200000
398.831573	197.080000
398.925201	200.720000
399.018768	203.360000
399.112396	207.000000
399.205963	210.080000
399.299591	213.760000
399.393158	216.700000
399.486786	220.180000
399.580353	221.740000
399.673981	222.760000
399.767578	222.940000
399.861206	223.100000
399.954773	222.060000
400.048401	220.520000
400.141998	217.520000
400.235596	214.320000
400.329193	208.780000
400.422791	203.420000
400.516418	197.820000
400.610016	193.920000
400.703613	190.160000
400.797211	186.820000
400.890808	184.100000
400.984436	182.320000
401.078033	179.900000
401.171631	177.040000
401.265259	175.100000
401.358826	172.500000
401.452484	170.000000
401.546051	167.680000
401.639679	164.960000
401.733246	162.660000
401.826904	160.280000
401.920471	157.700000
402.014099	155.540000
402.107697	154.020000
402.201324	152.440000
402.294891	151.620000
402.388550	150.560000
402.482147	149.880000
402.575745	148.960000
402.669373	148.100000
402.762970	147.320000
402.856567	147.160000
402.950195	146.700000
403.043793	146.380000
403.137390	146.880000
403.231018	146.080000
403.324615	146.520000
403.418243	146.500000
403.511841	147.020000
403.605469	146.560000
403.699066	147.420000
403.792694	147.140000
403.886292	146.900000
403.979919	146.040000
404.073517	145.840000
404.167145	145.860000
404.260712	145.760000
404.354370	145.740000
404.447937	146.480000
404.541595	146.760000
404.635162	146.700000
404.728821	147.220000
404.822418	146.980000
404.916046	146.400000
405.009644	146.600000
405.103271	146.880000
405.196899	146.240000
405.290497	146.460000
405.384125	147.060000
405.477722	146.600000
405.571350	145.760000
405.664948	146.040000
405.758575	145.620000
405.852203	144.860000
405.945801	144.960000
406.039429	145.140000
406.133057	144.860000
406.226654	145.060000
406.320312	145.300000
406.413879	145.380000
406.507538	145.800000
406.601135	145.700000
406.694763	145.960000
406.788361	145.980000
406.882019	145.600000
406.975586	145.780000
407.069244	146.040000
407.162872	145.960000
407.256470	145.700000
407.350098	146.080000
407.443726	145.300000
407.537323	145.000000
407.630951	145.360000
407.724579	145.400000
407.818207	145.580000
407.911804	145.900000
408.005432	146.180000
408.099060	146.140000
408.192688	146.340000
408.286285	145.980000
408.379913	145.540000
408.473572	145.540000
408.567169	144.760000
408.660828	144.700000
408.754395	144.700000
408.848053	144.880000
408.941650	144.900000
409.035309	145.040000
409.128906	144.980000
409.222565	145.260000
409.316132	145.580000
409.409790	145.240000
409.503387	145.480000
409.597046	145.620000
409.690674	145.860000
409.784302	145.780000
409.877930	146.100000
409.971558	146.180000
410.065186	146.160000
410.158783	146.020000
410.252411	145.920000
410.346039	146.180000
410.439667	146.240000
410.533295	146.460000
410.626923	146.520000
410.720551	146.540000
410.814209	146.700000
410.907806	146.540000
411.001465	145.980000
411.095062	145.920000
411.188721	146.040000
411.282318	145.380000
411.375977	145.380000
411.469574	145.820000
411.563232	145.640000
411.656830	145.420000
411.750488	145.500000
411.844086	145.220000
411.937744	145.180000
412.031372	145.340000
412.125000	145.160000
412.218628	145.360000
412.312256	146.100000
412.405884	146.540000
412.499512	146.240000
412.593170	146.940000
412.686798	147.260000
412.780426	146.660000
412.874054	146.580000
412.967682	146.800000
413.061310	146.880000
413.154968	146.340000
413.248566	146.480000
413.342224	146.280000
413.435852	146.140000
413.529510	145.820000
413.623108	145.540000
413.716766	145.580000
413.810364	145.580000
413.904022	145.360000
413.997650	145.120000
414.091309	145.980000
414.184906	145.640000
414.278564	145.320000
414.372192	146.060000
414.465851	146.280000
414.559479	145.880000
414.653107	146.880000
414.746735	147.000000
414.840393	146.780000
414.934021	147.220000
415.027649	146.660000
415.121277	146.260000
415.214935	146.660000
415.308563	146.620000
415.402191	145.720000
415.495850	146.160000
415.589478	145.680000
415.683136	145.120000
415.776733	145.200000
415.870422	146.060000
415.964020	145.660000
416.057678	146.200000
416.151306	146.320000
416.244965	146.160000
416.338562	145.720000
416.432251	146.440000
416.525848	146.800000
416.619507	147.160000
416.713165	147.540000
416.806793	147.440000
416.900421	147.440000
416.994080	146.920000
417.087708	146.420000
417.181366	145.760000
417.274994	145.980000
417.368622	146.160000
417.462280	146.380000
417.555908	146.560000
417.649567	146.720000
417.743195	146.560000
417.836853	146.300000
417.930481	146.480000
418.024170	146.620000
418.117767	146.920000
418.211426	147.220000
418.305054	147.460000
418.398712	146.780000
418.492340	146.600000
418.585999	146.560000
418.679626	146.660000
418.773285	146.520000
418.866913	147.020000
418.960571	147.160000
419.054230	146.940000
419.147858	147.000000
419.241516	146.960000
419.335144	146.560000
419.428802	146.680000
419.522461	146.580000
419.616089	145.980000
419.709747	146.020000
419.803375	146.380000
419.897034	145.900000
419.990662	146.160000
420.084320	146.700000
420.177979	146.680000
420.271606	146.620000
420.365295	147.440000
420.458893	147.360000
420.552582	147.540000
420.646210	147.700000
420.739868	147.620000
420.833496	147.060000
420.927155	146.660000
421.020782	146.160000
421.114471	145.580000
421.208069	145.520000
421.301758	146.060000
421.395386	146.280000
421.489044	146.340000
421.582703	146.620000
421.676361	147.140000
421.769989	146.500000
421.863647	146.960000
421.957306	147.040000
422.050934	147.240000
422.144592	146.900000
422.238251	146.560000
422.331909	145.920000
422.425537	145.640000
422.519196	145.500000
422.612854	145.000000
422.706543	145.120000
422.800140	145.700000
422.893829	145.440000
422.987457	145.260000
423.081146	145.760000
423.174744	146.360000
423.268433	146.020000
423.362061	146.160000
423.455750	146.000000
423.549347	145.820000
423.643036	145.280000
423.736664	145.700000
423.830353	145.680000
423.924011	146.220000
424.017639	146.000000
424.111298	146.020000
424.204956	145.880000
424.298615	146.080000
424.392273	145.660000
424.485931	145.680000
424.579559	146.120000
424.673218	145.620000
424.766876	145.640000
424.860535	145.240000
424.954193	145.380000
425.047882	145.560000
425.141510	145.640000
425.235199	145.780000
425.328796	145.900000
425.422485	145.700000
425.516113	145.180000
425.609802	145.280000
425.703430	145.240000
425.797119	145.180000
425.890747	145.420000
425.984436	145.580000
426.078064	145.740000
426.171753	145.640000
426.265411	145.800000
426.359070	145.920000
426.452728	145.800000
426.546356	145.440000
426.640015	145.100000
426.733673	145.260000
426.827332	144.760000
426.920990	145.600000
427.014648	145.440000
427.108307	145.820000
427.201965	146.220000
427.295624	146.460000
427.389282	145.460000
427.482941	145.740000
427.576630	145.720000
427.670258	145.080000
427.763947	144.980000
427.857574	145.220000
427.951263	145.400000
428.044922	145.060000
428.138611	145.240000
428.232239	145.960000
428.325928	146.260000
428.419556	146.360000
428.513245	146.200000
428.606903	146.280000
428.700562	145.500000
428.794220	144.780000
428.887878	144.440000
428.981537	144.900000
429.075195	144.940000
429.168854	145.400000
429.262512	145.880000
429.356201	146.100000
429.449860	145.780000
429.543518	145.800000
429.637177	146.120000
429.730835	146.060000
429.824493	145.740000
429.918182	146.100000
430.011810	145.560000
430.105530	144.600000
430.199158	144.820000
430.292847	145.160000
430.386475	145.240000
430.480164	145.460000
430.573792	145.440000
430.667511	145.280000
430.761139	145.080000
430.854828	145.260000
430.948456	145.420000
431.042145	146.380000
431.135834	146.240000
431.229492	146.540000
431.323151	146.500000
431.416809	146.160000
431.510468	145.780000
431.604156	145.500000
431.697815	145.100000
431.791473	144.780000
431.885132	144.900000
431.978821	144.960000
432.072479	145.680000
432.166138	146.340000
432.259827	146.060000
432.353485	146.200000
432.447174	145.960000
432.540802	145.260000
432.634491	145.280000
432.728149	145.920000
432.821838	146.240000
432.915466	146.160000
433.009186	146.460000
433.102814	145.620000
433.196503	145.440000
433.290131	145.500000
433.383850	145.820000
433.477509	146.060000
433.571167	146.880000
433.664856	147.100000
433.758514	147.400000
433.852173	147.240000
433.945862	147.040000
434.039520	146.740000
434.133179	146.400000
434.226868	145.880000
434.320526	145.400000
434.414185	146.080000
434.507874	145.680000
434.601562	145.760000
434.695221	145.600000
434.788910	145.960000
434.882538	145.600000
434.976257	145.400000
435.069885	145.500000
435.163574	145.620000
435.257233	145.400000
435.350922	145.400000
435.444580	145.500000
435.538269	145.140000
435.631897	145.700000
435.725616	146.460000
435.819275	146.660000
435.912964	147.300000
436.006622	147.700000
436.100311	147.220000
436.193970	146.060000
436.287628	145.640000
436.381317	145.360000
436.474976	145.180000
436.568665	144.860000
436.662323	145.580000
436.756012	145.660000
436.849670	145.400000
436.943390	145.260000
437.037018	145.240000
437.130737	145.260000
437.224365	145.240000
437.318085	145.540000
437.411713	145.600000
437.505432	146.260000
437.599060	146.740000
437.692780	147.100000
437.786407	147.220000
437.880127	147.340000
437.973755	147.000000
438.067474	146.260000
438.161133	146.080000
438.254822	146.340000
438.348480	146.020000
438.442169	146.780000
438.535828	147.220000
438.629517	146.700000
438.723175	145.880000
438.816864	146.480000
438.910553	145.820000
439.004211	145.460000
439.097900	145.220000
439.191559	145.520000
439.285248	145.140000
439.378906	145.360000
439.472626	145.520000
439.566284	145.860000
439.659973	146.320000
439.753632	146.100000
439.847321	146.360000
439.940979	146.280000
440.034698	146.440000
440.128326	145.860000
440.222046	146.060000
440.315674	145.280000
440.409393	145.420000
440.503082	145.260000
440.596741	145.540000
440.690430	145.480000
440.784088	145.280000
440.877777	144.940000
440.971466	144.940000
441.065125	144.480000
441.158813	144.240000
441.252502	144.580000
441.346161	144.980000
441.439850	144.900000
441.533539	144.960000
441.627197	145.340000
441.720886	145.120000
441.814606	145.260000
441.908234	145.820000
442.001953	145.860000
442.095612	145.940000
442.189301	146.420000
442.282959	146.440000
442.376678	145.720000
442.470306	146.740000
442.564026	146.460000
442.657684	146.360000
442.751404	146.220000
442.845032	147.420000
442.938751	146.600000
443.032440	146.660000
443.126099	146.320000
443.219788	146.780000
443.313477	146.280000
443.407166	146.580000
443.500824	146.760000
443.594513	147.080000
443.688202	146.680000
443.781891	146.160000
443.875549	145.660000
443.969238	145.800000
444.062927	146.040000
444.156647	145.960000
444.250275	146.680000
444.343994	146.920000
444.437653	146.940000
444.531372	146.840000
444.625031	146.620000
444.718719	145.840000
444.812378	145.800000
444.906097	145.480000
444.999756	144.940000
445.093445	144.980000
445.187103	145.200000
445.280823	146.000000
445.374512	145.800000
445.468201	146.140000
445.561859	145.880000
445.655548	145.880000
445.749237	145.060000
445.842926	145.540000
445.936615	146.160000
446.030304	146.000000
446.123962	146.320000
446.217651	146.420000
446.311340	146.200000
446.405029	145.400000
446.498749	145.660000
446.592407	145.440000
446.686096	145.760000
446.779755	145.880000
446.873474	146.180000
446.967133	146.720000
447.060852	146.580000
447.154510	146.120000
447.248230	146.240000
447.341858	145.980000
447.435577	145.080000
447.529236	145.100000
447.622955	145.060000
447.716644	144.860000
447.810333	144.960000
447.904022	146.100000
447.997711	145.840000
448.091400	146.140000
448.185059	146.020000
448.278748	146.360000
448.372437	145.700000
448.466125	146.220000
448.559814	146.240000
448.653503	146.760000
448.747192	146.940000
448.840912	147.620000
448.934570	147.400000
449.028290	147.480000
449.121948	146.800000
449.215637	146.180000
449.309296	145.600000
449.403015	145.880000
449.496674	145.820000
449.590393	146.160000
449.684052	146.180000
449.777771	146.920000
449.871429	146.120000
449.965149	146.080000
450.058838	146.680000
450.152527	147.100000
450.246216	146.320000
450.339905	146.700000
450.433594	146.420000
450.527283	146.620000
450.620972	146.140000
450.714661	146.400000
450.808350	146.280000
450.902039	146.660000
450.995728	146.140000
451.089417	145.940000
451.183105	146.020000
451.276794	146.700000
451.370514	146.080000
451.464172	145.320000
451.557892	145.540000
451.651550	145.540000
451.745270	144.860000
451.838928	144.580000
451.932648	145.000000
452.026306	145.420000
452.120026	144.780000
452.213684	145.140000
452.307404	145.520000
452.401062	145.580000
452.494781	145.720000
452.588470	146.140000
452.682159	145.640000
452.775848	145.940000
452.869537	145.700000
452.963226	145.040000
453.056915	144.660000
453.150604	145.000000
453.244293	145.080000
453.337982	145.560000
453.431671	146.100000
453.525360	146.920000
453.619049	146.800000
453.712769	146.660000
453.806427	146.120000
453.900146	145.480000
453.993805	145.060000
454.087555	145.700000
454.181213	145.800000
454.274933	146.100000
454.368591	146.340000
454.462311	146.140000
454.555969	145.520000
454.649689	146.340000
454.743347	145.800000
454.837067	146.520000
454.930756	147.140000
455.024445	147.400000
455.118134	146.600000
455.211853	147.080000
455.305542	146.320000
455.399231	146.060000
455.492920	145.880000
455.586609	146.000000
455.680298	145.940000
455.773987	145.940000
455.867676	145.580000
455.961365	145.900000
456.055084	145.680000
456.148773	145.540000
456.242493	145.580000
456.336151	145.640000
456.429871	145.780000
456.523529	146.260000
456.617249	146.200000
456.710907	146.860000
456.804626	146.640000
456.898315	145.780000
456.992035	145.300000
457.085693	145.160000
457.179413	144.480000
457.273102	145.540000
457.366791	145.920000
457.460480	146.380000
457.554199	147.180000
457.647888	147.140000
457.741577	146.560000
457.835266	146.500000
457.928955	146.160000
458.022644	146.100000
458.116364	146.480000
458.210052	146.580000
458.303741	146.840000
458.397461	146.280000
458.491119	145.420000
458.584839	145.140000
458.678528	144.960000
458.772247	144.480000
458.865906	145.080000
458.959625	146.020000
459.053284	146.180000
459.147003	145.740000
459.240692	146.440000
459.334412	146.400000
459.428070	145.780000
459.521790	145.440000
459.615479	145.580000
459.709198	145.860000
459.802887	145.460000
459.896576	145.260000
459.990265	145.800000
460.083954	146.080000
460.177673	145.140000
460.271362	145.500000
460.365051	145.780000
460.458740	145.400000
460.552429	144.900000
460.646149	145.000000
460.739838	144.640000
460.833527	144.780000
460.927246	144.360000
461.020905	144.620000
461.114655	144.740000
461.208313	145.020000
461.302032	144.360000
461.395691	144.860000
461.489441	144.860000
461.583099	144.680000
461.676819	144.280000
461.770477	145.180000
461.864197	144.760000
461.957916	144.720000
462.051605	144.340000
462.145294	145.580000
462.238983	145.240000
462.332703	145.980000
462.426392	146.520000
462.520081	147.040000
462.613770	145.980000
462.707489	146.120000
462.801178	145.740000
462.894867	145.480000
462.988556	145.660000
463.082275	146.060000
463.175964	145.520000
463.269684	145.740000
463.363342	145.320000
463.457092	144.960000
463.550751	145.200000
463.644470	145.620000
463.738129	145.300000
463.831879	145.620000
463.925537	146.180000
464.019257	145.880000
464.112946	145.680000
464.206665	145.520000
464.300323	145.540000
464.394043	145.080000
464.487762	144.920000
464.581451	145.260000
464.675140	145.520000
464.768829	145.440000
464.862549	145.700000
464.956238	146.180000
465.049927	146.260000
465.143646	146.300000
465.237335	146.020000
465.331024	146.460000
465.424713	146.160000
465.518433	145.960000
465.612152	145.760000
465.705811	146.020000
465.799561	145.340000
465.893219	145.300000
465.986938	145.100000
466.080597	145.020000
466.174347	145.480000
466.268005	145.980000
466.361725	145.860000
466.455414	146.180000
466.549133	146.080000
466.642792	146.260000
466.736542	145.760000
466.830231	146.020000
466.923920	145.800000
467.017609	145.920000
467.111328	145.140000
467.205017	145.260000
467.298706	145.140000
467.392426	145.260000
467.486115	145.740000
467.579803	145.480000
467.673523	145.680000
467.767212	145.740000
467.860901	145.760000
467.954651	145.780000
468.048309	146.240000
468.142029	146.140000
468.235718	146.180000
468.329437	145.840000
468.423096	145.440000
468.516846	145.320000
468.610504	145.240000
468.704224	144.900000
468.797913	145.120000
468.891632	145.540000
468.985291	145.300000
469.079010	145.280000
469.172729	145.060000
469.266418	145.960000
469.360107	145.740000
469.453827	145.960000
469.547516	146.100000
469.641205	146.680000
469.734924	146.260000
469.828613	146.400000
469.922302	146.540000
470.016022	146.520000
470.109711	146.120000
470.203430	145.380000
470.297150	144.840000
470.390808	144.900000
470.484558	144.600000
470.578217	145.080000
470.671936	145.540000
470.765625	146.340000
470.859344	146.180000
470.953003	146.260000
471.046753	146.120000
471.140411	145.600000
471.234131	145.360000
471.327820	145.740000
471.421539	145.980000
471.515228	145.620000
471.608948	146.040000
471.702637	145.780000
471.796326	145.400000
471.890045	145.760000
471.983734	145.940000
472.077423	145.720000
472.171143	145.700000
472.264832	145.840000
472.358521	145.340000
472.452240	145.180000
472.545929	145.980000
472.639648	146.420000
472.733337	146.800000
472.827057	146.960000
472.920746	147.280000
473.014465	147.220000
473.108124	147.220000
473.201874	147.100000
473.295532	146.800000
473.389252	147.080000
473.482941	146.700000
473.576660	146.020000
473.670319	145.700000
473.764069	146.120000
473.857727	146.160000
473.951477	146.540000
474.045166	147.220000
474.138855	147.220000
474.232574	147.060000
474.326263	147.100000
474.419952	146.920000
474.513672	146.660000
474.607361	146.740000
474.701050	147.000000
474.794769	146.940000
474.888458	147.180000
474.982178	147.220000
475.075867	147.440000
475.169586	147.180000
475.263275	146.900000
475.356995	146.740000
475.450653	146.360000
475.544403	145.880000
475.638062	146.740000
475.731812	146.440000
475.825470	146.060000
475.919189	146.500000
476.012878	146.600000
476.106598	145.480000
476.200256	145.800000
476.294006	145.620000
476.387695	145.420000
476.481384	145.320000
476.575104	145.680000
476.668793	145.260000
476.762512	145.320000
476.856201	145.980000
476.949890	145.720000
477.043610	145.080000
477.137299	145.320000
477.230988	145.540000
477.324707	144.720000
477.418396	145.440000
477.512146	145.800000
477.605804	145.700000
477.699524	145.660000
477.793213	145.620000
477.886932	145.240000
477.980591	145.180000
478.074341	145.160000
478.167999	144.960000
478.261749	145.100000
478.355408	144.880000
478.449127	145.580000
478.542816	146.380000
478.636536	146.920000
478.730225	146.940000
478.823944	147.740000
478.917633	147.140000
479.011322	147.220000
479.105042	147.040000
479.198730	147.580000
479.292450	146.960000
479.386139	147.460000
479.479828	147.100000
479.573547	147.600000
479.667267	147.140000
479.760925	147.440000
479.854675	147.340000
479.948334	147.240000
480.042084	146.240000
480.135742	146.700000
480.229462	146.400000
480.323151	146.280000
480.416870	145.840000
480.510529	146.380000
480.604279	145.500000
480.697937	145.940000
480.791656	145.800000
480.885345	145.600000
480.979065	145.660000
481.072754	146.260000
481.166473	146.600000
481.260132	146.360000
481.353882	146.760000
481.447540	146.280000
481.541260	146.340000
481.635010	145.400000
481.728668	145.300000
481.822388	145.120000
481.916077	145.560000
482.009796	145.120000
482.103485	145.760000
482.197205	146.140000
482.290863	146.540000
482.384613	146.120000
482.478271	146.000000
482.571991	146.000000
482.665680	145.860000
482.759399	146.540000
482.853058	147.120000
482.946808	147.240000
483.040466	146.980000
483.134216	146.780000
483.227875	145.920000
483.321594	146.140000
483.415283	146.060000
483.509003	145.860000
483.602661	146.040000
483.696411	146.420000
483.790070	146.160000
483.883789	146.220000
483.977478	146.440000
484.071198	146.320000
484.164917	145.680000
484.258606	145.200000
484.352325	145.460000
484.445984	145.700000
484.539734	145.460000
484.633392	145.240000
484.727142	145.460000
484.820801	145.400000
484.914520	145.020000
485.008209	145.420000
485.101929	146.140000
485.195587	146.020000
485.289337	145.960000
485.382996	146.040000
485.476715	146.060000
485.570404	146.240000
485.664124	146.280000
485.757782	146.960000
485.851532	146.720000
485.945190	146.620000
486.038910	146.460000
486.132599	146.760000
486.226318	145.880000
486.319977	145.820000
486.413727	146.520000
486.507446	146.140000
486.601105	145.420000
486.694855	145.520000
486.788513	145.620000
486.882233	145.160000
486.975922	145.060000
487.069641	145.020000
487.163300	144.860000
487.257050	145.940000
487.350708	145.640000
487.444427	145.520000
487.538116	145.800000
487.631836	145.800000
487.725494	145.140000
487.819214	145.200000
487.912903	145.340000
488.006622	145.880000
488.100281	146.660000
488.194031	146.520000
488.287689	147.000000
488.381409	147.480000
488.475098	147.040000
488.568817	147.080000
488.662476	146.580000
488.756226	145.780000
488.849945	144.940000
488.943604	145.020000
489.037354	144.760000
489.131012	145.000000
489.224731	144.900000
489.318390	145.180000
489.412140	145.020000
489.505798	144.720000
489.599518	144.620000
489.693207	145.240000
489.786926	145.260000
489.880585	145.140000
489.974335	145.680000
490.067993	146.920000
490.161713	147.040000
490.255371	147.960000
490.349121	148.280000
490.442780	147.960000
490.536499	146.820000
490.630188	146.640000
490.723907	145.840000
490.817566	146.240000
490.911285	146.500000
491.004974	146.500000
491.098694	146.200000
491.192413	146.640000
491.286102	145.980000
491.379822	145.720000
491.473480	146.060000
491.567200	146.180000
491.660889	145.660000
491.754608	145.540000
491.848267	145.340000
491.941986	145.140000
492.035675	145.320000
492.129395	145.900000
492.223053	146.020000
492.316772	146.580000
492.410461	146.600000
492.504181	146.360000
492.597839	145.920000
492.691559	146.200000
492.785248	145.800000
492.878967	145.960000
492.972626	145.840000
493.066345	145.840000
493.160034	145.160000
493.253754	144.940000
493.347412	144.760000
493.441132	145.360000
493.534882	145.580000
493.628540	146.220000
493.722260	146.540000
493.815918	146.420000
493.909668	146.560000
494.003326	146.660000
494.097046	146.520000
494.190704	146.160000
494.284454	146.240000
494.378113	146.180000
494.471832	146.060000
494.565491	145.880000
494.659210	145.960000
494.752899	146.120000
494.846619	145.660000
494.940277	145.680000
495.033997	145.880000
495.127686	145.620000
495.221405	145.280000
495.315063	145.420000
495.408783	145.700000
495.502441	145.720000
495.596191	146.060000
495.689850	145.980000
495.783569	146.300000
495.877228	145.860000
495.970947	145.360000
496.064697	145.400000
496.158356	146.400000
496.252075	146.300000
496.345734	146.360000
496.439453	147.300000
496.533142	147.280000
496.626862	147.200000
496.720520	147.040000
496.814240	147.060000
496.907898	146.660000
497.001617	146.860000
497.095306	145.700000
497.189026	145.500000
497.282684	145.440000
497.376404	145.640000
497.470062	145.280000
497.563782	145.800000
497.657471	145.740000
497.751190	145.280000
497.844849	145.160000
497.938568	145.640000
498.032227	145.520000
498.125946	145.640000
498.219635	145.580000
498.313354	145.440000
498.407074	144.960000
498.500732	145.320000
498.594452	145.500000
498.688110	145.740000
498.781830	145.700000
498.875519	145.680000
498.969238	145.460000
499.062897	145.080000
499.156616	145.660000
499.250275	145.920000
499.343994	145.960000
499.437653	146.100000
499.531372	146.540000
499.625061	146.880000
499.718781	146.820000
499.812439	147.180000
499.906158	146.960000
499.999817	146.560000
500.093536	145.900000
500.187195	146.160000
500.280914	145.980000
500.374573	146.260000
500.468323	146.220000
500.561981	146.480000
500.655701	145.660000
500.749420	145.500000
500.843079	145.520000
500.936798	145.820000
501.030457	145.880000
501.124176	146.500000
501.217834	146.300000
501.311554	146.100000
501.405212	145.640000
501.498962	144.960000
501.592621	144.520000
501.686340	145.200000
501.779999	145.380000
501.873718	145.600000
501.967377	146.240000
502.061096	146.620000
502.154755	146.040000
502.248474	145.960000
502.342133	146.100000
502.435852	145.740000
502.529510	146.460000
502.623230	147.040000
502.716888	146.580000
502.810608	146.560000
502.904266	147.100000
502.997986	146.220000
503.091705	145.620000
503.185364	145.640000
503.279083	145.780000
503.372772	145.340000
503.466492	144.940000
503.560150	145.020000
503.653870	145.400000
503.747528	145.440000
503.841248	145.460000
503.934906	146.020000
504.028625	145.760000
504.122284	145.920000
504.216003	146.440000
504.309662	146.220000
504.403381	146.380000
504.497040	146.840000
504.590759	146.460000
504.684418	146.340000
504.778137	146.760000
504.871796	147.060000
504.965515	146.760000
505.059174	146.820000
505.152893	146.040000
505.246521	145.740000
505.340240	145.040000
505.433899	145.420000
505.527618	145.620000
505.621338	146.080000
505.714996	145.760000
505.808716	145.860000
505.902374	145.900000
505.996094	146.000000
506.089752	145.680000
506.183472	146.240000
506.277130	146.320000
506.370850	146.240000
506.464508	145.880000
506.558228	145.920000
506.651886	145.400000
506.745605	145.420000
506.839264	145.180000
506.932983	145.380000
507.026611	145.560000
507.120331	146.200000
507.213989	145.820000
507.307709	146.240000
507.401367	146.640000
507.495087	147.340000
507.588745	146.760000
507.682465	147.660000
507.776123	147.200000
507.869843	146.960000
507.963531	146.660000
508.057190	147.260000
508.150909	146.380000
508.244568	146.540000
508.338287	146.200000
508.431946	145.560000
508.525665	145.200000
508.619324	145.500000
508.713013	145.720000
508.806671	146.080000
508.900391	146.960000
508.994049	146.940000
509.087769	146.580000
509.181427	146.540000
509.275146	146.160000
509.368774	145.540000
509.462494	145.580000
509.556152	145.760000
509.649872	145.980000
509.743530	146.140000
509.837250	146.160000
509.930878	146.240000
510.024597	146.120000
510.118256	145.820000
510.211975	145.760000
510.305695	145.700000
510.399353	146.020000
510.493042	146.640000
510.586700	146.780000
510.680420	147.420000
510.774078	147.260000
510.867798	147.040000
510.961426	146.300000
511.055145	145.960000
511.148804	145.280000
511.242523	145.820000
511.336151	145.760000
511.429871	146.140000
511.523529	146.480000
511.617249	146.560000
511.710876	146.060000
511.804596	146.040000
511.898254	146.120000
511.991974	146.420000
512.085632	146.240000
512.179321	146.440000
512.272949	146.740000
512.366699	146.900000
512.460327	146.540000
512.554077	147.500000
512.647766	147.580000
512.741394	147.420000
512.835144	147.580000
512.928772	147.280000
513.022461	146.920000
513.116150	146.400000
513.209839	147.020000
513.303467	147.000000
513.397217	147.000000
513.490845	146.960000
513.584595	147.280000
513.678223	146.520000
513.771912	145.960000
513.865601	146.240000
513.959290	145.740000
514.052917	145.820000
514.146667	146.300000
514.240295	146.560000
514.333984	146.860000
514.427673	147.020000
514.521362	147.400000
514.614990	146.860000
514.708740	146.720000
514.802368	146.620000
514.896057	146.660000
514.989746	147.100000
515.083435	146.760000
515.177124	147.020000
515.270752	146.540000
515.364502	146.780000
515.458130	146.200000
515.551819	146.440000
515.645508	146.180000
515.739197	146.480000
515.832825	146.260000
515.926575	145.520000
516.020203	145.700000
516.113892	146.520000
516.207520	146.160000
516.301270	146.460000
516.394897	147.060000
516.488586	147.500000
516.582275	146.900000
516.675964	146.680000
516.769592	146.280000
516.863281	146.800000
516.956970	147.060000
517.050659	146.980000
517.144287	147.260000
517.238037	147.360000
517.331665	146.400000
517.425354	145.700000
517.519043	145.520000
517.612732	145.800000
517.706421	145.560000
517.800049	145.700000
517.893738	145.560000
517.987427	145.640000
518.081116	145.400000
518.174744	145.200000
518.268433	145.460000
518.362122	146.080000
518.455811	146.180000
518.549438	146.800000
518.643127	147.880000
518.736816	147.960000
518.830505	147.200000
518.924133	147.000000
519.017822	146.740000
519.111511	146.160000
519.205200	146.680000
519.298828	147.120000
519.392517	147.100000
519.486206	147.420000
519.579895	147.380000
519.673523	146.680000
519.767212	146.340000
519.860901	146.680000
519.954590	146.040000
520.048279	145.900000
520.141907	145.520000
520.235596	146.660000
520.329224	146.960000
520.422974	147.280000
520.516602	147.200000
520.610291	147.440000
520.703918	146.620000
520.797607	146.000000
520.891296	145.640000
520.984985	145.720000
521.078613	146.280000
521.172302	145.720000
521.265930	146.800000
521.359680	147.540000
521.453308	147.420000
521.546997	147.320000
521.640625	148.000000
521.734314	147.160000
521.827942	146.720000
521.921692	147.040000
522.015320	146.940000
522.109009	146.520000
522.202698	146.500000
522.296326	146.580000
522.390015	146.820000
522.483704	146.800000
522.577393	146.680000
522.671021	146.480000
522.764709	146.100000
522.858337	146.240000
522.952026	145.960000
523.045654	146.500000
523.139404	147.100000
523.233032	147.160000
523.326721	146.820000
523.420349	147.120000
523.514038	146.640000
523.607666	146.940000
523.701355	146.700000
523.795044	146.680000
523.888733	146.900000
523.982361	147.440000
524.076050	146.620000
524.169678	147.160000
524.263367	146.820000
524.356995	146.400000
524.450684	146.040000
524.544373	145.880000
524.638062	145.700000
524.731750	145.980000
524.825378	145.940000
524.919067	145.580000
525.012695	145.740000
525.106384	145.340000
525.200012	145.420000
525.293701	145.220000
525.387329	145.800000
525.481018	146.080000
525.574646	146.980000
525.668396	147.120000
525.762024	147.720000
525.855713	147.720000
525.949341	147.160000
526.043030	146.760000
526.136658	146.260000
526.230347	145.980000
526.323975	145.400000
526.417664	145.520000
526.511292	145.540000
526.604980	145.940000
526.698608	146.100000
526.792297	146.460000
526.885925	146.820000
526.979614	146.760000
527.073303	146.540000
527.166931	146.180000
527.260620	146.380000
527.354309	146.800000
527.447998	146.740000
527.541626	146.420000
527.635315	146.420000
527.728943	146.800000
527.822632	146.680000
527.916260	146.640000
528.009949	147.200000
528.103577	147.320000
528.197266	146.580000
528.290894	146.360000
528.384583	146.380000
528.478210	146.360000
528.571899	146.580000
528.665527	147.140000
528.759216	147.500000
528.852844	147.840000
528.946533	147.700000
529.040161	147.520000
529.133850	147.020000
529.227478	146.800000
529.321167	146.800000
529.414856	147.080000
529.508484	147.520000
529.602173	147.240000
529.695801	146.920000
529.789490	146.400000
529.883057	145.980000
529.976746	145.860000
530.070374	146.300000
530.164062	146.220000
530.257690	146.860000
530.351379	147.400000
530.445007	147.220000
530.538696	146.820000
530.632324	147.160000
530.726013	146.800000
530.819641	146.640000
530.913330	146.760000
531.006958	146.880000
531.100647	146.800000
531.194275	146.720000
531.287964	146.320000
531.381592	146.080000
531.475220	146.260000
531.568848	146.380000
531.662537	146.120000
531.756226	146.380000
531.849854	146.540000
531.943542	146.480000
532.037170	145.960000
532.130859	146.700000
532.224487	146.540000
532.318176	145.940000
532.411804	146.380000
532.505432	146.780000
532.599060	145.960000
532.692749	145.900000
532.786377	146.720000
532.880066	145.780000
532.973694	145.120000
533.067383	145.560000
533.161011	145.640000
533.254639	145.460000
533.348267	145.620000
533.441956	146.120000
533.535583	146.080000
533.629272	146.380000
533.722900	145.800000
533.816589	146.120000
533.910156	146.500000
534.003845	146.180000
534.097534	146.120000
534.191162	147.040000
534.284851	147.080000
534.378479	146.700000
534.472107	147.000000
534.565735	146.740000
534.659424	146.600000
534.753052	146.800000
534.846741	146.460000
534.940369	147.000000
535.033997	146.960000
535.127625	146.860000
535.221313	147.240000
535.314941	147.300000
535.408630	146.200000
535.502197	146.940000
535.595886	146.560000
535.689514	145.800000
535.783203	146.340000
535.876831	147.300000
535.970459	146.940000
536.064087	146.760000
536.157776	147.080000
536.251404	146.900000
536.345093	146.220000
536.438721	146.140000
536.532349	146.400000
536.626038	146.280000
536.719666	146.600000
536.813293	146.780000
536.906921	146.520000
537.000610	146.740000
537.094238	146.600000
537.187866	146.480000
537.281494	146.340000
537.375183	146.980000
537.468811	146.840000
537.562439	147.220000
537.656067	147.240000
537.749756	147.520000
537.843384	147.660000
537.937012	147.720000
538.030640	147.440000
538.124329	147.320000
538.217896	147.460000
538.311584	147.200000
538.405212	147.000000
538.498901	147.500000
538.592468	148.020000
538.686157	147.500000
538.779785	146.440000
538.873413	146.440000
538.967102	145.960000
539.060730	145.220000
539.154358	145.740000
539.247986	146.660000
539.341675	147.080000
539.435242	147.080000
539.528931	147.400000
539.622559	146.800000
539.716187	147.240000
539.809814	146.740000
539.903503	146.900000
539.997070	146.640000
540.090759	146.840000
540.184387	146.000000
540.278015	146.540000
540.371643	146.560000
540.465332	146.600000
540.558899	146.500000
540.652588	146.620000
540.746216	146.340000
540.839844	146.660000
540.933472	146.860000
541.027100	147.060000
541.120728	147.160000
541.214417	146.900000
541.308044	146.960000
541.401672	146.480000
541.495300	146.220000
541.588928	146.360000
541.682617	146.700000
541.776184	146.280000
541.869873	146.580000
541.963440	147.020000
542.057129	146.720000
542.150757	146.520000
542.244385	146.260000
542.338013	146.060000
542.431641	145.800000
542.525269	146.160000
542.618958	146.780000
542.712524	147.160000
542.806213	147.000000
542.899780	147.080000
542.993469	146.580000
543.087036	146.020000
543.180725	145.500000
543.274292	146.060000
543.367981	146.420000
543.461548	147.060000
543.555237	146.980000
543.648926	147.880000
543.742493	148.440000
543.836182	148.060000
543.929749	147.820000
544.023437	147.800000
544.117004	147.480000
544.210693	147.140000
544.304260	147.280000
544.397949	146.980000
544.491516	147.400000
544.585205	147.300000
544.678772	146.800000
544.772461	147.120000
544.866028	147.000000
544.959717	146.880000
545.053284	146.560000
545.146973	146.980000
545.240540	147.060000
545.334229	148.000000
545.427795	148.260000
545.521423	148.460000
545.615051	148.540000
545.708679	148.600000
545.802307	148.000000
545.895935	148.060000
545.989624	149.060000
546.083191	148.620000
546.176880	148.600000
546.270447	148.280000
546.364136	148.360000
546.457703	147.480000
546.551331	147.740000
546.644958	147.700000
546.738586	148.040000
546.832214	147.300000
546.925842	147.100000
547.019409	147.440000
547.113098	146.980000
547.206665	146.640000
547.300354	146.860000
547.393921	147.180000
547.487549	146.940000
547.581177	146.660000
547.674805	146.540000
547.768433	145.960000
547.862061	145.780000
547.955627	145.020000
548.049316	145.520000
548.142883	145.760000
548.236572	146.400000
548.330139	146.520000
548.423767	146.580000
548.517456	146.520000
548.611023	146.780000
548.704651	146.020000
548.798279	145.860000
548.891907	146.600000
548.985474	146.440000
549.079163	146.400000
549.172729	146.520000
549.266357	145.940000
549.359985	145.620000
549.453613	145.040000
549.547180	144.640000
549.640869	145.400000
549.734436	145.600000
549.828064	145.920000
549.921631	146.320000
550.015320	146.040000
550.108887	145.960000
550.202515	146.200000
550.296143	145.280000
550.389771	145.340000
550.483337	145.980000
550.576965	145.640000
550.670593	145.880000
550.764221	146.400000
550.857849	146.440000
550.951477	146.060000
551.045105	145.880000
551.138672	145.720000
551.232300	145.520000
551.325928	145.560000
551.419556	145.900000
551.513123	146.080000
551.606750	145.880000
551.700378	145.860000
551.794006	145.820000
551.887573	145.480000
551.981201	145.920000
552.074768	145.840000
552.168457	145.660000
552.262024	146.620000
552.355652	146.640000
552.449219	147.060000
552.542847	147.280000
552.636475	147.220000
552.730103	145.840000
552.823669	145.780000
552.917297	144.780000
553.010864	144.800000
553.104553	145.360000
553.198181	145.400000
553.291748	145.780000
553.385376	146.140000
553.478943	145.800000
553.572571	145.680000
553.666199	145.980000
553.759827	145.860000
553.853394	145.380000
553.947021	145.880000
554.040588	145.860000
554.134216	146.020000
554.227783	146.380000
554.321411	146.900000
554.415039	146.380000
554.508667	146.120000
554.602234	146.540000
554.695862	145.880000
554.789429	146.080000
554.883057	146.120000
554.976624	146.080000
555.070251	145.620000
555.163818	145.560000
555.257507	145.300000
555.351074	145.220000
555.444702	146.520000
555.538330	146.120000
555.631897	146.500000
555.725525	146.420000
555.819092	146.440000
555.912720	145.060000
556.006287	145.600000
556.099915	145.320000
556.193481	145.120000
556.287109	145.600000
556.380676	145.720000
556.474304	145.540000
556.567871	146.100000
556.661499	145.900000
556.755066	145.580000
556.848694	145.760000
556.942261	145.780000
557.035889	145.680000
557.129517	146.240000
557.223145	146.820000
557.316711	146.960000
557.410339	147.080000
557.503906	146.840000
557.597473	146.760000
557.691040	146.540000
557.784668	146.420000
557.878296	146.440000
557.971863	146.520000
558.065491	146.700000
558.159058	146.380000
558.252686	147.060000
558.346252	147.760000
558.439880	147.300000
558.533447	146.860000
558.627075	146.580000
558.720642	145.840000
558.814270	145.340000
558.907837	145.900000
559.001465	145.860000
559.095032	146.540000
559.188660	146.920000
559.282227	146.280000
559.375854	146.580000
559.469360	146.340000
559.562988	146.520000
559.656555	146.300000
559.750183	146.660000
559.843750	146.460000
559.937378	146.660000
560.030945	146.320000
560.124573	0.000000
560.218140	0.000000
560.311707	0.000000
560.405334	0.000000
560.498901	0.000000
560.592529	0.000000
560.686096	0.000000
560.779724	0.000000
560.873291	0.000000
560.966858	0.000000
561.060425	0.000000
561.154053	0.000000
561.247620	0.000000
561.341248	0.000000
561.434814	0.000000
561.528381	0.000000
561.621948	0.000000
561.715576	0.000000
561.809143	0.000000
561.902771	0.000000
561.996277	0.000000
562.089905	0.000000
562.183472	0.000000
562.277100	0.000000
