Model Number: SPM-002-B   
Serial Number: 70087108
Firmware Version: 004.15.4
Exposure Time: 100000.000000us
Data Taken on: 11-12-2020 19:30:45.817
Wavelength	Amplitude
221.570786	0.000000
221.663406	0.000000
221.756027	0.000000
221.848648	0.000000
221.941269	0.000000
222.033905	0.000000
222.126526	0.000000
222.219162	0.000000
222.311798	0.000000
222.404419	0.000000
222.497055	0.000000
222.589676	0.000000
222.682312	0.000000
222.774933	0.000000
222.867569	0.000000
222.960205	0.000000
223.052841	0.000000
223.145462	0.000000
223.238098	0.000000
223.330734	0.000000
223.423386	0.000000
223.516022	0.000000
223.608658	0.000000
223.701309	0.000000
223.793945	0.000000
223.886581	0.000000
223.979218	0.000000
224.071869	0.000000
224.164505	0.000000
224.257156	0.000000
224.349792	0.000000
224.442444	0.000000
224.535095	0.000000
224.627747	0.000000
224.720398	0.000000
224.813034	0.000000
224.905685	0.000000
224.998337	145.540000
225.090988	145.420000
225.183640	145.120000
225.276291	144.720000
225.368942	145.020000
225.461594	145.500000
225.554245	145.660000
225.646912	145.880000
225.739578	146.640000
225.832230	146.940000
225.924896	146.340000
226.017548	146.800000
226.110199	147.220000
226.202866	146.440000
226.295532	146.100000
226.388184	146.020000
226.480850	145.460000
226.573517	145.000000
226.666168	145.280000
226.758835	145.420000
226.851501	146.060000
226.944183	146.080000
227.036850	145.880000
227.129517	145.640000
227.222183	145.820000
227.314850	145.560000
227.407516	145.820000
227.500198	146.600000
227.592865	146.500000
227.685532	146.260000
227.778214	146.040000
227.870880	146.160000
227.963562	146.300000
228.056229	146.660000
228.148926	146.760000
228.241592	147.560000
228.334274	147.020000
228.426956	146.520000
228.519638	146.340000
228.612305	145.820000
228.704987	145.540000
228.797668	145.680000
228.890350	145.660000
228.983032	145.380000
229.075714	146.440000
229.168396	146.200000
229.261108	145.980000
229.353790	146.140000
229.446472	146.660000
229.539169	146.360000
229.631851	146.180000
229.724533	146.400000
229.817230	146.220000
229.909912	147.000000
230.002609	146.760000
230.095306	146.680000
230.187988	146.900000
230.280685	146.880000
230.373383	145.580000
230.466095	145.460000
230.558792	146.000000
230.651474	145.840000
230.744171	145.680000
230.836868	145.980000
230.929581	146.060000
231.022278	145.760000
231.114975	145.960000
231.207672	145.840000
231.300369	146.020000
231.393082	146.080000
231.485779	145.800000
231.578506	145.340000
231.671204	145.480000
231.763916	145.460000
231.856613	145.680000
231.949326	146.000000
232.042023	146.160000
232.134735	146.300000
232.227448	145.940000
232.320160	145.940000
232.412872	145.800000
232.505585	146.720000
232.598297	146.980000
232.691010	146.860000
232.783722	146.400000
232.876450	146.860000
232.969162	145.960000
233.061874	145.460000
233.154587	145.560000
233.247314	145.860000
233.340027	145.180000
233.432739	145.420000
233.525467	145.440000
233.618179	145.680000
233.710907	145.360000
233.803635	145.780000
233.896347	145.480000
233.989090	146.020000
234.081818	146.060000
234.174545	146.060000
234.267258	145.720000
234.359985	146.040000
234.452713	145.760000
234.545441	145.560000
234.638168	145.500000
234.730896	146.060000
234.823639	146.020000
234.916367	146.400000
235.009094	146.640000
235.101822	147.060000
235.194580	146.700000
235.287308	146.700000
235.380051	146.080000
235.472778	146.260000
235.565521	146.440000
235.658249	146.300000
235.750992	146.220000
235.843719	146.340000
235.936462	146.380000
236.029205	145.620000
236.121948	145.520000
236.214691	145.860000
236.307449	146.420000
236.400192	146.060000
236.492935	146.280000
236.585678	146.440000
236.678421	146.300000
236.771164	145.900000
236.863907	146.080000
236.956665	146.480000
237.049408	148.160000
237.142151	147.580000
237.234909	148.100000
237.327652	148.100000
237.420410	148.020000
237.513153	146.780000
237.605927	146.900000
237.698669	146.340000
237.791428	145.860000
237.884186	146.080000
237.976944	145.620000
238.069702	146.080000
238.162445	145.700000
238.255203	145.800000
238.347961	145.860000
238.440720	145.940000
238.533478	145.680000
238.626266	145.780000
238.719025	146.340000
238.811783	145.860000
238.904541	146.000000
238.997314	145.920000
239.090073	145.560000
239.182831	145.480000
239.275604	146.240000
239.368362	146.080000
239.461136	146.480000
239.553909	146.880000
239.646667	146.660000
239.739441	146.380000
239.832214	146.440000
239.925003	146.260000
240.017761	147.160000
240.110535	147.920000
240.203308	147.280000
240.296082	147.440000
240.388855	147.520000
240.481628	146.980000
240.574417	146.540000
240.667191	146.880000
240.759964	146.180000
240.852737	146.040000
240.945526	145.780000
241.038315	145.620000
241.131088	145.620000
241.223877	146.160000
241.316650	145.900000
241.409439	145.920000
241.502228	145.500000
241.595001	145.920000
241.687790	146.140000
241.780579	146.060000
241.873367	146.340000
241.966141	146.740000
242.058929	146.100000
242.151718	146.140000
242.244507	146.800000
242.337311	146.460000
242.430099	146.700000
242.522903	147.120000
242.615692	146.520000
242.708481	146.200000
242.801270	146.680000
242.894073	146.620000
242.986862	146.280000
243.079651	147.020000
243.172455	147.020000
243.265244	146.980000
243.358063	146.380000
243.450867	146.840000
243.543655	146.580000
243.636459	146.620000
243.729263	146.440000
243.822067	146.900000
243.914856	147.140000
244.007660	147.220000
244.100464	147.420000
244.193268	147.080000
244.286072	146.940000
244.378876	146.180000
244.471680	145.820000
244.564499	145.860000
244.657318	146.720000
244.750122	147.280000
244.842926	146.880000
244.935745	147.260000
245.028549	146.740000
245.121368	146.180000
245.214172	145.880000
245.306992	146.740000
245.399796	146.160000
245.492615	146.200000
245.585434	146.100000
245.678253	145.720000
245.771072	145.220000
245.863892	145.920000
245.956711	146.400000
246.049530	146.220000
246.142349	146.220000
246.235168	146.400000
246.327988	146.840000
246.420807	146.620000
246.513626	146.940000
246.606445	146.680000
246.699280	146.680000
246.792099	145.840000
246.884918	145.160000
246.977753	144.900000
247.070587	145.100000
247.163422	145.020000
247.256241	145.200000
247.349075	146.140000
247.441895	146.160000
247.534729	146.420000
247.627563	146.120000
247.720383	146.720000
247.813217	146.420000
247.906052	146.400000
247.998886	146.120000
248.091736	146.440000
248.184570	145.820000
248.277405	145.800000
248.370239	146.660000
248.463074	147.700000
248.555908	148.160000
248.648743	148.000000
248.741592	148.260000
248.834427	147.480000
248.927261	146.280000
249.020111	146.300000
249.112946	146.860000
249.205795	146.440000
249.298630	146.520000
249.391495	146.880000
249.484344	146.440000
249.577179	146.220000
249.670029	146.400000
249.762878	146.880000
249.855728	146.900000
249.948563	147.000000
250.041412	146.500000
250.134262	146.540000
250.227112	146.460000
250.319962	146.580000
250.412827	146.520000
250.505692	146.320000
250.598541	146.100000
250.691391	145.620000
250.784241	145.400000
250.877106	145.460000
250.969955	145.600000
251.062805	145.840000
251.155670	146.500000
251.248520	146.160000
251.341385	146.540000
251.434235	146.600000
251.527100	146.500000
251.619965	145.720000
251.712814	146.700000
251.805695	146.160000
251.898560	146.560000
251.991425	146.780000
252.084290	147.180000
252.177155	146.360000
252.270020	146.540000
252.362885	146.120000
252.455750	146.020000
252.548615	145.840000
252.641479	145.920000
252.734360	145.820000
252.827240	145.900000
252.920105	146.080000
253.012970	146.120000
253.105850	146.160000
253.198715	146.000000
253.291595	145.980000
253.384460	145.620000
253.477341	145.400000
253.570221	145.680000
253.663086	145.440000
253.755966	146.120000
253.848846	146.100000
253.941727	146.460000
254.034592	146.420000
254.127472	146.400000
254.220367	145.940000
254.313248	146.160000
254.406128	146.100000
254.499008	146.420000
254.591904	147.200000
254.684784	147.680000
254.777664	147.600000
254.870544	147.280000
254.963440	146.780000
255.056335	146.900000
255.149216	146.280000
255.242111	146.580000
255.334991	147.080000
255.427887	147.440000
255.520767	147.100000
255.613663	147.300000
255.706558	146.680000
255.799438	146.300000
255.892334	146.000000
255.985229	145.840000
256.078125	145.880000
256.171021	146.020000
256.263916	146.300000
256.356812	146.480000
256.449707	146.840000
256.542603	146.660000
256.635498	147.420000
256.728394	147.180000
256.821289	146.900000
256.914215	146.900000
257.007080	147.200000
257.100006	147.080000
257.192932	147.820000
257.285828	148.200000
257.378723	147.940000
257.471619	147.800000
257.564545	147.200000
257.657440	146.820000
257.750336	147.180000
257.843262	147.200000
257.936157	148.220000
258.029053	148.760000
258.121979	148.920000
258.214874	148.300000
258.307800	148.080000
258.400696	146.760000
258.493622	146.460000
258.586517	145.680000
258.679443	146.160000
258.772339	145.660000
258.865265	145.660000
258.958160	144.960000
259.051086	145.660000
259.144012	145.120000
259.236938	146.040000
259.329834	146.040000
259.422791	146.340000
259.515717	145.960000
259.608612	145.900000
259.701538	146.060000
259.794464	146.440000
259.887390	146.580000
259.980316	146.360000
260.073212	146.140000
260.166138	145.140000
260.259064	145.340000
260.351990	145.880000
260.444916	145.960000
260.537842	146.680000
260.630768	147.720000
260.723694	147.480000
260.816620	147.340000
260.909546	147.300000
261.002472	146.580000
261.095398	145.800000
261.188354	145.860000
261.281281	145.220000
261.374207	145.300000
261.467133	146.200000
261.560089	146.340000
261.653015	145.940000
261.745972	146.860000
261.838867	147.060000
261.931824	146.840000
262.024780	146.380000
262.117706	146.680000
262.210663	146.400000
262.303589	146.400000
262.396515	146.300000
262.489471	147.420000
262.582397	147.220000
262.675354	146.860000
262.768280	146.620000
262.861237	146.580000
262.954163	146.180000
263.047119	146.460000
263.140045	146.480000
263.233002	146.600000
263.325958	146.400000
263.418884	146.060000
263.511841	146.140000
263.604797	146.200000
263.697723	146.020000
263.790680	145.980000
263.883636	146.420000
263.976593	146.260000
264.069550	146.140000
264.162476	146.020000
264.255463	146.180000
264.348419	145.820000
264.441376	146.000000
264.534332	145.620000
264.627289	145.980000
264.720245	146.120000
264.813202	145.900000
264.906158	145.880000
264.999115	146.620000
265.092072	146.580000
265.185028	147.160000
265.277985	147.540000
265.370941	147.300000
265.463898	146.640000
265.556854	146.340000
265.649811	145.300000
265.742798	145.120000
265.835754	145.380000
265.928711	146.160000
266.021667	146.440000
266.114655	146.600000
266.207611	146.880000
266.300568	145.900000
266.393585	145.060000
266.486511	145.160000
266.579498	144.760000
266.672485	144.780000
266.765442	145.360000
266.858429	146.360000
266.951385	146.040000
267.044342	146.260000
267.137329	145.880000
267.230316	145.800000
267.323273	145.140000
267.416260	145.860000
267.509216	145.940000
267.602203	146.140000
267.695160	146.660000
267.788147	146.720000
267.881134	145.740000
267.974091	145.900000
268.067078	145.700000
268.160065	145.320000
268.253052	145.140000
268.346008	145.520000
268.438995	145.460000
268.531982	145.640000
268.624969	145.380000
268.717987	145.900000
268.810944	145.800000
268.903961	145.960000
268.996948	145.660000
269.089905	146.220000
269.182892	146.060000
269.275879	146.160000
269.368866	145.680000
269.461853	145.780000
269.554871	145.580000
269.647858	145.300000
269.740845	145.720000
269.833832	146.080000
269.926819	146.280000
270.019806	146.520000
270.112793	146.220000
270.205811	146.140000
270.298798	146.060000
270.391785	146.500000
270.484772	146.020000
270.577789	146.140000
270.670776	145.660000
270.763763	145.620000
270.856750	145.460000
270.949768	145.640000
271.042786	146.220000
271.135773	146.320000
271.228790	146.700000
271.321808	146.440000
271.414795	145.760000
271.507782	145.260000
271.600800	145.380000
271.693817	145.360000
271.786804	145.600000
271.879822	146.460000
271.972809	146.840000
272.065826	147.020000
272.158844	146.460000
272.251831	146.800000
272.344849	146.560000
272.437866	146.000000
272.530853	146.020000
272.623871	146.300000
272.716888	145.200000
272.809906	145.280000
272.902893	145.480000
272.995911	144.900000
273.088928	145.020000
273.181946	145.400000
273.274963	145.240000
273.367981	145.200000
273.460999	145.600000
273.554047	145.900000
273.647003	146.500000
273.740051	146.400000
273.833069	146.880000
273.926086	146.840000
274.019135	146.300000
274.112152	145.640000
274.205170	145.920000
274.298187	145.700000
274.391205	145.080000
274.484222	145.120000
274.577240	145.340000
274.670258	145.480000
274.763306	145.640000
274.856323	146.340000
274.949341	146.420000
275.042358	146.880000
275.135406	146.220000
275.228424	145.880000
275.321442	145.840000
275.414490	145.580000
275.507507	145.700000
275.600525	146.420000
275.693573	146.440000
275.786591	146.240000
275.879669	146.560000
275.972656	146.000000
276.065735	145.840000
276.158752	146.500000
276.251801	146.920000
276.344818	146.840000
276.437866	146.720000
276.530884	146.420000
276.623932	145.560000
276.716980	145.520000
276.809998	145.700000
276.903046	146.240000
276.996094	147.080000
277.089111	147.520000
277.182159	147.880000
277.275208	147.440000
277.368256	146.960000
277.461304	146.540000
277.554321	145.960000
277.647369	145.620000
277.740417	145.880000
277.833466	145.920000
277.926514	145.460000
278.019562	146.320000
278.112610	145.800000
278.205688	145.980000
278.298706	146.100000
278.391785	146.040000
278.484833	145.200000
278.577881	145.160000
278.670929	145.000000
278.763977	145.040000
278.857025	145.440000
278.950073	145.800000
279.043121	145.860000
279.136169	145.920000
279.229248	145.560000
279.322296	145.640000
279.415344	145.580000
279.508392	145.540000
279.601440	145.380000
279.694519	145.420000
279.787567	145.080000
279.880615	145.020000
279.973694	145.080000
280.066742	145.220000
280.159790	145.380000
280.252869	145.140000
280.345917	145.460000
280.438995	145.560000
280.532074	145.420000
280.625122	145.760000
280.718201	147.040000
280.811279	146.900000
280.904327	146.860000
280.997406	147.340000
281.090454	146.860000
281.183533	145.780000
281.276581	145.760000
281.369659	145.680000
281.462738	145.840000
281.555786	146.340000
281.648865	146.460000
281.741943	146.280000
281.835022	146.840000
281.928070	146.220000
282.021149	145.620000
282.114227	145.620000
282.207306	145.880000
282.300385	145.780000
282.393433	145.920000
282.486511	146.220000
282.579590	146.800000
282.672668	146.840000
282.765747	146.280000
282.858856	146.260000
282.951904	146.540000
283.045013	146.240000
283.138062	146.460000
283.231171	146.740000
283.324249	146.860000
283.417328	146.800000
283.510406	146.540000
283.603485	146.100000
283.696564	146.240000
283.789642	146.280000
283.882751	145.900000
283.975830	146.400000
284.068909	146.300000
284.161987	146.760000
284.255066	146.480000
284.348175	146.540000
284.441254	146.240000
284.534332	146.780000
284.627441	146.320000
284.720520	145.960000
284.813599	146.260000
284.906708	146.300000
284.999786	145.620000
285.092896	145.600000
285.185974	146.960000
285.279053	146.140000
285.372192	146.500000
285.465240	147.260000
285.558380	146.900000
285.651459	146.100000
285.744568	147.060000
285.837677	146.420000
285.930756	146.220000
286.023865	146.680000
286.116943	146.300000
286.210052	146.360000
286.303162	146.480000
286.396240	146.240000
286.489349	146.000000
286.582458	146.520000
286.675568	146.040000
286.768646	145.860000
286.861755	146.380000
286.954865	147.040000
287.047974	146.360000
287.141083	146.240000
287.234161	146.500000
287.327271	146.160000
287.420380	146.300000
287.513519	146.400000
287.606598	146.460000
287.699738	146.600000
287.792816	146.200000
287.885956	145.680000
287.979034	145.800000
288.072174	146.000000
288.165283	145.740000
288.258392	146.320000
288.351501	146.040000
288.444611	146.320000
288.537720	146.560000
288.630859	146.380000
288.723969	146.320000
288.817078	146.580000
288.910187	146.640000
289.003296	146.160000
289.096436	146.060000
289.189545	145.720000
289.282654	145.280000
289.375763	145.580000
289.468903	146.040000
289.562012	146.280000
289.655121	146.180000
289.748260	146.640000
289.841400	146.780000
289.934509	146.620000
290.027649	146.740000
290.120728	146.880000
290.213898	146.620000
290.306976	146.180000
290.400146	146.260000
290.493256	146.040000
290.586395	146.200000
290.679535	146.540000
290.772644	146.320000
290.865784	145.560000
290.958893	145.560000
291.052032	145.560000
291.145172	145.380000
291.238281	145.260000
291.331421	145.480000
291.424561	146.040000
291.517670	145.840000
291.610809	146.020000
291.703949	145.640000
291.797089	145.980000
291.890228	145.440000
291.983337	145.440000
292.076477	145.060000
292.169617	145.640000
292.262756	145.720000
292.355927	145.580000
292.449036	145.680000
292.542206	146.040000
292.635315	146.200000
292.728485	146.460000
292.821625	146.120000
292.914764	146.940000
293.007904	146.740000
293.101044	146.620000
293.194183	146.540000
293.287323	146.980000
293.380463	146.360000
293.473602	146.040000
293.566742	146.560000
293.659882	146.840000
293.753021	147.180000
293.846191	147.060000
293.939331	147.000000
294.032471	146.380000
294.125610	145.760000
294.218781	146.020000
294.311920	146.340000
294.405060	146.760000
294.498230	146.600000
294.591370	146.680000
294.684540	145.820000
294.777679	144.980000
294.870850	144.960000
294.963959	145.360000
295.057159	145.300000
295.150299	145.780000
295.243469	146.080000
295.336609	145.840000
295.429779	145.820000
295.522919	146.120000
295.616089	146.080000
295.709229	146.420000
295.802399	146.380000
295.895569	145.820000
295.988708	145.800000
296.081879	146.020000
296.175018	145.680000
296.268188	145.840000
296.361359	146.840000
296.454529	146.720000
296.547668	146.560000
296.640839	146.820000
296.734009	146.560000
296.827179	146.300000
296.920319	146.240000
297.013519	145.980000
297.106659	146.060000
297.199860	146.180000
297.292999	146.200000
297.386200	146.100000
297.479309	145.960000
297.572510	145.600000
297.665680	145.560000
297.758850	145.280000
297.852020	145.440000
297.945190	145.460000
298.038361	145.300000
298.131531	146.120000
298.224701	145.860000
298.317871	145.460000
298.411072	145.040000
298.504242	145.080000
298.597412	144.380000
298.690582	144.820000
298.783752	145.100000
298.876923	145.720000
298.970093	145.900000
299.063293	146.300000
299.156464	146.540000
299.249634	146.480000
299.342834	146.720000
299.436005	147.040000
299.529205	146.680000
299.622345	146.400000
299.715576	145.900000
299.808716	145.480000
299.901917	145.060000
299.995117	144.960000
300.088287	144.980000
300.181488	145.100000
300.274658	145.100000
300.367828	145.220000
300.461029	145.440000
300.554199	145.700000
300.647400	145.700000
300.740601	146.340000
300.833771	146.340000
300.926971	146.540000
301.020142	145.900000
301.113342	146.180000
301.206512	145.820000
301.299713	146.080000
301.392914	145.860000
301.486084	146.160000
301.579285	145.860000
301.672516	145.860000
301.765686	145.620000
301.858887	145.740000
301.952057	145.500000
302.045288	145.680000
302.138458	145.580000
302.231659	145.320000
302.324860	145.080000
302.418060	144.940000
302.511261	144.840000
302.604462	145.040000
302.697662	145.080000
302.790863	145.060000
302.884064	145.080000
302.977264	145.260000
303.070465	145.560000
303.163666	146.180000
303.256866	146.540000
303.350067	146.840000
303.443268	146.680000
303.536469	146.680000
303.629669	146.180000
303.722870	145.940000
303.816071	145.520000
303.909271	145.700000
304.002472	144.920000
304.095673	144.640000
304.188934	144.160000
304.282104	145.120000
304.375336	145.440000
304.468506	145.340000
304.561768	145.340000
304.654968	145.820000
304.748169	145.180000
304.841370	144.720000
304.934601	145.220000
305.027802	145.260000
305.121002	144.820000
305.214233	144.800000
305.307434	144.800000
305.400665	145.340000
305.493866	145.280000
305.587097	145.840000
305.680298	145.700000
305.773499	146.340000
305.866730	145.660000
305.959930	146.320000
306.053162	146.500000
306.146393	146.300000
306.239594	145.220000
306.332825	145.260000
306.426025	145.140000
306.519287	144.540000
306.612488	144.700000
306.705719	145.120000
306.798920	145.200000
306.892181	144.660000
306.985352	145.100000
307.078613	144.840000
307.171844	145.140000
307.265045	144.520000
307.358276	144.560000
307.451508	144.300000
307.544739	144.920000
307.637970	144.400000
307.731201	144.800000
307.824402	145.380000
307.917633	145.640000
308.010864	145.740000
308.104095	146.520000
308.197327	146.640000
308.290558	146.500000
308.383789	146.160000
308.477020	145.960000
308.570251	145.060000
308.663483	144.880000
308.756714	144.900000
308.849976	144.960000
308.943176	145.320000
309.036438	145.520000
309.129639	145.360000
309.222900	145.140000
309.316101	144.900000
309.409393	144.340000
309.502625	143.920000
309.595856	144.020000
309.689087	144.260000
309.782318	144.680000
309.875580	144.880000
309.968811	145.360000
310.062042	145.400000
310.155273	145.200000
310.248535	145.260000
310.341766	145.220000
310.434998	145.200000
310.528259	145.060000
310.621490	145.340000
310.714722	145.000000
310.807983	145.000000
310.901215	145.180000
310.994476	145.580000
311.087708	145.200000
311.181000	145.580000
311.274200	145.120000
311.367462	145.020000
311.460693	144.540000
311.553986	145.260000
311.647186	145.340000
311.740479	146.260000
311.833710	145.980000
311.926971	146.020000
312.020203	145.200000
312.113464	144.880000
312.206726	144.140000
312.299957	144.400000
312.393219	145.000000
312.486481	145.320000
312.579712	145.620000
312.672974	145.880000
312.766235	145.980000
312.859497	145.780000
312.952759	145.780000
313.045990	146.260000
313.139252	145.660000
313.232513	145.660000
313.325775	145.660000
313.419037	145.600000
313.512299	144.360000
313.605530	145.100000
313.698822	145.220000
313.792053	145.420000
313.885345	145.040000
313.978577	145.760000
314.071869	145.180000
314.165131	145.120000
314.258392	145.200000
314.351654	145.400000
314.444916	144.840000
314.538177	145.840000
314.631439	146.240000
314.724701	146.060000
314.817993	145.980000
314.911255	146.560000
315.004517	145.600000
315.097778	145.280000
315.191040	145.660000
315.284302	146.000000
315.377594	145.760000
315.470856	145.980000
315.564117	145.480000
315.657379	144.780000
315.750671	144.240000
315.843933	144.300000
315.937195	143.800000
316.030518	143.860000
316.123749	144.120000
316.217041	144.840000
316.310303	144.780000
316.403595	145.380000
316.496857	145.520000
316.590149	145.820000
316.683411	145.460000
316.776703	145.260000
316.869965	145.280000
316.963257	145.360000
317.056519	144.660000
317.149811	144.340000
317.243073	144.500000
317.336365	144.620000
317.429626	144.800000
317.522919	145.380000
317.616180	145.580000
317.709473	145.320000
317.802765	145.180000
317.896027	145.260000
317.989319	145.500000
318.082611	145.360000
318.175873	145.660000
318.269165	145.860000
318.362488	145.640000
318.455750	144.880000
318.549042	145.380000
318.642303	145.680000
318.735626	145.220000
318.828888	145.520000
318.922211	145.600000
319.015472	145.960000
319.108765	145.120000
319.202057	145.180000
319.295349	145.040000
319.388641	145.140000
319.481934	144.700000
319.575226	144.880000
319.668518	145.100000
319.761810	145.240000
319.855103	145.460000
319.948395	145.700000
320.041687	145.980000
320.134979	145.900000
320.228271	145.600000
320.321564	145.340000
320.414856	144.880000
320.508148	144.600000
320.601440	144.540000
320.694763	144.520000
320.788025	145.440000
320.881348	145.600000
320.974640	145.980000
321.067963	145.640000
321.161224	145.600000
321.254547	144.740000
321.347839	145.260000
321.441162	144.820000
321.534454	145.300000
321.627747	145.380000
321.721069	145.700000
321.814362	145.820000
321.907654	145.960000
322.000946	145.840000
322.094269	146.480000
322.187561	146.340000
322.280884	146.140000
322.374176	146.120000
322.467468	146.440000
322.560791	146.320000
322.654083	146.640000
322.747406	146.700000
322.840698	146.940000
322.934021	147.280000
323.027344	147.540000
323.120636	147.120000
323.213959	146.940000
323.307251	146.680000
323.400574	146.100000
323.493866	145.400000
323.587219	145.600000
323.680511	145.620000
323.773834	145.900000
323.867157	146.340000
323.960449	146.400000
324.053772	146.260000
324.147095	146.280000
324.240387	146.660000
324.333710	146.440000
324.427032	146.600000
324.520355	146.640000
324.613647	146.180000
324.706970	145.920000
324.800293	145.780000
324.893616	145.780000
324.986938	145.960000
325.080231	145.960000
325.173553	145.880000
325.266876	146.200000
325.360199	146.300000
325.453522	145.600000
325.546875	145.480000
325.640167	145.600000
325.733521	145.780000
325.826813	146.000000
325.920166	145.920000
326.013489	146.100000
326.106812	145.420000
326.200134	144.700000
326.293457	143.860000
326.386780	144.460000
326.480103	144.340000
326.573425	144.600000
326.666748	144.940000
326.760071	145.720000
326.853424	145.820000
326.946747	146.040000
327.040070	146.920000
327.133392	146.620000
327.226715	145.820000
327.320068	145.340000
327.413391	145.880000
327.506714	144.980000
327.600037	144.840000
327.693390	145.280000
327.786713	145.440000
327.880066	144.960000
327.973358	145.400000
328.066742	145.980000
328.160034	146.240000
328.253418	146.680000
328.346710	146.740000
328.440063	146.560000
328.533417	146.340000
328.626740	146.460000
328.720093	145.940000
328.813416	145.600000
328.906769	145.520000
329.000092	145.600000
329.093445	145.360000
329.186768	145.400000
329.280121	146.020000
329.373444	146.320000
329.466797	146.280000
329.560120	146.400000
329.653473	146.540000
329.746796	146.120000
329.840149	145.960000
329.933502	146.100000
330.026825	145.780000
330.120178	145.680000
330.213562	146.000000
330.306854	145.920000
330.400238	145.620000
330.493561	145.460000
330.586945	146.180000
330.680237	146.360000
330.773621	146.400000
330.866974	146.500000
330.960327	146.920000
331.053680	146.140000
331.147003	145.860000
331.240356	145.880000
331.333710	145.960000
331.427063	145.400000
331.520416	145.800000
331.613770	145.420000
331.707123	145.560000
331.800476	145.700000
331.893829	146.960000
331.987152	147.080000
332.080505	147.060000
332.173859	146.740000
332.267212	146.320000
332.360565	145.420000
332.453918	144.780000
332.547333	145.020000
332.640656	145.060000
332.734039	145.440000
332.827362	145.520000
332.920746	145.940000
333.014069	146.420000
333.107452	146.920000
333.200806	147.060000
333.294159	146.960000
333.387543	146.380000
333.480896	145.440000
333.574249	145.000000
333.667603	144.620000
333.760956	144.960000
333.854340	145.220000
333.947693	145.620000
334.041046	145.640000
334.134430	145.800000
334.227783	145.520000
334.321136	145.660000
334.414520	145.580000
334.507874	145.940000
334.601227	146.080000
334.694611	146.100000
334.787964	146.140000
334.881348	146.400000
334.974701	146.240000
335.068085	145.580000
335.161438	145.800000
335.254822	145.700000
335.348175	145.620000
335.441559	145.200000
335.534943	146.320000
335.628296	145.880000
335.721680	146.180000
335.815033	146.300000
335.908417	146.880000
336.001770	146.480000
336.095154	146.500000
336.188538	145.840000
336.281891	145.460000
336.375275	144.700000
336.468658	144.260000
336.562012	144.160000
336.655396	144.960000
336.748779	145.360000
336.842133	145.880000
336.935516	146.180000
337.028900	146.240000
337.122284	145.960000
337.215637	146.060000
337.309021	145.800000
337.402435	145.600000
337.495789	145.680000
337.589203	145.780000
337.682526	145.640000
337.775940	146.180000
337.869324	146.320000
337.962708	146.120000
338.056091	146.720000
338.149475	146.140000
338.242859	145.860000
338.336243	145.920000
338.429626	146.180000
338.523010	145.520000
338.616394	145.840000
338.709778	145.940000
338.803162	145.860000
338.896545	145.800000
338.989929	145.480000
339.083313	145.600000
339.176697	145.240000
339.270081	145.320000
339.363464	145.980000
339.456848	146.400000
339.550232	145.920000
339.643616	146.080000
339.737030	145.620000
339.830383	145.140000
339.923828	145.300000
340.017181	145.820000
340.110596	145.920000
340.203949	146.260000
340.297363	145.880000
340.390778	145.540000
340.484161	145.320000
340.577545	145.040000
340.670959	144.960000
340.764343	145.060000
340.857727	145.300000
340.951111	144.740000
341.044525	144.960000
341.137909	144.560000
341.231293	144.580000
341.324707	144.100000
341.418091	145.220000
341.511505	145.540000
341.604889	145.980000
341.698303	146.080000
341.791687	146.120000
341.885071	145.300000
341.978485	144.700000
342.071899	144.740000
342.165283	145.020000
342.258698	145.380000
342.352081	145.940000
342.445496	146.540000
342.538879	146.260000
342.632324	145.840000
342.725708	145.640000
342.819122	145.000000
342.912506	144.560000
343.005920	144.840000
343.099335	145.740000
343.192719	145.700000
343.286133	145.940000
343.379547	146.220000
343.472931	146.260000
343.566345	145.380000
343.659760	145.640000
343.753143	145.480000
343.846558	145.500000
343.939972	145.380000
344.033386	146.040000
344.126770	145.840000
344.220184	146.060000
344.313599	146.200000
344.407043	146.400000
344.500427	145.640000
344.593872	146.140000
344.687225	146.020000
344.780670	145.360000
344.874054	145.040000
344.967499	145.780000
345.060913	145.420000
345.154327	145.780000
345.247742	145.780000
345.341156	145.640000
345.434570	145.160000
345.527985	145.100000
345.621399	145.000000
345.714813	145.320000
345.808228	145.880000
345.901642	145.460000
345.995056	145.140000
346.088470	145.100000
346.181885	145.020000
346.275299	144.620000
346.368713	145.000000
346.462128	145.020000
346.555573	145.040000
346.648987	145.240000
346.742401	145.220000
346.835815	145.980000
346.929260	145.620000
347.022644	145.840000
347.116119	145.720000
347.209503	145.920000
347.302948	146.140000
347.396362	147.300000
347.489807	147.200000
347.583221	148.080000
347.676636	147.720000
347.770050	146.720000
347.863495	145.980000
347.956909	145.760000
348.050323	144.800000
348.143768	145.120000
348.237183	144.900000
348.330597	145.540000
348.424042	146.180000
348.517456	146.700000
348.610901	146.980000
348.704315	146.900000
348.797760	146.320000
348.891174	145.480000
348.984619	144.880000
349.078033	144.820000
349.171448	145.480000
349.264923	145.520000
349.358337	145.740000
349.451782	145.980000
349.545197	145.380000
349.638641	144.780000
349.732086	144.440000
349.825500	144.760000
349.918945	144.100000
350.012390	144.680000
350.105804	145.380000
350.199249	145.740000
350.292664	145.760000
350.386108	146.360000
350.479553	146.780000
350.572968	146.600000
350.666412	146.740000
350.759857	146.600000
350.853302	147.100000
350.946716	146.600000
351.040161	146.360000
351.133606	146.540000
351.227081	146.400000
351.320465	146.760000
351.413940	146.620000
351.507355	146.780000
351.600830	146.780000
351.694244	146.480000
351.787720	145.960000
351.881104	145.900000
351.974579	145.940000
352.067993	146.280000
352.161469	146.480000
352.254883	145.700000
352.348358	145.800000
352.441803	145.680000
352.535248	145.180000
352.628693	145.620000
352.722137	145.820000
352.815582	145.980000
352.909027	146.260000
353.002472	145.760000
353.095917	145.600000
353.189362	146.220000
353.282806	145.840000
353.376251	145.480000
353.469696	145.460000
353.563141	145.860000
353.656586	145.260000
353.750061	145.120000
353.843475	145.060000
353.936981	145.600000
354.030396	144.940000
354.123871	145.240000
354.217285	146.200000
354.310760	146.440000
354.404175	146.580000
354.497681	146.180000
354.591095	145.980000
354.684570	145.140000
354.777985	144.660000
354.871490	144.280000
354.964935	145.100000
355.058380	145.500000
355.151855	145.360000
355.245300	146.060000
355.338745	146.440000
355.432220	146.180000
355.525665	145.640000
355.619110	146.120000
355.712585	145.980000
355.806030	145.820000
355.899475	145.640000
355.992950	146.260000
356.086426	146.560000
356.179871	146.360000
356.273346	146.360000
356.366791	146.700000
356.460266	146.440000
356.553711	146.040000
356.647186	146.060000
356.740631	145.640000
356.834106	145.420000
356.927551	145.620000
357.021027	145.500000
357.114471	145.780000
357.207947	146.020000
357.301422	146.080000
357.394867	146.200000
357.488342	146.640000
357.581818	146.440000
357.675262	146.680000
357.768738	146.520000
357.862213	145.700000
357.955658	145.480000
358.049133	145.040000
358.142609	145.120000
358.236053	145.120000
358.329529	145.620000
358.423035	146.020000
358.516449	145.960000
358.609955	146.200000
358.703400	146.880000
358.796906	147.080000
358.890350	146.240000
358.983826	146.880000
359.077271	146.360000
359.170776	145.880000
359.264221	145.780000
359.357727	146.240000
359.451172	146.600000
359.544647	146.660000
359.638123	146.540000
359.731598	146.780000
359.825073	147.040000
359.918549	146.680000
360.012024	146.920000
360.105499	146.460000
360.198975	146.440000
360.292450	145.820000
360.385925	145.640000
360.479401	145.200000
360.572876	145.920000
360.666351	145.980000
360.759857	146.140000
360.853302	146.200000
360.946808	145.920000
361.040253	145.660000
361.133759	145.040000
361.227203	145.440000
361.320709	145.160000
361.414154	145.840000
361.507660	146.120000
361.601105	146.800000
361.694641	146.840000
361.788086	146.920000
361.881592	147.520000
361.975067	147.060000
362.068542	147.280000
362.162018	147.320000
362.255524	146.960000
362.348999	146.180000
362.442474	146.440000
362.535950	145.800000
362.629456	145.660000
362.722931	145.620000
362.816406	145.960000
362.909882	146.360000
363.003387	145.840000
363.096863	146.000000
363.190338	146.400000
363.283875	146.020000
363.377319	145.920000
363.470825	146.660000
363.564301	146.180000
363.657806	146.240000
363.751282	145.860000
363.844788	146.440000
363.938232	146.040000
364.031769	146.740000
364.125214	147.180000
364.218750	147.740000
364.312225	146.580000
364.405731	146.480000
364.499207	145.640000
364.592712	144.840000
364.686188	144.660000
364.779694	144.700000
364.873169	144.780000
364.966675	145.000000
365.060150	145.200000
365.153656	145.720000
365.247131	145.980000
365.340637	146.460000
365.434143	147.080000
365.527618	147.340000
365.621155	146.560000
365.714600	146.720000
365.808136	146.600000
365.901611	145.500000
365.995117	145.480000
366.088593	145.440000
366.182129	145.160000
366.275604	145.120000
366.369110	145.180000
366.462585	144.880000
366.556122	145.900000
366.649567	145.840000
366.743103	145.700000
366.836609	146.040000
366.930115	146.420000
367.023590	146.080000
367.117096	146.020000
367.210602	146.000000
367.304108	146.740000
367.397614	147.100000
367.491119	147.160000
367.584595	147.300000
367.678101	147.520000
367.771606	146.800000
367.865112	146.220000
367.958649	145.420000
368.052124	145.400000
368.145660	145.200000
368.239136	145.560000
368.332672	145.900000
368.426147	146.520000
368.519684	146.320000
368.613159	146.780000
368.706696	146.180000
368.800171	145.840000
368.893707	145.520000
368.987183	145.580000
369.080719	145.300000
369.174225	145.520000
369.267731	145.840000
369.361237	145.700000
369.454742	145.640000
369.548248	145.820000
369.641754	145.540000
369.735260	145.240000
369.828766	144.820000
369.922272	145.600000
370.015808	145.080000
370.109314	145.200000
370.202820	145.020000
370.296356	146.100000
370.389832	145.620000
370.483368	145.620000
370.576874	145.780000
370.670410	146.200000
370.763885	145.400000
370.857422	145.360000
370.950928	145.480000
371.044464	145.780000
371.137939	145.720000
371.231476	145.960000
371.324982	146.580000
371.418518	146.480000
371.512024	146.500000
371.605560	146.400000
371.699066	146.700000
371.792572	145.780000
371.886108	146.420000
371.979614	146.220000
372.073120	146.800000
372.166656	146.600000
372.260162	147.140000
372.353668	146.520000
372.447205	146.080000
372.540710	145.720000
372.634277	145.700000
372.727753	145.880000
372.821320	146.380000
372.914795	146.860000
373.008362	146.640000
373.101837	146.740000
373.195404	146.020000
373.288879	145.440000
373.382446	146.180000
373.475922	146.160000
373.569489	146.760000
373.662964	147.560000
373.756531	147.860000
373.850037	147.240000
373.943573	147.080000
374.037109	145.860000
374.130615	145.700000
374.224152	145.880000
374.317657	145.840000
374.411194	146.760000
374.504730	147.080000
374.598236	146.800000
374.691772	146.480000
374.785309	146.700000
374.878815	145.680000
374.972351	146.180000
375.065887	145.980000
375.159454	146.580000
375.252930	146.100000
375.346497	146.560000
375.440002	146.860000
375.533569	147.040000
375.627045	146.340000
375.720612	146.620000
375.814117	146.820000
375.907684	146.240000
376.001160	145.880000
376.094727	145.780000
376.188232	146.440000
376.281799	146.260000
376.375336	146.340000
376.468872	147.320000
376.562408	147.620000
376.655914	146.840000
376.749451	146.560000
376.842987	146.620000
376.936523	146.060000
377.030060	145.720000
377.123596	145.920000
377.217133	145.760000
377.310669	145.720000
377.404205	145.940000
377.497772	146.640000
377.591278	146.440000
377.684845	147.220000
377.778351	147.440000
377.871918	147.260000
377.965424	146.560000
378.058990	146.540000
378.152496	146.100000
378.246063	146.260000
378.339569	146.180000
378.433136	146.460000
378.526642	146.620000
378.620209	146.480000
378.713745	146.060000
378.807312	146.700000
378.900848	146.760000
378.994385	146.960000
379.087921	146.540000
379.181458	146.780000
379.274994	145.720000
379.368530	145.820000
379.462097	145.860000
379.555634	146.600000
379.649170	146.060000
379.742706	146.200000
379.836273	145.860000
379.929810	145.420000
380.023376	145.120000
380.116882	145.560000
380.210449	145.840000
380.303986	145.640000
380.397552	145.140000
380.491058	145.160000
380.584656	144.820000
380.678162	144.900000
380.771729	144.920000
380.865265	146.020000
380.958832	146.260000
381.052368	146.440000
381.145935	146.800000
381.239471	147.260000
381.333008	146.880000
381.426575	146.780000
381.520111	147.240000
381.613647	147.160000
381.707214	146.740000
381.800751	146.180000
381.894318	146.200000
381.987854	145.540000
382.081421	145.320000
382.174988	145.720000
382.268524	145.680000
382.362091	145.640000
382.455627	146.600000
382.549194	146.440000
382.642731	145.820000
382.736298	145.780000
382.829834	145.580000
382.923401	145.540000
383.016937	145.680000
383.110504	146.440000
383.204041	146.620000
383.297607	147.020000
383.391174	146.180000
383.484741	146.900000
383.578278	146.340000
383.671844	146.340000
383.765411	145.660000
383.858948	146.200000
383.952515	145.480000
384.046051	146.000000
384.139618	146.380000
384.233185	147.000000
384.326721	146.820000
384.420288	147.580000
384.513855	147.440000
384.607422	147.720000
384.700989	147.700000
384.794525	147.160000
384.888123	146.620000
384.981659	146.460000
385.075226	145.760000
385.168762	145.440000
385.262360	145.940000
385.355896	145.280000
385.449463	145.520000
385.542999	145.780000
385.636597	146.240000
385.730164	146.440000
385.823730	146.500000
385.917267	145.920000
386.010834	146.120000
386.104401	146.040000
386.197968	145.960000
386.291534	146.300000
386.385101	146.800000
386.478668	147.100000
386.572235	146.960000
386.665802	146.700000
386.759338	146.500000
386.852905	146.180000
386.946472	145.700000
387.040070	145.780000
387.133606	145.480000
387.227203	145.460000
387.320740	145.740000
387.414337	145.400000
387.507874	145.020000
387.601471	145.260000
387.695007	145.460000
387.788605	145.520000
387.882141	146.060000
387.975739	146.420000
388.069275	146.220000
388.162872	146.520000
388.256439	146.380000
388.350037	146.020000
388.443604	145.640000
388.537170	145.860000
388.630737	146.280000
388.724304	146.300000
388.817871	146.080000
388.911438	146.420000
389.005005	146.600000
389.098602	146.420000
389.192169	146.140000
389.285736	146.640000
389.379333	146.260000
389.472870	145.760000
389.566467	145.220000
389.660034	145.600000
389.753632	145.100000
389.847168	145.700000
389.940765	146.240000
390.034332	146.540000
390.127930	146.020000
390.221466	146.500000
390.315063	146.100000
390.408630	145.660000
390.502228	144.960000
390.595795	145.160000
390.689362	144.820000
390.782959	145.020000
390.876526	145.220000
390.970093	145.440000
391.063690	146.180000
391.157257	146.300000
391.250824	146.500000
391.344421	146.500000
391.437988	146.820000
391.531555	146.400000
391.625153	146.600000
391.718750	146.720000
391.812317	146.700000
391.905914	146.440000
391.999481	146.620000
392.093079	146.640000
392.186615	146.920000
392.280243	146.920000
392.373779	147.200000
392.467407	147.440000
392.560944	147.300000
392.654572	146.400000
392.748108	146.680000
392.841736	146.500000
392.935303	146.000000
393.028900	145.640000
393.122467	146.120000
393.216064	145.520000
393.309631	145.000000
393.403229	144.740000
393.496796	145.040000
393.590393	144.040000
393.683990	144.380000
393.777557	145.080000
393.871155	145.300000
393.964722	145.480000
394.058350	146.120000
394.151917	146.000000
394.245514	145.780000
394.339081	146.200000
394.432678	146.420000
394.526245	146.520000
394.619873	146.400000
394.713409	146.700000
394.807037	146.180000
394.900604	145.940000
394.994202	146.140000
395.087769	146.880000
395.181396	146.160000
395.274994	147.160000
395.368561	146.600000
395.462158	146.540000
395.555756	145.440000
395.649353	146.100000
395.742920	145.380000
395.836517	146.520000
395.930115	145.720000
396.023712	146.260000
396.117279	146.220000
396.210876	145.860000
396.304474	145.280000
396.398071	146.160000
396.491669	146.460000
396.585266	146.080000
396.678833	145.840000
396.772461	146.300000
396.866028	145.840000
396.959656	145.900000
397.053223	146.600000
397.146851	146.980000
397.240417	147.340000
397.334015	148.580000
397.427582	149.640000
397.521210	151.200000
397.614807	154.340000
397.708405	157.280000
397.802002	161.120000
397.895599	166.840000
397.989197	173.720000
398.082794	181.100000
398.176392	191.020000
398.269989	202.760000
398.363586	215.800000
398.457184	230.820000
398.550781	247.960000
398.644379	265.020000
398.737976	283.720000
398.831573	302.340000
398.925201	321.860000
399.018768	342.400000
399.112396	365.520000
399.205963	389.120000
399.299591	415.380000
399.393158	443.440000
399.486786	472.080000
399.580353	499.460000
399.673981	523.480000
399.767578	545.500000
399.861206	561.220000
399.954773	570.920000
400.048401	572.460000
400.141998	567.040000
400.235596	554.160000
400.329193	537.780000
400.422791	518.600000
400.516418	498.520000
400.610016	480.580000
400.703613	462.480000
400.797211	441.400000
400.890808	419.160000
400.984436	396.500000
401.078033	372.020000
401.171631	347.440000
401.265259	324.000000
401.358826	302.020000
401.452484	280.380000
401.546051	261.440000
401.639679	242.520000
401.733246	226.360000
401.826904	210.680000
401.920471	197.360000
402.014099	185.360000
402.107697	176.340000
402.201324	168.860000
402.294891	163.500000
402.388550	159.800000
402.482147	156.680000
402.575745	153.720000
402.669373	151.220000
402.762970	149.980000
402.856567	148.740000
402.950195	148.380000
403.043793	147.860000
403.137390	148.100000
403.231018	146.620000
403.324615	147.000000
403.418243	146.340000
403.511841	146.780000
403.605469	146.680000
403.699066	147.560000
403.792694	147.220000
403.886292	147.260000
403.979919	146.920000
404.073517	146.440000
404.167145	146.420000
404.260712	146.440000
404.354370	146.040000
404.447937	146.080000
404.541595	146.140000
404.635162	146.140000
404.728821	146.360000
404.822418	146.300000
404.916046	146.360000
405.009644	146.700000
405.103271	147.020000
405.196899	146.780000
405.290497	147.200000
405.384125	147.340000
405.477722	146.720000
405.571350	145.920000
405.664948	145.800000
405.758575	145.580000
405.852203	144.940000
405.945801	145.280000
406.039429	145.720000
406.133057	145.540000
406.226654	145.520000
406.320312	145.780000
406.413879	145.980000
406.507538	145.900000
406.601135	145.480000
406.694763	145.740000
406.788361	145.600000
406.882019	145.180000
406.975586	145.640000
407.069244	146.520000
407.162872	146.620000
407.256470	146.680000
407.350098	146.680000
407.443726	146.200000
407.537323	145.680000
407.630951	145.660000
407.724579	145.300000
407.818207	145.720000
407.911804	145.620000
408.005432	145.740000
408.099060	146.080000
408.192688	146.760000
408.286285	146.580000
408.379913	146.360000
408.473572	146.540000
408.567169	145.600000
408.660828	145.280000
408.754395	145.120000
408.848053	145.320000
408.941650	145.420000
409.035309	145.500000
409.128906	145.320000
409.222565	145.340000
409.316132	145.760000
409.409790	145.500000
409.503387	145.620000
409.597046	145.760000
409.690674	145.960000
409.784302	145.620000
409.877930	145.640000
409.971558	145.940000
410.065186	146.020000
410.158783	145.840000
410.252411	145.680000
410.346039	145.980000
410.439667	145.920000
410.533295	145.940000
410.626923	146.140000
410.720551	146.040000
410.814209	146.240000
410.907806	146.140000
411.001465	145.920000
411.095062	146.060000
411.188721	146.340000
411.282318	145.740000
411.375977	145.620000
411.469574	146.100000
411.563232	145.880000
411.656830	145.860000
411.750488	145.820000
411.844086	145.500000
411.937744	145.540000
412.031372	145.360000
412.125000	145.280000
412.218628	145.620000
412.312256	146.600000
412.405884	146.740000
412.499512	146.700000
412.593170	147.040000
412.686798	147.120000
412.780426	146.460000
412.874054	146.520000
412.967682	146.620000
413.061310	146.960000
413.154968	147.180000
413.248566	147.740000
413.342224	147.440000
413.435852	147.740000
413.529510	147.140000
413.623108	146.260000
413.716766	145.660000
413.810364	145.600000
413.904022	145.200000
413.997650	144.940000
414.091309	145.820000
414.184906	145.660000
414.278564	145.360000
414.372192	145.980000
414.465851	146.540000
414.559479	145.980000
414.653107	147.140000
414.746735	147.140000
414.840393	146.640000
414.934021	146.760000
415.027649	146.300000
415.121277	145.540000
415.214935	146.100000
415.308563	146.100000
415.402191	145.180000
415.495850	145.660000
415.589478	145.500000
415.683136	145.080000
415.776733	145.300000
415.870422	146.040000
415.964020	145.680000
416.057678	145.640000
416.151306	145.840000
416.244965	145.580000
416.338562	145.480000
416.432251	146.180000
416.525848	147.280000
416.619507	147.560000
416.713165	147.980000
416.806793	147.780000
416.900421	148.000000
416.994080	147.000000
417.087708	146.240000
417.181366	145.440000
417.274994	145.680000
417.368622	145.380000
417.462280	146.000000
417.555908	146.500000
417.649567	146.960000
417.743195	146.880000
417.836853	146.940000
417.930481	146.880000
418.024170	146.880000
418.117767	147.280000
418.211426	147.540000
418.305054	148.000000
418.398712	147.400000
418.492340	147.420000
418.585999	147.420000
418.679626	147.380000
418.773285	146.740000
418.866913	147.080000
418.960571	147.160000
419.054230	147.140000
419.147858	147.120000
419.241516	147.260000
419.335144	147.320000
419.428802	147.020000
419.522461	146.700000
419.616089	146.300000
419.709747	146.300000
419.803375	146.240000
419.897034	146.380000
419.990662	146.320000
420.084320	146.780000
420.177979	146.880000
420.271606	146.940000
420.365295	147.300000
420.458893	147.240000
420.552582	147.280000
420.646210	146.980000
420.739868	146.840000
420.833496	146.640000
420.927155	146.460000
421.020782	146.020000
421.114471	146.020000
421.208069	146.180000
421.301758	145.840000
421.395386	146.060000
421.489044	146.040000
421.582703	146.120000
421.676361	146.280000
421.769989	146.180000
421.863647	146.600000
421.957306	146.740000
422.050934	146.860000
422.144592	146.500000
422.238251	146.120000
422.331909	145.640000
422.425537	145.540000
422.519196	145.400000
422.612854	145.060000
422.706543	145.380000
422.800140	145.320000
422.893829	145.200000
422.987457	144.900000
423.081146	145.000000
423.174744	145.400000
423.268433	145.340000
423.362061	145.400000
423.455750	145.260000
423.549347	145.220000
423.643036	144.520000
423.736664	145.280000
423.830353	145.340000
423.924011	146.020000
424.017639	145.740000
424.111298	145.840000
424.204956	145.540000
424.298615	145.660000
424.392273	145.280000
424.485931	145.900000
424.579559	146.260000
424.673218	145.880000
424.766876	146.100000
424.860535	146.080000
424.954193	145.800000
425.047882	146.020000
425.141510	146.360000
425.235199	146.260000
425.328796	145.980000
425.422485	146.040000
425.516113	145.220000
425.609802	144.980000
425.703430	145.020000
425.797119	145.020000
425.890747	145.140000
425.984436	145.700000
426.078064	146.080000
426.171753	145.760000
426.265411	145.900000
426.359070	145.980000
426.452728	145.820000
426.546356	145.440000
426.640015	145.260000
426.733673	145.260000
426.827332	145.120000
426.920990	145.880000
427.014648	145.420000
427.108307	145.860000
427.201965	146.260000
427.295624	146.200000
427.389282	145.480000
427.482941	145.980000
427.576630	145.820000
427.670258	145.500000
427.763947	145.460000
427.857574	145.800000
427.951263	145.740000
428.044922	145.600000
428.138611	145.400000
428.232239	145.820000
428.325928	145.940000
428.419556	146.160000
428.513245	145.860000
428.606903	146.240000
428.700562	145.800000
428.794220	145.100000
428.887878	144.580000
428.981537	145.020000
429.075195	144.840000
429.168854	144.980000
429.262512	145.320000
429.356201	145.940000
429.449860	145.540000
429.543518	145.780000
429.637177	146.120000
429.730835	146.160000
429.824493	145.680000
429.918182	146.300000
430.011810	145.520000
430.105530	144.940000
430.199158	145.160000
430.292847	145.120000
430.386475	144.900000
430.480164	145.240000
430.573792	144.900000
430.667511	144.540000
430.761139	144.600000
430.854828	144.780000
430.948456	144.920000
431.042145	145.880000
431.135834	145.980000
431.229492	146.240000
431.323151	146.600000
431.416809	146.420000
431.510468	146.360000
431.604156	146.080000
431.697815	146.280000
431.791473	145.640000
431.885132	145.380000
431.978821	145.520000
432.072479	146.220000
432.166138	146.320000
432.259827	145.940000
432.353485	146.660000
432.447174	146.540000
432.540802	145.880000
432.634491	145.820000
432.728149	146.320000
432.821838	146.340000
432.915466	145.640000
433.009186	146.040000
433.102814	145.220000
433.196503	145.180000
433.290131	145.060000
433.383850	145.580000
433.477509	145.600000
433.571167	146.780000
433.664856	147.020000
433.758514	147.460000
433.852173	147.320000
433.945862	147.060000
434.039520	146.580000
434.133179	145.800000
434.226868	145.080000
434.320526	144.600000
434.414185	145.520000
434.507874	145.220000
434.601562	145.800000
434.695221	145.860000
434.788910	146.380000
434.882538	146.040000
434.976257	145.740000
435.069885	145.860000
435.163574	146.460000
435.257233	146.020000
435.350922	145.580000
435.444580	145.720000
435.538269	145.400000
435.631897	145.440000
435.725616	146.200000
435.819275	146.900000
435.912964	147.580000
436.006622	148.260000
436.100311	147.840000
436.193970	147.160000
436.287628	146.640000
436.381317	146.400000
436.474976	145.740000
436.568665	145.660000
436.662323	145.940000
436.756012	145.840000
436.849670	145.520000
436.943390	145.540000
437.037018	145.600000
437.130737	145.620000
437.224365	145.520000
437.318085	145.560000
437.411713	145.580000
437.505432	146.080000
437.599060	146.560000
437.692780	147.220000
437.786407	147.180000
437.880127	147.260000
437.973755	146.680000
438.067474	146.180000
438.161133	145.600000
438.254822	146.340000
438.348480	146.240000
438.442169	147.020000
438.535828	147.160000
438.629517	147.080000
438.723175	146.140000
438.816864	146.660000
438.910553	145.920000
439.004211	145.720000
439.097900	145.580000
439.191559	145.880000
439.285248	145.300000
439.378906	145.680000
439.472626	145.520000
439.566284	145.420000
439.659973	145.860000
439.753632	145.760000
439.847321	145.960000
439.940979	146.260000
440.034698	146.580000
440.128326	146.080000
440.222046	146.340000
440.315674	145.380000
440.409393	145.500000
440.503082	145.460000
440.596741	145.640000
440.690430	145.860000
440.784088	146.140000
440.877777	145.600000
440.971466	145.700000
441.065125	145.560000
441.158813	145.320000
441.252502	145.360000
441.346161	145.540000
441.439850	145.640000
441.533539	145.240000
441.627197	145.400000
441.720886	145.340000
441.814606	145.840000
441.908234	146.120000
442.001953	146.280000
442.095612	146.280000
442.189301	146.700000
442.282959	146.700000
442.376678	145.820000
442.470306	146.740000
442.564026	146.600000
442.657684	146.700000
442.751404	146.660000
442.845032	147.660000
442.938751	146.980000
443.032440	146.940000
443.126099	146.360000
443.219788	146.300000
443.313477	146.160000
443.407166	146.440000
443.500824	146.400000
443.594513	146.920000
443.688202	146.620000
443.781891	145.720000
443.875549	145.280000
443.969238	145.400000
444.062927	145.280000
444.156647	145.420000
444.250275	146.480000
444.343994	146.940000
444.437653	147.200000
444.531372	147.160000
444.625031	146.940000
444.718719	146.380000
444.812378	145.900000
444.906097	145.340000
444.999756	144.780000
445.093445	144.880000
445.187103	144.880000
445.280823	145.540000
445.374512	145.340000
445.468201	145.560000
445.561859	145.500000
445.655548	145.280000
445.749237	144.820000
445.842926	145.460000
445.936615	145.820000
446.030304	145.660000
446.123962	146.240000
446.217651	146.040000
446.311340	146.080000
446.405029	145.720000
446.498749	145.680000
446.592407	145.120000
446.686096	145.360000
446.779755	145.200000
446.873474	145.540000
446.967133	145.820000
447.060852	145.600000
447.154510	145.300000
447.248230	145.340000
447.341858	145.200000
447.435577	144.920000
447.529236	144.980000
447.622955	145.160000
447.716644	144.900000
447.810333	145.260000
447.904022	145.860000
447.997711	146.080000
448.091400	146.400000
448.185059	146.580000
448.278748	146.460000
448.372437	146.000000
448.466125	146.540000
448.559814	146.160000
448.653503	146.580000
448.747192	146.580000
448.840912	146.840000
448.934570	146.380000
449.028290	146.960000
449.121948	146.440000
449.215637	146.420000
449.309296	146.080000
449.403015	146.460000
449.496674	146.300000
449.590393	146.400000
449.684052	145.820000
449.777771	146.580000
449.871429	145.740000
449.965149	145.720000
450.058838	145.980000
450.152527	146.800000
450.246216	146.380000
450.339905	146.860000
450.433594	146.460000
450.527283	146.880000
450.620972	146.440000
450.714661	146.520000
450.808350	146.460000
450.902039	146.980000
450.995728	146.360000
451.089417	145.960000
451.183105	145.680000
451.276794	145.940000
451.370514	145.300000
451.464172	144.860000
451.557892	145.100000
451.651550	145.280000
451.745270	144.880000
451.838928	144.440000
451.932648	144.820000
452.026306	145.060000
452.120026	144.940000
452.213684	145.660000
452.307404	146.260000
452.401062	146.500000
452.494781	146.640000
452.588470	146.480000
452.682159	145.760000
452.775848	145.560000
452.869537	144.980000
452.963226	144.560000
453.056915	144.780000
453.150604	144.860000
453.244293	145.340000
453.337982	145.900000
453.431671	146.260000
453.525360	146.560000
453.619049	146.560000
453.712769	146.200000
453.806427	145.840000
453.900146	145.560000
453.993805	145.100000
454.087555	145.760000
454.181213	146.000000
454.274933	146.120000
454.368591	145.940000
454.462311	145.940000
454.555969	145.100000
454.649689	145.780000
454.743347	145.320000
454.837067	146.260000
454.930756	146.680000
455.024445	146.980000
455.118134	146.380000
455.211853	147.000000
455.305542	146.360000
455.399231	146.100000
455.492920	146.200000
455.586609	146.200000
455.680298	146.520000
455.773987	146.160000
455.867676	146.460000
455.961365	146.460000
456.055084	146.440000
456.148773	145.580000
456.242493	145.820000
456.336151	145.840000
456.429871	146.380000
456.523529	146.580000
456.617249	146.580000
456.710907	147.160000
456.804626	146.640000
456.898315	145.640000
456.992035	145.440000
457.085693	145.240000
457.179413	144.660000
457.273102	145.760000
457.366791	146.180000
457.460480	146.540000
457.554199	147.520000
457.647888	147.460000
457.741577	146.700000
457.835266	146.440000
457.928955	146.220000
458.022644	146.420000
458.116364	147.000000
458.210052	146.760000
458.303741	147.120000
458.397461	146.580000
458.491119	145.660000
458.584839	145.180000
458.678528	145.160000
458.772247	144.760000
458.865906	144.980000
458.959625	146.000000
459.053284	146.140000
459.147003	146.080000
459.240692	146.820000
459.334412	146.800000
459.428070	146.020000
459.521790	145.920000
459.615479	145.760000
459.709198	145.600000
459.802887	145.200000
459.896576	145.040000
459.990265	145.440000
460.083954	145.700000
460.177673	145.300000
460.271362	145.760000
460.365051	145.880000
460.458740	145.120000
460.552429	145.040000
460.646149	145.200000
460.739838	144.980000
460.833527	145.020000
460.927246	144.960000
461.020905	144.940000
461.114655	144.800000
461.208313	145.080000
461.302032	144.640000
461.395691	145.540000
461.489441	145.720000
461.583099	145.860000
461.676819	145.640000
461.770477	146.300000
461.864197	145.700000
461.957916	145.620000
462.051605	144.880000
462.145294	145.860000
462.238983	145.520000
462.332703	145.940000
462.426392	146.680000
462.520081	147.140000
462.613770	146.220000
462.707489	146.320000
462.801178	145.940000
462.894867	145.400000
462.988556	145.520000
463.082275	145.700000
463.175964	145.540000
463.269684	146.040000
463.363342	145.740000
463.457092	145.280000
463.550751	145.440000
463.644470	145.720000
463.738129	145.340000
463.831879	145.640000
463.925537	146.480000
464.019257	146.560000
464.112946	146.380000
464.206665	146.040000
464.300323	146.020000
464.394043	145.620000
464.487762	145.600000
464.581451	145.920000
464.675140	146.420000
464.768829	146.680000
464.862549	146.940000
464.956238	147.160000
465.049927	147.140000
465.143646	146.940000
465.237335	146.680000
465.331024	146.740000
465.424713	146.320000
465.518433	146.180000
465.612152	146.040000
465.705811	145.880000
465.799561	145.640000
465.893219	145.580000
465.986938	145.380000
466.080597	145.500000
466.174347	145.840000
466.268005	145.780000
466.361725	145.860000
466.455414	146.060000
466.549133	145.660000
466.642792	145.720000
466.736542	145.560000
466.830231	145.580000
466.923920	145.600000
467.017609	145.900000
467.111328	145.420000
467.205017	145.680000
467.298706	145.620000
467.392426	145.400000
467.486115	145.800000
467.579803	145.740000
467.673523	146.020000
467.767212	146.300000
467.860901	146.740000
467.954651	146.480000
468.048309	147.020000
468.142029	146.620000
468.235718	146.260000
468.329437	146.040000
468.423096	145.920000
468.516846	145.580000
468.610504	145.520000
468.704224	145.640000
468.797913	145.380000
468.891632	145.320000
468.985291	145.300000
469.079010	145.600000
469.172729	145.120000
469.266418	145.660000
469.360107	145.980000
469.453827	146.160000
469.547516	146.020000
469.641205	146.540000
469.734924	146.340000
469.828613	146.540000
469.922302	146.560000
470.016022	146.660000
470.109711	146.420000
470.203430	145.940000
470.297150	145.120000
470.390808	145.040000
470.484558	144.460000
470.578217	144.880000
470.671936	145.800000
470.765625	146.580000
470.859344	146.440000
470.953003	147.160000
471.046753	146.980000
471.140411	146.340000
471.234131	146.420000
471.327820	146.840000
471.421539	146.820000
471.515228	146.360000
471.608948	146.320000
471.702637	145.700000
471.796326	145.400000
471.890045	145.480000
471.983734	146.040000
472.077423	146.140000
472.171143	146.560000
472.264832	146.600000
472.358521	146.180000
472.452240	145.600000
472.545929	146.200000
472.639648	146.160000
472.733337	146.080000
472.827057	146.280000
472.920746	146.600000
473.014465	146.500000
473.108124	146.440000
473.201874	146.700000
473.295532	146.480000
473.389252	146.920000
473.482941	146.660000
473.576660	146.220000
473.670319	145.780000
473.764069	146.020000
473.857727	145.780000
473.951477	146.020000
474.045166	146.720000
474.138855	146.700000
474.232574	146.720000
474.326263	146.840000
474.419952	146.940000
474.513672	146.660000
474.607361	146.740000
474.701050	146.620000
474.794769	146.860000
474.888458	146.580000
474.982178	146.680000
475.075867	146.780000
475.169586	147.060000
475.263275	146.440000
475.356995	146.480000
475.450653	146.260000
475.544403	145.980000
475.638062	146.360000
475.731812	146.360000
475.825470	145.960000
475.919189	146.220000
476.012878	146.460000
476.106598	145.640000
476.200256	145.820000
476.294006	146.000000
476.387695	146.000000
476.481384	145.960000
476.575104	146.080000
476.668793	145.840000
476.762512	145.580000
476.856201	145.780000
476.949890	145.440000
477.043610	145.320000
477.137299	145.340000
477.230988	145.700000
477.324707	145.180000
477.418396	145.520000
477.512146	145.440000
477.605804	145.520000
477.699524	145.760000
477.793213	145.820000
477.886932	145.600000
477.980591	145.700000
478.074341	145.520000
478.167999	144.760000
478.261749	144.980000
478.355408	145.140000
478.449127	145.740000
478.542816	146.480000
478.636536	147.260000
478.730225	147.000000
478.823944	147.440000
478.917633	146.860000
479.011322	146.940000
479.105042	146.940000
479.198730	147.280000
479.292450	146.840000
479.386139	147.000000
479.479828	146.980000
479.573547	147.320000
479.667267	147.040000
479.760925	147.280000
479.854675	147.380000
479.948334	147.200000
480.042084	146.360000
480.135742	146.420000
480.229462	146.060000
480.323151	145.980000
480.416870	145.120000
480.510529	145.300000
480.604279	144.860000
480.697937	145.520000
480.791656	145.240000
480.885345	145.640000
480.979065	145.520000
481.072754	146.200000
481.166473	146.460000
481.260132	146.600000
481.353882	146.880000
481.447540	146.800000
481.541260	146.860000
481.635010	146.000000
481.728668	145.940000
481.822388	145.540000
481.916077	145.660000
482.009796	145.160000
482.103485	145.460000
482.197205	145.620000
482.290863	145.960000
482.384613	145.800000
482.478271	145.720000
482.571991	145.600000
482.665680	145.680000
482.759399	146.220000
482.853058	146.600000
482.946808	146.840000
483.040466	146.900000
483.134216	146.520000
483.227875	145.860000
483.321594	146.280000
483.415283	146.340000
483.509003	146.380000
483.602661	146.260000
483.696411	146.560000
483.790070	145.920000
483.883789	145.960000
483.977478	146.180000
484.071198	146.440000
484.164917	146.080000
484.258606	145.880000
484.352325	145.920000
484.445984	145.740000
484.539734	145.640000
484.633392	145.160000
484.727142	145.700000
484.820801	145.540000
484.914520	145.440000
485.008209	145.560000
485.101929	146.140000
485.195587	145.800000
485.289337	145.860000
485.382996	146.060000
485.476715	146.180000
485.570404	146.560000
485.664124	146.380000
485.757782	146.840000
485.851532	146.380000
485.945190	146.200000
486.038910	146.480000
486.132599	147.100000
486.226318	146.500000
486.319977	146.720000
486.413727	147.280000
486.507446	146.580000
486.601105	145.820000
486.694855	145.680000
486.788513	145.480000
486.882233	145.080000
486.975922	145.180000
487.069641	145.380000
487.163300	145.060000
487.257050	146.240000
487.350708	145.960000
487.444427	145.680000
487.538116	145.780000
487.631836	146.200000
487.725494	145.420000
487.819214	145.620000
487.912903	145.580000
488.006622	146.100000
488.100281	146.260000
488.194031	146.120000
488.287689	146.520000
488.381409	147.400000
488.475098	146.760000
488.568817	146.740000
488.662476	146.480000
488.756226	145.800000
488.849945	144.620000
488.943604	144.940000
489.037354	145.040000
489.131012	145.260000
489.224731	145.200000
489.318390	145.580000
489.412140	145.540000
489.505798	145.460000
489.599518	145.100000
489.693207	145.820000
489.786926	145.900000
489.880585	145.580000
489.974335	145.960000
490.067993	147.280000
490.161713	147.120000
490.255371	147.800000
490.349121	148.160000
490.442780	147.680000
490.536499	146.240000
490.630188	146.200000
490.723907	145.600000
490.817566	145.420000
490.911285	145.540000
491.004974	145.880000
491.098694	145.480000
491.192413	146.020000
491.286102	146.180000
491.379822	146.160000
491.473480	146.460000
491.567200	146.600000
491.660889	145.780000
491.754608	145.480000
491.848267	145.540000
491.941986	145.280000
492.035675	145.300000
492.129395	145.900000
492.223053	146.340000
492.316772	146.620000
492.410461	146.600000
492.504181	146.740000
492.597839	146.180000
492.691559	146.040000
492.785248	145.940000
492.878967	146.060000
492.972626	145.800000
493.066345	145.980000
493.160034	145.280000
493.253754	145.220000
493.347412	144.920000
493.441132	145.260000
493.534882	145.920000
493.628540	146.740000
493.722260	147.040000
493.815918	147.360000
493.909668	147.520000
494.003326	147.900000
494.097046	147.680000
494.190704	147.340000
494.284454	147.400000
494.378113	147.340000
494.471832	146.420000
494.565491	146.260000
494.659210	146.240000
494.752899	146.120000
494.846619	146.160000
494.940277	146.220000
495.033997	146.040000
495.127686	145.740000
495.221405	145.700000
495.315063	145.780000
495.408783	145.840000
495.502441	145.980000
495.596191	146.440000
495.689850	145.960000
495.783569	146.200000
495.877228	146.120000
495.970947	145.920000
496.064697	145.740000
496.158356	146.920000
496.252075	146.620000
496.345734	146.700000
496.439453	147.660000
496.533142	147.920000
496.626862	147.820000
496.720520	147.620000
496.814240	147.620000
496.907898	147.180000
497.001617	146.980000
497.095306	146.080000
497.189026	146.060000
497.282684	146.180000
497.376404	146.320000
497.470062	146.200000
497.563782	146.580000
497.657471	146.540000
497.751190	146.400000
497.844849	146.060000
497.938568	146.460000
498.032227	146.520000
498.125946	146.540000
498.219635	146.120000
498.313354	146.480000
498.407074	145.740000
498.500732	146.000000
498.594452	146.080000
498.688110	146.080000
498.781830	145.380000
498.875519	145.460000
498.969238	144.960000
499.062897	144.740000
499.156616	145.200000
499.250275	145.600000
499.343994	145.200000
499.437653	145.280000
499.531372	145.600000
499.625061	146.140000
499.718781	146.320000
499.812439	147.140000
499.906158	147.080000
499.999817	146.760000
500.093536	146.380000
500.187195	146.120000
500.280914	146.060000
500.374573	146.160000
500.468323	146.000000
500.561981	145.820000
500.655701	145.460000
500.749420	145.380000
500.843079	145.500000
500.936798	145.900000
501.030457	146.160000
501.124176	146.540000
501.217834	146.060000
501.311554	145.940000
501.405212	145.440000
501.498962	144.580000
501.592621	144.640000
501.686340	145.260000
501.779999	145.440000
501.873718	145.880000
501.967377	146.460000
502.061096	146.660000
502.154755	145.920000
502.248474	145.920000
502.342133	146.060000
502.435852	145.720000
502.529510	145.900000
502.623230	146.780000
502.716888	146.000000
502.810608	145.820000
502.904266	146.520000
502.997986	146.020000
503.091705	145.480000
503.185364	145.920000
503.279083	145.880000
503.372772	145.560000
503.466492	145.300000
503.560150	145.380000
503.653870	145.620000
503.747528	145.860000
503.841248	145.920000
503.934906	146.480000
504.028625	146.140000
504.122284	146.260000
504.216003	146.360000
504.309662	145.660000
504.403381	145.580000
504.497040	145.960000
504.590759	145.560000
504.684418	145.840000
504.778137	146.660000
504.871796	146.860000
504.965515	146.800000
505.059174	146.860000
505.152893	146.200000
505.246521	145.640000
505.340240	145.000000
505.433899	145.240000
505.527618	145.380000
505.621338	145.820000
505.714996	145.740000
505.808716	146.000000
505.902374	146.360000
505.996094	146.520000
506.089752	146.200000
506.183472	146.460000
506.277130	146.660000
506.370850	146.160000
506.464508	146.040000
506.558228	146.260000
506.651886	145.720000
506.745605	145.680000
506.839264	145.500000
506.932983	145.440000
507.026611	144.920000
507.120331	145.600000
507.213989	145.060000
507.307709	145.360000
507.401367	145.800000
507.495087	146.620000
507.588745	146.340000
507.682465	147.400000
507.776123	147.260000
507.869843	146.780000
507.963531	146.540000
508.057190	147.260000
508.150909	146.560000
508.244568	146.860000
508.338287	146.640000
508.431946	146.060000
508.525665	145.300000
508.619324	145.100000
508.713013	145.280000
508.806671	145.740000
508.900391	146.940000
508.994049	147.100000
509.087769	146.980000
509.181427	146.720000
509.275146	146.280000
509.368774	145.040000
509.462494	145.080000
509.556152	145.260000
509.649872	145.660000
509.743530	146.180000
509.837250	146.640000
509.930878	146.760000
510.024597	146.640000
510.118256	146.020000
510.211975	145.540000
510.305695	145.260000
510.399353	145.460000
510.493042	146.260000
510.586700	146.540000
510.680420	147.320000
510.774078	147.380000
510.867798	147.400000
510.961426	146.600000
511.055145	146.500000
511.148804	146.000000
511.242523	146.160000
511.336151	146.020000
511.429871	146.580000
511.523529	146.460000
511.617249	146.480000
511.710876	146.280000
511.804596	145.720000
511.898254	145.420000
511.991974	145.800000
512.085632	145.260000
512.179321	145.420000
512.272949	146.160000
512.366699	146.540000
512.460327	146.320000
512.554077	147.300000
512.647766	147.080000
512.741394	146.860000
512.835144	146.920000
512.928772	146.700000
513.022461	146.680000
513.116150	146.860000
513.209839	147.200000
513.303467	146.840000
513.397217	146.760000
513.490845	146.320000
513.584595	146.300000
513.678223	145.880000
513.771912	145.080000
513.865601	145.420000
513.959290	145.020000
514.052917	144.840000
514.146667	145.440000
514.240295	146.400000
514.333984	146.600000
514.427673	146.820000
514.521362	147.480000
514.614990	146.480000
514.708740	146.180000
514.802368	145.920000
514.896057	146.020000
514.989746	146.280000
515.083435	146.500000
515.177124	147.040000
515.270752	146.840000
515.364502	146.860000
515.458130	146.660000
515.551819	146.500000
515.645508	146.200000
515.739197	146.120000
515.832825	146.240000
515.926575	145.800000
516.020203	146.460000
516.113892	147.080000
516.207520	147.400000
516.301270	147.480000
516.394897	147.520000
516.488586	147.860000
516.582275	147.760000
516.675964	147.180000
516.769592	147.000000
516.863281	147.860000
516.956970	147.680000
517.050659	146.900000
517.144287	147.200000
517.238037	147.340000
517.331665	146.200000
517.425354	145.520000
517.519043	145.600000
517.612732	145.860000
517.706421	145.640000
517.800049	145.440000
517.893738	145.520000
517.987427	145.420000
518.081116	145.400000
518.174744	145.060000
518.268433	145.640000
518.362122	146.200000
518.455811	146.200000
518.549438	146.560000
518.643127	147.560000
518.736816	147.140000
518.830505	146.600000
518.924133	146.860000
519.017822	146.620000
519.111511	146.200000
519.205200	146.820000
519.298828	146.960000
519.392517	146.640000
519.486206	146.860000
519.579895	146.700000
519.673523	146.140000
519.767212	146.200000
519.860901	146.680000
519.954590	146.320000
520.048279	145.980000
520.141907	146.240000
520.235596	146.840000
520.329224	146.960000
520.422974	146.900000
520.516602	147.200000
520.610291	146.900000
520.703918	146.500000
520.797607	145.800000
520.891296	145.780000
520.984985	145.640000
521.078613	146.260000
521.172302	145.680000
521.265930	146.640000
521.359680	147.020000
521.453308	147.180000
521.546997	146.860000
521.640625	147.340000
521.734314	146.540000
521.827942	146.200000
521.921692	146.480000
522.015320	146.680000
522.109009	146.480000
522.202698	146.460000
522.296326	146.320000
522.390015	146.580000
522.483704	146.480000
522.577393	146.460000
522.671021	146.500000
522.764709	146.600000
522.858337	146.660000
522.952026	146.620000
523.045654	147.380000
523.139404	148.140000
523.233032	148.220000
523.326721	147.900000
523.420349	147.920000
523.514038	147.080000
523.607666	147.080000
523.701355	146.780000
523.795044	146.680000
523.888733	146.800000
523.982361	147.060000
524.076050	146.340000
524.169678	146.780000
524.263367	146.560000
524.356995	146.160000
524.450684	146.160000
524.544373	146.260000
524.638062	146.040000
524.731750	145.920000
524.825378	146.040000
524.919067	145.480000
525.012695	145.480000
525.106384	145.260000
525.200012	145.600000
525.293701	145.740000
525.387329	146.460000
525.481018	146.600000
525.574646	147.100000
525.668396	147.080000
525.762024	147.360000
525.855713	147.340000
525.949341	147.020000
526.043030	146.900000
526.136658	146.740000
526.230347	146.220000
526.323975	145.720000
526.417664	145.740000
526.511292	145.780000
526.604980	145.940000
526.698608	145.680000
526.792297	145.800000
526.885925	145.940000
526.979614	146.020000
527.073303	145.600000
527.166931	145.800000
527.260620	146.340000
527.354309	146.660000
527.447998	146.720000
527.541626	146.900000
527.635315	147.160000
527.728943	147.140000
527.822632	147.140000
527.916260	147.040000
528.009949	147.480000
528.103577	147.300000
528.197266	146.480000
528.290894	146.460000
528.384583	146.260000
528.478210	145.880000
528.571899	146.220000
528.665527	146.800000
528.759216	146.840000
528.852844	147.140000
528.946533	147.460000
529.040161	147.040000
529.133850	146.720000
529.227478	146.760000
529.321167	146.920000
529.414856	146.940000
529.508484	147.780000
529.602173	147.580000
529.695801	147.480000
529.789490	147.060000
529.883057	146.680000
529.976746	146.220000
530.070374	146.820000
530.164062	146.760000
530.257690	147.000000
530.351379	147.420000
530.445007	147.320000
530.538696	146.540000
530.632324	146.740000
530.726013	146.500000
530.819641	146.340000
530.913330	146.500000
531.006958	146.880000
531.100647	146.660000
531.194275	146.580000
531.287964	146.220000
531.381592	145.720000
531.475220	145.880000
531.568848	146.000000
531.662537	146.120000
531.756226	146.780000
531.849854	146.980000
531.943542	146.960000
532.037170	146.520000
532.130859	146.980000
532.224487	146.460000
532.318176	146.220000
532.411804	146.720000
532.505432	147.020000
532.599060	146.260000
532.692749	146.200000
532.786377	146.820000
532.880066	146.080000
532.973694	145.720000
533.067383	145.900000
533.161011	145.760000
533.254639	145.800000
533.348267	145.560000
533.441956	145.880000
533.535583	145.920000
533.629272	146.340000
533.722900	145.580000
533.816589	145.900000
533.910156	146.240000
534.003845	145.980000
534.097534	146.020000
534.191162	146.500000
534.284851	146.940000
534.378479	146.280000
534.472107	146.440000
534.565735	146.180000
534.659424	146.560000
534.753052	146.320000
534.846741	146.420000
534.940369	146.840000
535.033997	146.740000
535.127625	146.360000
535.221313	146.820000
535.314941	146.860000
535.408630	146.020000
535.502197	146.520000
535.595886	146.380000
535.689514	145.800000
535.783203	146.060000
535.876831	146.960000
535.970459	146.740000
536.064087	146.300000
536.157776	146.280000
536.251404	146.200000
536.345093	145.520000
536.438721	145.640000
536.532349	146.460000
536.626038	146.440000
536.719666	146.880000
536.813293	146.920000
536.906921	146.560000
537.000610	146.540000
537.094238	146.600000
537.187866	146.120000
537.281494	146.360000
537.375183	147.000000
537.468811	146.700000
537.562439	146.760000
537.656067	146.920000
537.749756	146.780000
537.843384	146.960000
537.937012	147.140000
538.030640	146.900000
538.124329	147.000000
538.217896	147.500000
538.311584	147.160000
538.405212	146.760000
538.498901	147.320000
538.592468	147.880000
538.686157	147.220000
538.779785	146.760000
538.873413	146.700000
538.967102	145.960000
539.060730	144.840000
539.154358	145.420000
539.247986	145.580000
539.341675	146.000000
539.435242	146.120000
539.528931	146.520000
539.622559	145.840000
539.716187	146.660000
539.809814	146.520000
539.903503	146.600000
539.997070	146.440000
540.090759	146.840000
540.184387	146.000000
540.278015	146.580000
540.371643	146.840000
540.465332	146.940000
540.558899	146.780000
540.652588	147.200000
540.746216	146.700000
540.839844	146.980000
540.933472	147.020000
541.027100	146.900000
541.120728	146.600000
541.214417	146.800000
541.308044	146.820000
541.401672	146.800000
541.495300	146.660000
541.588928	146.600000
541.682617	146.460000
541.776184	146.160000
541.869873	146.200000
541.963440	146.800000
542.057129	146.900000
542.150757	146.840000
542.244385	146.340000
542.338013	145.980000
542.431641	145.800000
542.525269	145.660000
542.618958	146.100000
542.712524	146.520000
542.806213	146.620000
542.899780	146.760000
542.993469	146.520000
543.087036	146.140000
543.180725	145.620000
543.274292	146.080000
543.367981	146.000000
543.461548	146.600000
543.555237	146.260000
543.648926	147.160000
543.742493	147.740000
543.836182	147.920000
543.929749	147.620000
544.023437	147.980000
544.117004	147.520000
544.210693	146.940000
544.304260	146.620000
544.397949	146.760000
544.491516	146.600000
544.585205	146.660000
544.678772	146.220000
544.772461	146.740000
544.866028	146.220000
544.959717	146.600000
545.053284	146.140000
545.146973	146.600000
545.240540	146.400000
545.334229	147.320000
545.427795	147.480000
545.521423	148.060000
545.615051	148.260000
545.708679	148.540000
545.802307	148.200000
545.895935	148.180000
545.989624	149.200000
546.083191	148.780000
546.176880	148.600000
546.270447	148.020000
546.364136	148.260000
546.457703	147.300000
546.551331	147.380000
546.644958	147.520000
546.738586	148.420000
546.832214	147.900000
546.925842	147.760000
547.019409	147.960000
547.113098	147.240000
547.206665	146.460000
547.300354	146.240000
547.393921	146.440000
547.487549	146.480000
547.581177	146.540000
547.674805	146.760000
547.768433	146.240000
547.862061	146.140000
547.955627	145.660000
548.049316	146.160000
548.142883	146.500000
548.236572	147.320000
548.330139	147.320000
548.423767	147.320000
548.517456	147.100000
548.611023	147.100000
548.704651	146.440000
548.798279	146.380000
548.891907	146.880000
548.985474	146.860000
549.079163	146.720000
549.172729	146.720000
549.266357	146.500000
549.359985	146.460000
549.453613	145.940000
549.547180	145.740000
549.640869	146.220000
549.734436	146.120000
549.828064	146.180000
549.921631	146.340000
550.015320	146.120000
550.108887	146.640000
550.202515	147.020000
550.296143	146.340000
550.389771	146.440000
550.483337	146.680000
550.576965	146.120000
550.670593	146.260000
550.764221	146.380000
550.857849	146.260000
550.951477	145.740000
551.045105	145.380000
551.138672	145.120000
551.232300	144.900000
551.325928	145.200000
551.419556	145.600000
551.513123	146.040000
551.606750	145.840000
551.700378	146.200000
551.794006	146.240000
551.887573	146.060000
551.981201	146.280000
552.074768	146.280000
552.168457	145.760000
552.262024	146.400000
552.355652	146.820000
552.449219	147.140000
552.542847	147.480000
552.636475	147.780000
552.730103	146.840000
552.823669	146.540000
552.917297	145.720000
553.010864	145.480000
553.104553	145.660000
553.198181	145.560000
553.291748	146.060000
553.385376	146.520000
553.478943	146.400000
553.572571	146.360000
553.666199	146.580000
553.759827	146.320000
553.853394	145.920000
553.947021	145.780000
554.040588	145.760000
554.134216	145.880000
554.227783	146.280000
554.321411	146.740000
554.415039	146.560000
554.508667	146.400000
554.602234	146.600000
554.695862	145.740000
554.789429	145.280000
554.883057	145.680000
554.976624	145.820000
555.070251	145.580000
555.163818	145.760000
555.257507	146.000000
555.351074	145.920000
555.444702	146.940000
555.538330	146.780000
555.631897	147.260000
555.725525	147.080000
555.819092	147.120000
555.912720	145.740000
556.006287	146.420000
556.099915	145.880000
556.193481	145.860000
556.287109	146.200000
556.380676	146.400000
556.474304	146.060000
556.567871	146.540000
556.661499	146.360000
556.755066	145.960000
556.848694	146.060000
556.942261	145.980000
557.035889	145.820000
557.129517	146.100000
557.223145	146.580000
557.316711	146.840000
557.410339	146.660000
557.503906	146.520000
557.597473	146.720000
557.691040	146.280000
557.784668	146.260000
557.878296	146.400000
557.971863	146.680000
558.065491	146.660000
558.159058	146.600000
558.252686	147.100000
558.346252	147.700000
558.439880	147.380000
558.533447	146.920000
558.627075	146.820000
558.720642	146.320000
558.814270	145.920000
558.907837	145.940000
559.001465	146.000000
559.095032	146.600000
559.188660	146.800000
559.282227	146.220000
559.375854	146.780000
559.469360	146.620000
559.562988	146.840000
559.656555	146.180000
559.750183	146.620000
559.843750	146.380000
559.937378	146.600000
560.030945	146.300000
560.124573	0.000000
560.218140	0.000000
560.311707	0.000000
560.405334	0.000000
560.498901	0.000000
560.592529	0.000000
560.686096	0.000000
560.779724	0.000000
560.873291	0.000000
560.966858	0.000000
561.060425	0.000000
561.154053	0.000000
561.247620	0.000000
561.341248	0.000000
561.434814	0.000000
561.528381	0.000000
561.621948	0.000000
561.715576	0.000000
561.809143	0.000000
561.902771	0.000000
561.996277	0.000000
562.089905	0.000000
562.183472	0.000000
562.277100	0.000000
