Model Number: SPM-002-B   
Serial Number: 70087108
Firmware Version: 004.15.4
Exposure Time: 100000.000000us
Data Taken on: 11-12-2020 19:30:27.710
Wavelength	Amplitude
221.570786	0.000000
221.663406	0.000000
221.756027	0.000000
221.848648	0.000000
221.941269	0.000000
222.033905	0.000000
222.126526	0.000000
222.219162	0.000000
222.311798	0.000000
222.404419	0.000000
222.497055	0.000000
222.589676	0.000000
222.682312	0.000000
222.774933	0.000000
222.867569	0.000000
222.960205	0.000000
223.052841	0.000000
223.145462	0.000000
223.238098	0.000000
223.330734	0.000000
223.423386	0.000000
223.516022	0.000000
223.608658	0.000000
223.701309	0.000000
223.793945	0.000000
223.886581	0.000000
223.979218	0.000000
224.071869	0.000000
224.164505	0.000000
224.257156	0.000000
224.349792	0.000000
224.442444	0.000000
224.535095	0.000000
224.627747	0.000000
224.720398	0.000000
224.813034	0.000000
224.905685	0.000000
224.998337	145.820000
225.090988	145.580000
225.183640	145.420000
225.276291	145.220000
225.368942	146.000000
225.461594	146.320000
225.554245	146.480000
225.646912	146.340000
225.739578	146.840000
225.832230	146.880000
225.924896	146.200000
226.017548	146.420000
226.110199	146.920000
226.202866	146.020000
226.295532	145.860000
226.388184	146.020000
226.480850	145.300000
226.573517	144.600000
226.666168	145.040000
226.758835	145.100000
226.851501	145.620000
226.944183	146.040000
227.036850	146.260000
227.129517	146.340000
227.222183	146.440000
227.314850	146.440000
227.407516	146.600000
227.500198	147.400000
227.592865	147.340000
227.685532	146.840000
227.778214	146.420000
227.870880	146.560000
227.963562	146.640000
228.056229	146.940000
228.148926	147.340000
228.241592	148.320000
228.334274	147.820000
228.426956	147.340000
228.519638	147.120000
228.612305	146.560000
228.704987	146.300000
228.797668	146.560000
228.890350	146.200000
228.983032	145.700000
229.075714	146.320000
229.168396	145.900000
229.261108	145.520000
229.353790	145.820000
229.446472	146.220000
229.539169	146.260000
229.631851	145.900000
229.724533	146.220000
229.817230	146.360000
229.909912	147.340000
230.002609	147.040000
230.095306	147.280000
230.187988	147.360000
230.280685	147.280000
230.373383	146.100000
230.466095	146.180000
230.558792	146.380000
230.651474	146.260000
230.744171	146.140000
230.836868	146.100000
230.929581	146.440000
231.022278	146.340000
231.114975	146.380000
231.207672	146.020000
231.300369	146.540000
231.393082	146.500000
231.485779	146.380000
231.578506	145.960000
231.671204	146.440000
231.763916	145.960000
231.856613	146.000000
231.949326	146.380000
232.042023	146.700000
232.134735	146.640000
232.227448	146.660000
232.320160	146.760000
232.412872	146.760000
232.505585	147.420000
232.598297	147.720000
232.691010	147.540000
232.783722	146.940000
232.876450	147.220000
232.969162	146.640000
233.061874	146.180000
233.154587	145.720000
233.247314	146.040000
233.340027	145.500000
233.432739	145.980000
233.525467	145.660000
233.618179	146.260000
233.710907	145.880000
233.803635	146.260000
233.896347	145.840000
233.989090	146.860000
234.081818	146.960000
234.174545	147.160000
234.267258	146.740000
234.359985	146.900000
234.452713	146.560000
234.545441	146.580000
234.638168	146.580000
234.730896	147.000000
234.823639	147.040000
234.916367	147.220000
235.009094	147.400000
235.101822	147.460000
235.194580	147.280000
235.287308	147.040000
235.380051	146.180000
235.472778	146.500000
235.565521	146.740000
235.658249	146.340000
235.750992	146.480000
235.843719	146.940000
235.936462	146.700000
236.029205	146.300000
236.121948	146.240000
236.214691	146.500000
236.307449	147.120000
236.400192	146.620000
236.492935	146.440000
236.585678	146.640000
236.678421	146.560000
236.771164	146.280000
236.863907	147.160000
236.956665	147.460000
237.049408	149.020000
237.142151	148.420000
237.234909	148.980000
237.327652	148.600000
237.420410	148.500000
237.513153	147.580000
237.605927	147.640000
237.698669	147.060000
237.791428	146.440000
237.884186	146.960000
237.976944	146.280000
238.069702	146.440000
238.162445	145.840000
238.255203	145.820000
238.347961	145.860000
238.440720	145.820000
238.533478	145.740000
238.626266	145.500000
238.719025	146.320000
238.811783	146.120000
238.904541	146.140000
238.997314	146.080000
239.090073	146.100000
239.182831	146.020000
239.275604	146.440000
239.368362	146.520000
239.461136	146.960000
239.553909	147.200000
239.646667	146.900000
239.739441	146.200000
239.832214	146.700000
239.925003	146.540000
240.017761	147.320000
240.110535	147.740000
240.203308	147.540000
240.296082	147.340000
240.388855	147.280000
240.481628	146.700000
240.574417	146.700000
240.667191	146.720000
240.759964	146.340000
240.852737	146.080000
240.945526	146.060000
241.038315	145.880000
241.131088	146.300000
241.223877	146.820000
241.316650	146.700000
241.409439	146.980000
241.502228	146.420000
241.595001	146.800000
241.687790	146.360000
241.780579	146.580000
241.873367	146.460000
241.966141	147.000000
242.058929	146.220000
242.151718	146.480000
242.244507	146.940000
242.337311	146.420000
242.430099	146.460000
242.522903	146.780000
242.615692	146.160000
242.708481	146.140000
242.801270	146.780000
242.894073	146.560000
242.986862	146.500000
243.079651	147.160000
243.172455	146.620000
243.265244	146.600000
243.358063	146.340000
243.450867	146.500000
243.543655	146.500000
243.636459	146.620000
243.729263	146.540000
243.822067	147.000000
243.914856	147.160000
244.007660	147.140000
244.100464	147.140000
244.193268	146.760000
244.286072	146.460000
244.378876	146.080000
244.471680	145.860000
244.564499	146.160000
244.657318	147.220000
244.750122	147.500000
244.842926	147.220000
244.935745	147.760000
245.028549	147.260000
245.121368	146.300000
245.214172	146.160000
245.306992	146.800000
245.399796	146.040000
245.492615	146.540000
245.585434	146.520000
245.678253	146.340000
245.771072	146.100000
245.863892	146.420000
245.956711	146.480000
246.049530	146.360000
246.142349	146.440000
246.235168	146.340000
246.327988	146.960000
246.420807	146.700000
246.513626	146.900000
246.606445	146.800000
246.699280	146.900000
246.792099	146.400000
246.884918	145.580000
246.977753	145.240000
247.070587	145.380000
247.163422	145.320000
247.256241	145.160000
247.349075	146.040000
247.441895	146.280000
247.534729	146.120000
247.627563	146.000000
247.720383	146.780000
247.813217	146.920000
247.906052	147.080000
247.998886	146.980000
248.091736	146.920000
248.184570	146.120000
248.277405	146.140000
248.370239	146.900000
248.463074	147.960000
248.555908	148.240000
248.648743	148.360000
248.741592	148.220000
248.834427	147.180000
248.927261	146.040000
249.020111	146.300000
249.112946	146.700000
249.205795	146.160000
249.298630	146.580000
249.391495	146.560000
249.484344	145.940000
249.577179	145.800000
249.670029	146.240000
249.762878	146.740000
249.855728	147.140000
249.948563	147.300000
250.041412	147.000000
250.134262	147.100000
250.227112	146.940000
250.319962	146.760000
250.412827	146.780000
250.505692	146.100000
250.598541	146.360000
250.691391	146.000000
250.784241	146.320000
250.877106	146.380000
250.969955	146.780000
251.062805	147.080000
251.155670	147.640000
251.248520	147.300000
251.341385	147.620000
251.434235	147.640000
251.527100	147.160000
251.619965	146.520000
251.712814	147.460000
251.805695	147.360000
251.898560	147.600000
251.991425	147.900000
252.084290	148.080000
252.177155	146.900000
252.270020	146.620000
252.362885	146.640000
252.455750	146.340000
252.548615	146.060000
252.641479	146.220000
252.734360	146.180000
252.827240	145.860000
252.920105	145.940000
253.012970	145.740000
253.105850	145.840000
253.198715	145.840000
253.291595	146.240000
253.384460	145.780000
253.477341	146.080000
253.570221	146.340000
253.663086	146.040000
253.755966	146.420000
253.848846	146.900000
253.941727	147.020000
254.034592	146.780000
254.127472	146.480000
254.220367	146.340000
254.313248	146.280000
254.406128	145.880000
254.499008	146.240000
254.591904	147.300000
254.684784	147.580000
254.777664	147.580000
254.870544	147.440000
254.963440	147.280000
255.056335	147.240000
255.149216	146.700000
255.242111	147.060000
255.334991	147.820000
255.427887	147.880000
255.520767	147.680000
255.613663	147.880000
255.706558	147.100000
255.799438	146.660000
255.892334	146.180000
255.985229	146.040000
256.078125	145.600000
256.171021	146.060000
256.263916	146.580000
256.356812	147.060000
256.449707	147.420000
256.542603	147.520000
256.635498	147.620000
256.728394	147.180000
256.821289	147.000000
256.914215	146.940000
257.007080	147.420000
257.100006	147.480000
257.192932	147.880000
257.285828	148.100000
257.378723	147.780000
257.471619	147.140000
257.564545	146.540000
257.657440	146.560000
257.750336	147.120000
257.843262	146.900000
257.936157	148.200000
258.029053	148.660000
258.121979	148.460000
258.214874	148.100000
258.307800	148.200000
258.400696	146.820000
258.493622	146.820000
258.586517	146.080000
258.679443	145.980000
258.772339	145.620000
258.865265	145.660000
258.958160	145.120000
259.051086	145.960000
259.144012	145.420000
259.236938	146.380000
259.329834	146.580000
259.422791	146.440000
259.515717	146.000000
259.608612	145.860000
259.701538	145.680000
259.794464	145.660000
259.887390	145.720000
259.980316	145.500000
260.073212	145.620000
260.166138	144.740000
260.259064	145.100000
260.351990	145.640000
260.444916	145.700000
260.537842	146.220000
260.630768	147.000000
260.723694	146.840000
260.816620	146.760000
260.909546	146.980000
261.002472	146.540000
261.095398	146.020000
261.188354	145.960000
261.281281	145.660000
261.374207	145.860000
261.467133	146.500000
261.560089	146.880000
261.653015	146.660000
261.745972	147.400000
261.838867	147.560000
261.931824	147.960000
262.024780	147.500000
262.117706	147.680000
262.210663	147.580000
262.303589	147.120000
262.396515	146.400000
262.489471	147.180000
262.582397	147.300000
262.675354	146.540000
262.768280	146.620000
262.861237	146.840000
262.954163	146.500000
263.047119	146.480000
263.140045	146.420000
263.233002	146.300000
263.325958	146.160000
263.418884	145.700000
263.511841	145.520000
263.604797	145.800000
263.697723	145.940000
263.790680	145.680000
263.883636	146.300000
263.976593	146.080000
264.069550	146.340000
264.162476	146.140000
264.255463	146.320000
264.348419	145.900000
264.441376	146.580000
264.534332	146.020000
264.627289	146.260000
264.720245	146.560000
264.813202	146.740000
264.906158	146.660000
264.999115	147.440000
265.092072	147.180000
265.185028	147.660000
265.277985	147.560000
265.370941	147.160000
265.463898	146.840000
265.556854	146.620000
265.649811	145.220000
265.742798	145.480000
265.835754	145.680000
265.928711	146.020000
266.021667	146.620000
266.114655	146.980000
266.207611	147.160000
266.300568	146.600000
266.393585	146.120000
266.486511	146.300000
266.579498	145.940000
266.672485	145.600000
266.765442	145.940000
266.858429	146.460000
266.951385	145.960000
267.044342	146.420000
267.137329	146.400000
267.230316	146.420000
267.323273	145.640000
267.416260	146.400000
267.509216	146.340000
267.602203	146.120000
267.695160	146.740000
267.788147	147.040000
267.881134	146.280000
267.974091	146.680000
268.067078	146.700000
268.160065	145.860000
268.253052	145.800000
268.346008	145.980000
268.438995	145.440000
268.531982	145.800000
268.624969	145.780000
268.717987	146.140000
268.810944	145.980000
268.903961	146.080000
268.996948	145.700000
269.089905	146.480000
269.182892	146.320000
269.275879	146.700000
269.368866	146.560000
269.461853	147.180000
269.554871	146.700000
269.647858	146.780000
269.740845	146.900000
269.833832	147.200000
269.926819	146.560000
270.019806	146.600000
270.112793	145.940000
270.205811	146.040000
270.298798	145.680000
270.391785	146.280000
270.484772	146.160000
270.577789	146.500000
270.670776	146.000000
270.763763	146.040000
270.856750	145.880000
270.949768	145.840000
271.042786	146.220000
271.135773	146.260000
271.228790	146.720000
271.321808	146.180000
271.414795	145.760000
271.507782	145.100000
271.600800	144.960000
271.693817	145.060000
271.786804	145.540000
271.879822	146.200000
271.972809	146.600000
272.065826	146.980000
272.158844	146.360000
272.251831	146.620000
272.344849	146.420000
272.437866	146.260000
272.530853	146.240000
272.623871	146.860000
272.716888	145.820000
272.809906	146.100000
272.902893	146.080000
272.995911	145.460000
273.088928	145.140000
273.181946	145.700000
273.274963	145.320000
273.367981	145.340000
273.460999	145.700000
273.554047	145.760000
273.647003	146.560000
273.740051	146.620000
273.833069	147.020000
273.926086	147.220000
274.019135	147.060000
274.112152	146.240000
274.205170	146.360000
274.298187	146.540000
274.391205	146.160000
274.484222	146.400000
274.577240	146.580000
274.670258	146.640000
274.763306	146.020000
274.856323	146.360000
274.949341	146.300000
275.042358	146.580000
275.135406	146.300000
275.228424	146.440000
275.321442	146.300000
275.414490	145.940000
275.507507	146.200000
275.600525	146.680000
275.693573	146.520000
275.786591	146.440000
275.879669	146.840000
275.972656	146.400000
276.065735	146.260000
276.158752	146.760000
276.251801	147.360000
276.344818	147.180000
276.437866	147.000000
276.530884	146.640000
276.623932	145.940000
276.716980	146.040000
276.809998	146.340000
276.903046	146.700000
276.996094	147.580000
277.089111	148.260000
277.182159	148.460000
277.275208	148.140000
277.368256	147.820000
277.461304	147.520000
277.554321	146.700000
277.647369	146.020000
277.740417	145.980000
277.833466	146.020000
277.926514	145.660000
278.019562	146.500000
278.112610	145.980000
278.205688	146.180000
278.298706	146.180000
278.391785	146.140000
278.484833	145.440000
278.577881	145.580000
278.670929	145.680000
278.763977	146.020000
278.857025	146.120000
278.950073	146.360000
279.043121	146.280000
279.136169	146.140000
279.229248	145.920000
279.322296	145.980000
279.415344	145.660000
279.508392	145.940000
279.601440	145.820000
279.694519	145.500000
279.787567	145.280000
279.880615	145.520000
279.973694	145.480000
280.066742	145.760000
280.159790	146.060000
280.252869	146.060000
280.345917	146.180000
280.438995	146.200000
280.532074	146.380000
280.625122	146.620000
280.718201	147.340000
280.811279	147.500000
280.904327	147.580000
280.997406	147.400000
281.090454	147.220000
281.183533	146.460000
281.276581	146.100000
281.369659	145.940000
281.462738	146.080000
281.555786	145.920000
281.648865	146.000000
281.741943	146.060000
281.835022	146.680000
281.928070	146.080000
282.021149	146.080000
282.114227	145.880000
282.207306	145.960000
282.300385	145.920000
282.393433	146.460000
282.486511	146.460000
282.579590	147.020000
282.672668	147.240000
282.765747	146.660000
282.858856	146.360000
282.951904	146.560000
283.045013	146.420000
283.138062	146.480000
283.231171	146.500000
283.324249	146.740000
283.417328	146.600000
283.510406	146.240000
283.603485	146.200000
283.696564	146.260000
283.789642	146.600000
283.882751	146.080000
283.975830	146.860000
284.068909	146.300000
284.161987	146.960000
284.255066	146.040000
284.348175	146.440000
284.441254	146.300000
284.534332	146.860000
284.627441	146.240000
284.720520	146.260000
284.813599	146.460000
284.906708	146.300000
284.999786	145.640000
285.092896	145.420000
285.185974	146.480000
285.279053	146.060000
285.372192	146.180000
285.465240	147.180000
285.558380	147.220000
285.651459	146.600000
285.744568	147.700000
285.837677	147.380000
285.930756	147.020000
286.023865	147.160000
286.116943	146.720000
286.210052	146.100000
286.303162	145.980000
286.396240	146.100000
286.489349	146.000000
286.582458	146.660000
286.675568	146.260000
286.768646	145.920000
286.861755	145.960000
286.954865	146.580000
287.047974	145.920000
287.141083	145.980000
287.234161	146.400000
287.327271	146.040000
287.420380	146.200000
287.513519	146.320000
287.606598	146.560000
287.699738	146.540000
287.792816	146.680000
287.885956	146.000000
287.979034	146.280000
288.072174	146.220000
288.165283	146.420000
288.258392	146.620000
288.351501	146.380000
288.444611	146.460000
288.537720	146.800000
288.630859	146.540000
288.723969	146.560000
288.817078	147.180000
288.910187	146.800000
289.003296	146.160000
289.096436	145.720000
289.189545	145.540000
289.282654	145.120000
289.375763	145.720000
289.468903	146.220000
289.562012	147.040000
289.655121	146.980000
289.748260	147.020000
289.841400	147.040000
289.934509	146.960000
290.027649	146.880000
290.120728	146.580000
290.213898	146.480000
290.306976	146.240000
290.400146	146.340000
290.493256	145.940000
290.586395	146.500000
290.679535	146.820000
290.772644	146.460000
290.865784	145.760000
290.958893	145.620000
291.052032	145.320000
291.145172	145.020000
291.238281	144.780000
291.331421	144.960000
291.424561	145.620000
291.517670	145.420000
291.610809	145.760000
291.703949	145.840000
291.797089	146.180000
291.890228	145.840000
291.983337	146.180000
292.076477	146.040000
292.169617	146.660000
292.262756	146.780000
292.355927	146.440000
292.449036	145.940000
292.542206	146.220000
292.635315	146.220000
292.728485	146.360000
292.821625	146.620000
292.914764	147.960000
293.007904	147.800000
293.101044	147.560000
293.194183	147.280000
293.287323	147.500000
293.380463	146.480000
293.473602	146.460000
293.566742	146.620000
293.659882	147.180000
293.753021	147.260000
293.846191	147.240000
293.939331	146.880000
294.032471	146.620000
294.125610	146.000000
294.218781	146.220000
294.311920	146.780000
294.405060	147.020000
294.498230	147.320000
294.591370	147.480000
294.684540	146.560000
294.777679	146.100000
294.870850	146.140000
294.963959	145.820000
295.057159	145.500000
295.150299	145.960000
295.243469	145.720000
295.336609	145.340000
295.429779	145.400000
295.522919	145.760000
295.616089	146.000000
295.709229	146.860000
295.802399	147.040000
295.895569	147.040000
295.988708	147.040000
296.081879	146.660000
296.175018	145.940000
296.268188	146.120000
296.361359	146.360000
296.454529	146.640000
296.547668	146.820000
296.640839	147.080000
296.734009	146.900000
296.827179	146.920000
296.920319	146.780000
297.013519	146.420000
297.106659	146.500000
297.199860	146.640000
297.292999	146.640000
297.386200	146.440000
297.479309	146.800000
297.572510	146.700000
297.665680	146.420000
297.758850	146.260000
297.852020	146.100000
297.945190	145.680000
298.038361	145.400000
298.131531	146.240000
298.224701	146.300000
298.317871	146.260000
298.411072	146.180000
298.504242	145.960000
298.597412	145.160000
298.690582	145.440000
298.783752	145.360000
298.876923	145.780000
298.970093	146.180000
299.063293	146.820000
299.156464	147.080000
299.249634	147.540000
299.342834	147.540000
299.436005	147.820000
299.529205	147.600000
299.622345	147.300000
299.715576	146.580000
299.808716	146.320000
299.901917	146.320000
299.995117	146.160000
300.088287	145.980000
300.181488	145.720000
300.274658	145.660000
300.367828	145.360000
300.461029	145.380000
300.554199	145.520000
300.647400	146.220000
300.740601	147.140000
300.833771	147.060000
300.926971	147.420000
301.020142	146.800000
301.113342	146.520000
301.206512	145.860000
301.299713	145.880000
301.392914	145.640000
301.486084	146.340000
301.579285	146.460000
301.672516	146.880000
301.765686	146.980000
301.858887	146.800000
301.952057	146.640000
302.045288	146.680000
302.138458	146.440000
302.231659	146.260000
302.324860	146.420000
302.418060	146.220000
302.511261	146.180000
302.604462	146.540000
302.697662	146.260000
302.790863	145.980000
302.884064	145.660000
302.977264	145.660000
303.070465	145.560000
303.163666	146.680000
303.256866	146.920000
303.350067	147.080000
303.443268	147.060000
303.536469	147.220000
303.629669	146.520000
303.722870	146.720000
303.816071	146.760000
303.909271	146.800000
304.002472	146.100000
304.095673	145.720000
304.188934	145.080000
304.282104	146.140000
304.375336	146.140000
304.468506	146.380000
304.561768	146.600000
304.654968	147.200000
304.748169	146.160000
304.841370	146.140000
304.934601	146.260000
305.027802	146.200000
305.121002	145.780000
305.214233	146.120000
305.307434	146.080000
305.400665	146.640000
305.493866	146.460000
305.587097	146.800000
305.680298	146.620000
305.773499	147.240000
305.866730	146.660000
305.959930	147.300000
306.053162	147.540000
306.146393	147.220000
306.239594	146.360000
306.332825	146.420000
306.426025	146.560000
306.519287	146.040000
306.612488	146.480000
306.705719	146.600000
306.798920	146.400000
306.892181	145.600000
306.985352	145.360000
307.078613	144.940000
307.171844	145.360000
307.265045	145.080000
307.358276	145.080000
307.451508	145.680000
307.544739	146.080000
307.637970	146.000000
307.731201	146.120000
307.824402	147.000000
307.917633	147.120000
308.010864	147.460000
308.104095	147.640000
308.197327	147.760000
308.290558	147.160000
308.383789	146.780000
308.477020	146.260000
308.570251	145.720000
308.663483	145.460000
308.756714	145.320000
308.849976	145.180000
308.943176	145.720000
309.036438	145.420000
309.129639	145.060000
309.222900	145.260000
309.316101	145.360000
309.409393	144.640000
309.502625	144.640000
309.595856	145.040000
309.689087	145.440000
309.782318	145.260000
309.875580	145.560000
309.968811	146.140000
310.062042	146.060000
310.155273	145.680000
310.248535	146.500000
310.341766	146.260000
310.434998	146.080000
310.528259	146.140000
310.621490	146.420000
310.714722	145.640000
310.807983	145.780000
310.901215	145.800000
310.994476	146.320000
311.087708	145.900000
311.181000	146.020000
311.274200	145.900000
311.367462	146.160000
311.460693	145.540000
311.553986	146.160000
311.647186	146.600000
311.740479	147.160000
311.833710	146.520000
311.926971	146.540000
312.020203	145.720000
312.113464	145.260000
312.206726	144.620000
312.299957	145.240000
312.393219	145.920000
312.486481	146.320000
312.579712	146.380000
312.672974	146.460000
312.766235	146.260000
312.859497	145.840000
312.952759	145.580000
313.045990	146.280000
313.139252	145.740000
313.232513	145.920000
313.325775	146.160000
313.419037	146.080000
313.512299	145.200000
313.605530	146.100000
313.698822	145.900000
313.792053	145.580000
313.885345	145.760000
313.978577	146.060000
314.071869	145.560000
314.165131	145.700000
314.258392	146.160000
314.351654	146.140000
314.444916	145.400000
314.538177	145.780000
314.631439	146.040000
314.724701	145.640000
314.817993	145.580000
314.911255	146.380000
315.004517	145.940000
315.097778	145.900000
315.191040	146.540000
315.284302	146.620000
315.377594	145.880000
315.470856	146.240000
315.564117	145.420000
315.657379	144.600000
315.750671	144.600000
315.843933	145.260000
315.937195	144.720000
316.030518	145.060000
316.123749	145.200000
316.217041	145.620000
316.310303	145.440000
316.403595	145.740000
316.496857	145.880000
316.590149	146.060000
316.683411	145.360000
316.776703	145.160000
316.869965	145.260000
316.963257	144.900000
317.056519	144.160000
317.149811	144.480000
317.243073	144.620000
317.336365	144.760000
317.429626	145.280000
317.522919	145.900000
317.616180	145.920000
317.709473	146.020000
317.802765	145.920000
317.896027	145.620000
317.989319	145.940000
318.082611	145.740000
318.175873	145.320000
318.269165	145.400000
318.362488	145.580000
318.455750	145.300000
318.549042	145.680000
318.642303	146.420000
318.735626	146.180000
318.828888	146.060000
318.922211	145.600000
319.015472	145.900000
319.108765	145.140000
319.202057	144.820000
319.295349	145.200000
319.388641	145.700000
319.481934	145.340000
319.575226	145.460000
319.668518	145.920000
319.761810	146.040000
319.855103	146.120000
319.948395	146.260000
320.041687	146.680000
320.134979	146.780000
320.228271	146.360000
320.321564	146.200000
320.414856	146.060000
320.508148	145.740000
320.601440	145.580000
320.694763	145.660000
320.788025	146.200000
320.881348	146.280000
320.974640	146.340000
321.067963	145.700000
321.161224	145.560000
321.254547	144.680000
321.347839	145.200000
321.441162	144.880000
321.534454	145.620000
321.627747	145.400000
321.721069	146.260000
321.814362	145.860000
321.907654	145.920000
322.000946	145.820000
322.094269	146.320000
322.187561	145.660000
322.280884	146.100000
322.374176	146.600000
322.467468	146.980000
322.560791	146.840000
322.654083	147.440000
322.747406	147.060000
322.840698	146.900000
322.934021	146.960000
323.027344	147.200000
323.120636	146.880000
323.213959	146.700000
323.307251	146.140000
323.400574	145.700000
323.493866	145.140000
323.587219	145.380000
323.680511	145.620000
323.773834	146.220000
323.867157	146.380000
323.960449	146.740000
324.053772	146.340000
324.147095	146.320000
324.240387	146.620000
324.333710	146.820000
324.427032	146.940000
324.520355	146.920000
324.613647	146.500000
324.706970	146.300000
324.800293	145.860000
324.893616	146.100000
324.986938	146.260000
325.080231	146.180000
325.173553	146.360000
325.266876	147.020000
325.360199	146.740000
325.453522	146.460000
325.546875	146.320000
325.640167	146.760000
325.733521	146.620000
325.826813	146.680000
325.920166	146.420000
326.013489	146.700000
326.106812	145.520000
326.200134	144.900000
326.293457	144.560000
326.386780	144.980000
326.480103	144.960000
326.573425	145.120000
326.666748	145.640000
326.760071	145.860000
326.853424	145.860000
326.946747	145.800000
327.040070	146.700000
327.133392	146.380000
327.226715	145.900000
327.320068	145.720000
327.413391	146.200000
327.506714	145.280000
327.600037	145.160000
327.693390	145.500000
327.786713	145.620000
327.880066	145.320000
327.973358	145.600000
328.066742	146.420000
328.160034	146.540000
328.253418	146.780000
328.346710	146.640000
328.440063	146.560000
328.533417	146.020000
328.626740	146.040000
328.720093	145.800000
328.813416	145.640000
328.906769	145.500000
329.000092	145.560000
329.093445	145.380000
329.186768	145.300000
329.280121	146.020000
329.373444	146.400000
329.466797	146.400000
329.560120	146.540000
329.653473	146.620000
329.746796	146.180000
329.840149	146.240000
329.933502	146.160000
330.026825	146.220000
330.120178	146.060000
330.213562	145.920000
330.306854	146.040000
330.400238	146.180000
330.493561	145.980000
330.586945	146.900000
330.680237	147.120000
330.773621	146.860000
330.866974	146.960000
330.960327	147.280000
331.053680	146.740000
331.147003	147.040000
331.240356	147.260000
331.333710	146.980000
331.427063	146.640000
331.520416	146.260000
331.613770	146.040000
331.707123	146.020000
331.800476	146.240000
331.893829	147.040000
331.987152	147.480000
332.080505	147.440000
332.173859	147.420000
332.267212	147.040000
332.360565	146.240000
332.453918	145.860000
332.547333	145.620000
332.640656	145.620000
332.734039	145.720000
332.827362	145.880000
332.920746	146.220000
333.014069	146.460000
333.107452	146.600000
333.200806	146.780000
333.294159	146.680000
333.387543	146.360000
333.480896	145.860000
333.574249	145.580000
333.667603	145.300000
333.760956	145.840000
333.854340	145.880000
333.947693	146.320000
334.041046	146.180000
334.134430	146.640000
334.227783	145.920000
334.321136	145.720000
334.414520	145.560000
334.507874	146.000000
334.601227	145.900000
334.694611	146.080000
334.787964	146.280000
334.881348	146.400000
334.974701	146.140000
335.068085	145.540000
335.161438	145.840000
335.254822	145.740000
335.348175	145.680000
335.441559	145.340000
335.534943	146.260000
335.628296	146.060000
335.721680	146.120000
335.815033	145.960000
335.908417	146.440000
336.001770	146.180000
336.095154	146.120000
336.188538	146.020000
336.281891	146.140000
336.375275	145.440000
336.468658	145.200000
336.562012	145.180000
336.655396	145.780000
336.748779	146.020000
336.842133	146.600000
336.935516	146.800000
337.028900	146.660000
337.122284	146.300000
337.215637	146.380000
337.309021	146.260000
337.402435	145.800000
337.495789	145.940000
337.589203	145.760000
337.682526	145.160000
337.775940	145.400000
337.869324	145.700000
337.962708	145.260000
338.056091	145.700000
338.149475	145.840000
338.242859	145.780000
338.336243	145.180000
338.429626	145.640000
338.523010	145.440000
338.616394	145.280000
338.709778	145.420000
338.803162	146.040000
338.896545	146.000000
338.989929	145.740000
339.083313	146.300000
339.176697	145.480000
339.270081	145.300000
339.363464	145.780000
339.456848	146.140000
339.550232	145.500000
339.643616	145.860000
339.737030	145.760000
339.830383	145.160000
339.923828	145.200000
340.017181	145.580000
340.110596	145.620000
340.203949	145.460000
340.297363	145.220000
340.390778	145.180000
340.484161	145.340000
340.577545	145.260000
340.670959	145.820000
340.764343	146.060000
340.857727	145.980000
340.951111	145.260000
341.044525	145.360000
341.137909	144.780000
341.231293	144.740000
341.324707	144.240000
341.418091	144.940000
341.511505	144.860000
341.604889	145.460000
341.698303	145.420000
341.791687	145.860000
341.885071	145.400000
341.978485	145.120000
342.071899	145.020000
342.165283	145.580000
342.258698	145.760000
342.352081	146.280000
342.445496	147.320000
342.538879	147.300000
342.632324	146.540000
342.725708	146.380000
342.819122	145.860000
342.912506	145.360000
343.005920	145.040000
343.099335	146.140000
343.192719	145.900000
343.286133	146.320000
343.379547	146.260000
343.472931	146.600000
343.566345	145.960000
343.659760	146.320000
343.753143	145.700000
343.846558	145.460000
343.939972	145.180000
344.033386	145.320000
344.126770	145.160000
344.220184	145.500000
344.313599	145.960000
344.407043	146.020000
344.500427	145.660000
344.593872	146.160000
344.687225	145.980000
344.780670	145.580000
344.874054	145.560000
344.967499	145.940000
345.060913	145.580000
345.154327	145.580000
345.247742	145.620000
345.341156	145.600000
345.434570	145.440000
345.527985	145.600000
345.621399	145.660000
345.714813	145.640000
345.808228	145.740000
345.901642	145.260000
345.995056	144.660000
346.088470	145.300000
346.181885	145.400000
346.275299	145.360000
346.368713	145.480000
346.462128	145.560000
346.555573	145.020000
346.648987	145.440000
346.742401	145.120000
346.835815	145.740000
346.929260	145.480000
347.022644	145.760000
347.116119	145.760000
347.209503	146.180000
347.302948	146.720000
347.396362	147.840000
347.489807	147.800000
347.583221	147.920000
347.676636	147.840000
347.770050	146.720000
347.863495	145.940000
347.956909	146.020000
348.050323	145.400000
348.143768	145.400000
348.237183	145.480000
348.330597	146.020000
348.424042	146.000000
348.517456	146.360000
348.610901	146.480000
348.704315	146.460000
348.797760	145.840000
348.891174	145.540000
348.984619	145.060000
349.078033	145.160000
349.171448	145.800000
349.264923	145.880000
349.358337	145.640000
349.451782	145.780000
349.545197	145.280000
349.638641	144.540000
349.732086	143.800000
349.825500	144.560000
349.918945	144.280000
350.012390	145.180000
350.105804	145.620000
350.199249	146.360000
350.292664	146.540000
350.386108	146.960000
350.479553	146.880000
350.572968	146.820000
350.666412	147.180000
350.759857	146.640000
350.853302	147.160000
350.946716	146.500000
351.040161	146.840000
351.133606	146.700000
351.227081	146.860000
351.320465	147.100000
351.413940	147.500000
351.507355	147.120000
351.600830	147.080000
351.694244	146.860000
351.787720	146.040000
351.881104	145.980000
351.974579	145.880000
352.067993	146.600000
352.161469	146.560000
352.254883	146.420000
352.348358	146.060000
352.441803	146.340000
352.535248	145.660000
352.628693	145.980000
352.722137	146.460000
352.815582	146.840000
352.909027	146.740000
353.002472	146.480000
353.095917	146.240000
353.189362	146.320000
353.282806	146.480000
353.376251	146.260000
353.469696	146.140000
353.563141	146.740000
353.656586	146.160000
353.750061	145.540000
353.843475	145.740000
353.936981	146.280000
354.030396	145.460000
354.123871	145.720000
354.217285	146.640000
354.310760	146.860000
354.404175	146.780000
354.497681	146.780000
354.591095	146.580000
354.684570	145.420000
354.777985	145.000000
354.871490	144.760000
354.964935	145.300000
355.058380	145.620000
355.151855	145.880000
355.245300	146.160000
355.338745	146.360000
355.432220	146.120000
355.525665	145.460000
355.619110	145.860000
355.712585	145.620000
355.806030	145.360000
355.899475	145.060000
355.992950	145.840000
356.086426	146.260000
356.179871	146.460000
356.273346	146.840000
356.366791	147.180000
356.460266	147.120000
356.553711	146.320000
356.647186	146.220000
356.740631	145.860000
356.834106	145.560000
356.927551	145.500000
357.021027	145.820000
357.114471	146.040000
357.207947	146.180000
357.301422	146.360000
357.394867	146.360000
357.488342	146.500000
357.581818	146.320000
357.675262	146.400000
357.768738	146.280000
357.862213	145.740000
357.955658	145.520000
358.049133	145.360000
358.142609	145.500000
358.236053	145.500000
358.329529	145.760000
358.423035	146.020000
358.516449	145.700000
358.609955	146.200000
358.703400	146.660000
358.796906	146.740000
358.890350	146.260000
358.983826	146.640000
359.077271	145.800000
359.170776	145.720000
359.264221	145.600000
359.357727	146.040000
359.451172	146.600000
359.544647	146.600000
359.638123	146.260000
359.731598	146.920000
359.825073	146.880000
359.918549	146.520000
360.012024	146.700000
360.105499	146.460000
360.198975	146.000000
360.292450	145.780000
360.385925	145.560000
360.479401	145.320000
360.572876	145.560000
360.666351	145.940000
360.759857	145.880000
360.853302	146.060000
360.946808	145.800000
361.040253	145.800000
361.133759	145.180000
361.227203	145.460000
361.320709	145.100000
361.414154	145.380000
361.507660	145.660000
361.601105	146.180000
361.694641	146.460000
361.788086	146.440000
361.881592	146.980000
361.975067	146.700000
362.068542	146.820000
362.162018	146.580000
362.255524	146.440000
362.348999	146.140000
362.442474	146.520000
362.535950	145.960000
362.629456	145.480000
362.722931	145.540000
362.816406	145.920000
362.909882	145.920000
363.003387	145.760000
363.096863	146.320000
363.190338	146.420000
363.283875	146.160000
363.377319	146.000000
363.470825	146.480000
363.564301	146.020000
363.657806	146.440000
363.751282	145.820000
363.844788	146.300000
363.938232	145.780000
364.031769	146.500000
364.125214	146.620000
364.218750	147.240000
364.312225	146.160000
364.405731	146.580000
364.499207	145.840000
364.592712	145.300000
364.686188	144.960000
364.779694	145.180000
364.873169	144.940000
364.966675	144.900000
365.060150	145.160000
365.153656	145.740000
365.247131	146.100000
365.340637	146.420000
365.434143	147.040000
365.527618	146.940000
365.621155	146.120000
365.714600	146.040000
365.808136	146.000000
365.901611	145.260000
365.995117	145.080000
366.088593	145.200000
366.182129	145.100000
366.275604	145.060000
366.369110	145.260000
366.462585	145.700000
366.556122	146.300000
366.649567	146.100000
366.743103	146.240000
366.836609	146.220000
366.930115	146.220000
367.023590	146.100000
367.117096	146.420000
367.210602	146.140000
367.304108	146.880000
367.397614	147.080000
367.491119	147.140000
367.584595	147.480000
367.678101	147.760000
367.771606	147.060000
367.865112	146.600000
367.958649	145.980000
368.052124	145.460000
368.145660	145.340000
368.239136	145.680000
368.332672	145.960000
368.426147	146.140000
368.519684	145.820000
368.613159	146.100000
368.706696	145.920000
368.800171	145.700000
368.893707	145.600000
368.987183	146.000000
369.080719	146.060000
369.174225	146.100000
369.267731	146.340000
369.361237	146.240000
369.454742	145.900000
369.548248	145.720000
369.641754	144.880000
369.735260	144.420000
369.828766	144.300000
369.922272	145.280000
370.015808	145.080000
370.109314	145.720000
370.202820	145.700000
370.296356	146.800000
370.389832	146.180000
370.483368	145.900000
370.576874	145.920000
370.670410	146.220000
370.763885	145.240000
370.857422	145.040000
370.950928	145.100000
371.044464	145.720000
371.137939	145.740000
371.231476	145.980000
371.324982	146.680000
371.418518	146.760000
371.512024	146.480000
371.605560	146.460000
371.699066	146.780000
371.792572	146.100000
371.886108	146.660000
371.979614	146.140000
372.073120	146.580000
372.166656	146.260000
372.260162	146.800000
372.353668	146.240000
372.447205	146.340000
372.540710	145.980000
372.634277	145.660000
372.727753	145.540000
372.821320	145.780000
372.914795	145.860000
373.008362	145.840000
373.101837	146.540000
373.195404	146.340000
373.288879	146.040000
373.382446	146.640000
373.475922	146.700000
373.569489	146.960000
373.662964	147.320000
373.756531	147.800000
373.850037	147.580000
373.943573	147.360000
374.037109	146.460000
374.130615	146.500000
374.224152	146.480000
374.317657	146.340000
374.411194	147.220000
374.504730	147.200000
374.598236	146.720000
374.691772	146.300000
374.785309	146.440000
374.878815	145.680000
374.972351	146.200000
375.065887	146.300000
375.159454	147.060000
375.252930	146.660000
375.346497	146.520000
375.440002	146.820000
375.533569	146.680000
375.627045	146.080000
375.720612	146.360000
375.814117	146.620000
375.907684	146.140000
376.001160	146.100000
376.094727	145.600000
376.188232	145.940000
376.281799	146.060000
376.375336	146.160000
376.468872	146.600000
376.562408	147.240000
376.655914	146.760000
376.749451	146.880000
376.842987	147.120000
376.936523	146.980000
377.030060	146.880000
377.123596	147.340000
377.217133	146.900000
377.310669	146.580000
377.404205	146.880000
377.497772	147.120000
377.591278	146.680000
377.684845	147.580000
377.778351	147.880000
377.871918	147.800000
377.965424	147.360000
378.058990	147.120000
378.152496	146.420000
378.246063	146.560000
378.339569	146.660000
378.433136	146.560000
378.526642	146.720000
378.620209	146.600000
378.713745	146.220000
378.807312	146.420000
378.900848	146.480000
378.994385	146.780000
379.087921	146.240000
379.181458	146.620000
379.274994	145.820000
379.368530	145.660000
379.462097	145.800000
379.555634	146.480000
379.649170	145.740000
379.742706	145.700000
379.836273	146.080000
379.929810	145.620000
380.023376	145.200000
380.116882	145.440000
380.210449	145.740000
380.303986	145.140000
380.397552	144.960000
380.491058	145.380000
380.584656	145.540000
380.678162	145.680000
380.771729	145.960000
380.865265	146.840000
380.958832	146.780000
381.052368	146.820000
381.145935	146.900000
381.239471	147.220000
381.333008	146.940000
381.426575	146.880000
381.520111	147.080000
381.613647	147.320000
381.707214	146.960000
381.800751	146.220000
381.894318	146.420000
381.987854	146.020000
382.081421	145.500000
382.174988	145.920000
382.268524	146.200000
382.362091	145.980000
382.455627	146.720000
382.549194	146.660000
382.642731	146.000000
382.736298	145.720000
382.829834	145.640000
382.923401	145.780000
383.016937	146.060000
383.110504	146.700000
383.204041	146.780000
383.297607	147.220000
383.391174	146.220000
383.484741	146.760000
383.578278	146.180000
383.671844	145.960000
383.765411	145.240000
383.858948	145.780000
383.952515	145.380000
384.046051	146.200000
384.139618	146.840000
384.233185	147.200000
384.326721	147.180000
384.420288	147.580000
384.513855	147.300000
384.607422	147.380000
384.700989	147.720000
384.794525	147.280000
384.888123	146.860000
384.981659	146.760000
385.075226	146.400000
385.168762	145.800000
385.262360	146.040000
385.355896	145.480000
385.449463	145.340000
385.542999	145.460000
385.636597	146.300000
385.730164	146.420000
385.823730	146.120000
385.917267	145.620000
386.010834	145.820000
386.104401	145.580000
386.197968	145.540000
386.291534	146.080000
386.385101	146.580000
386.478668	146.820000
386.572235	146.580000
386.665802	146.360000
386.759338	146.300000
386.852905	146.260000
386.946472	145.880000
387.040070	145.880000
387.133606	145.760000
387.227203	145.580000
387.320740	145.600000
387.414337	145.380000
387.507874	145.260000
387.601471	145.760000
387.695007	145.760000
387.788605	146.000000
387.882141	146.280000
387.975739	146.520000
388.069275	145.940000
388.162872	146.320000
388.256439	146.160000
388.350037	145.720000
388.443604	145.700000
388.537170	145.700000
388.630737	146.080000
388.724304	146.600000
388.817871	146.600000
388.911438	146.380000
389.005005	146.780000
389.098602	146.760000
389.192169	145.940000
389.285736	146.860000
389.379333	146.840000
389.472870	146.460000
389.566467	146.040000
389.660034	146.140000
389.753632	145.320000
389.847168	145.780000
389.940765	146.120000
390.034332	146.460000
390.127930	146.100000
390.221466	145.920000
390.315063	145.000000
390.408630	144.260000
390.502228	143.440000
390.595795	144.000000
390.689362	144.500000
390.782959	145.320000
390.876526	145.860000
390.970093	145.980000
391.063690	146.280000
391.157257	146.360000
391.250824	146.440000
391.344421	146.140000
391.437988	146.520000
391.531555	146.340000
391.625153	146.400000
391.718750	146.540000
391.812317	146.700000
391.905914	146.500000
391.999481	146.500000
392.093079	146.580000
392.186615	146.660000
392.280243	146.780000
392.373779	147.240000
392.467407	147.660000
392.560944	147.220000
392.654572	146.720000
392.748108	146.880000
392.841736	146.420000
392.935303	145.880000
393.028900	146.160000
393.122467	146.280000
393.216064	145.700000
393.309631	145.500000
393.403229	145.340000
393.496796	145.120000
393.590393	144.500000
393.683990	145.160000
393.777557	146.020000
393.871155	146.340000
393.964722	146.680000
394.058350	147.120000
394.151917	146.880000
394.245514	146.700000
394.339081	147.000000
394.432678	146.980000
394.526245	147.000000
394.619873	146.580000
394.713409	146.460000
394.807037	146.140000
394.900604	146.120000
394.994202	146.160000
395.087769	146.660000
395.181396	146.120000
395.274994	147.140000
395.368561	146.580000
395.462158	146.860000
395.555756	146.360000
395.649353	146.860000
395.742920	145.720000
395.836517	146.440000
395.930115	145.420000
396.023712	145.960000
396.117279	146.220000
396.210876	146.100000
396.304474	145.880000
396.398071	146.620000
396.491669	146.960000
396.585266	146.680000
396.678833	146.780000
396.772461	147.120000
396.866028	147.100000
396.959656	147.080000
397.053223	147.340000
397.146851	147.220000
397.240417	147.640000
397.334015	148.980000
397.427582	149.760000
397.521210	151.280000
397.614807	153.940000
397.708405	156.880000
397.802002	160.240000
397.895599	165.560000
397.989197	171.500000
398.082794	178.920000
398.176392	188.220000
398.269989	198.900000
398.363586	211.400000
398.457184	226.280000
398.550781	243.140000
398.644379	259.500000
398.737976	277.800000
398.831573	296.720000
398.925201	315.400000
399.018768	335.220000
399.112396	357.040000
399.205963	380.180000
399.299591	404.600000
399.393158	430.720000
399.486786	457.000000
399.580353	481.800000
399.673981	503.220000
399.767578	521.680000
399.861206	536.300000
399.954773	543.120000
400.048401	542.880000
400.141998	535.800000
400.235596	522.480000
400.329193	503.040000
400.422791	482.340000
400.516418	460.640000
400.610016	440.140000
400.703613	419.060000
400.797211	395.800000
400.890808	372.200000
400.984436	349.020000
401.078033	324.580000
401.171631	300.800000
401.265259	279.780000
401.358826	260.880000
401.452484	242.720000
401.546051	227.460000
401.639679	213.000000
401.733246	201.240000
401.826904	189.940000
401.920471	180.440000
402.014099	172.560000
402.107697	167.120000
402.201324	162.420000
402.294891	158.960000
402.388550	156.500000
402.482147	154.460000
402.575745	152.300000
402.669373	150.240000
402.762970	148.660000
402.856567	148.260000
402.950195	147.520000
403.043793	147.000000
403.137390	147.740000
403.231018	147.440000
403.324615	147.680000
403.418243	147.260000
403.511841	147.720000
403.605469	147.340000
403.699066	147.680000
403.792694	147.500000
403.886292	147.620000
403.979919	147.540000
404.073517	147.020000
404.167145	147.140000
404.260712	146.740000
404.354370	146.520000
404.447937	146.620000
404.541595	146.960000
404.635162	147.020000
404.728821	147.460000
404.822418	147.260000
404.916046	146.720000
405.009644	147.080000
405.103271	147.160000
405.196899	146.560000
405.290497	146.980000
405.384125	147.400000
405.477722	146.580000
405.571350	146.120000
405.664948	146.480000
405.758575	146.240000
405.852203	145.860000
405.945801	146.040000
406.039429	146.160000
406.133057	145.860000
406.226654	145.820000
406.320312	145.780000
406.413879	146.120000
406.507538	146.240000
406.601135	146.000000
406.694763	146.480000
406.788361	146.480000
406.882019	146.320000
406.975586	146.520000
407.069244	147.360000
407.162872	147.260000
407.256470	147.280000
407.350098	147.120000
407.443726	146.680000
407.537323	145.800000
407.630951	146.140000
407.724579	145.720000
407.818207	146.280000
407.911804	146.180000
408.005432	146.120000
408.099060	145.980000
408.192688	146.620000
408.286285	146.200000
408.379913	146.320000
408.473572	146.640000
408.567169	146.040000
408.660828	145.760000
408.754395	145.600000
408.848053	145.660000
408.941650	145.740000
409.035309	145.540000
409.128906	145.680000
409.222565	145.780000
409.316132	145.800000
409.409790	145.820000
409.503387	146.140000
409.597046	145.920000
409.690674	145.980000
409.784302	145.920000
409.877930	145.400000
409.971558	145.280000
410.065186	145.320000
410.158783	145.340000
410.252411	145.400000
410.346039	145.900000
410.439667	146.100000
410.533295	146.360000
410.626923	146.380000
410.720551	146.000000
410.814209	146.500000
410.907806	146.560000
411.001465	146.080000
411.095062	146.240000
411.188721	146.600000
411.282318	146.060000
411.375977	145.520000
411.469574	146.000000
411.563232	145.720000
411.656830	145.660000
411.750488	145.760000
411.844086	145.780000
411.937744	145.720000
412.031372	145.380000
412.125000	145.360000
412.218628	145.200000
412.312256	146.100000
412.405884	146.420000
412.499512	146.920000
412.593170	147.300000
412.686798	147.520000
412.780426	146.760000
412.874054	146.780000
412.967682	146.560000
413.061310	147.140000
413.154968	147.260000
413.248566	147.320000
413.342224	146.900000
413.435852	146.860000
413.529510	145.900000
413.623108	145.220000
413.716766	145.360000
413.810364	145.720000
413.904022	145.660000
413.997650	145.620000
414.091309	146.680000
414.184906	146.600000
414.278564	146.180000
414.372192	146.700000
414.465851	146.780000
414.559479	146.000000
414.653107	146.720000
414.746735	146.860000
414.840393	146.540000
414.934021	146.880000
415.027649	146.820000
415.121277	146.440000
415.214935	146.660000
415.308563	146.800000
415.402191	146.080000
415.495850	146.160000
415.589478	145.920000
415.683136	145.560000
415.776733	145.760000
415.870422	146.540000
415.964020	146.000000
416.057678	146.200000
416.151306	146.180000
416.244965	145.840000
416.338562	145.540000
416.432251	146.400000
416.525848	146.900000
416.619507	147.280000
416.713165	147.660000
416.806793	147.380000
416.900421	147.580000
416.994080	146.900000
417.087708	146.900000
417.181366	146.320000
417.274994	146.340000
417.368622	146.180000
417.462280	146.400000
417.555908	145.980000
417.649567	146.220000
417.743195	146.360000
417.836853	146.400000
417.930481	146.720000
418.024170	147.180000
418.117767	147.400000
418.211426	147.900000
418.305054	147.740000
418.398712	146.660000
418.492340	146.280000
418.585999	146.420000
418.679626	145.920000
418.773285	146.080000
418.866913	147.020000
418.960571	147.300000
419.054230	147.100000
419.147858	147.460000
419.241516	147.320000
419.335144	147.020000
419.428802	146.780000
419.522461	146.580000
419.616089	145.940000
419.709747	146.060000
419.803375	146.280000
419.897034	146.320000
419.990662	146.340000
420.084320	147.040000
420.177979	147.160000
420.271606	147.100000
420.365295	147.380000
420.458893	147.600000
420.552582	147.580000
420.646210	147.700000
420.739868	147.100000
420.833496	146.740000
420.927155	146.400000
421.020782	146.120000
421.114471	145.420000
421.208069	146.040000
421.301758	146.300000
421.395386	146.500000
421.489044	146.300000
421.582703	146.580000
421.676361	146.980000
421.769989	146.660000
421.863647	146.920000
421.957306	147.140000
422.050934	146.880000
422.144592	146.540000
422.238251	146.380000
422.331909	145.860000
422.425537	145.500000
422.519196	145.940000
422.612854	145.420000
422.706543	145.440000
422.800140	145.720000
422.893829	145.640000
422.987457	145.080000
423.081146	145.380000
423.174744	145.880000
423.268433	145.640000
423.362061	145.780000
423.455750	146.080000
423.549347	146.020000
423.643036	145.400000
423.736664	145.880000
423.830353	146.020000
423.924011	146.480000
424.017639	146.100000
424.111298	145.940000
424.204956	145.560000
424.298615	145.800000
424.392273	145.280000
424.485931	145.760000
424.579559	146.540000
424.673218	146.460000
424.766876	146.380000
424.860535	146.140000
424.954193	145.660000
425.047882	145.760000
425.141510	145.800000
425.235199	145.720000
425.328796	145.740000
425.422485	145.900000
425.516113	145.200000
425.609802	145.160000
425.703430	145.060000
425.797119	145.280000
425.890747	145.480000
425.984436	146.020000
426.078064	146.200000
426.171753	146.280000
426.265411	146.200000
426.359070	146.540000
426.452728	146.060000
426.546356	145.980000
426.640015	145.940000
426.733673	146.020000
426.827332	145.660000
426.920990	146.520000
427.014648	146.260000
427.108307	146.540000
427.201965	146.860000
427.295624	147.120000
427.389282	146.540000
427.482941	147.060000
427.576630	147.040000
427.670258	146.440000
427.763947	146.120000
427.857574	146.080000
427.951263	145.900000
428.044922	145.680000
428.138611	145.800000
428.232239	146.380000
428.325928	146.840000
428.419556	146.920000
428.513245	146.820000
428.606903	147.060000
428.700562	146.340000
428.794220	145.460000
428.887878	145.420000
428.981537	145.740000
429.075195	145.800000
429.168854	146.320000
429.262512	146.540000
429.356201	146.320000
429.449860	145.820000
429.543518	145.640000
429.637177	145.580000
429.730835	145.400000
429.824493	145.380000
429.918182	145.820000
430.011810	145.240000
430.105530	144.540000
430.199158	145.340000
430.292847	145.320000
430.386475	145.100000
430.480164	145.320000
430.573792	145.440000
430.667511	144.900000
430.761139	145.000000
430.854828	145.500000
430.948456	145.560000
431.042145	146.380000
431.135834	146.320000
431.229492	146.220000
431.323151	146.160000
431.416809	146.280000
431.510468	145.700000
431.604156	145.520000
431.697815	145.800000
431.791473	145.260000
431.885132	144.920000
431.978821	145.480000
432.072479	145.920000
432.166138	146.400000
432.259827	146.280000
432.353485	146.840000
432.447174	146.840000
432.540802	146.540000
432.634491	146.240000
432.728149	146.680000
432.821838	147.000000
432.915466	146.380000
433.009186	146.540000
433.102814	145.840000
433.196503	145.600000
433.290131	145.500000
433.383850	145.860000
433.477509	145.940000
433.571167	146.700000
433.664856	147.020000
433.758514	147.200000
433.852173	146.800000
433.945862	146.620000
434.039520	146.620000
434.133179	146.220000
434.226868	145.920000
434.320526	145.660000
434.414185	146.060000
434.507874	145.680000
434.601562	146.100000
434.695221	145.980000
434.788910	146.440000
434.882538	146.500000
434.976257	146.220000
435.069885	145.900000
435.163574	145.940000
435.257233	145.740000
435.350922	145.540000
435.444580	145.160000
435.538269	145.360000
435.631897	145.880000
435.725616	146.440000
435.819275	146.580000
435.912964	147.520000
436.006622	147.640000
436.100311	147.280000
436.193970	146.400000
436.287628	146.020000
436.381317	146.000000
436.474976	145.600000
436.568665	145.040000
436.662323	145.300000
436.756012	145.620000
436.849670	144.960000
436.943390	144.600000
437.037018	144.940000
437.130737	145.100000
437.224365	145.040000
437.318085	145.460000
437.411713	145.700000
437.505432	145.860000
437.599060	146.440000
437.692780	147.080000
437.786407	147.040000
437.880127	147.320000
437.973755	146.980000
438.067474	146.520000
438.161133	146.060000
438.254822	146.420000
438.348480	146.380000
438.442169	147.380000
438.535828	147.620000
438.629517	147.340000
438.723175	146.700000
438.816864	146.880000
438.910553	145.960000
439.004211	145.480000
439.097900	145.460000
439.191559	145.580000
439.285248	145.100000
439.378906	145.420000
439.472626	145.780000
439.566284	145.640000
439.659973	145.940000
439.753632	145.920000
439.847321	146.380000
439.940979	146.500000
440.034698	146.600000
440.128326	146.140000
440.222046	146.100000
440.315674	145.180000
440.409393	145.220000
440.503082	145.160000
440.596741	145.320000
440.690430	145.840000
440.784088	145.820000
440.877777	145.020000
440.971466	144.940000
441.065125	145.080000
441.158813	144.680000
441.252502	144.960000
441.346161	145.540000
441.439850	145.980000
441.533539	145.740000
441.627197	146.120000
441.720886	146.180000
441.814606	146.500000
441.908234	146.780000
442.001953	146.920000
442.095612	146.960000
442.189301	146.900000
442.282959	146.860000
442.376678	146.000000
442.470306	146.460000
442.564026	146.140000
442.657684	146.160000
442.751404	146.220000
442.845032	147.260000
442.938751	146.480000
443.032440	146.860000
443.126099	146.540000
443.219788	146.580000
443.313477	146.340000
443.407166	146.860000
443.500824	146.780000
443.594513	147.240000
443.688202	147.200000
443.781891	146.460000
443.875549	146.040000
443.969238	146.020000
444.062927	145.960000
444.156647	145.560000
444.250275	146.380000
444.343994	146.780000
444.437653	146.680000
444.531372	146.760000
444.625031	146.620000
444.718719	146.140000
444.812378	145.940000
444.906097	145.800000
444.999756	145.180000
445.093445	145.500000
445.187103	145.540000
445.280823	146.100000
445.374512	145.780000
445.468201	146.140000
445.561859	146.040000
445.655548	146.180000
445.749237	145.720000
445.842926	146.060000
445.936615	146.560000
446.030304	146.180000
446.123962	146.300000
446.217651	145.960000
446.311340	145.900000
446.405029	145.380000
446.498749	145.520000
446.592407	145.180000
446.686096	145.740000
446.779755	145.900000
446.873474	146.040000
446.967133	146.360000
447.060852	146.040000
447.154510	145.740000
447.248230	145.580000
447.341858	145.280000
447.435577	144.840000
447.529236	144.940000
447.622955	144.920000
447.716644	145.020000
447.810333	145.320000
447.904022	145.840000
447.997711	145.760000
448.091400	146.100000
448.185059	146.060000
448.278748	146.220000
448.372437	146.020000
448.466125	146.160000
448.559814	145.700000
448.653503	146.020000
448.747192	146.120000
448.840912	146.240000
448.934570	146.480000
449.028290	147.260000
449.121948	147.060000
449.215637	146.600000
449.309296	146.020000
449.403015	146.260000
449.496674	145.800000
449.590393	145.740000
449.684052	145.420000
449.777771	146.560000
449.871429	145.740000
449.965149	145.860000
450.058838	146.060000
450.152527	147.040000
450.246216	146.340000
450.339905	146.900000
450.433594	146.420000
450.527283	147.080000
450.620972	146.280000
450.714661	146.380000
450.808350	146.480000
450.902039	147.160000
450.995728	146.540000
451.089417	146.540000
451.183105	146.700000
451.276794	147.000000
451.370514	146.220000
451.464172	145.320000
451.557892	145.580000
451.651550	145.720000
451.745270	145.080000
451.838928	145.040000
451.932648	145.700000
452.026306	145.940000
452.120026	145.400000
452.213684	145.700000
452.307404	145.820000
452.401062	146.000000
452.494781	146.160000
452.588470	146.140000
452.682159	145.700000
452.775848	145.960000
452.869537	145.380000
452.963226	144.780000
453.056915	144.740000
453.150604	144.900000
453.244293	144.940000
453.337982	145.860000
453.431671	146.520000
453.525360	147.020000
453.619049	147.200000
453.712769	147.080000
453.806427	146.600000
453.900146	146.060000
453.993805	145.780000
454.087555	146.340000
454.181213	146.580000
454.274933	146.160000
454.368591	146.460000
454.462311	146.500000
454.555969	145.600000
454.649689	146.140000
454.743347	146.200000
454.837067	146.680000
454.930756	146.960000
455.024445	147.180000
455.118134	146.500000
455.211853	146.640000
455.305542	146.080000
455.399231	145.600000
455.492920	145.640000
455.586609	146.020000
455.680298	146.400000
455.773987	145.960000
455.867676	146.020000
455.961365	146.400000
456.055084	146.100000
456.148773	145.740000
456.242493	146.160000
456.336151	146.440000
456.429871	146.280000
456.523529	146.740000
456.617249	146.480000
456.710907	146.900000
456.804626	146.760000
456.898315	146.420000
456.992035	146.180000
457.085693	146.320000
457.179413	145.400000
457.273102	146.240000
457.366791	146.260000
457.460480	146.540000
457.554199	147.400000
457.647888	147.680000
457.741577	146.880000
457.835266	147.120000
457.928955	146.980000
458.022644	146.800000
458.116364	147.280000
458.210052	146.980000
458.303741	146.920000
458.397461	146.180000
458.491119	145.540000
458.584839	145.160000
458.678528	145.100000
458.772247	144.780000
458.865906	145.220000
458.959625	146.020000
459.053284	146.020000
459.147003	146.340000
459.240692	147.200000
459.334412	147.380000
459.428070	146.740000
459.521790	146.640000
459.615479	146.460000
459.709198	146.420000
459.802887	145.900000
459.896576	145.800000
459.990265	146.260000
460.083954	146.700000
460.177673	146.000000
460.271362	146.100000
460.365051	146.420000
460.458740	145.940000
460.552429	145.400000
460.646149	145.560000
460.739838	145.320000
460.833527	145.180000
460.927246	145.100000
461.020905	144.960000
461.114655	145.040000
461.208313	145.460000
461.302032	144.980000
461.395691	145.100000
461.489441	145.380000
461.583099	145.160000
461.676819	145.040000
461.770477	145.840000
461.864197	145.880000
461.957916	145.900000
462.051605	145.640000
462.145294	146.440000
462.238983	145.900000
462.332703	146.320000
462.426392	146.620000
462.520081	146.760000
462.613770	145.980000
462.707489	146.280000
462.801178	146.020000
462.894867	145.780000
462.988556	146.180000
463.082275	146.460000
463.175964	145.940000
463.269684	145.800000
463.363342	145.680000
463.457092	145.140000
463.550751	145.260000
463.644470	145.800000
463.738129	145.680000
463.831879	145.860000
463.925537	146.500000
464.019257	146.640000
464.112946	146.480000
464.206665	146.480000
464.300323	146.180000
464.394043	145.920000
464.487762	145.500000
464.581451	145.780000
464.675140	145.980000
464.768829	146.380000
464.862549	146.500000
464.956238	146.580000
465.049927	146.440000
465.143646	146.440000
465.237335	146.340000
465.331024	146.680000
465.424713	146.800000
465.518433	146.620000
465.612152	146.260000
465.705811	146.320000
465.799561	145.820000
465.893219	145.540000
465.986938	145.640000
466.080597	145.960000
466.174347	146.300000
466.268005	146.580000
466.361725	146.480000
466.455414	146.380000
466.549133	146.200000
466.642792	146.160000
466.736542	145.580000
466.830231	145.680000
466.923920	145.720000
467.017609	145.760000
467.111328	145.020000
467.205017	145.540000
467.298706	145.500000
467.392426	145.840000
467.486115	146.260000
467.579803	146.180000
467.673523	146.260000
467.767212	146.740000
467.860901	146.520000
467.954651	146.280000
468.048309	146.720000
468.142029	146.480000
468.235718	146.060000
468.329437	145.580000
468.423096	145.580000
468.516846	145.440000
468.610504	145.100000
468.704224	145.020000
468.797913	145.020000
468.891632	145.260000
468.985291	145.080000
469.079010	145.320000
469.172729	144.940000
469.266418	145.760000
469.360107	145.520000
469.453827	145.600000
469.547516	145.760000
469.641205	146.400000
469.734924	146.180000
469.828613	146.680000
469.922302	147.160000
470.016022	147.320000
470.109711	147.280000
470.203430	146.660000
470.297150	145.600000
470.390808	145.320000
470.484558	144.800000
470.578217	145.260000
470.671936	146.140000
470.765625	147.060000
470.859344	146.820000
470.953003	147.340000
471.046753	146.780000
471.140411	145.860000
471.234131	145.720000
471.327820	146.460000
471.421539	146.400000
471.515228	146.400000
471.608948	147.060000
471.702637	146.660000
471.796326	145.980000
471.890045	146.160000
471.983734	146.080000
472.077423	145.600000
472.171143	145.600000
472.264832	145.640000
472.358521	145.180000
472.452240	145.000000
472.545929	146.000000
472.639648	146.380000
472.733337	146.640000
472.827057	146.520000
472.920746	146.560000
473.014465	146.540000
473.108124	146.560000
473.201874	146.460000
473.295532	146.620000
473.389252	147.140000
473.482941	146.840000
473.576660	146.420000
473.670319	146.260000
473.764069	146.460000
473.857727	146.340000
473.951477	146.480000
474.045166	147.000000
474.138855	147.140000
474.232574	146.940000
474.326263	147.040000
474.419952	146.840000
474.513672	146.640000
474.607361	146.200000
474.701050	146.460000
474.794769	146.480000
474.888458	146.540000
474.982178	146.560000
475.075867	146.940000
475.169586	146.620000
475.263275	146.400000
475.356995	146.200000
475.450653	145.880000
475.544403	145.700000
475.638062	146.520000
475.731812	146.400000
475.825470	146.200000
475.919189	146.700000
476.012878	146.880000
476.106598	146.060000
476.200256	146.260000
476.294006	146.200000
476.387695	145.980000
476.481384	145.740000
476.575104	145.660000
476.668793	145.060000
476.762512	144.800000
476.856201	145.240000
476.949890	145.240000
477.043610	144.880000
477.137299	145.300000
477.230988	145.760000
477.324707	145.080000
477.418396	145.920000
477.512146	146.380000
477.605804	146.280000
477.699524	146.540000
477.793213	146.600000
477.886932	145.760000
477.980591	145.620000
478.074341	145.600000
478.167999	144.920000
478.261749	145.000000
478.355408	145.040000
478.449127	145.540000
478.542816	146.360000
478.636536	147.120000
478.730225	147.140000
478.823944	147.680000
478.917633	147.460000
479.011322	147.340000
479.105042	146.980000
479.198730	147.160000
479.292450	146.700000
479.386139	146.660000
479.479828	146.540000
479.573547	146.880000
479.667267	146.820000
479.760925	147.020000
479.854675	147.160000
479.948334	147.120000
480.042084	146.340000
480.135742	146.640000
480.229462	146.100000
480.323151	146.100000
480.416870	145.240000
480.510529	145.400000
480.604279	144.400000
480.697937	145.360000
480.791656	144.980000
480.885345	144.860000
480.979065	144.820000
481.072754	145.900000
481.166473	145.960000
481.260132	145.880000
481.353882	146.220000
481.447540	146.180000
481.541260	145.980000
481.635010	145.420000
481.728668	145.560000
481.822388	145.540000
481.916077	145.860000
482.009796	145.560000
482.103485	145.940000
482.197205	146.200000
482.290863	146.360000
482.384613	146.100000
482.478271	145.920000
482.571991	145.860000
482.665680	145.780000
482.759399	146.520000
482.853058	147.100000
482.946808	147.140000
483.040466	146.640000
483.134216	146.600000
483.227875	145.720000
483.321594	145.880000
483.415283	145.900000
483.509003	145.920000
483.602661	145.900000
483.696411	146.340000
483.790070	145.940000
483.883789	146.300000
483.977478	146.600000
484.071198	146.600000
484.164917	146.140000
484.258606	145.820000
484.352325	145.660000
484.445984	145.820000
484.539734	145.560000
484.633392	145.120000
484.727142	145.520000
484.820801	145.520000
484.914520	145.180000
485.008209	145.600000
485.101929	146.700000
485.195587	146.280000
485.289337	146.120000
485.382996	146.380000
485.476715	146.140000
485.570404	146.060000
485.664124	146.120000
485.757782	146.480000
485.851532	145.740000
485.945190	145.640000
486.038910	145.340000
486.132599	145.940000
486.226318	145.600000
486.319977	146.120000
486.413727	146.940000
486.507446	146.540000
486.601105	145.760000
486.694855	145.440000
486.788513	145.300000
486.882233	144.780000
486.975922	145.100000
487.069641	145.040000
487.163300	145.100000
487.257050	146.260000
487.350708	145.740000
487.444427	145.600000
487.538116	145.940000
487.631836	146.020000
487.725494	145.300000
487.819214	145.700000
487.912903	145.640000
488.006622	146.080000
488.100281	146.380000
488.194031	146.280000
488.287689	146.820000
488.381409	147.700000
488.475098	147.420000
488.568817	147.500000
488.662476	147.160000
488.756226	146.300000
488.849945	145.240000
488.943604	145.180000
489.037354	145.280000
489.131012	145.480000
489.224731	145.680000
489.318390	145.960000
489.412140	145.820000
489.505798	145.720000
489.599518	145.620000
489.693207	145.920000
489.786926	145.840000
489.880585	145.780000
489.974335	145.800000
490.067993	146.960000
490.161713	147.240000
490.255371	147.820000
490.349121	148.260000
490.442780	148.120000
490.536499	146.820000
490.630188	146.620000
490.723907	146.280000
490.817566	146.080000
490.911285	146.320000
491.004974	146.300000
491.098694	145.620000
491.192413	146.100000
491.286102	146.080000
491.379822	145.900000
491.473480	146.260000
491.567200	146.700000
491.660889	145.880000
491.754608	145.800000
491.848267	145.640000
491.941986	145.400000
492.035675	145.540000
492.129395	146.080000
492.223053	145.940000
492.316772	146.400000
492.410461	146.440000
492.504181	146.360000
492.597839	145.860000
492.691559	146.040000
492.785248	145.520000
492.878967	145.700000
492.972626	145.440000
493.066345	145.780000
493.160034	145.320000
493.253754	145.460000
493.347412	144.920000
493.441132	145.120000
493.534882	145.440000
493.628540	146.140000
493.722260	146.320000
493.815918	146.720000
493.909668	147.140000
494.003326	147.520000
494.097046	147.240000
494.190704	146.840000
494.284454	147.020000
494.378113	147.000000
494.471832	146.200000
494.565491	146.020000
494.659210	146.260000
494.752899	145.980000
494.846619	145.660000
494.940277	145.980000
495.033997	145.860000
495.127686	145.840000
495.221405	145.640000
495.315063	145.600000
495.408783	145.380000
495.502441	145.860000
495.596191	145.960000
495.689850	146.020000
495.783569	146.420000
495.877228	146.600000
495.970947	146.260000
496.064697	145.960000
496.158356	146.680000
496.252075	146.340000
496.345734	145.960000
496.439453	146.660000
496.533142	146.860000
496.626862	146.960000
496.720520	147.020000
496.814240	147.340000
496.907898	147.040000
497.001617	147.240000
497.095306	146.340000
497.189026	146.360000
497.282684	146.440000
497.376404	146.580000
497.470062	146.020000
497.563782	146.380000
497.657471	146.300000
497.751190	145.920000
497.844849	145.440000
497.938568	145.840000
498.032227	145.660000
498.125946	145.640000
498.219635	145.460000
498.313354	145.720000
498.407074	145.460000
498.500732	145.960000
498.594452	145.920000
498.688110	145.960000
498.781830	145.440000
498.875519	145.400000
498.969238	145.000000
499.062897	145.000000
499.156616	145.300000
499.250275	145.640000
499.343994	145.520000
499.437653	145.560000
499.531372	145.820000
499.625061	146.500000
499.718781	146.540000
499.812439	146.940000
499.906158	146.880000
499.999817	146.440000
500.093536	145.720000
500.187195	146.000000
500.280914	146.000000
500.374573	146.140000
500.468323	145.940000
500.561981	146.240000
500.655701	145.740000
500.749420	145.800000
500.843079	145.940000
500.936798	146.400000
501.030457	146.660000
501.124176	146.980000
501.217834	146.820000
501.311554	146.700000
501.405212	146.420000
501.498962	145.420000
501.592621	144.880000
501.686340	145.380000
501.779999	145.540000
501.873718	145.880000
501.967377	146.420000
502.061096	147.000000
502.154755	146.140000
502.248474	145.860000
502.342133	145.860000
502.435852	145.920000
502.529510	146.400000
502.623230	147.060000
502.716888	146.760000
502.810608	146.460000
502.904266	146.560000
502.997986	145.900000
503.091705	145.320000
503.185364	145.260000
503.279083	145.360000
503.372772	145.300000
503.466492	144.660000
503.560150	145.120000
503.653870	145.640000
503.747528	145.680000
503.841248	145.540000
503.934906	146.420000
504.028625	145.900000
504.122284	145.980000
504.216003	146.580000
504.309662	146.160000
504.403381	146.320000
504.497040	146.600000
504.590759	146.280000
504.684418	146.280000
504.778137	146.880000
504.871796	146.980000
504.965515	146.860000
505.059174	147.040000
505.152893	146.180000
505.246521	145.880000
505.340240	145.280000
505.433899	145.520000
505.527618	145.500000
505.621338	146.200000
505.714996	146.040000
505.808716	146.480000
505.902374	146.540000
505.996094	146.540000
506.089752	145.900000
506.183472	146.020000
506.277130	145.880000
506.370850	146.040000
506.464508	145.820000
506.558228	146.200000
506.651886	145.980000
506.745605	145.940000
506.839264	145.900000
506.932983	146.200000
507.026611	146.240000
507.120331	146.720000
507.213989	146.080000
507.307709	145.980000
507.401367	146.200000
507.495087	146.600000
507.588745	146.320000
507.682465	147.620000
507.776123	147.760000
507.869843	147.440000
507.963531	147.000000
508.057190	147.360000
508.150909	146.340000
508.244568	146.100000
508.338287	145.820000
508.431946	145.640000
508.525665	145.420000
508.619324	145.560000
508.713013	146.020000
508.806671	146.600000
508.900391	147.440000
508.994049	147.780000
509.087769	147.640000
509.181427	147.300000
509.275146	146.720000
509.368774	145.860000
509.462494	145.520000
509.556152	145.540000
509.649872	146.000000
509.743530	146.460000
509.837250	146.700000
509.930878	146.880000
510.024597	146.800000
510.118256	146.280000
510.211975	146.100000
510.305695	145.620000
510.399353	145.580000
510.493042	146.340000
510.586700	146.580000
510.680420	147.000000
510.774078	147.200000
510.867798	147.340000
510.961426	146.580000
511.055145	146.420000
511.148804	146.160000
511.242523	146.620000
511.336151	146.600000
511.429871	147.120000
511.523529	147.040000
511.617249	146.520000
511.710876	146.240000
511.804596	145.720000
511.898254	145.440000
511.991974	145.500000
512.085632	145.660000
512.179321	145.880000
512.272949	146.220000
512.366699	146.540000
512.460327	146.380000
512.554077	147.280000
512.647766	146.920000
512.741394	146.760000
512.835144	147.200000
512.928772	147.200000
513.022461	146.700000
513.116150	146.560000
513.209839	147.320000
513.303467	146.480000
513.397217	146.280000
513.490845	146.000000
513.584595	146.020000
513.678223	145.040000
513.771912	144.740000
513.865601	145.120000
513.959290	145.040000
514.052917	145.080000
514.146667	145.920000
514.240295	146.480000
514.333984	146.600000
514.427673	146.780000
514.521362	147.420000
514.614990	146.880000
514.708740	146.740000
514.802368	146.520000
514.896057	146.480000
514.989746	146.680000
515.083435	146.560000
515.177124	146.860000
515.270752	146.840000
515.364502	146.720000
515.458130	146.460000
515.551819	146.480000
515.645508	146.120000
515.739197	146.240000
515.832825	146.620000
515.926575	146.320000
516.020203	146.540000
516.113892	146.980000
516.207520	146.780000
516.301270	146.440000
516.394897	146.240000
516.488586	146.700000
516.582275	146.400000
516.675964	145.800000
516.769592	145.880000
516.863281	146.680000
516.956970	146.640000
517.050659	146.600000
517.144287	147.260000
517.238037	147.240000
517.331665	146.780000
517.425354	146.260000
517.519043	146.000000
517.612732	146.320000
517.706421	146.160000
517.800049	145.500000
517.893738	145.500000
517.987427	145.520000
518.081116	144.940000
518.174744	144.900000
518.268433	145.560000
518.362122	146.080000
518.455811	146.340000
518.549438	147.180000
518.643127	148.180000
518.736816	147.840000
518.830505	147.120000
518.924133	146.960000
519.017822	146.840000
519.111511	146.040000
519.205200	146.780000
519.298828	147.040000
519.392517	146.620000
519.486206	146.360000
519.579895	146.640000
519.673523	146.200000
519.767212	145.940000
519.860901	146.880000
519.954590	146.520000
520.048279	146.020000
520.141907	145.820000
520.235596	146.940000
520.329224	146.700000
520.422974	147.020000
520.516602	147.220000
520.610291	146.900000
520.703918	146.460000
520.797607	146.120000
520.891296	146.120000
520.984985	146.440000
521.078613	147.120000
521.172302	146.560000
521.265930	147.520000
521.359680	147.760000
521.453308	147.340000
521.546997	146.960000
521.640625	147.440000
521.734314	146.560000
521.827942	146.280000
521.921692	146.740000
522.015320	146.740000
522.109009	146.000000
522.202698	146.100000
522.296326	146.020000
522.390015	145.720000
522.483704	145.860000
522.577393	145.960000
522.671021	145.820000
522.764709	145.480000
522.858337	145.760000
522.952026	145.660000
523.045654	146.240000
523.139404	146.940000
523.233032	147.520000
523.326721	147.260000
523.420349	147.420000
523.514038	146.940000
523.607666	146.920000
523.701355	146.280000
523.795044	146.300000
523.888733	146.380000
523.982361	146.720000
524.076050	146.260000
524.169678	146.860000
524.263367	146.600000
524.356995	145.900000
524.450684	145.620000
524.544373	145.420000
524.638062	145.360000
524.731750	145.560000
524.825378	145.900000
524.919067	145.760000
525.012695	146.040000
525.106384	145.660000
525.200012	145.760000
525.293701	145.780000
525.387329	146.140000
525.481018	146.220000
525.574646	146.460000
525.668396	146.180000
525.762024	146.520000
525.855713	146.600000
525.949341	146.020000
526.043030	146.080000
526.136658	145.980000
526.230347	145.440000
526.323975	145.160000
526.417664	145.160000
526.511292	145.240000
526.604980	145.800000
526.698608	145.900000
526.792297	145.800000
526.885925	146.120000
526.979614	146.100000
527.073303	145.500000
527.166931	145.600000
527.260620	145.780000
527.354309	146.240000
527.447998	146.040000
527.541626	146.280000
527.635315	146.240000
527.728943	146.800000
527.822632	146.760000
527.916260	146.680000
528.009949	146.860000
528.103577	146.640000
528.197266	145.700000
528.290894	145.580000
528.384583	145.640000
528.478210	145.600000
528.571899	146.340000
528.665527	147.180000
528.759216	147.100000
528.852844	147.520000
528.946533	147.480000
529.040161	147.000000
529.133850	146.620000
529.227478	146.900000
529.321167	147.200000
529.414856	147.580000
529.508484	148.060000
529.602173	147.540000
529.695801	147.280000
529.789490	146.540000
529.883057	146.140000
529.976746	146.220000
530.070374	146.780000
530.164062	146.840000
530.257690	147.300000
530.351379	147.420000
530.445007	147.100000
530.538696	146.460000
530.632324	146.460000
530.726013	146.420000
530.819641	146.400000
530.913330	146.300000
531.006958	146.200000
531.100647	146.400000
531.194275	146.180000
531.287964	146.000000
531.381592	146.000000
531.475220	146.520000
531.568848	146.140000
531.662537	145.980000
531.756226	146.620000
531.849854	146.740000
531.943542	146.840000
532.037170	146.480000
532.130859	147.020000
532.224487	146.720000
532.318176	146.180000
532.411804	146.500000
532.505432	146.980000
532.599060	146.520000
532.692749	146.160000
532.786377	146.760000
532.880066	146.340000
532.973694	145.760000
533.067383	145.880000
533.161011	145.940000
533.254639	145.900000
533.348267	145.640000
533.441956	146.060000
533.535583	145.800000
533.629272	146.020000
533.722900	145.340000
533.816589	145.680000
533.910156	145.840000
534.003845	145.640000
534.097534	145.900000
534.191162	146.920000
534.284851	147.100000
534.378479	146.860000
534.472107	147.160000
534.565735	146.780000
534.659424	146.680000
534.753052	146.520000
534.846741	146.360000
534.940369	147.080000
535.033997	147.120000
535.127625	146.940000
535.221313	147.560000
535.314941	147.460000
535.408630	146.560000
535.502197	146.680000
535.595886	146.420000
535.689514	145.660000
535.783203	146.220000
535.876831	146.900000
535.970459	146.740000
536.064087	146.700000
536.157776	146.780000
536.251404	146.480000
536.345093	146.020000
536.438721	146.100000
536.532349	146.340000
536.626038	146.020000
536.719666	146.600000
536.813293	146.400000
536.906921	146.200000
537.000610	146.400000
537.094238	147.020000
537.187866	146.860000
537.281494	146.900000
537.375183	147.220000
537.468811	146.820000
537.562439	146.620000
537.656067	146.360000
537.749756	146.460000
537.843384	146.960000
537.937012	147.460000
538.030640	147.040000
538.124329	146.940000
538.217896	147.240000
538.311584	146.700000
538.405212	146.160000
538.498901	146.800000
538.592468	147.340000
538.686157	146.740000
538.779785	146.160000
538.873413	146.160000
538.967102	145.560000
539.060730	144.760000
539.154358	145.160000
539.247986	145.660000
539.341675	145.640000
539.435242	145.920000
539.528931	146.300000
539.622559	145.760000
539.716187	145.960000
539.809814	146.100000
539.903503	146.120000
539.997070	146.060000
540.090759	146.560000
540.184387	146.280000
540.278015	146.460000
540.371643	146.620000
540.465332	146.760000
540.558899	146.520000
540.652588	146.540000
540.746216	146.240000
540.839844	146.340000
540.933472	146.320000
541.027100	146.580000
541.120728	146.900000
541.214417	147.260000
541.308044	147.500000
541.401672	147.520000
541.495300	147.440000
541.588928	146.820000
541.682617	146.280000
541.776184	145.560000
541.869873	145.760000
541.963440	145.780000
542.057129	146.080000
542.150757	146.540000
542.244385	146.760000
542.338013	146.140000
542.431641	146.300000
542.525269	146.220000
542.618958	146.440000
542.712524	146.620000
542.806213	146.480000
542.899780	146.600000
542.993469	146.420000
543.087036	146.000000
543.180725	145.340000
543.274292	145.820000
543.367981	145.760000
543.461548	146.340000
543.555237	146.340000
543.648926	147.360000
543.742493	147.800000
543.836182	147.740000
543.929749	147.580000
544.023437	147.500000
544.117004	147.200000
544.210693	147.020000
544.304260	146.880000
544.397949	146.680000
544.491516	147.040000
544.585205	147.000000
544.678772	146.500000
544.772461	146.780000
544.866028	146.980000
544.959717	147.020000
545.053284	146.640000
545.146973	147.160000
545.240540	147.260000
545.334229	147.820000
545.427795	147.960000
545.521423	148.100000
545.615051	147.900000
545.708679	148.080000
545.802307	147.600000
545.895935	147.680000
545.989624	148.640000
546.083191	148.820000
546.176880	148.660000
546.270447	148.420000
546.364136	148.640000
546.457703	147.840000
546.551331	147.560000
546.644958	147.620000
546.738586	147.640000
546.832214	146.900000
546.925842	146.760000
547.019409	147.100000
547.113098	146.700000
547.206665	146.740000
547.300354	146.980000
547.393921	147.180000
547.487549	147.200000
547.581177	146.980000
547.674805	146.760000
547.768433	146.140000
547.862061	146.020000
547.955627	145.320000
548.049316	145.700000
548.142883	145.720000
548.236572	146.300000
548.330139	146.340000
548.423767	146.560000
548.517456	146.580000
548.611023	146.900000
548.704651	146.180000
548.798279	146.440000
548.891907	147.060000
548.985474	146.700000
549.079163	146.720000
549.172729	146.900000
549.266357	146.280000
549.359985	145.780000
549.453613	145.680000
549.547180	145.560000
549.640869	146.140000
549.734436	146.200000
549.828064	146.640000
549.921631	146.720000
550.015320	146.280000
550.108887	146.480000
550.202515	146.580000
550.296143	145.860000
550.389771	146.120000
550.483337	146.540000
550.576965	146.120000
550.670593	146.700000
550.764221	146.960000
550.857849	146.600000
550.951477	145.980000
551.045105	145.760000
551.138672	145.540000
551.232300	145.000000
551.325928	145.460000
551.419556	146.020000
551.513123	146.080000
551.606750	145.640000
551.700378	146.020000
551.794006	145.980000
551.887573	145.880000
551.981201	146.360000
552.074768	146.280000
552.168457	146.280000
552.262024	147.160000
552.355652	147.060000
552.449219	147.380000
552.542847	147.540000
552.636475	147.280000
552.730103	145.960000
552.823669	145.720000
552.917297	144.840000
553.010864	144.880000
553.104553	145.460000
553.198181	145.480000
553.291748	146.320000
553.385376	146.940000
553.478943	146.800000
553.572571	146.860000
553.666199	146.940000
553.759827	146.220000
553.853394	145.780000
553.947021	146.020000
554.040588	145.660000
554.134216	145.940000
554.227783	146.580000
554.321411	147.100000
554.415039	146.740000
554.508667	146.800000
554.602234	146.880000
554.695862	146.280000
554.789429	146.120000
554.883057	146.480000
554.976624	146.480000
555.070251	146.340000
555.163818	146.360000
555.257507	146.260000
555.351074	145.980000
555.444702	146.620000
555.538330	146.320000
555.631897	146.640000
555.725525	146.560000
555.819092	146.660000
555.912720	145.540000
556.006287	146.060000
556.099915	145.880000
556.193481	145.640000
556.287109	145.840000
556.380676	146.180000
556.474304	146.100000
556.567871	146.200000
556.661499	145.900000
556.755066	145.800000
556.848694	146.080000
556.942261	145.980000
557.035889	146.140000
557.129517	146.580000
557.223145	147.120000
557.316711	146.980000
557.410339	147.120000
557.503906	146.940000
557.597473	147.360000
557.691040	147.060000
557.784668	147.340000
557.878296	147.260000
557.971863	147.680000
558.065491	147.580000
558.159058	147.140000
558.252686	147.700000
558.346252	148.040000
558.439880	147.320000
558.533447	146.840000
558.627075	146.580000
558.720642	145.780000
558.814270	145.540000
558.907837	145.900000
559.001465	145.660000
559.095032	146.620000
559.188660	146.820000
559.282227	146.120000
559.375854	146.460000
559.469360	146.440000
559.562988	146.280000
559.656555	146.180000
559.750183	146.700000
559.843750	146.460000
559.937378	146.900000
560.030945	146.700000
560.124573	0.000000
560.218140	0.000000
560.311707	0.000000
560.405334	0.000000
560.498901	0.000000
560.592529	0.000000
560.686096	0.000000
560.779724	0.000000
560.873291	0.000000
560.966858	0.000000
561.060425	0.000000
561.154053	0.000000
561.247620	0.000000
561.341248	0.000000
561.434814	0.000000
561.528381	0.000000
561.621948	0.000000
561.715576	0.000000
561.809143	0.000000
561.902771	0.000000
561.996277	0.000000
562.089905	0.000000
562.183472	0.000000
562.277100	0.000000
