Model Number: SPM-002-B   
Serial Number: 70087108
Firmware Version: 004.15.4
Exposure Time: 100000.000000us
Data Taken on: 11-12-2020 19:30:40.089
Wavelength	Amplitude
221.570786	0.000000
221.663406	0.000000
221.756027	0.000000
221.848648	0.000000
221.941269	0.000000
222.033905	0.000000
222.126526	0.000000
222.219162	0.000000
222.311798	0.000000
222.404419	0.000000
222.497055	0.000000
222.589676	0.000000
222.682312	0.000000
222.774933	0.000000
222.867569	0.000000
222.960205	0.000000
223.052841	0.000000
223.145462	0.000000
223.238098	0.000000
223.330734	0.000000
223.423386	0.000000
223.516022	0.000000
223.608658	0.000000
223.701309	0.000000
223.793945	0.000000
223.886581	0.000000
223.979218	0.000000
224.071869	0.000000
224.164505	0.000000
224.257156	0.000000
224.349792	0.000000
224.442444	0.000000
224.535095	0.000000
224.627747	0.000000
224.720398	0.000000
224.813034	0.000000
224.905685	0.000000
224.998337	145.020000
225.090988	144.900000
225.183640	144.980000
225.276291	144.740000
225.368942	145.280000
225.461594	145.720000
225.554245	145.820000
225.646912	145.920000
225.739578	146.620000
225.832230	146.960000
225.924896	145.860000
226.017548	146.140000
226.110199	146.460000
226.202866	145.780000
226.295532	145.640000
226.388184	146.060000
226.480850	145.580000
226.573517	145.040000
226.666168	145.340000
226.758835	145.580000
226.851501	146.120000
226.944183	146.380000
227.036850	146.160000
227.129517	146.160000
227.222183	146.360000
227.314850	146.100000
227.407516	146.360000
227.500198	147.420000
227.592865	147.120000
227.685532	146.400000
227.778214	146.280000
227.870880	146.820000
227.963562	146.880000
228.056229	147.160000
228.148926	147.300000
228.241592	148.020000
228.334274	147.160000
228.426956	146.520000
228.519638	146.380000
228.612305	145.980000
228.704987	145.880000
228.797668	146.060000
228.890350	146.060000
228.983032	145.680000
229.075714	146.560000
229.168396	145.980000
229.261108	145.600000
229.353790	145.660000
229.446472	145.900000
229.539169	145.360000
229.631851	145.200000
229.724533	145.360000
229.817230	145.540000
229.909912	146.520000
230.002609	146.540000
230.095306	146.640000
230.187988	146.920000
230.280685	146.520000
230.373383	145.480000
230.466095	145.560000
230.558792	145.820000
230.651474	145.780000
230.744171	145.740000
230.836868	145.500000
230.929581	145.640000
231.022278	145.780000
231.114975	145.620000
231.207672	145.640000
231.300369	146.600000
231.393082	146.640000
231.485779	146.280000
231.578506	146.240000
231.671204	146.340000
231.763916	146.200000
231.856613	146.020000
231.949326	146.100000
232.042023	146.420000
232.134735	146.300000
232.227448	145.820000
232.320160	146.240000
232.412872	146.060000
232.505585	146.300000
232.598297	146.880000
232.691010	146.840000
232.783722	146.180000
232.876450	146.940000
232.969162	146.340000
233.061874	145.580000
233.154587	145.260000
233.247314	145.600000
233.340027	144.740000
233.432739	145.280000
233.525467	145.560000
233.618179	145.940000
233.710907	145.660000
233.803635	146.180000
233.896347	145.720000
233.989090	146.340000
234.081818	146.200000
234.174545	146.340000
234.267258	145.940000
234.359985	146.240000
234.452713	145.560000
234.545441	145.320000
234.638168	145.480000
234.730896	145.960000
234.823639	145.880000
234.916367	146.480000
235.009094	146.820000
235.101822	146.700000
235.194580	146.480000
235.287308	146.340000
235.380051	145.660000
235.472778	145.780000
235.565521	146.300000
235.658249	146.140000
235.750992	146.380000
235.843719	146.420000
235.936462	146.580000
236.029205	145.900000
236.121948	145.720000
236.214691	145.760000
236.307449	146.500000
236.400192	146.280000
236.492935	146.240000
236.585678	146.360000
236.678421	146.260000
236.771164	145.920000
236.863907	146.400000
236.956665	146.840000
237.049408	148.580000
237.142151	148.060000
237.234909	148.480000
237.327652	148.220000
237.420410	147.840000
237.513153	146.520000
237.605927	146.620000
237.698669	146.020000
237.791428	145.760000
237.884186	146.320000
237.976944	146.000000
238.069702	146.300000
238.162445	146.000000
238.255203	146.040000
238.347961	146.000000
238.440720	146.160000
238.533478	146.080000
238.626266	145.960000
238.719025	146.180000
238.811783	145.820000
238.904541	145.540000
238.997314	145.640000
239.090073	145.800000
239.182831	145.900000
239.275604	146.480000
239.368362	146.340000
239.461136	146.220000
239.553909	146.340000
239.646667	146.180000
239.739441	145.880000
239.832214	146.200000
239.925003	146.320000
240.017761	146.700000
240.110535	147.280000
240.203308	146.740000
240.296082	146.680000
240.388855	146.620000
240.481628	146.720000
240.574417	146.360000
240.667191	146.540000
240.759964	146.220000
240.852737	146.440000
240.945526	145.640000
241.038315	145.600000
241.131088	146.000000
241.223877	146.580000
241.316650	146.260000
241.409439	146.860000
241.502228	146.380000
241.595001	146.520000
241.687790	145.980000
241.780579	145.880000
241.873367	145.840000
241.966141	146.180000
242.058929	145.560000
242.151718	145.900000
242.244507	146.380000
242.337311	145.620000
242.430099	145.920000
242.522903	146.220000
242.615692	145.980000
242.708481	145.980000
242.801270	146.600000
242.894073	146.120000
242.986862	146.280000
243.079651	147.040000
243.172455	146.660000
243.265244	146.780000
243.358063	146.380000
243.450867	146.540000
243.543655	146.100000
243.636459	146.260000
243.729263	146.720000
243.822067	147.260000
243.914856	147.420000
244.007660	147.520000
244.100464	147.600000
244.193268	146.500000
244.286072	146.340000
244.378876	145.520000
244.471680	144.840000
244.564499	145.100000
244.657318	146.100000
244.750122	146.240000
244.842926	146.000000
244.935745	146.840000
245.028549	146.060000
245.121368	145.460000
245.214172	145.040000
245.306992	145.680000
245.399796	145.100000
245.492615	145.400000
245.585434	145.560000
245.678253	146.000000
245.771072	145.680000
245.863892	145.960000
245.956711	146.440000
246.049530	146.180000
246.142349	146.000000
246.235168	146.080000
246.327988	146.460000
246.420807	145.860000
246.513626	146.060000
246.606445	145.860000
246.699280	145.760000
246.792099	145.580000
246.884918	145.280000
246.977753	144.780000
247.070587	145.040000
247.163422	145.340000
247.256241	145.360000
247.349075	146.000000
247.441895	146.260000
247.534729	146.260000
247.627563	146.140000
247.720383	146.280000
247.813217	146.200000
247.906052	146.320000
247.998886	146.540000
248.091736	146.460000
248.184570	146.140000
248.277405	145.900000
248.370239	146.460000
248.463074	147.120000
248.555908	147.580000
248.648743	147.520000
248.741592	147.800000
248.834427	147.340000
248.927261	146.020000
249.020111	146.200000
249.112946	147.100000
249.205795	146.740000
249.298630	146.780000
249.391495	147.000000
249.484344	146.220000
249.577179	145.600000
249.670029	145.720000
249.762878	146.520000
249.855728	146.860000
249.948563	146.980000
250.041412	146.540000
250.134262	146.840000
250.227112	146.200000
250.319962	146.020000
250.412827	146.220000
250.505692	145.880000
250.598541	145.940000
250.691391	145.760000
250.784241	145.940000
250.877106	146.020000
250.969955	145.940000
251.062805	146.320000
251.155670	146.800000
251.248520	146.240000
251.341385	146.520000
251.434235	146.840000
251.527100	146.320000
251.619965	146.000000
251.712814	147.120000
251.805695	146.740000
251.898560	146.880000
251.991425	147.340000
252.084290	147.440000
252.177155	146.660000
252.270020	146.580000
252.362885	146.600000
252.455750	146.360000
252.548615	146.040000
252.641479	145.980000
252.734360	145.880000
252.827240	145.640000
252.920105	145.660000
253.012970	145.420000
253.105850	145.700000
253.198715	145.360000
253.291595	145.760000
253.384460	145.160000
253.477341	145.280000
253.570221	145.500000
253.663086	145.600000
253.755966	145.940000
253.848846	146.080000
253.941727	146.320000
254.034592	146.060000
254.127472	145.720000
254.220367	145.660000
254.313248	146.060000
254.406128	145.700000
254.499008	145.840000
254.591904	146.880000
254.684784	147.240000
254.777664	147.020000
254.870544	146.920000
254.963440	146.880000
255.056335	146.620000
255.149216	145.860000
255.242111	146.200000
255.334991	146.580000
255.427887	146.700000
255.520767	146.920000
255.613663	147.280000
255.706558	146.680000
255.799438	146.380000
255.892334	145.800000
255.985229	145.440000
256.078125	145.360000
256.171021	145.720000
256.263916	146.240000
256.356812	147.000000
256.449707	147.140000
256.542603	147.020000
256.635498	147.560000
256.728394	147.100000
256.821289	146.500000
256.914215	146.800000
257.007080	146.840000
257.100006	146.640000
257.192932	147.500000
257.285828	147.800000
257.378723	147.400000
257.471619	147.180000
257.564545	146.580000
257.657440	146.240000
257.750336	146.540000
257.843262	146.200000
257.936157	147.320000
258.029053	147.520000
258.121979	147.420000
258.214874	146.940000
258.307800	147.060000
258.400696	145.940000
258.493622	145.920000
258.586517	145.160000
258.679443	145.620000
258.772339	145.300000
258.865265	145.220000
258.958160	144.880000
259.051086	146.200000
259.144012	145.820000
259.236938	146.800000
259.329834	146.960000
259.422791	147.060000
259.515717	145.940000
259.608612	145.780000
259.701538	145.720000
259.794464	145.660000
259.887390	145.660000
259.980316	145.780000
260.073212	145.620000
260.166138	144.640000
260.259064	145.080000
260.351990	145.680000
260.444916	145.920000
260.537842	146.380000
260.630768	147.200000
260.723694	147.060000
260.816620	146.840000
260.909546	146.800000
261.002472	146.420000
261.095398	145.860000
261.188354	145.500000
261.281281	145.000000
261.374207	145.320000
261.467133	146.160000
261.560089	146.380000
261.653015	146.600000
261.745972	147.460000
261.838867	147.580000
261.931824	147.520000
262.024780	147.160000
262.117706	147.180000
262.210663	147.100000
262.303589	146.840000
262.396515	146.700000
262.489471	147.660000
262.582397	147.560000
262.675354	147.140000
262.768280	147.180000
262.861237	147.260000
262.954163	147.080000
263.047119	147.120000
263.140045	147.000000
263.233002	147.060000
263.325958	146.800000
263.418884	146.160000
263.511841	146.100000
263.604797	146.000000
263.697723	146.040000
263.790680	145.960000
263.883636	146.280000
263.976593	145.940000
264.069550	146.120000
264.162476	145.660000
264.255463	145.740000
264.348419	145.620000
264.441376	146.260000
264.534332	146.060000
264.627289	146.480000
264.720245	146.820000
264.813202	146.600000
264.906158	146.680000
264.999115	147.160000
265.092072	147.020000
265.185028	147.300000
265.277985	147.700000
265.370941	147.540000
265.463898	147.140000
265.556854	146.900000
265.649811	145.700000
265.742798	145.700000
265.835754	145.740000
265.928711	146.180000
266.021667	146.220000
266.114655	146.840000
266.207611	146.820000
266.300568	146.340000
266.393585	145.880000
266.486511	146.000000
266.579498	145.160000
266.672485	145.120000
266.765442	145.060000
266.858429	145.840000
266.951385	145.520000
267.044342	145.820000
267.137329	146.080000
267.230316	146.420000
267.323273	145.680000
267.416260	146.500000
267.509216	146.640000
267.602203	146.280000
267.695160	146.840000
267.788147	147.040000
267.881134	146.300000
267.974091	146.560000
268.067078	146.660000
268.160065	146.120000
268.253052	145.920000
268.346008	146.320000
268.438995	146.140000
268.531982	146.180000
268.624969	146.080000
268.717987	146.380000
268.810944	146.240000
268.903961	146.180000
268.996948	146.020000
269.089905	146.480000
269.182892	146.620000
269.275879	146.960000
269.368866	146.900000
269.461853	147.040000
269.554871	146.740000
269.647858	146.420000
269.740845	146.440000
269.833832	146.720000
269.926819	146.460000
270.019806	146.540000
270.112793	146.240000
270.205811	146.080000
270.298798	145.940000
270.391785	146.600000
270.484772	146.320000
270.577789	146.660000
270.670776	146.320000
270.763763	146.220000
270.856750	145.940000
270.949768	145.560000
271.042786	145.620000
271.135773	145.840000
271.228790	146.200000
271.321808	145.840000
271.414795	145.940000
271.507782	145.620000
271.600800	145.020000
271.693817	144.980000
271.786804	145.400000
271.879822	145.800000
271.972809	146.140000
272.065826	147.000000
272.158844	146.520000
272.251831	146.920000
272.344849	147.060000
272.437866	146.620000
272.530853	146.400000
272.623871	146.840000
272.716888	145.940000
272.809906	145.920000
272.902893	145.860000
272.995911	145.320000
273.088928	145.280000
273.181946	145.380000
273.274963	145.080000
273.367981	145.340000
273.460999	146.120000
273.554047	146.320000
273.647003	146.980000
273.740051	147.100000
273.833069	147.440000
273.926086	147.020000
274.019135	146.660000
274.112152	146.140000
274.205170	146.160000
274.298187	145.960000
274.391205	145.760000
274.484222	145.880000
274.577240	146.080000
274.670258	146.080000
274.763306	145.900000
274.856323	146.660000
274.949341	146.640000
275.042358	147.180000
275.135406	147.100000
275.228424	147.360000
275.321442	146.980000
275.414490	146.600000
275.507507	146.500000
275.600525	146.820000
275.693573	146.320000
275.786591	145.900000
275.879669	146.220000
275.972656	145.660000
276.065735	145.540000
276.158752	146.340000
276.251801	147.240000
276.344818	147.540000
276.437866	147.720000
276.530884	147.500000
276.623932	146.840000
276.716980	146.660000
276.809998	146.560000
276.903046	146.500000
276.996094	147.300000
277.089111	147.980000
277.182159	148.320000
277.275208	147.860000
277.368256	147.840000
277.461304	147.480000
277.554321	146.520000
277.647369	146.160000
277.740417	146.260000
277.833466	146.220000
277.926514	145.680000
278.019562	146.600000
278.112610	145.920000
278.205688	146.160000
278.298706	146.320000
278.391785	146.360000
278.484833	145.840000
278.577881	145.940000
278.670929	146.280000
278.763977	146.100000
278.857025	146.360000
278.950073	146.380000
279.043121	146.500000
279.136169	146.200000
279.229248	146.080000
279.322296	146.340000
279.415344	146.080000
279.508392	145.980000
279.601440	145.800000
279.694519	145.760000
279.787567	145.420000
279.880615	145.280000
279.973694	145.260000
280.066742	145.040000
280.159790	145.440000
280.252869	145.120000
280.345917	145.540000
280.438995	145.580000
280.532074	145.940000
280.625122	145.880000
280.718201	146.840000
280.811279	147.180000
280.904327	147.360000
280.997406	147.300000
281.090454	147.240000
281.183533	146.700000
281.276581	146.300000
281.369659	145.800000
281.462738	146.000000
281.555786	146.000000
281.648865	146.120000
281.741943	145.940000
281.835022	146.840000
281.928070	146.460000
282.021149	146.080000
282.114227	145.860000
282.207306	145.900000
282.300385	146.000000
282.393433	146.240000
282.486511	146.900000
282.579590	147.460000
282.672668	147.940000
282.765747	147.500000
282.858856	147.460000
282.951904	147.200000
283.045013	147.160000
283.138062	147.240000
283.231171	147.440000
283.324249	147.660000
283.417328	147.680000
283.510406	147.260000
283.603485	146.840000
283.696564	146.580000
283.789642	146.640000
283.882751	146.400000
283.975830	146.880000
284.068909	146.320000
284.161987	146.960000
284.255066	146.260000
284.348175	146.520000
284.441254	146.320000
284.534332	147.400000
284.627441	146.680000
284.720520	146.740000
284.813599	146.700000
284.906708	146.180000
284.999786	145.160000
285.092896	145.100000
285.185974	146.060000
285.279053	145.480000
285.372192	145.640000
285.465240	146.800000
285.558380	146.820000
285.651459	146.400000
285.744568	147.540000
285.837677	147.400000
285.930756	147.040000
286.023865	147.000000
286.116943	146.620000
286.210052	146.220000
286.303162	146.100000
286.396240	145.880000
286.489349	145.840000
286.582458	146.140000
286.675568	146.040000
286.768646	146.180000
286.861755	146.520000
286.954865	147.380000
287.047974	146.940000
287.141083	146.640000
287.234161	146.580000
287.327271	146.380000
287.420380	146.160000
287.513519	146.160000
287.606598	146.320000
287.699738	146.660000
287.792816	146.560000
287.885956	146.240000
287.979034	146.480000
288.072174	146.440000
288.165283	146.260000
288.258392	146.160000
288.351501	145.720000
288.444611	145.960000
288.537720	146.100000
288.630859	145.940000
288.723969	146.300000
288.817078	146.880000
288.910187	146.540000
289.003296	146.040000
289.096436	145.880000
289.189545	145.580000
289.282654	144.960000
289.375763	145.620000
289.468903	146.220000
289.562012	146.620000
289.655121	146.580000
289.748260	147.080000
289.841400	146.940000
289.934509	146.840000
290.027649	146.900000
290.120728	146.680000
290.213898	146.360000
290.306976	146.160000
290.400146	145.920000
290.493256	145.680000
290.586395	145.980000
290.679535	146.460000
290.772644	146.260000
290.865784	145.700000
290.958893	145.780000
291.052032	145.840000
291.145172	145.560000
291.238281	145.500000
291.331421	145.920000
291.424561	146.220000
291.517670	145.840000
291.610809	145.920000
291.703949	145.800000
291.797089	146.020000
291.890228	145.380000
291.983337	145.440000
292.076477	145.500000
292.169617	145.680000
292.262756	145.900000
292.355927	146.080000
292.449036	146.040000
292.542206	146.120000
292.635315	146.060000
292.728485	145.780000
292.821625	145.560000
292.914764	146.780000
293.007904	146.540000
293.101044	146.540000
293.194183	146.580000
293.287323	146.700000
293.380463	145.880000
293.473602	145.960000
293.566742	146.280000
293.659882	146.720000
293.753021	147.000000
293.846191	146.840000
293.939331	146.520000
294.032471	146.240000
294.125610	145.740000
294.218781	146.240000
294.311920	146.800000
294.405060	147.040000
294.498230	147.300000
294.591370	147.600000
294.684540	146.620000
294.777679	146.160000
294.870850	146.360000
294.963959	146.200000
295.057159	146.080000
295.150299	146.800000
295.243469	146.660000
295.336609	146.000000
295.429779	145.780000
295.522919	145.980000
295.616089	145.840000
295.709229	146.520000
295.802399	146.680000
295.895569	146.780000
295.988708	146.620000
296.081879	146.740000
296.175018	146.080000
296.268188	146.540000
296.361359	146.800000
296.454529	146.900000
296.547668	146.760000
296.640839	146.880000
296.734009	146.660000
296.827179	146.820000
296.920319	146.860000
297.013519	146.540000
297.106659	146.640000
297.199860	146.520000
297.292999	146.540000
297.386200	146.220000
297.479309	146.140000
297.572510	146.300000
297.665680	146.000000
297.758850	145.560000
297.852020	145.740000
297.945190	145.820000
298.038361	145.080000
298.131531	146.180000
298.224701	146.060000
298.317871	145.540000
298.411072	145.180000
298.504242	145.340000
298.597412	144.480000
298.690582	144.960000
298.783752	145.240000
298.876923	145.980000
298.970093	146.260000
299.063293	147.040000
299.156464	147.220000
299.249634	147.540000
299.342834	147.420000
299.436005	147.560000
299.529205	146.800000
299.622345	146.960000
299.715576	146.140000
299.808716	146.000000
299.901917	146.000000
299.995117	146.420000
300.088287	146.060000
300.181488	146.140000
300.274658	146.040000
300.367828	146.040000
300.461029	145.880000
300.554199	145.680000
300.647400	146.260000
300.740601	147.040000
300.833771	146.700000
300.926971	146.700000
301.020142	146.520000
301.113342	146.320000
301.206512	145.840000
301.299713	146.260000
301.392914	146.360000
301.486084	146.880000
301.579285	146.880000
301.672516	146.940000
301.765686	146.540000
301.858887	146.260000
301.952057	145.860000
302.045288	145.800000
302.138458	145.680000
302.231659	145.700000
302.324860	145.560000
302.418060	145.500000
302.511261	145.300000
302.604462	145.760000
302.697662	145.880000
302.790863	145.900000
302.884064	145.600000
302.977264	145.900000
303.070465	145.660000
303.163666	145.960000
303.256866	146.680000
303.350067	147.140000
303.443268	147.140000
303.536469	147.180000
303.629669	146.660000
303.722870	146.460000
303.816071	146.480000
303.909271	146.220000
304.002472	145.700000
304.095673	145.780000
304.188934	144.880000
304.282104	145.540000
304.375336	145.640000
304.468506	145.620000
304.561768	145.380000
304.654968	146.380000
304.748169	145.220000
304.841370	145.280000
304.934601	145.640000
305.027802	145.480000
305.121002	144.860000
305.214233	145.300000
305.307434	145.360000
305.400665	146.020000
305.493866	146.100000
305.587097	146.540000
305.680298	146.280000
305.773499	146.900000
305.866730	146.080000
305.959930	146.980000
306.053162	147.060000
306.146393	146.840000
306.239594	145.760000
306.332825	146.020000
306.426025	145.780000
306.519287	145.080000
306.612488	145.600000
306.705719	145.620000
306.798920	145.540000
306.892181	144.720000
306.985352	144.760000
307.078613	144.060000
307.171844	144.920000
307.265045	144.500000
307.358276	144.820000
307.451508	145.560000
307.544739	146.160000
307.637970	145.500000
307.731201	145.440000
307.824402	145.960000
307.917633	145.900000
308.010864	146.560000
308.104095	147.020000
308.197327	147.580000
308.290558	147.180000
308.383789	146.620000
308.477020	145.760000
308.570251	145.360000
308.663483	144.660000
308.756714	144.720000
308.849976	145.060000
308.943176	145.600000
309.036438	145.420000
309.129639	145.500000
309.222900	145.680000
309.316101	145.400000
309.409393	144.900000
309.502625	144.700000
309.595856	144.940000
309.689087	144.920000
309.782318	145.220000
309.875580	145.320000
309.968811	145.760000
310.062042	145.760000
310.155273	145.580000
310.248535	145.920000
310.341766	146.100000
310.434998	146.080000
310.528259	145.880000
310.621490	146.240000
310.714722	145.360000
310.807983	145.180000
310.901215	145.340000
310.994476	145.880000
311.087708	145.560000
311.181000	146.000000
311.274200	145.780000
311.367462	145.600000
311.460693	145.100000
311.553986	146.040000
311.647186	146.400000
311.740479	147.100000
311.833710	146.920000
311.926971	147.020000
312.020203	145.700000
312.113464	145.540000
312.206726	144.760000
312.299957	145.000000
312.393219	145.380000
312.486481	145.900000
312.579712	145.540000
312.672974	145.700000
312.766235	145.620000
312.859497	145.600000
312.952759	145.620000
313.045990	146.560000
313.139252	146.320000
313.232513	146.460000
313.325775	146.340000
313.419037	145.840000
313.512299	144.840000
313.605530	145.640000
313.698822	145.520000
313.792053	145.740000
313.885345	145.660000
313.978577	145.800000
314.071869	145.260000
314.165131	145.360000
314.258392	145.320000
314.351654	145.720000
314.444916	145.320000
314.538177	145.920000
314.631439	146.380000
314.724701	146.220000
314.817993	146.060000
314.911255	146.520000
315.004517	145.860000
315.097778	145.680000
315.191040	145.920000
315.284302	146.260000
315.377594	146.000000
315.470856	146.160000
315.564117	145.440000
315.657379	144.720000
315.750671	144.180000
315.843933	144.780000
315.937195	144.320000
316.030518	144.560000
316.123749	144.980000
316.217041	146.160000
316.310303	146.180000
316.403595	147.320000
316.496857	147.540000
316.590149	147.780000
316.683411	146.800000
316.776703	146.300000
316.869965	145.580000
316.963257	145.520000
317.056519	144.540000
317.149811	144.500000
317.243073	144.440000
317.336365	144.540000
317.429626	144.900000
317.522919	145.820000
317.616180	145.780000
317.709473	145.840000
317.802765	145.680000
317.896027	145.560000
317.989319	146.160000
318.082611	146.240000
318.175873	146.240000
318.269165	146.760000
318.362488	146.480000
318.455750	145.480000
318.549042	146.060000
318.642303	146.420000
318.735626	145.600000
318.828888	145.640000
318.922211	145.780000
319.015472	146.180000
319.108765	145.500000
319.202057	145.560000
319.295349	145.640000
319.388641	145.760000
319.481934	145.000000
319.575226	144.940000
319.668518	145.340000
319.761810	145.620000
319.855103	145.880000
319.948395	146.420000
320.041687	147.020000
320.134979	146.880000
320.228271	146.680000
320.321564	146.220000
320.414856	145.700000
320.508148	145.120000
320.601440	145.140000
320.694763	144.940000
320.788025	145.540000
320.881348	145.600000
320.974640	145.900000
321.067963	145.540000
321.161224	145.540000
321.254547	144.780000
321.347839	145.340000
321.441162	145.220000
321.534454	145.560000
321.627747	145.460000
321.721069	146.160000
321.814362	146.020000
321.907654	146.160000
322.000946	146.040000
322.094269	146.620000
322.187561	146.200000
322.280884	146.240000
322.374176	146.380000
322.467468	146.440000
322.560791	146.080000
322.654083	146.520000
322.747406	146.520000
322.840698	146.680000
322.934021	147.360000
323.027344	147.880000
323.120636	147.440000
323.213959	147.020000
323.307251	146.420000
323.400574	145.900000
323.493866	145.380000
323.587219	145.560000
323.680511	146.200000
323.773834	146.240000
323.867157	146.320000
323.960449	146.140000
324.053772	145.860000
324.147095	145.520000
324.240387	146.120000
324.333710	146.200000
324.427032	146.540000
324.520355	146.620000
324.613647	146.000000
324.706970	145.640000
324.800293	145.420000
324.893616	145.560000
324.986938	145.780000
325.080231	145.800000
325.173553	146.260000
325.266876	146.680000
325.360199	146.380000
325.453522	146.000000
325.546875	146.140000
325.640167	146.180000
325.733521	146.300000
325.826813	146.760000
325.920166	146.680000
326.013489	146.640000
326.106812	145.700000
326.200134	145.160000
326.293457	144.540000
326.386780	145.100000
326.480103	144.980000
326.573425	145.360000
326.666748	145.400000
326.760071	145.800000
326.853424	145.520000
326.946747	145.880000
327.040070	146.500000
327.133392	146.300000
327.226715	145.700000
327.320068	145.340000
327.413391	145.560000
327.506714	144.460000
327.600037	144.260000
327.693390	144.760000
327.786713	144.780000
327.880066	144.660000
327.973358	145.280000
328.066742	146.040000
328.160034	146.080000
328.253418	146.680000
328.346710	146.220000
328.440063	146.380000
328.533417	145.940000
328.626740	146.040000
328.720093	145.840000
328.813416	145.920000
328.906769	145.520000
329.000092	145.960000
329.093445	145.780000
329.186768	145.500000
329.280121	146.060000
329.373444	146.260000
329.466797	146.160000
329.560120	146.240000
329.653473	146.360000
329.746796	145.900000
329.840149	145.880000
329.933502	145.740000
330.026825	145.600000
330.120178	145.640000
330.213562	145.780000
330.306854	145.800000
330.400238	145.620000
330.493561	145.480000
330.586945	146.400000
330.680237	146.580000
330.773621	146.920000
330.866974	147.060000
330.960327	147.400000
331.053680	146.500000
331.147003	146.540000
331.240356	146.380000
331.333710	146.200000
331.427063	146.100000
331.520416	145.940000
331.613770	145.440000
331.707123	145.580000
331.800476	146.060000
331.893829	146.880000
331.987152	147.120000
332.080505	147.280000
332.173859	146.980000
332.267212	146.500000
332.360565	145.300000
332.453918	144.980000
332.547333	145.120000
332.640656	145.400000
332.734039	145.520000
332.827362	145.960000
332.920746	146.320000
333.014069	146.460000
333.107452	146.440000
333.200806	146.840000
333.294159	146.800000
333.387543	146.380000
333.480896	146.060000
333.574249	146.140000
333.667603	145.740000
333.760956	146.000000
333.854340	146.200000
333.947693	146.400000
334.041046	146.260000
334.134430	146.580000
334.227783	145.860000
334.321136	145.960000
334.414520	145.460000
334.507874	145.560000
334.601227	145.520000
334.694611	145.840000
334.787964	146.000000
334.881348	146.780000
334.974701	146.740000
335.068085	146.160000
335.161438	146.660000
335.254822	146.520000
335.348175	146.120000
335.441559	145.760000
335.534943	146.780000
335.628296	146.260000
335.721680	146.240000
335.815033	146.460000
335.908417	147.060000
336.001770	146.820000
336.095154	146.820000
336.188538	146.680000
336.281891	145.980000
336.375275	145.140000
336.468658	144.880000
336.562012	145.200000
336.655396	145.680000
336.748779	146.500000
336.842133	147.160000
336.935516	147.080000
337.028900	146.600000
337.122284	146.200000
337.215637	146.100000
337.309021	145.600000
337.402435	145.460000
337.495789	145.480000
337.589203	145.480000
337.682526	145.120000
337.775940	145.660000
337.869324	145.780000
337.962708	145.680000
338.056091	146.060000
338.149475	145.980000
338.242859	145.880000
338.336243	145.680000
338.429626	146.000000
338.523010	145.440000
338.616394	145.620000
338.709778	145.640000
338.803162	145.860000
338.896545	145.880000
338.989929	145.740000
339.083313	145.840000
339.176697	145.500000
339.270081	145.540000
339.363464	145.640000
339.456848	146.080000
339.550232	145.720000
339.643616	145.760000
339.737030	145.720000
339.830383	145.720000
339.923828	145.780000
340.017181	145.840000
340.110596	146.100000
340.203949	145.580000
340.297363	145.040000
340.390778	144.800000
340.484161	145.000000
340.577545	144.740000
340.670959	145.380000
340.764343	145.640000
340.857727	145.900000
340.951111	145.680000
341.044525	146.180000
341.137909	145.480000
341.231293	145.640000
341.324707	145.040000
341.418091	145.560000
341.511505	145.260000
341.604889	146.100000
341.698303	146.160000
341.791687	146.600000
341.885071	146.260000
341.978485	145.960000
342.071899	145.860000
342.165283	146.120000
342.258698	146.400000
342.352081	146.880000
342.445496	147.640000
342.538879	147.160000
342.632324	146.500000
342.725708	146.040000
342.819122	145.420000
342.912506	145.000000
343.005920	145.160000
343.099335	146.340000
343.192719	146.600000
343.286133	146.600000
343.379547	146.620000
343.472931	146.980000
343.566345	145.920000
343.659760	145.960000
343.753143	145.860000
343.846558	145.640000
343.939972	145.280000
344.033386	146.220000
344.126770	146.020000
344.220184	146.100000
344.313599	146.640000
344.407043	146.880000
344.500427	145.960000
344.593872	146.480000
344.687225	146.520000
344.780670	145.900000
344.874054	145.480000
344.967499	145.820000
345.060913	145.560000
345.154327	145.560000
345.247742	145.640000
345.341156	145.520000
345.434570	145.120000
345.527985	145.040000
345.621399	145.240000
345.714813	145.340000
345.808228	145.760000
345.901642	145.580000
345.995056	145.320000
346.088470	145.100000
346.181885	145.060000
346.275299	144.960000
346.368713	145.100000
346.462128	144.940000
346.555573	145.140000
346.648987	145.140000
346.742401	144.980000
346.835815	145.660000
346.929260	145.540000
347.022644	145.380000
347.116119	145.420000
347.209503	145.900000
347.302948	146.420000
347.396362	147.400000
347.489807	147.620000
347.583221	148.320000
347.676636	148.040000
347.770050	146.720000
347.863495	145.860000
347.956909	145.700000
348.050323	144.700000
348.143768	144.580000
348.237183	144.800000
348.330597	145.620000
348.424042	146.120000
348.517456	146.560000
348.610901	146.940000
348.704315	146.880000
348.797760	146.100000
348.891174	145.440000
348.984619	145.200000
349.078033	145.360000
349.171448	145.880000
349.264923	145.640000
349.358337	145.320000
349.451782	145.560000
349.545197	144.760000
349.638641	144.180000
349.732086	144.000000
349.825500	144.660000
349.918945	144.160000
350.012390	144.700000
350.105804	145.060000
350.199249	145.720000
350.292664	145.860000
350.386108	146.280000
350.479553	146.740000
350.572968	146.780000
350.666412	146.740000
350.759857	146.600000
350.853302	146.760000
350.946716	146.000000
351.040161	145.940000
351.133606	146.100000
351.227081	146.140000
351.320465	146.860000
351.413940	147.120000
351.507355	147.180000
351.600830	147.040000
351.694244	146.780000
351.787720	146.020000
351.881104	145.720000
351.974579	145.600000
352.067993	146.020000
352.161469	146.080000
352.254883	145.440000
352.348358	145.620000
352.441803	145.780000
352.535248	145.460000
352.628693	145.740000
352.722137	146.260000
352.815582	146.380000
352.909027	146.440000
353.002472	146.460000
353.095917	146.220000
353.189362	146.400000
353.282806	146.440000
353.376251	146.260000
353.469696	145.780000
353.563141	146.320000
353.656586	146.220000
353.750061	145.480000
353.843475	145.220000
353.936981	145.820000
354.030396	144.700000
354.123871	144.480000
354.217285	145.540000
354.310760	145.980000
354.404175	146.000000
354.497681	145.960000
354.591095	146.100000
354.684570	145.220000
354.777985	144.920000
354.871490	144.760000
354.964935	145.620000
355.058380	145.660000
355.151855	146.000000
355.245300	146.420000
355.338745	146.640000
355.432220	146.420000
355.525665	146.120000
355.619110	146.580000
355.712585	146.160000
355.806030	145.760000
355.899475	145.160000
355.992950	145.380000
356.086426	145.460000
356.179871	145.340000
356.273346	145.520000
356.366791	146.260000
356.460266	146.420000
356.553711	145.940000
356.647186	146.080000
356.740631	145.900000
356.834106	145.700000
356.927551	145.940000
357.021027	145.860000
357.114471	145.780000
357.207947	146.180000
357.301422	146.380000
357.394867	146.160000
357.488342	146.360000
357.581818	146.720000
357.675262	146.700000
357.768738	146.300000
357.862213	145.640000
357.955658	145.720000
358.049133	145.460000
358.142609	145.460000
358.236053	145.400000
358.329529	145.820000
358.423035	145.800000
358.516449	145.520000
358.609955	145.820000
358.703400	146.620000
358.796906	146.660000
358.890350	146.440000
358.983826	146.920000
359.077271	146.220000
359.170776	146.040000
359.264221	145.980000
359.357727	145.980000
359.451172	146.180000
359.544647	146.400000
359.638123	145.940000
359.731598	146.180000
359.825073	146.560000
359.918549	146.560000
360.012024	146.800000
360.105499	146.460000
360.198975	146.440000
360.292450	146.260000
360.385925	146.060000
360.479401	145.440000
360.572876	146.080000
360.666351	146.000000
360.759857	145.800000
360.853302	145.880000
360.946808	145.800000
361.040253	145.680000
361.133759	145.900000
361.227203	146.260000
361.320709	145.740000
361.414154	146.320000
361.507660	146.540000
361.601105	146.700000
361.694641	146.920000
361.788086	146.960000
361.881592	147.180000
361.975067	146.680000
362.068542	146.640000
362.162018	146.180000
362.255524	145.940000
362.348999	145.680000
362.442474	146.380000
362.535950	145.900000
362.629456	145.620000
362.722931	145.680000
362.816406	146.160000
362.909882	146.100000
363.003387	145.760000
363.096863	146.420000
363.190338	146.480000
363.283875	146.060000
363.377319	145.880000
363.470825	146.620000
363.564301	145.980000
363.657806	146.380000
363.751282	145.940000
363.844788	146.560000
363.938232	145.920000
364.031769	146.360000
364.125214	146.220000
364.218750	146.920000
364.312225	145.860000
364.405731	146.280000
364.499207	146.060000
364.592712	146.040000
364.686188	145.580000
364.779694	145.920000
364.873169	145.620000
364.966675	145.400000
365.060150	145.400000
365.153656	145.960000
365.247131	145.860000
365.340637	146.280000
365.434143	146.980000
365.527618	147.340000
365.621155	146.300000
365.714600	146.340000
365.808136	146.300000
365.901611	145.120000
365.995117	144.440000
366.088593	144.500000
366.182129	144.240000
366.275604	144.180000
366.369110	144.640000
366.462585	144.740000
366.556122	145.700000
366.649567	145.600000
366.743103	145.600000
366.836609	145.460000
366.930115	145.920000
367.023590	145.720000
367.117096	145.640000
367.210602	145.320000
367.304108	146.240000
367.397614	146.580000
367.491119	146.700000
367.584595	147.060000
367.678101	147.680000
367.771606	147.020000
367.865112	146.580000
367.958649	145.840000
368.052124	145.600000
368.145660	145.260000
368.239136	145.900000
368.332672	145.700000
368.426147	146.180000
368.519684	146.140000
368.613159	146.340000
368.706696	145.680000
368.800171	146.000000
368.893707	145.720000
368.987183	145.980000
369.080719	145.800000
369.174225	145.780000
369.267731	145.840000
369.361237	146.080000
369.454742	145.920000
369.548248	146.320000
369.641754	146.020000
369.735260	145.920000
369.828766	145.200000
369.922272	145.880000
370.015808	145.320000
370.109314	145.260000
370.202820	144.940000
370.296356	146.140000
370.389832	145.760000
370.483368	145.480000
370.576874	145.740000
370.670410	146.080000
370.763885	144.980000
370.857422	144.720000
370.950928	144.740000
371.044464	145.540000
371.137939	145.300000
371.231476	146.060000
371.324982	146.740000
371.418518	147.340000
371.512024	147.160000
371.605560	147.160000
371.699066	146.980000
371.792572	146.320000
371.886108	146.420000
371.979614	145.740000
372.073120	146.420000
372.166656	146.320000
372.260162	146.620000
372.353668	146.460000
372.447205	146.420000
372.540710	145.880000
372.634277	145.700000
372.727753	145.900000
372.821320	145.780000
372.914795	145.880000
373.008362	145.820000
373.101837	146.040000
373.195404	145.720000
373.288879	145.600000
373.382446	146.220000
373.475922	146.400000
373.569489	147.060000
373.662964	147.380000
373.756531	147.320000
373.850037	147.100000
373.943573	146.720000
374.037109	145.300000
374.130615	145.180000
374.224152	145.540000
374.317657	145.380000
374.411194	146.380000
374.504730	146.840000
374.598236	146.780000
374.691772	146.580000
374.785309	146.800000
374.878815	145.660000
374.972351	146.120000
375.065887	146.060000
375.159454	146.760000
375.252930	146.560000
375.346497	146.920000
375.440002	147.260000
375.533569	147.080000
375.627045	146.160000
375.720612	146.200000
375.814117	146.380000
375.907684	145.640000
376.001160	145.400000
376.094727	145.140000
376.188232	145.560000
376.281799	145.960000
376.375336	146.420000
376.468872	146.960000
376.562408	147.420000
376.655914	147.100000
376.749451	146.560000
376.842987	146.320000
376.936523	146.200000
377.030060	146.120000
377.123596	146.160000
377.217133	146.040000
377.310669	146.000000
377.404205	146.320000
377.497772	146.920000
377.591278	146.580000
377.684845	147.260000
377.778351	147.580000
377.871918	147.020000
377.965424	146.120000
378.058990	145.920000
378.152496	145.480000
378.246063	145.600000
378.339569	146.120000
378.433136	146.280000
378.526642	146.720000
378.620209	146.580000
378.713745	146.020000
378.807312	146.120000
378.900848	146.220000
378.994385	146.320000
379.087921	145.740000
379.181458	146.100000
379.274994	145.280000
379.368530	145.020000
379.462097	144.980000
379.555634	145.740000
379.649170	145.100000
379.742706	145.460000
379.836273	145.720000
379.929810	145.780000
380.023376	145.260000
380.116882	145.500000
380.210449	145.480000
380.303986	145.200000
380.397552	144.620000
380.491058	145.160000
380.584656	145.080000
380.678162	145.060000
380.771729	144.960000
380.865265	145.700000
380.958832	145.480000
381.052368	145.660000
381.145935	146.040000
381.239471	146.480000
381.333008	146.280000
381.426575	146.260000
381.520111	146.360000
381.613647	146.420000
381.707214	146.160000
381.800751	145.400000
381.894318	145.500000
381.987854	145.100000
382.081421	145.040000
382.174988	145.560000
382.268524	145.860000
382.362091	146.060000
382.455627	147.080000
382.549194	147.060000
382.642731	146.320000
382.736298	146.300000
382.829834	145.860000
382.923401	145.980000
383.016937	145.800000
383.110504	146.260000
383.204041	146.340000
383.297607	146.840000
383.391174	145.820000
383.484741	146.300000
383.578278	145.960000
383.671844	145.820000
383.765411	145.180000
383.858948	145.680000
383.952515	145.400000
384.046051	146.060000
384.139618	146.440000
384.233185	146.740000
384.326721	146.620000
384.420288	146.820000
384.513855	146.660000
384.607422	146.980000
384.700989	147.300000
384.794525	147.100000
384.888123	146.920000
384.981659	147.060000
385.075226	146.800000
385.168762	146.460000
385.262360	146.560000
385.355896	145.880000
385.449463	145.380000
385.542999	145.100000
385.636597	145.920000
385.730164	146.280000
385.823730	146.280000
385.917267	146.240000
386.010834	146.520000
386.104401	145.880000
386.197968	145.760000
386.291534	146.340000
386.385101	146.660000
386.478668	146.860000
386.572235	146.940000
386.665802	146.480000
386.759338	146.180000
386.852905	145.780000
386.946472	145.500000
387.040070	145.560000
387.133606	145.700000
387.227203	145.420000
387.320740	145.880000
387.414337	145.760000
387.507874	145.400000
387.601471	145.740000
387.695007	145.500000
387.788605	144.940000
387.882141	145.020000
387.975739	145.000000
388.069275	144.640000
388.162872	145.200000
388.256439	145.380000
388.350037	145.080000
388.443604	145.060000
388.537170	144.980000
388.630737	145.440000
388.724304	145.620000
388.817871	145.500000
388.911438	145.640000
389.005005	145.940000
389.098602	145.800000
389.192169	145.420000
389.285736	146.040000
389.379333	145.820000
389.472870	145.460000
389.566467	145.220000
389.660034	145.480000
389.753632	144.820000
389.847168	145.220000
389.940765	145.520000
390.034332	145.920000
390.127930	145.720000
390.221466	146.220000
390.315063	145.940000
390.408630	145.200000
390.502228	144.520000
390.595795	144.980000
390.689362	145.060000
390.782959	145.260000
390.876526	145.700000
390.970093	145.860000
391.063690	146.220000
391.157257	146.220000
391.250824	146.620000
391.344421	146.620000
391.437988	146.920000
391.531555	146.880000
391.625153	146.760000
391.718750	146.740000
391.812317	146.840000
391.905914	146.460000
391.999481	146.240000
392.093079	146.560000
392.186615	146.760000
392.280243	146.680000
392.373779	147.080000
392.467407	147.320000
392.560944	146.820000
392.654572	146.100000
392.748108	146.060000
392.841736	146.020000
392.935303	145.640000
393.028900	145.680000
393.122467	145.840000
393.216064	145.780000
393.309631	145.160000
393.403229	144.820000
393.496796	144.740000
393.590393	144.020000
393.683990	144.420000
393.777557	145.020000
393.871155	145.220000
393.964722	145.840000
394.058350	146.620000
394.151917	146.300000
394.245514	146.020000
394.339081	146.480000
394.432678	146.460000
394.526245	146.300000
394.619873	146.060000
394.713409	146.340000
394.807037	145.700000
394.900604	145.600000
394.994202	145.820000
395.087769	146.180000
395.181396	145.680000
395.274994	146.540000
395.368561	145.540000
395.462158	145.220000
395.555756	145.020000
395.649353	145.500000
395.742920	144.700000
395.836517	146.000000
395.930115	145.620000
396.023712	145.920000
396.117279	145.880000
396.210876	145.860000
396.304474	145.400000
396.398071	145.980000
396.491669	146.260000
396.585266	146.000000
396.678833	145.580000
396.772461	145.720000
396.866028	145.600000
396.959656	145.640000
397.053223	146.340000
397.146851	147.100000
397.240417	147.660000
397.334015	149.140000
397.427582	149.980000
397.521210	151.200000
397.614807	154.220000
397.708405	157.220000
397.802002	160.520000
397.895599	165.920000
397.989197	172.540000
398.082794	179.360000
398.176392	188.920000
398.269989	199.560000
398.363586	211.820000
398.457184	226.320000
398.550781	243.040000
398.644379	258.780000
398.737976	276.760000
398.831573	295.780000
398.925201	313.980000
399.018768	333.480000
399.112396	355.680000
399.205963	379.640000
399.299591	404.620000
399.393158	431.700000
399.486786	458.980000
399.580353	485.320000
399.673981	508.120000
399.767578	528.620000
399.861206	545.960000
399.954773	557.360000
400.048401	559.560000
400.141998	556.840000
400.235596	547.380000
400.329193	532.920000
400.422791	516.200000
400.516418	500.000000
400.610016	483.220000
400.703613	466.820000
400.797211	446.320000
400.890808	424.100000
400.984436	401.200000
401.078033	376.300000
401.171631	350.820000
401.265259	327.140000
401.358826	304.660000
401.452484	282.960000
401.546051	263.400000
401.639679	243.920000
401.733246	227.400000
401.826904	211.320000
401.920471	197.560000
402.014099	185.460000
402.107697	176.560000
402.201324	168.700000
402.294891	163.440000
402.388550	159.380000
402.482147	156.340000
402.575745	153.420000
402.669373	151.080000
402.762970	149.260000
402.856567	148.420000
402.950195	148.160000
403.043793	147.760000
403.137390	148.100000
403.231018	147.240000
403.324615	147.640000
403.418243	146.600000
403.511841	146.720000
403.605469	146.380000
403.699066	147.080000
403.792694	146.640000
403.886292	146.900000
403.979919	146.400000
404.073517	146.220000
404.167145	146.100000
404.260712	145.720000
404.354370	145.480000
404.447937	145.920000
404.541595	145.940000
404.635162	146.460000
404.728821	147.120000
404.822418	146.840000
404.916046	146.640000
405.009644	146.700000
405.103271	146.760000
405.196899	146.220000
405.290497	146.700000
405.384125	146.720000
405.477722	146.360000
405.571350	145.560000
405.664948	145.820000
405.758575	145.780000
405.852203	145.480000
405.945801	145.520000
406.039429	145.660000
406.133057	145.540000
406.226654	145.320000
406.320312	145.460000
406.413879	145.840000
406.507538	146.300000
406.601135	145.600000
406.694763	146.140000
406.788361	146.020000
406.882019	145.640000
406.975586	145.540000
407.069244	146.460000
407.162872	146.300000
407.256470	146.280000
407.350098	146.120000
407.443726	145.560000
407.537323	145.080000
407.630951	144.920000
407.724579	144.780000
407.818207	145.540000
407.911804	145.660000
408.005432	145.540000
408.099060	146.080000
408.192688	146.200000
408.286285	145.440000
408.379913	145.200000
408.473572	145.360000
408.567169	144.480000
408.660828	144.680000
408.754395	144.860000
408.848053	145.080000
408.941650	145.120000
409.035309	145.080000
409.128906	144.920000
409.222565	145.040000
409.316132	145.060000
409.409790	144.860000
409.503387	145.080000
409.597046	144.920000
409.690674	144.980000
409.784302	145.240000
409.877930	145.180000
409.971558	145.260000
410.065186	145.480000
410.158783	145.360000
410.252411	145.060000
410.346039	145.480000
410.439667	145.500000
410.533295	145.980000
410.626923	146.300000
410.720551	146.080000
410.814209	146.460000
410.907806	146.400000
411.001465	145.360000
411.095062	145.440000
411.188721	145.700000
411.282318	144.700000
411.375977	144.780000
411.469574	145.200000
411.563232	144.900000
411.656830	144.820000
411.750488	145.100000
411.844086	144.780000
411.937744	145.200000
412.031372	145.060000
412.125000	145.080000
412.218628	145.340000
412.312256	145.960000
412.405884	146.060000
412.499512	146.080000
412.593170	146.480000
412.686798	146.480000
412.780426	146.120000
412.874054	146.040000
412.967682	145.800000
413.061310	146.340000
413.154968	146.580000
413.248566	146.540000
413.342224	146.400000
413.435852	146.860000
413.529510	146.000000
413.623108	145.440000
413.716766	145.480000
413.810364	145.800000
413.904022	145.500000
413.997650	145.360000
414.091309	146.020000
414.184906	146.100000
414.278564	145.680000
414.372192	146.280000
414.465851	146.720000
414.559479	146.320000
414.653107	146.880000
414.746735	146.800000
414.840393	146.760000
414.934021	146.600000
415.027649	146.320000
415.121277	146.280000
415.214935	146.880000
415.308563	146.840000
415.402191	146.340000
415.495850	146.380000
415.589478	145.900000
415.683136	145.480000
415.776733	145.360000
415.870422	146.100000
415.964020	146.000000
416.057678	146.080000
416.151306	145.860000
416.244965	145.960000
416.338562	145.800000
416.432251	146.240000
416.525848	146.800000
416.619507	147.360000
416.713165	147.500000
416.806793	147.400000
416.900421	147.560000
416.994080	146.900000
417.087708	146.520000
417.181366	145.940000
417.274994	146.280000
417.368622	146.460000
417.462280	146.780000
417.555908	146.900000
417.649567	146.980000
417.743195	146.580000
417.836853	146.100000
417.930481	146.240000
418.024170	146.340000
418.117767	146.720000
418.211426	146.980000
418.305054	147.160000
418.398712	146.440000
418.492340	146.400000
418.585999	146.500000
418.679626	146.780000
418.773285	146.720000
418.866913	147.240000
418.960571	147.580000
419.054230	147.640000
419.147858	147.540000
419.241516	147.680000
419.335144	147.340000
419.428802	146.780000
419.522461	146.220000
419.616089	145.580000
419.709747	145.420000
419.803375	145.900000
419.897034	146.100000
419.990662	146.260000
420.084320	146.960000
420.177979	147.220000
420.271606	146.680000
420.365295	147.080000
420.458893	147.180000
420.552582	147.040000
420.646210	146.900000
420.739868	146.880000
420.833496	146.020000
420.927155	145.880000
421.020782	145.880000
421.114471	145.500000
421.208069	145.820000
421.301758	146.480000
421.395386	146.620000
421.489044	146.420000
421.582703	146.520000
421.676361	146.820000
421.769989	146.200000
421.863647	146.200000
421.957306	146.240000
422.050934	146.500000
422.144592	146.160000
422.238251	145.960000
422.331909	145.620000
422.425537	145.400000
422.519196	145.040000
422.612854	144.880000
422.706543	144.620000
422.800140	145.120000
422.893829	144.900000
422.987457	144.860000
423.081146	144.920000
423.174744	146.060000
423.268433	145.700000
423.362061	145.880000
423.455750	145.860000
423.549347	145.940000
423.643036	145.000000
423.736664	145.160000
423.830353	145.160000
423.924011	145.620000
424.017639	145.340000
424.111298	145.400000
424.204956	145.540000
424.298615	145.440000
424.392273	145.000000
424.485931	145.140000
424.579559	145.340000
424.673218	145.420000
424.766876	145.600000
424.860535	145.520000
424.954193	145.340000
425.047882	146.040000
425.141510	145.880000
425.235199	145.960000
425.328796	146.240000
425.422485	146.420000
425.516113	145.480000
425.609802	145.180000
425.703430	145.180000
425.797119	144.940000
425.890747	144.800000
425.984436	145.160000
426.078064	145.260000
426.171753	145.520000
426.265411	145.460000
426.359070	145.820000
426.452728	145.500000
426.546356	145.420000
426.640015	144.920000
426.733673	144.940000
426.827332	144.420000
426.920990	145.260000
427.014648	145.180000
427.108307	145.600000
427.201965	146.300000
427.295624	146.840000
427.389282	146.200000
427.482941	146.400000
427.576630	146.140000
427.670258	145.440000
427.763947	144.980000
427.857574	144.940000
427.951263	145.000000
428.044922	144.820000
428.138611	145.160000
428.232239	145.780000
428.325928	146.220000
428.419556	146.420000
428.513245	146.200000
428.606903	146.380000
428.700562	145.780000
428.794220	145.100000
428.887878	144.680000
428.981537	144.960000
429.075195	144.440000
429.168854	145.120000
429.262512	145.540000
429.356201	145.820000
429.449860	145.900000
429.543518	145.980000
429.637177	145.780000
429.730835	145.780000
429.824493	145.620000
429.918182	146.020000
430.011810	145.720000
430.105530	144.900000
430.199158	145.120000
430.292847	145.120000
430.386475	144.780000
430.480164	144.960000
430.573792	145.080000
430.667511	144.780000
430.761139	144.620000
430.854828	145.060000
430.948456	144.860000
431.042145	145.800000
431.135834	145.500000
431.229492	145.700000
431.323151	145.500000
431.416809	145.760000
431.510468	145.360000
431.604156	145.540000
431.697815	145.780000
431.791473	145.480000
431.885132	145.160000
431.978821	145.440000
432.072479	145.640000
432.166138	145.840000
432.259827	145.740000
432.353485	146.100000
432.447174	145.860000
432.540802	145.740000
432.634491	145.680000
432.728149	146.000000
432.821838	146.580000
432.915466	146.180000
433.009186	146.360000
433.102814	145.500000
433.196503	144.940000
433.290131	144.580000
433.383850	145.200000
433.477509	145.260000
433.571167	146.280000
433.664856	147.120000
433.758514	147.260000
433.852173	147.080000
433.945862	146.760000
434.039520	146.520000
434.133179	145.960000
434.226868	145.720000
434.320526	145.040000
434.414185	145.700000
434.507874	145.420000
434.601562	145.640000
434.695221	145.640000
434.788910	146.060000
434.882538	145.980000
434.976257	146.000000
435.069885	146.000000
435.163574	146.180000
435.257233	146.120000
435.350922	145.800000
435.444580	145.200000
435.538269	145.040000
435.631897	145.440000
435.725616	145.680000
435.819275	146.340000
435.912964	147.480000
436.006622	148.080000
436.100311	147.940000
436.193970	147.200000
436.287628	146.420000
436.381317	145.660000
436.474976	144.980000
436.568665	144.180000
436.662323	144.800000
436.756012	144.880000
436.849670	144.880000
436.943390	144.660000
437.037018	144.900000
437.130737	144.720000
437.224365	144.700000
437.318085	144.820000
437.411713	145.200000
437.505432	145.740000
437.599060	146.300000
437.692780	146.880000
437.786407	146.780000
437.880127	146.880000
437.973755	146.240000
438.067474	145.500000
438.161133	144.920000
438.254822	145.360000
438.348480	145.000000
438.442169	145.780000
438.535828	146.260000
438.629517	146.300000
438.723175	145.860000
438.816864	146.260000
438.910553	145.760000
439.004211	145.880000
439.097900	145.780000
439.191559	146.120000
439.285248	145.620000
439.378906	145.780000
439.472626	145.540000
439.566284	145.400000
439.659973	145.420000
439.753632	145.460000
439.847321	145.860000
439.940979	145.800000
440.034698	146.140000
440.128326	145.600000
440.222046	145.580000
440.315674	144.820000
440.409393	144.820000
440.503082	144.340000
440.596741	144.780000
440.690430	145.260000
440.784088	144.920000
440.877777	144.580000
440.971466	144.940000
441.065125	144.660000
441.158813	144.440000
441.252502	144.920000
441.346161	145.520000
441.439850	145.720000
441.533539	145.340000
441.627197	145.740000
441.720886	145.840000
441.814606	145.780000
441.908234	146.040000
442.001953	146.520000
442.095612	146.200000
442.189301	146.020000
442.282959	145.920000
442.376678	144.960000
442.470306	145.200000
442.564026	144.960000
442.657684	145.160000
442.751404	145.380000
442.845032	146.500000
442.938751	146.160000
443.032440	146.240000
443.126099	145.780000
443.219788	146.020000
443.313477	145.700000
443.407166	146.140000
443.500824	146.200000
443.594513	146.600000
443.688202	146.080000
443.781891	145.540000
443.875549	144.760000
443.969238	144.880000
444.062927	145.220000
444.156647	145.200000
444.250275	145.660000
444.343994	146.160000
444.437653	146.200000
444.531372	145.860000
444.625031	145.940000
444.718719	145.560000
444.812378	145.640000
444.906097	145.400000
444.999756	145.120000
445.093445	145.060000
445.187103	145.140000
445.280823	145.480000
445.374512	145.080000
445.468201	145.260000
445.561859	145.060000
445.655548	145.160000
445.749237	144.660000
445.842926	145.160000
445.936615	145.700000
446.030304	145.760000
446.123962	145.920000
446.217651	145.400000
446.311340	145.500000
446.405029	144.800000
446.498749	144.820000
446.592407	144.500000
446.686096	145.080000
446.779755	144.940000
446.873474	145.320000
446.967133	145.720000
447.060852	145.720000
447.154510	145.640000
447.248230	145.840000
447.341858	145.780000
447.435577	145.160000
447.529236	144.920000
447.622955	144.940000
447.716644	144.800000
447.810333	144.860000
447.904022	145.340000
447.997711	145.400000
448.091400	145.720000
448.185059	145.860000
448.278748	145.940000
448.372437	145.680000
448.466125	146.180000
448.559814	146.040000
448.653503	146.200000
448.747192	146.420000
448.840912	146.880000
448.934570	146.640000
449.028290	146.900000
449.121948	146.760000
449.215637	146.220000
449.309296	145.940000
449.403015	146.020000
449.496674	145.820000
449.590393	145.760000
449.684052	145.580000
449.777771	146.160000
449.871429	145.760000
449.965149	145.500000
450.058838	145.580000
450.152527	146.060000
450.246216	145.880000
450.339905	145.820000
450.433594	145.760000
450.527283	146.360000
450.620972	146.020000
450.714661	145.800000
450.808350	146.120000
450.902039	146.340000
450.995728	146.000000
451.089417	146.020000
451.183105	145.880000
451.276794	146.280000
451.370514	145.860000
451.464172	144.760000
451.557892	144.620000
451.651550	144.780000
451.745270	144.120000
451.838928	143.940000
451.932648	144.680000
452.026306	145.160000
452.120026	144.820000
452.213684	145.620000
452.307404	145.920000
452.401062	145.780000
452.494781	145.820000
452.588470	146.060000
452.682159	145.400000
452.775848	145.580000
452.869537	145.060000
452.963226	144.400000
453.056915	144.420000
453.150604	144.640000
453.244293	144.820000
453.337982	145.780000
453.431671	146.280000
453.525360	146.880000
453.619049	146.780000
453.712769	146.240000
453.806427	145.580000
453.900146	145.060000
453.993805	144.460000
454.087555	144.740000
454.181213	145.200000
454.274933	145.140000
454.368591	145.360000
454.462311	145.100000
454.555969	144.520000
454.649689	145.040000
454.743347	145.160000
454.837067	145.840000
454.930756	146.260000
455.024445	146.640000
455.118134	146.020000
455.211853	146.360000
455.305542	146.080000
455.399231	145.960000
455.492920	145.960000
455.586609	145.980000
455.680298	146.220000
455.773987	145.680000
455.867676	145.720000
455.961365	145.740000
456.055084	145.600000
456.148773	145.140000
456.242493	145.400000
456.336151	145.280000
456.429871	145.400000
456.523529	145.900000
456.617249	145.640000
456.710907	146.260000
456.804626	146.220000
456.898315	145.920000
456.992035	145.760000
457.085693	145.700000
457.179413	144.740000
457.273102	145.700000
457.366791	145.940000
457.460480	146.040000
457.554199	146.820000
457.647888	147.000000
457.741577	145.980000
457.835266	145.980000
457.928955	146.100000
458.022644	146.120000
458.116364	146.560000
458.210052	146.580000
458.303741	146.600000
458.397461	145.720000
458.491119	145.180000
458.584839	145.340000
458.678528	145.200000
458.772247	144.940000
458.865906	145.540000
458.959625	146.480000
459.053284	146.300000
459.147003	146.460000
459.240692	147.000000
459.334412	147.140000
459.428070	146.500000
459.521790	146.200000
459.615479	146.160000
459.709198	146.280000
459.802887	145.800000
459.896576	145.360000
459.990265	145.440000
460.083954	145.600000
460.177673	145.020000
460.271362	145.300000
460.365051	145.440000
460.458740	145.040000
460.552429	144.660000
460.646149	144.880000
460.739838	144.520000
460.833527	144.760000
460.927246	144.860000
461.020905	144.600000
461.114655	144.480000
461.208313	144.940000
461.302032	144.460000
461.395691	144.820000
461.489441	144.840000
461.583099	144.940000
461.676819	144.360000
461.770477	145.060000
461.864197	144.760000
461.957916	145.140000
462.051605	144.460000
462.145294	145.520000
462.238983	145.120000
462.332703	145.600000
462.426392	146.140000
462.520081	146.440000
462.613770	145.740000
462.707489	145.980000
462.801178	145.580000
462.894867	144.960000
462.988556	145.300000
463.082275	145.420000
463.175964	145.020000
463.269684	145.260000
463.363342	145.460000
463.457092	144.860000
463.550751	144.960000
463.644470	145.120000
463.738129	145.200000
463.831879	145.620000
463.925537	146.700000
464.019257	146.580000
464.112946	146.760000
464.206665	146.700000
464.300323	146.420000
464.394043	145.860000
464.487762	145.780000
464.581451	146.080000
464.675140	145.980000
464.768829	145.960000
464.862549	145.800000
464.956238	146.120000
465.049927	145.820000
465.143646	145.880000
465.237335	145.700000
465.331024	146.380000
465.424713	146.360000
465.518433	146.200000
465.612152	145.980000
465.705811	146.100000
465.799561	145.440000
465.893219	145.120000
465.986938	145.260000
466.080597	145.220000
466.174347	145.400000
466.268005	145.720000
466.361725	145.820000
466.455414	145.700000
466.549133	145.820000
466.642792	145.900000
466.736542	145.340000
466.830231	145.560000
466.923920	145.460000
467.017609	145.600000
467.111328	145.020000
467.205017	145.420000
467.298706	145.140000
467.392426	145.640000
467.486115	145.740000
467.579803	145.560000
467.673523	145.800000
467.767212	145.600000
467.860901	145.280000
467.954651	145.260000
468.048309	145.700000
468.142029	145.520000
468.235718	146.000000
468.329437	145.640000
468.423096	145.620000
468.516846	145.380000
468.610504	144.980000
468.704224	144.560000
468.797913	144.540000
468.891632	144.340000
468.985291	144.460000
469.079010	144.720000
469.172729	144.540000
469.266418	145.340000
469.360107	145.420000
469.453827	145.320000
469.547516	145.580000
469.641205	146.060000
469.734924	145.740000
469.828613	146.340000
469.922302	146.960000
470.016022	146.620000
470.109711	146.520000
470.203430	145.900000
470.297150	144.840000
470.390808	144.620000
470.484558	144.900000
470.578217	145.420000
470.671936	146.260000
470.765625	147.060000
470.859344	146.600000
470.953003	146.720000
471.046753	146.120000
471.140411	145.220000
471.234131	145.360000
471.327820	146.320000
471.421539	146.160000
471.515228	145.880000
471.608948	146.420000
471.702637	145.440000
471.796326	144.580000
471.890045	144.960000
471.983734	145.320000
472.077423	145.320000
472.171143	145.800000
472.264832	145.740000
472.358521	145.240000
472.452240	145.020000
472.545929	145.560000
472.639648	145.660000
472.733337	146.300000
472.827057	146.260000
472.920746	146.660000
473.014465	146.660000
473.108124	146.600000
473.201874	146.220000
473.295532	146.400000
473.389252	146.320000
473.482941	146.260000
473.576660	146.060000
473.670319	146.040000
473.764069	146.020000
473.857727	146.220000
473.951477	146.340000
474.045166	146.880000
474.138855	146.660000
474.232574	146.260000
474.326263	146.360000
474.419952	146.240000
474.513672	146.260000
474.607361	146.460000
474.701050	147.060000
474.794769	147.100000
474.888458	147.420000
474.982178	147.080000
475.075867	147.060000
475.169586	146.900000
475.263275	146.340000
475.356995	145.740000
475.450653	145.620000
475.544403	145.320000
475.638062	145.880000
475.731812	145.680000
475.825470	145.440000
475.919189	145.580000
476.012878	145.800000
476.106598	144.940000
476.200256	145.380000
476.294006	145.700000
476.387695	145.880000
476.481384	145.680000
476.575104	145.960000
476.668793	145.520000
476.762512	145.180000
476.856201	145.600000
476.949890	145.560000
477.043610	144.920000
477.137299	145.180000
477.230988	145.500000
477.324707	144.860000
477.418396	145.460000
477.512146	145.860000
477.605804	145.740000
477.699524	146.060000
477.793213	146.160000
477.886932	145.580000
477.980591	145.580000
478.074341	145.580000
478.167999	144.880000
478.261749	144.820000
478.355408	145.160000
478.449127	145.720000
478.542816	146.500000
478.636536	146.980000
478.730225	147.060000
478.823944	147.400000
478.917633	146.840000
479.011322	146.500000
479.105042	146.600000
479.198730	146.660000
479.292450	146.200000
479.386139	146.680000
479.479828	146.580000
479.573547	146.640000
479.667267	146.640000
479.760925	146.660000
479.854675	146.620000
479.948334	146.900000
480.042084	146.420000
480.135742	146.540000
480.229462	146.320000
480.323151	146.060000
480.416870	145.200000
480.510529	145.180000
480.604279	144.560000
480.697937	145.020000
480.791656	144.560000
480.885345	144.680000
480.979065	144.600000
481.072754	145.200000
481.166473	145.480000
481.260132	145.800000
481.353882	145.940000
481.447540	145.960000
481.541260	145.880000
481.635010	145.080000
481.728668	145.100000
481.822388	145.040000
481.916077	145.220000
482.009796	145.060000
482.103485	145.720000
482.197205	145.800000
482.290863	145.960000
482.384613	145.680000
482.478271	145.320000
482.571991	144.980000
482.665680	144.900000
482.759399	145.600000
482.853058	146.120000
482.946808	146.360000
483.040466	146.280000
483.134216	146.260000
483.227875	145.440000
483.321594	145.580000
483.415283	145.660000
483.509003	145.660000
483.602661	145.520000
483.696411	145.960000
483.790070	145.420000
483.883789	145.400000
483.977478	145.760000
484.071198	145.780000
484.164917	145.540000
484.258606	145.240000
484.352325	145.440000
484.445984	145.360000
484.539734	145.600000
484.633392	145.080000
484.727142	145.960000
484.820801	145.780000
484.914520	145.760000
485.008209	145.880000
485.101929	146.600000
485.195587	146.000000
485.289337	145.880000
485.382996	145.820000
485.476715	145.720000
485.570404	145.900000
485.664124	146.240000
485.757782	146.880000
485.851532	146.620000
485.945190	146.200000
486.038910	146.220000
486.132599	146.600000
486.226318	145.840000
486.319977	145.600000
486.413727	146.660000
486.507446	146.020000
486.601105	145.260000
486.694855	145.480000
486.788513	145.600000
486.882233	144.640000
486.975922	144.880000
487.069641	144.800000
487.163300	144.380000
487.257050	145.740000
487.350708	145.900000
487.444427	145.760000
487.538116	146.060000
487.631836	146.320000
487.725494	145.340000
487.819214	145.300000
487.912903	145.140000
488.006622	145.180000
488.100281	145.460000
488.194031	145.500000
488.287689	145.940000
488.381409	146.880000
488.475098	146.840000
488.568817	146.740000
488.662476	146.420000
488.756226	145.880000
488.849945	144.920000
488.943604	144.960000
489.037354	145.180000
489.131012	145.460000
489.224731	145.600000
489.318390	145.500000
489.412140	145.620000
489.505798	145.380000
489.599518	145.020000
489.693207	145.100000
489.786926	145.340000
489.880585	144.940000
489.974335	145.280000
490.067993	146.160000
490.161713	146.460000
490.255371	147.100000
490.349121	147.360000
490.442780	147.000000
490.536499	146.240000
490.630188	145.880000
490.723907	145.040000
490.817566	145.080000
490.911285	145.040000
491.004974	144.860000
491.098694	144.780000
491.192413	145.580000
491.286102	145.020000
491.379822	145.240000
491.473480	145.880000
491.567200	145.960000
491.660889	145.260000
491.754608	145.640000
491.848267	145.620000
491.941986	145.280000
492.035675	145.080000
492.129395	145.660000
492.223053	145.820000
492.316772	145.920000
492.410461	145.840000
492.504181	145.880000
492.597839	145.260000
492.691559	145.040000
492.785248	144.760000
492.878967	144.800000
492.972626	144.960000
493.066345	145.320000
493.160034	145.080000
493.253754	145.420000
493.347412	145.060000
493.441132	145.460000
493.534882	145.920000
493.628540	146.340000
493.722260	146.320000
493.815918	147.020000
493.909668	146.960000
494.003326	146.960000
494.097046	146.880000
494.190704	146.440000
494.284454	146.420000
494.378113	146.540000
494.471832	145.840000
494.565491	145.680000
494.659210	146.120000
494.752899	145.760000
494.846619	145.540000
494.940277	146.080000
495.033997	145.840000
495.127686	145.380000
495.221405	145.540000
495.315063	145.400000
495.408783	145.220000
495.502441	145.700000
495.596191	146.160000
495.689850	145.900000
495.783569	146.260000
495.877228	146.160000
495.970947	145.860000
496.064697	145.500000
496.158356	146.380000
496.252075	146.260000
496.345734	146.140000
496.439453	147.140000
496.533142	147.380000
496.626862	147.600000
496.720520	147.440000
496.814240	147.700000
496.907898	146.720000
497.001617	146.660000
497.095306	145.380000
497.189026	145.380000
497.282684	145.300000
497.376404	145.860000
497.470062	145.700000
497.563782	146.020000
497.657471	146.120000
497.751190	145.880000
497.844849	145.540000
497.938568	145.740000
498.032227	145.880000
498.125946	145.500000
498.219635	145.480000
498.313354	145.740000
498.407074	145.420000
498.500732	145.580000
498.594452	145.660000
498.688110	145.540000
498.781830	144.840000
498.875519	144.720000
498.969238	144.360000
499.062897	144.400000
499.156616	145.040000
499.250275	145.480000
499.343994	145.420000
499.437653	145.560000
499.531372	145.540000
499.625061	145.880000
499.718781	145.880000
499.812439	146.440000
499.906158	146.240000
499.999817	146.200000
500.093536	145.260000
500.187195	145.560000
500.280914	145.420000
500.374573	145.480000
500.468323	145.600000
500.561981	146.000000
500.655701	145.480000
500.749420	145.440000
500.843079	145.680000
500.936798	145.780000
501.030457	146.040000
501.124176	146.340000
501.217834	146.280000
501.311554	145.920000
501.405212	145.760000
501.498962	145.040000
501.592621	144.980000
501.686340	145.420000
501.779999	145.740000
501.873718	145.680000
501.967377	146.020000
502.061096	145.920000
502.154755	145.100000
502.248474	145.180000
502.342133	145.380000
502.435852	145.220000
502.529510	145.900000
502.623230	146.600000
502.716888	146.080000
502.810608	146.320000
502.904266	146.860000
502.997986	146.180000
503.091705	145.840000
503.185364	145.980000
503.279083	145.740000
503.372772	145.560000
503.466492	145.420000
503.560150	145.380000
503.653870	145.740000
503.747528	145.500000
503.841248	145.080000
503.934906	145.600000
504.028625	145.520000
504.122284	145.820000
504.216003	146.680000
504.309662	146.700000
504.403381	146.640000
504.497040	146.620000
504.590759	145.960000
504.684418	145.940000
504.778137	146.540000
504.871796	146.840000
504.965515	146.620000
505.059174	146.860000
505.152893	145.920000
505.246521	145.320000
505.340240	144.940000
505.433899	145.380000
505.527618	145.600000
505.621338	146.080000
505.714996	146.120000
505.808716	145.820000
505.902374	146.280000
505.996094	146.100000
506.089752	146.000000
506.183472	146.360000
506.277130	146.360000
506.370850	146.220000
506.464508	146.100000
506.558228	146.140000
506.651886	145.820000
506.745605	146.100000
506.839264	145.500000
506.932983	145.700000
507.026611	145.480000
507.120331	145.940000
507.213989	145.300000
507.307709	145.680000
507.401367	145.880000
507.495087	146.660000
507.588745	146.200000
507.682465	147.440000
507.776123	147.400000
507.869843	147.000000
507.963531	146.520000
508.057190	146.800000
508.150909	145.920000
508.244568	145.980000
508.338287	145.900000
508.431946	145.680000
508.525665	145.180000
508.619324	145.520000
508.713013	145.840000
508.806671	146.160000
508.900391	146.960000
508.994049	147.520000
509.087769	146.800000
509.181427	146.420000
509.275146	145.860000
509.368774	144.820000
509.462494	144.440000
509.556152	144.780000
509.649872	145.100000
509.743530	145.480000
509.837250	145.760000
509.930878	145.920000
510.024597	145.620000
510.118256	145.100000
510.211975	145.020000
510.305695	144.740000
510.399353	144.860000
510.493042	145.940000
510.586700	146.240000
510.680420	146.700000
510.774078	146.760000
510.867798	147.000000
510.961426	145.880000
511.055145	145.760000
511.148804	145.380000
511.242523	145.780000
511.336151	145.580000
511.429871	146.260000
511.523529	146.240000
511.617249	145.860000
511.710876	145.580000
511.804596	145.200000
511.898254	145.020000
511.991974	145.360000
512.085632	145.380000
512.179321	145.280000
512.272949	145.420000
512.366699	145.760000
512.460327	145.200000
512.554077	146.140000
512.647766	146.400000
512.741394	146.480000
512.835144	146.740000
512.928772	146.520000
513.022461	146.120000
513.116150	145.800000
513.209839	146.220000
513.303467	145.460000
513.397217	145.400000
513.490845	145.200000
513.584595	145.240000
513.678223	144.560000
513.771912	144.360000
513.865601	144.800000
513.959290	144.620000
514.052917	144.500000
514.146667	145.400000
514.240295	145.600000
514.333984	146.000000
514.427673	145.960000
514.521362	146.440000
514.614990	145.880000
514.708740	146.120000
514.802368	145.880000
514.896057	146.000000
514.989746	146.500000
515.083435	146.060000
515.177124	146.100000
515.270752	145.640000
515.364502	145.900000
515.458130	145.920000
515.551819	145.960000
515.645508	145.940000
515.739197	146.340000
515.832825	146.400000
515.926575	145.760000
516.020203	146.180000
516.113892	146.400000
516.207520	146.400000
516.301270	146.160000
516.394897	146.200000
516.488586	146.600000
516.582275	146.340000
516.675964	145.540000
516.769592	145.300000
516.863281	145.840000
516.956970	145.920000
517.050659	145.880000
517.144287	146.540000
517.238037	146.800000
517.331665	146.140000
517.425354	145.680000
517.519043	145.460000
517.612732	145.880000
517.706421	145.960000
517.800049	145.680000
517.893738	145.460000
517.987427	145.660000
518.081116	145.420000
518.174744	144.900000
518.268433	145.640000
518.362122	146.160000
518.455811	146.000000
518.549438	146.600000
518.643127	147.760000
518.736816	147.240000
518.830505	146.660000
518.924133	146.820000
519.017822	146.420000
519.111511	145.720000
519.205200	146.160000
519.298828	146.160000
519.392517	145.980000
519.486206	146.420000
519.579895	146.820000
519.673523	146.400000
519.767212	146.380000
519.860901	146.980000
519.954590	146.060000
520.048279	145.520000
520.141907	145.580000
520.235596	146.580000
520.329224	146.580000
520.422974	146.900000
520.516602	147.060000
520.610291	146.900000
520.703918	146.440000
520.797607	145.740000
520.891296	145.980000
520.984985	146.040000
521.078613	146.620000
521.172302	145.920000
521.265930	146.940000
521.359680	147.260000
521.453308	147.020000
521.546997	146.920000
521.640625	147.100000
521.734314	146.420000
521.827942	145.920000
521.921692	146.440000
522.015320	146.420000
522.109009	146.400000
522.202698	146.440000
522.296326	146.500000
522.390015	146.360000
522.483704	146.520000
522.577393	146.720000
522.671021	146.480000
522.764709	146.000000
522.858337	146.320000
522.952026	146.060000
523.045654	146.680000
523.139404	147.500000
523.233032	148.020000
523.326721	147.480000
523.420349	147.180000
523.514038	146.440000
523.607666	146.340000
523.701355	145.780000
523.795044	145.680000
523.888733	146.260000
523.982361	146.560000
524.076050	146.260000
524.169678	146.920000
524.263367	146.680000
524.356995	146.040000
524.450684	145.860000
524.544373	145.540000
524.638062	145.280000
524.731750	145.880000
524.825378	146.020000
524.919067	145.760000
525.012695	145.700000
525.106384	145.540000
525.200012	145.420000
525.293701	145.360000
525.387329	145.820000
525.481018	146.020000
525.574646	146.220000
525.668396	146.200000
525.762024	146.780000
525.855713	146.700000
525.949341	146.380000
526.043030	146.440000
526.136658	146.220000
526.230347	145.680000
526.323975	145.400000
526.417664	145.420000
526.511292	145.480000
526.604980	145.900000
526.698608	145.880000
526.792297	145.740000
526.885925	146.060000
526.979614	146.000000
527.073303	145.720000
527.166931	145.900000
527.260620	146.400000
527.354309	146.600000
527.447998	146.540000
527.541626	146.620000
527.635315	146.640000
527.728943	147.260000
527.822632	146.900000
527.916260	146.760000
528.009949	147.140000
528.103577	146.880000
528.197266	145.960000
528.290894	146.340000
528.384583	146.220000
528.478210	145.740000
528.571899	146.320000
528.665527	146.820000
528.759216	146.700000
528.852844	147.420000
528.946533	147.400000
529.040161	147.200000
529.133850	146.700000
529.227478	146.960000
529.321167	146.960000
529.414856	147.120000
529.508484	147.420000
529.602173	147.180000
529.695801	146.840000
529.789490	146.440000
529.883057	146.440000
529.976746	146.360000
530.070374	146.680000
530.164062	146.500000
530.257690	146.760000
530.351379	146.900000
530.445007	146.720000
530.538696	146.300000
530.632324	147.020000
530.726013	146.700000
530.819641	146.360000
530.913330	146.140000
531.006958	146.320000
531.100647	145.840000
531.194275	145.800000
531.287964	145.700000
531.381592	145.760000
531.475220	145.900000
531.568848	145.740000
531.662537	145.340000
531.756226	145.840000
531.849854	145.740000
531.943542	145.860000
532.037170	145.380000
532.130859	145.980000
532.224487	145.600000
532.318176	145.200000
532.411804	145.500000
532.505432	146.060000
532.599060	145.720000
532.692749	145.420000
532.786377	146.180000
532.880066	145.460000
532.973694	144.980000
533.067383	145.100000
533.161011	145.340000
533.254639	144.700000
533.348267	144.460000
533.441956	145.000000
533.535583	144.820000
533.629272	145.240000
533.722900	144.980000
533.816589	145.340000
533.910156	145.540000
534.003845	145.360000
534.097534	145.340000
534.191162	146.140000
534.284851	146.380000
534.378479	145.900000
534.472107	146.140000
534.565735	145.600000
534.659424	145.500000
534.753052	145.760000
534.846741	145.680000
534.940369	146.160000
535.033997	146.660000
535.127625	146.700000
535.221313	146.820000
535.314941	146.760000
535.408630	146.060000
535.502197	146.160000
535.595886	146.200000
535.689514	145.820000
535.783203	146.040000
535.876831	146.700000
535.970459	146.480000
536.064087	146.000000
536.157776	145.880000
536.251404	146.000000
536.345093	145.580000
536.438721	145.640000
536.532349	146.200000
536.626038	145.860000
536.719666	146.280000
536.813293	146.140000
536.906921	145.760000
537.000610	145.640000
537.094238	146.160000
537.187866	145.660000
537.281494	145.700000
537.375183	146.100000
537.468811	145.840000
537.562439	145.820000
537.656067	146.100000
537.749756	146.080000
537.843384	146.540000
537.937012	146.680000
538.030640	146.260000
538.124329	146.140000
538.217896	146.360000
538.311584	146.040000
538.405212	145.820000
538.498901	146.420000
538.592468	146.880000
538.686157	146.600000
538.779785	145.940000
538.873413	146.140000
538.967102	145.660000
539.060730	145.020000
539.154358	145.460000
539.247986	145.920000
539.341675	145.980000
539.435242	146.420000
539.528931	146.780000
539.622559	146.220000
539.716187	146.760000
539.809814	146.560000
539.903503	146.080000
539.997070	145.940000
540.090759	146.360000
540.184387	145.860000
540.278015	146.320000
540.371643	146.740000
540.465332	146.800000
540.558899	146.460000
540.652588	146.660000
540.746216	146.340000
540.839844	146.460000
540.933472	146.460000
541.027100	146.440000
541.120728	146.200000
541.214417	146.400000
541.308044	146.440000
541.401672	146.140000
541.495300	146.280000
541.588928	146.140000
541.682617	145.820000
541.776184	145.460000
541.869873	145.700000
541.963440	146.100000
542.057129	146.520000
542.150757	146.740000
542.244385	146.400000
542.338013	146.120000
542.431641	145.580000
542.525269	145.380000
542.618958	145.860000
542.712524	146.540000
542.806213	146.460000
542.899780	146.920000
542.993469	146.340000
543.087036	145.540000
543.180725	145.060000
543.274292	145.600000
543.367981	145.700000
543.461548	146.360000
543.555237	146.600000
543.648926	147.080000
543.742493	147.840000
543.836182	147.740000
543.929749	147.480000
544.023437	147.580000
544.117004	147.480000
544.210693	146.540000
544.304260	146.280000
544.397949	146.120000
544.491516	146.120000
544.585205	146.020000
544.678772	145.760000
544.772461	145.920000
544.866028	145.940000
544.959717	146.140000
545.053284	145.980000
545.146973	146.460000
545.240540	146.520000
545.334229	147.380000
545.427795	147.660000
545.521423	147.840000
545.615051	147.900000
545.708679	148.320000
545.802307	147.880000
545.895935	147.700000
545.989624	148.680000
546.083191	148.460000
546.176880	148.240000
546.270447	147.920000
546.364136	148.180000
546.457703	147.060000
546.551331	147.020000
546.644958	147.040000
546.738586	147.340000
546.832214	146.660000
546.925842	146.580000
547.019409	146.740000
547.113098	146.400000
547.206665	145.880000
547.300354	146.020000
547.393921	146.420000
547.487549	146.380000
547.581177	146.160000
547.674805	146.080000
547.768433	145.600000
547.862061	145.420000
547.955627	144.800000
548.049316	145.240000
548.142883	145.820000
548.236572	146.480000
548.330139	146.640000
548.423767	146.800000
548.517456	146.580000
548.611023	146.900000
548.704651	146.140000
548.798279	145.920000
548.891907	146.500000
548.985474	146.320000
549.079163	145.820000
549.172729	145.860000
549.266357	145.400000
549.359985	145.220000
549.453613	144.940000
549.547180	144.820000
549.640869	145.660000
549.734436	145.780000
549.828064	146.060000
549.921631	146.240000
550.015320	145.940000
550.108887	146.060000
550.202515	146.280000
550.296143	145.900000
550.389771	146.220000
550.483337	146.440000
550.576965	145.880000
550.670593	146.220000
550.764221	146.260000
550.857849	145.980000
550.951477	145.760000
551.045105	145.520000
551.138672	145.520000
551.232300	145.080000
551.325928	145.700000
551.419556	145.980000
551.513123	146.120000
551.606750	145.700000
551.700378	145.900000
551.794006	145.220000
551.887573	144.920000
551.981201	145.500000
552.074768	145.520000
552.168457	145.240000
552.262024	146.160000
552.355652	146.380000
552.449219	146.500000
552.542847	146.600000
552.636475	146.380000
552.730103	145.260000
552.823669	144.800000
552.917297	143.960000
553.010864	144.080000
553.104553	144.840000
553.198181	144.960000
553.291748	145.820000
553.385376	146.220000
553.478943	146.000000
553.572571	145.780000
553.666199	146.140000
553.759827	145.640000
553.853394	145.500000
553.947021	145.720000
554.040588	145.760000
554.134216	145.840000
554.227783	146.700000
554.321411	147.040000
554.415039	146.720000
554.508667	146.720000
554.602234	146.580000
554.695862	145.940000
554.789429	145.700000
554.883057	145.820000
554.976624	145.700000
555.070251	145.840000
555.163818	145.620000
555.257507	145.740000
555.351074	146.080000
555.444702	147.020000
555.538330	146.640000
555.631897	147.060000
555.725525	146.760000
555.819092	146.360000
555.912720	145.340000
556.006287	146.020000
556.099915	145.780000
556.193481	146.360000
556.287109	146.400000
556.380676	146.500000
556.474304	146.600000
556.567871	146.740000
556.661499	145.700000
556.755066	145.740000
556.848694	145.780000
556.942261	145.440000
557.035889	145.340000
557.129517	145.860000
557.223145	146.300000
557.316711	146.660000
557.410339	146.600000
557.503906	146.580000
557.597473	146.600000
557.691040	146.040000
557.784668	145.980000
557.878296	145.860000
557.971863	146.000000
558.065491	146.340000
558.159058	146.480000
558.252686	146.680000
558.346252	147.240000
558.439880	146.800000
558.533447	146.240000
558.627075	145.860000
558.720642	145.380000
558.814270	144.980000
558.907837	145.160000
559.001465	144.980000
559.095032	145.760000
559.188660	145.920000
559.282227	145.720000
559.375854	146.300000
559.469360	146.440000
559.562988	146.480000
559.656555	146.480000
559.750183	146.660000
559.843750	146.560000
559.937378	146.760000
560.030945	146.460000
560.124573	0.000000
560.218140	0.000000
560.311707	0.000000
560.405334	0.000000
560.498901	0.000000
560.592529	0.000000
560.686096	0.000000
560.779724	0.000000
560.873291	0.000000
560.966858	0.000000
561.060425	0.000000
561.154053	0.000000
561.247620	0.000000
561.341248	0.000000
561.434814	0.000000
561.528381	0.000000
561.621948	0.000000
561.715576	0.000000
561.809143	0.000000
561.902771	0.000000
561.996277	0.000000
562.089905	0.000000
562.183472	0.000000
562.277100	0.000000
