Model Number: SPM-002-B   
Serial Number: 70087108
Firmware Version: 004.15.4
Exposure Time: 100000.000000us
Data Taken on: 11-12-2020 19:30:51.143
Wavelength	Amplitude
221.570786	0.000000
221.663406	0.000000
221.756027	0.000000
221.848648	0.000000
221.941269	0.000000
222.033905	0.000000
222.126526	0.000000
222.219162	0.000000
222.311798	0.000000
222.404419	0.000000
222.497055	0.000000
222.589676	0.000000
222.682312	0.000000
222.774933	0.000000
222.867569	0.000000
222.960205	0.000000
223.052841	0.000000
223.145462	0.000000
223.238098	0.000000
223.330734	0.000000
223.423386	0.000000
223.516022	0.000000
223.608658	0.000000
223.701309	0.000000
223.793945	0.000000
223.886581	0.000000
223.979218	0.000000
224.071869	0.000000
224.164505	0.000000
224.257156	0.000000
224.349792	0.000000
224.442444	0.000000
224.535095	0.000000
224.627747	0.000000
224.720398	0.000000
224.813034	0.000000
224.905685	0.000000
224.998337	146.100000
225.090988	145.640000
225.183640	145.500000
225.276291	145.380000
225.368942	146.080000
225.461594	146.300000
225.554245	146.600000
225.646912	146.640000
225.739578	147.220000
225.832230	147.620000
225.924896	147.000000
226.017548	147.060000
226.110199	147.420000
226.202866	146.520000
226.295532	146.000000
226.388184	146.080000
226.480850	145.680000
226.573517	145.500000
226.666168	146.100000
226.758835	146.480000
226.851501	146.800000
226.944183	146.980000
227.036850	146.540000
227.129517	146.500000
227.222183	146.420000
227.314850	146.220000
227.407516	146.680000
227.500198	147.680000
227.592865	146.980000
227.685532	146.320000
227.778214	146.240000
227.870880	146.180000
227.963562	146.340000
228.056229	147.200000
228.148926	147.540000
228.241592	148.000000
228.334274	147.720000
228.426956	147.360000
228.519638	147.160000
228.612305	146.960000
228.704987	146.960000
228.797668	147.160000
228.890350	146.820000
228.983032	146.380000
229.075714	146.820000
229.168396	146.420000
229.261108	146.020000
229.353790	145.960000
229.446472	146.400000
229.539169	146.200000
229.631851	146.060000
229.724533	146.260000
229.817230	146.480000
229.909912	147.000000
230.002609	147.180000
230.095306	147.480000
230.187988	147.560000
230.280685	147.320000
230.373383	146.400000
230.466095	145.920000
230.558792	145.860000
230.651474	145.560000
230.744171	145.260000
230.836868	145.260000
230.929581	145.600000
231.022278	145.580000
231.114975	146.000000
231.207672	146.320000
231.300369	146.860000
231.393082	146.960000
231.485779	146.760000
231.578506	146.580000
231.671204	146.720000
231.763916	146.640000
231.856613	146.640000
231.949326	147.180000
232.042023	146.940000
232.134735	146.680000
232.227448	146.040000
232.320160	145.820000
232.412872	145.700000
232.505585	146.580000
232.598297	147.100000
232.691010	147.260000
232.783722	147.120000
232.876450	147.300000
232.969162	146.520000
233.061874	145.740000
233.154587	145.700000
233.247314	146.120000
233.340027	145.560000
233.432739	146.360000
233.525467	146.440000
233.618179	146.820000
233.710907	146.480000
233.803635	146.820000
233.896347	146.080000
233.989090	146.620000
234.081818	146.500000
234.174545	146.840000
234.267258	146.720000
234.359985	147.020000
234.452713	146.860000
234.545441	146.760000
234.638168	146.580000
234.730896	146.960000
234.823639	146.800000
234.916367	147.080000
235.009094	146.940000
235.101822	146.960000
235.194580	146.540000
235.287308	146.580000
235.380051	146.180000
235.472778	146.860000
235.565521	146.940000
235.658249	146.660000
235.750992	146.760000
235.843719	146.620000
235.936462	146.340000
236.029205	146.180000
236.121948	146.260000
236.214691	146.360000
236.307449	147.160000
236.400192	147.020000
236.492935	146.700000
236.585678	146.980000
236.678421	147.020000
236.771164	146.620000
236.863907	147.280000
236.956665	147.660000
237.049408	149.160000
237.142151	148.680000
237.234909	149.000000
237.327652	148.480000
237.420410	148.100000
237.513153	147.060000
237.605927	147.080000
237.698669	146.660000
237.791428	146.080000
237.884186	146.740000
237.976944	146.260000
238.069702	146.800000
238.162445	146.560000
238.255203	146.740000
238.347961	146.580000
238.440720	146.300000
238.533478	145.820000
238.626266	145.640000
238.719025	146.040000
238.811783	145.720000
238.904541	145.720000
238.997314	145.560000
239.090073	145.440000
239.182831	145.720000
239.275604	146.760000
239.368362	146.720000
239.461136	147.040000
239.553909	147.060000
239.646667	146.360000
239.739441	145.740000
239.832214	146.160000
239.925003	146.360000
240.017761	147.020000
240.110535	147.980000
240.203308	147.400000
240.296082	147.540000
240.388855	147.420000
240.481628	147.140000
240.574417	147.000000
240.667191	147.560000
240.759964	147.060000
240.852737	146.860000
240.945526	146.840000
241.038315	146.400000
241.131088	146.440000
241.223877	146.700000
241.316650	146.460000
241.409439	146.620000
241.502228	146.120000
241.595001	146.320000
241.687790	146.220000
241.780579	146.480000
241.873367	146.660000
241.966141	147.260000
242.058929	146.520000
242.151718	146.540000
242.244507	146.840000
242.337311	146.200000
242.430099	146.540000
242.522903	147.120000
242.615692	146.960000
242.708481	146.740000
242.801270	147.240000
242.894073	146.840000
242.986862	146.660000
243.079651	147.280000
243.172455	146.980000
243.265244	146.940000
243.358063	146.460000
243.450867	146.780000
243.543655	146.280000
243.636459	146.720000
243.729263	147.160000
243.822067	147.600000
243.914856	147.700000
244.007660	147.820000
244.100464	147.880000
244.193268	147.240000
244.286072	147.300000
244.378876	146.540000
244.471680	146.060000
244.564499	145.920000
244.657318	146.460000
244.750122	146.560000
244.842926	146.160000
244.935745	146.860000
245.028549	146.500000
245.121368	145.860000
245.214172	145.760000
245.306992	146.520000
245.399796	146.160000
245.492615	146.420000
245.585434	146.760000
245.678253	146.780000
245.771072	146.440000
245.863892	147.040000
245.956711	147.300000
246.049530	146.860000
246.142349	146.380000
246.235168	146.280000
246.327988	146.840000
246.420807	146.560000
246.513626	146.660000
246.606445	146.720000
246.699280	147.040000
246.792099	146.000000
246.884918	145.740000
246.977753	145.780000
247.070587	145.960000
247.163422	145.860000
247.256241	146.080000
247.349075	146.600000
247.441895	146.500000
247.534729	146.400000
247.627563	146.180000
247.720383	146.840000
247.813217	146.380000
247.906052	146.380000
247.998886	146.500000
248.091736	146.780000
248.184570	146.300000
248.277405	146.520000
248.370239	147.560000
248.463074	148.480000
248.555908	148.760000
248.648743	148.420000
248.741592	148.620000
248.834427	147.740000
248.927261	146.520000
249.020111	146.780000
249.112946	147.380000
249.205795	147.100000
249.298630	147.040000
249.391495	147.060000
249.484344	146.340000
249.577179	146.000000
249.670029	146.320000
249.762878	146.920000
249.855728	147.100000
249.948563	147.520000
250.041412	147.040000
250.134262	147.120000
250.227112	146.960000
250.319962	147.140000
250.412827	147.020000
250.505692	146.980000
250.598541	146.860000
250.691391	146.600000
250.784241	146.400000
250.877106	146.540000
250.969955	146.440000
251.062805	146.580000
251.155670	147.020000
251.248520	147.020000
251.341385	147.200000
251.434235	147.120000
251.527100	146.860000
251.619965	146.240000
251.712814	146.980000
251.805695	146.700000
251.898560	147.120000
251.991425	147.340000
252.084290	147.500000
252.177155	146.700000
252.270020	146.560000
252.362885	146.480000
252.455750	146.520000
252.548615	146.300000
252.641479	146.440000
252.734360	146.280000
252.827240	146.140000
252.920105	145.880000
253.012970	146.080000
253.105850	146.260000
253.198715	146.300000
253.291595	146.180000
253.384460	145.940000
253.477341	145.780000
253.570221	145.820000
253.663086	145.780000
253.755966	146.400000
253.848846	146.580000
253.941727	146.900000
254.034592	146.680000
254.127472	146.000000
254.220367	146.120000
254.313248	146.240000
254.406128	145.640000
254.499008	145.800000
254.591904	147.040000
254.684784	147.140000
254.777664	146.940000
254.870544	146.980000
254.963440	146.840000
255.056335	146.560000
255.149216	146.060000
255.242111	146.520000
255.334991	146.820000
255.427887	146.860000
255.520767	146.680000
255.613663	146.900000
255.706558	146.140000
255.799438	146.180000
255.892334	146.180000
255.985229	146.220000
256.078125	145.980000
256.171021	146.260000
256.263916	146.420000
256.356812	146.660000
256.449707	146.880000
256.542603	146.520000
256.635498	147.080000
256.728394	146.860000
256.821289	146.520000
256.914215	146.580000
257.007080	147.060000
257.100006	146.800000
257.192932	147.220000
257.285828	147.500000
257.378723	147.160000
257.471619	147.100000
257.564545	146.720000
257.657440	146.660000
257.750336	147.020000
257.843262	146.880000
257.936157	147.760000
258.029053	147.880000
258.121979	147.720000
258.214874	147.020000
258.307800	147.140000
258.400696	146.060000
258.493622	146.200000
258.586517	145.340000
258.679443	145.820000
258.772339	145.280000
258.865265	145.440000
258.958160	145.080000
259.051086	146.220000
259.144012	145.940000
259.236938	147.060000
259.329834	146.880000
259.422791	146.660000
259.515717	146.000000
259.608612	145.800000
259.701538	145.500000
259.794464	145.700000
259.887390	145.800000
259.980316	146.020000
260.073212	146.000000
260.166138	145.280000
260.259064	145.540000
260.351990	146.560000
260.444916	146.480000
260.537842	146.900000
260.630768	147.680000
260.723694	147.540000
260.816620	146.960000
260.909546	146.900000
261.002472	146.580000
261.095398	146.000000
261.188354	145.860000
261.281281	145.460000
261.374207	145.540000
261.467133	146.080000
261.560089	146.440000
261.653015	146.200000
261.745972	146.820000
261.838867	147.220000
261.931824	146.960000
262.024780	146.400000
262.117706	146.880000
262.210663	147.040000
262.303589	146.640000
262.396515	146.820000
262.489471	147.920000
262.582397	147.540000
262.675354	147.300000
262.768280	147.320000
262.861237	147.200000
262.954163	146.780000
263.047119	146.920000
263.140045	146.440000
263.233002	146.660000
263.325958	146.660000
263.418884	146.320000
263.511841	146.660000
263.604797	146.920000
263.697723	146.860000
263.790680	146.640000
263.883636	147.060000
263.976593	146.560000
264.069550	146.480000
264.162476	146.360000
264.255463	146.440000
264.348419	146.240000
264.441376	146.340000
264.534332	146.160000
264.627289	146.440000
264.720245	146.780000
264.813202	146.260000
264.906158	146.480000
264.999115	146.920000
265.092072	146.900000
265.185028	147.240000
265.277985	147.680000
265.370941	147.440000
265.463898	147.380000
265.556854	146.800000
265.649811	145.720000
265.742798	146.040000
265.835754	146.320000
265.928711	146.280000
266.021667	146.520000
266.114655	146.860000
266.207611	146.600000
266.300568	145.920000
266.393585	145.740000
266.486511	146.120000
266.579498	145.580000
266.672485	145.680000
266.765442	145.800000
266.858429	146.260000
266.951385	145.880000
267.044342	146.400000
267.137329	145.900000
267.230316	146.180000
267.323273	145.600000
267.416260	146.080000
267.509216	145.860000
267.602203	146.180000
267.695160	146.520000
267.788147	146.660000
267.881134	146.160000
267.974091	146.580000
268.067078	146.460000
268.160065	146.060000
268.253052	146.000000
268.346008	146.180000
268.438995	145.880000
268.531982	146.020000
268.624969	145.800000
268.717987	146.280000
268.810944	146.160000
268.903961	146.320000
268.996948	145.760000
269.089905	146.560000
269.182892	146.240000
269.275879	146.620000
269.368866	146.060000
269.461853	146.580000
269.554871	146.100000
269.647858	146.360000
269.740845	146.260000
269.833832	147.180000
269.926819	147.080000
270.019806	147.280000
270.112793	146.740000
270.205811	146.940000
270.298798	146.280000
270.391785	146.880000
270.484772	146.800000
270.577789	147.200000
270.670776	146.720000
270.763763	147.020000
270.856750	146.620000
270.949768	146.440000
271.042786	146.560000
271.135773	146.860000
271.228790	146.960000
271.321808	146.400000
271.414795	146.020000
271.507782	145.660000
271.600800	145.080000
271.693817	145.040000
271.786804	145.800000
271.879822	146.100000
271.972809	145.900000
272.065826	146.560000
272.158844	146.120000
272.251831	146.480000
272.344849	146.560000
272.437866	146.440000
272.530853	146.400000
272.623871	146.820000
272.716888	145.760000
272.809906	146.120000
272.902893	146.480000
272.995911	145.940000
273.088928	145.960000
273.181946	146.560000
273.274963	146.060000
273.367981	145.940000
273.460999	146.300000
273.554047	146.460000
273.647003	146.820000
273.740051	146.740000
273.833069	146.940000
273.926086	146.940000
274.019135	146.620000
274.112152	146.040000
274.205170	146.300000
274.298187	146.380000
274.391205	145.880000
274.484222	146.080000
274.577240	146.100000
274.670258	145.860000
274.763306	145.740000
274.856323	146.300000
274.949341	146.080000
275.042358	146.660000
275.135406	146.640000
275.228424	146.660000
275.321442	146.740000
275.414490	146.580000
275.507507	146.540000
275.600525	147.220000
275.693573	147.080000
275.786591	146.900000
275.879669	147.080000
275.972656	146.660000
276.065735	146.160000
276.158752	146.580000
276.251801	147.020000
276.344818	147.260000
276.437866	147.420000
276.530884	147.260000
276.623932	146.500000
276.716980	146.580000
276.809998	146.500000
276.903046	146.520000
276.996094	147.680000
277.089111	148.200000
277.182159	148.340000
277.275208	148.140000
277.368256	147.860000
277.461304	146.940000
277.554321	146.560000
277.647369	146.340000
277.740417	146.200000
277.833466	146.080000
277.926514	145.860000
278.019562	146.340000
278.112610	145.580000
278.205688	145.940000
278.298706	146.180000
278.391785	146.280000
278.484833	146.040000
278.577881	146.100000
278.670929	146.400000
278.763977	146.380000
278.857025	146.800000
278.950073	146.720000
279.043121	146.760000
279.136169	146.360000
279.229248	146.080000
279.322296	146.040000
279.415344	145.800000
279.508392	145.680000
279.601440	145.640000
279.694519	145.980000
279.787567	145.700000
279.880615	145.420000
279.973694	145.580000
280.066742	145.640000
280.159790	145.820000
280.252869	145.700000
280.345917	146.160000
280.438995	146.400000
280.532074	146.420000
280.625122	146.380000
280.718201	147.100000
280.811279	147.400000
280.904327	147.160000
280.997406	147.280000
281.090454	147.220000
281.183533	146.680000
281.276581	146.440000
281.369659	146.300000
281.462738	146.440000
281.555786	146.540000
281.648865	146.380000
281.741943	146.460000
281.835022	147.100000
281.928070	146.500000
282.021149	146.200000
282.114227	146.320000
282.207306	146.120000
282.300385	146.080000
282.393433	146.240000
282.486511	146.360000
282.579590	146.740000
282.672668	147.180000
282.765747	146.420000
282.858856	146.320000
282.951904	146.280000
283.045013	146.080000
283.138062	145.800000
283.231171	146.440000
283.324249	146.840000
283.417328	146.820000
283.510406	146.700000
283.603485	146.540000
283.696564	146.320000
283.789642	146.460000
283.882751	146.320000
283.975830	146.820000
284.068909	146.680000
284.161987	147.080000
284.255066	146.260000
284.348175	146.500000
284.441254	146.000000
284.534332	146.480000
284.627441	145.960000
284.720520	146.020000
284.813599	145.780000
284.906708	145.880000
284.999786	145.480000
285.092896	145.420000
285.185974	146.540000
285.279053	146.240000
285.372192	145.960000
285.465240	146.680000
285.558380	146.880000
285.651459	146.300000
285.744568	147.220000
285.837677	147.200000
285.930756	146.960000
286.023865	146.620000
286.116943	146.200000
286.210052	146.320000
286.303162	146.560000
286.396240	146.460000
286.489349	146.580000
286.582458	147.280000
286.675568	146.780000
286.768646	146.720000
286.861755	146.840000
286.954865	147.700000
287.047974	146.800000
287.141083	146.480000
287.234161	146.180000
287.327271	145.800000
287.420380	145.600000
287.513519	145.960000
287.606598	146.160000
287.699738	146.600000
287.792816	146.620000
287.885956	146.380000
287.979034	146.500000
288.072174	146.460000
288.165283	146.180000
288.258392	146.540000
288.351501	145.980000
288.444611	146.060000
288.537720	146.580000
288.630859	146.560000
288.723969	146.420000
288.817078	146.760000
288.910187	146.620000
289.003296	145.900000
289.096436	145.920000
289.189545	145.620000
289.282654	145.460000
289.375763	146.000000
289.468903	146.360000
289.562012	146.500000
289.655121	146.880000
289.748260	147.000000
289.841400	147.120000
289.934509	147.340000
290.027649	147.620000
290.120728	147.500000
290.213898	147.540000
290.306976	146.900000
290.400146	146.640000
290.493256	146.100000
290.586395	146.020000
290.679535	146.280000
290.772644	146.240000
290.865784	145.620000
290.958893	145.800000
291.052032	145.900000
291.145172	145.600000
291.238281	145.320000
291.331421	145.480000
291.424561	145.920000
291.517670	145.580000
291.610809	146.040000
291.703949	146.080000
291.797089	146.540000
291.890228	146.100000
291.983337	145.880000
292.076477	145.520000
292.169617	145.680000
292.262756	145.660000
292.355927	145.480000
292.449036	145.480000
292.542206	145.600000
292.635315	146.100000
292.728485	146.360000
292.821625	146.380000
292.914764	147.840000
293.007904	147.880000
293.101044	147.660000
293.194183	147.360000
293.287323	147.260000
293.380463	146.360000
293.473602	145.980000
293.566742	146.220000
293.659882	146.720000
293.753021	147.200000
293.846191	147.140000
293.939331	146.860000
294.032471	146.480000
294.125610	145.800000
294.218781	146.280000
294.311920	147.040000
294.405060	147.560000
294.498230	147.660000
294.591370	147.740000
294.684540	146.820000
294.777679	146.040000
294.870850	146.380000
294.963959	146.380000
295.057159	146.320000
295.150299	146.860000
295.243469	146.820000
295.336609	145.940000
295.429779	145.820000
295.522919	146.500000
295.616089	146.220000
295.709229	146.580000
295.802399	147.200000
295.895569	146.740000
295.988708	146.280000
296.081879	146.460000
296.175018	146.180000
296.268188	146.060000
296.361359	147.120000
296.454529	147.200000
296.547668	147.020000
296.640839	147.060000
296.734009	146.780000
296.827179	146.500000
296.920319	146.820000
297.013519	146.620000
297.106659	146.780000
297.199860	147.100000
297.292999	146.840000
297.386200	146.440000
297.479309	146.480000
297.572510	146.480000
297.665680	146.060000
297.758850	146.160000
297.852020	146.040000
297.945190	145.960000
298.038361	145.820000
298.131531	146.900000
298.224701	146.640000
298.317871	146.400000
298.411072	146.200000
298.504242	146.000000
298.597412	145.220000
298.690582	145.840000
298.783752	145.940000
298.876923	146.440000
298.970093	146.500000
299.063293	146.760000
299.156464	146.740000
299.249634	147.240000
299.342834	147.280000
299.436005	147.980000
299.529205	147.860000
299.622345	147.680000
299.715576	147.060000
299.808716	146.800000
299.901917	146.200000
299.995117	146.420000
300.088287	146.500000
300.181488	146.460000
300.274658	146.440000
300.367828	146.580000
300.461029	146.440000
300.554199	146.940000
300.647400	147.240000
300.740601	147.620000
300.833771	147.220000
300.926971	147.580000
301.020142	146.800000
301.113342	146.720000
301.206512	146.540000
301.299713	147.000000
301.392914	146.560000
301.486084	146.920000
301.579285	147.040000
301.672516	147.500000
301.765686	147.420000
301.858887	147.300000
301.952057	147.120000
302.045288	146.980000
302.138458	146.440000
302.231659	146.300000
302.324860	146.140000
302.418060	146.060000
302.511261	146.380000
302.604462	146.980000
302.697662	146.840000
302.790863	146.860000
302.884064	146.520000
302.977264	146.160000
303.070465	146.020000
303.163666	146.980000
303.256866	147.560000
303.350067	147.920000
303.443268	147.920000
303.536469	147.880000
303.629669	146.840000
303.722870	146.800000
303.816071	146.300000
303.909271	146.380000
304.002472	145.480000
304.095673	145.420000
304.188934	144.640000
304.282104	145.720000
304.375336	145.840000
304.468506	146.180000
304.561768	146.060000
304.654968	146.920000
304.748169	146.180000
304.841370	146.120000
304.934601	146.720000
305.027802	146.900000
305.121002	146.600000
305.214233	146.920000
305.307434	146.920000
305.400665	147.460000
305.493866	147.440000
305.587097	147.660000
305.680298	147.180000
305.773499	147.500000
305.866730	146.620000
305.959930	147.160000
306.053162	147.040000
306.146393	146.820000
306.239594	145.820000
306.332825	146.080000
306.426025	146.220000
306.519287	145.680000
306.612488	145.920000
306.705719	146.400000
306.798920	146.340000
306.892181	145.680000
306.985352	145.820000
307.078613	145.380000
307.171844	145.940000
307.265045	145.840000
307.358276	145.600000
307.451508	145.860000
307.544739	146.780000
307.637970	146.180000
307.731201	145.740000
307.824402	146.520000
307.917633	146.460000
308.010864	146.720000
308.104095	147.180000
308.197327	147.500000
308.290558	147.340000
308.383789	147.300000
308.477020	146.660000
308.570251	146.060000
308.663483	145.860000
308.756714	145.540000
308.849976	145.400000
308.943176	145.760000
309.036438	145.840000
309.129639	145.640000
309.222900	145.840000
309.316101	145.700000
309.409393	145.300000
309.502625	145.280000
309.595856	145.540000
309.689087	145.440000
309.782318	145.640000
309.875580	145.900000
309.968811	146.000000
310.062042	145.780000
310.155273	146.000000
310.248535	146.380000
310.341766	146.000000
310.434998	145.940000
310.528259	145.980000
310.621490	146.140000
310.714722	145.660000
310.807983	146.040000
310.901215	146.160000
310.994476	146.300000
311.087708	145.780000
311.181000	146.120000
311.274200	145.680000
311.367462	145.820000
311.460693	145.920000
311.553986	146.840000
311.647186	146.940000
311.740479	147.540000
311.833710	147.140000
311.926971	147.120000
312.020203	146.040000
312.113464	145.860000
312.206726	145.360000
312.299957	145.640000
312.393219	146.240000
312.486481	146.580000
312.579712	146.420000
312.672974	146.580000
312.766235	146.620000
312.859497	146.060000
312.952759	145.960000
313.045990	146.820000
313.139252	146.240000
313.232513	146.460000
313.325775	146.600000
313.419037	146.320000
313.512299	145.400000
313.605530	146.460000
313.698822	146.420000
313.792053	146.500000
313.885345	146.600000
313.978577	146.840000
314.071869	146.140000
314.165131	145.940000
314.258392	146.220000
314.351654	146.580000
314.444916	146.140000
314.538177	146.860000
314.631439	147.220000
314.724701	146.720000
314.817993	146.480000
314.911255	146.900000
315.004517	146.000000
315.097778	145.900000
315.191040	146.220000
315.284302	146.480000
315.377594	146.320000
315.470856	146.680000
315.564117	146.220000
315.657379	145.760000
315.750671	145.440000
315.843933	145.620000
315.937195	145.200000
316.030518	144.920000
316.123749	145.080000
316.217041	145.820000
316.310303	145.940000
316.403595	146.220000
316.496857	146.640000
316.590149	146.840000
316.683411	146.140000
316.776703	145.960000
316.869965	146.000000
316.963257	145.780000
317.056519	145.180000
317.149811	145.020000
317.243073	145.060000
317.336365	145.260000
317.429626	145.840000
317.522919	146.080000
317.616180	146.580000
317.709473	146.480000
317.802765	146.120000
317.896027	145.860000
317.989319	146.360000
318.082611	146.200000
318.175873	146.020000
318.269165	146.260000
318.362488	146.200000
318.455750	145.920000
318.549042	145.980000
318.642303	146.380000
318.735626	146.220000
318.828888	146.480000
318.922211	146.140000
319.015472	146.560000
319.108765	145.940000
319.202057	145.560000
319.295349	145.560000
319.388641	145.780000
319.481934	145.240000
319.575226	145.600000
319.668518	146.220000
319.761810	146.280000
319.855103	146.300000
319.948395	146.580000
320.041687	146.720000
320.134979	146.580000
320.228271	146.220000
320.321564	146.100000
320.414856	146.180000
320.508148	145.740000
320.601440	145.740000
320.694763	145.620000
320.788025	146.420000
320.881348	146.340000
320.974640	146.400000
321.067963	146.180000
321.161224	146.260000
321.254547	145.480000
321.347839	145.900000
321.441162	145.880000
321.534454	145.780000
321.627747	145.580000
321.721069	146.300000
321.814362	146.260000
321.907654	146.480000
322.000946	146.640000
322.094269	147.420000
322.187561	146.580000
322.280884	146.500000
322.374176	146.480000
322.467468	147.020000
322.560791	146.840000
322.654083	147.560000
322.747406	147.660000
322.840698	147.840000
322.934021	147.940000
323.027344	147.760000
323.120636	147.520000
323.213959	147.100000
323.307251	146.540000
323.400574	146.100000
323.493866	145.940000
323.587219	145.780000
323.680511	146.220000
323.773834	146.680000
323.867157	146.920000
323.960449	147.260000
324.053772	147.260000
324.147095	147.020000
324.240387	147.340000
324.333710	147.300000
324.427032	147.240000
324.520355	147.240000
324.613647	146.820000
324.706970	146.460000
324.800293	146.180000
324.893616	146.340000
324.986938	146.480000
325.080231	146.320000
325.173553	146.560000
325.266876	147.100000
325.360199	146.960000
325.453522	146.660000
325.546875	146.560000
325.640167	146.580000
325.733521	146.360000
325.826813	146.600000
325.920166	146.500000
326.013489	146.780000
326.106812	146.140000
326.200134	145.640000
326.293457	144.760000
326.386780	144.920000
326.480103	144.740000
326.573425	144.880000
326.666748	145.020000
326.760071	145.720000
326.853424	145.620000
326.946747	145.920000
327.040070	146.660000
327.133392	146.640000
327.226715	145.960000
327.320068	145.560000
327.413391	145.660000
327.506714	144.860000
327.600037	144.940000
327.693390	145.160000
327.786713	145.460000
327.880066	145.460000
327.973358	146.140000
328.066742	146.420000
328.160034	146.620000
328.253418	147.040000
328.346710	146.660000
328.440063	145.980000
328.533417	145.640000
328.626740	145.800000
328.720093	145.640000
328.813416	145.900000
328.906769	146.100000
329.000092	146.380000
329.093445	146.240000
329.186768	145.800000
329.280121	146.080000
329.373444	146.420000
329.466797	146.400000
329.560120	146.540000
329.653473	146.940000
329.746796	146.360000
329.840149	146.180000
329.933502	146.020000
330.026825	145.760000
330.120178	145.620000
330.213562	145.800000
330.306854	145.440000
330.400238	145.400000
330.493561	145.500000
330.586945	146.460000
330.680237	146.680000
330.773621	147.280000
330.866974	147.780000
330.960327	148.140000
331.053680	147.320000
331.147003	147.300000
331.240356	147.180000
331.333710	146.780000
331.427063	146.680000
331.520416	146.460000
331.613770	146.240000
331.707123	146.300000
331.800476	146.380000
331.893829	146.900000
331.987152	147.260000
332.080505	147.120000
332.173859	146.880000
332.267212	146.420000
332.360565	145.480000
332.453918	145.240000
332.547333	145.560000
332.640656	145.800000
332.734039	145.920000
332.827362	146.300000
332.920746	146.700000
333.014069	146.820000
333.107452	146.840000
333.200806	147.480000
333.294159	147.680000
333.387543	147.360000
333.480896	147.080000
333.574249	146.800000
333.667603	146.240000
333.760956	146.000000
333.854340	146.000000
333.947693	145.880000
334.041046	146.280000
334.134430	146.580000
334.227783	146.400000
334.321136	146.160000
334.414520	145.900000
334.507874	145.660000
334.601227	145.520000
334.694611	145.540000
334.787964	145.680000
334.881348	146.300000
334.974701	146.280000
335.068085	146.260000
335.161438	146.460000
335.254822	146.340000
335.348175	146.440000
335.441559	146.120000
335.534943	146.740000
335.628296	146.440000
335.721680	146.480000
335.815033	146.500000
335.908417	146.800000
336.001770	146.560000
336.095154	146.560000
336.188538	146.640000
336.281891	145.940000
336.375275	145.340000
336.468658	144.940000
336.562012	144.940000
336.655396	145.100000
336.748779	145.760000
336.842133	146.260000
336.935516	146.680000
337.028900	146.560000
337.122284	146.540000
337.215637	146.540000
337.309021	146.480000
337.402435	145.860000
337.495789	145.860000
337.589203	145.540000
337.682526	145.300000
337.775940	145.500000
337.869324	145.880000
337.962708	145.740000
338.056091	146.460000
338.149475	145.900000
338.242859	145.840000
338.336243	145.620000
338.429626	145.780000
338.523010	145.440000
338.616394	145.820000
338.709778	145.960000
338.803162	146.060000
338.896545	146.300000
338.989929	145.820000
339.083313	146.100000
339.176697	145.820000
339.270081	145.740000
339.363464	145.880000
339.456848	146.500000
339.550232	145.800000
339.643616	145.600000
339.737030	145.440000
339.830383	145.380000
339.923828	145.420000
340.017181	145.880000
340.110596	146.180000
340.203949	146.440000
340.297363	145.780000
340.390778	145.540000
340.484161	145.420000
340.577545	145.300000
340.670959	145.160000
340.764343	145.140000
340.857727	145.200000
340.951111	144.980000
341.044525	145.040000
341.137909	144.900000
341.231293	145.240000
341.324707	145.000000
341.418091	145.940000
341.511505	145.940000
341.604889	146.320000
341.698303	146.440000
341.791687	146.540000
341.885071	145.880000
341.978485	145.680000
342.071899	145.700000
342.165283	145.900000
342.258698	146.040000
342.352081	146.440000
342.445496	147.060000
342.538879	146.980000
342.632324	146.700000
342.725708	146.560000
342.819122	146.180000
342.912506	145.900000
343.005920	146.080000
343.099335	146.800000
343.192719	146.740000
343.286133	146.640000
343.379547	146.600000
343.472931	146.500000
343.566345	145.820000
343.659760	146.220000
343.753143	146.260000
343.846558	146.000000
343.939972	145.860000
344.033386	146.680000
344.126770	146.140000
344.220184	146.340000
344.313599	146.940000
344.407043	147.080000
344.500427	146.180000
344.593872	146.780000
344.687225	146.500000
344.780670	145.900000
344.874054	145.640000
344.967499	146.020000
345.060913	145.940000
345.154327	145.880000
345.247742	145.840000
345.341156	145.720000
345.434570	145.480000
345.527985	145.140000
345.621399	145.300000
345.714813	145.140000
345.808228	145.280000
345.901642	145.040000
345.995056	144.580000
346.088470	144.940000
346.181885	145.380000
346.275299	145.120000
346.368713	145.120000
346.462128	145.200000
346.555573	144.760000
346.648987	144.600000
346.742401	144.540000
346.835815	144.960000
346.929260	145.020000
347.022644	145.160000
347.116119	145.460000
347.209503	145.960000
347.302948	146.540000
347.396362	147.300000
347.489807	147.420000
347.583221	147.820000
347.676636	147.460000
347.770050	146.420000
347.863495	145.520000
347.956909	145.400000
348.050323	144.600000
348.143768	144.800000
348.237183	144.860000
348.330597	145.800000
348.424042	146.280000
348.517456	146.800000
348.610901	147.200000
348.704315	147.260000
348.797760	146.400000
348.891174	145.520000
348.984619	145.220000
349.078033	145.200000
349.171448	145.980000
349.264923	146.240000
349.358337	146.660000
349.451782	146.580000
349.545197	146.000000
349.638641	145.220000
349.732086	145.000000
349.825500	145.260000
349.918945	144.900000
350.012390	145.420000
350.105804	145.780000
350.199249	145.880000
350.292664	146.140000
350.386108	146.420000
350.479553	146.880000
350.572968	146.520000
350.666412	146.880000
350.759857	146.300000
350.853302	146.760000
350.946716	146.160000
351.040161	146.460000
351.133606	146.300000
351.227081	146.320000
351.320465	146.800000
351.413940	146.700000
351.507355	146.800000
351.600830	147.200000
351.694244	147.060000
351.787720	146.500000
351.881104	146.420000
351.974579	146.140000
352.067993	146.340000
352.161469	146.780000
352.254883	146.260000
352.348358	146.340000
352.441803	146.380000
352.535248	145.940000
352.628693	145.900000
352.722137	145.800000
352.815582	145.800000
352.909027	145.860000
353.002472	145.760000
353.095917	145.520000
353.189362	146.320000
353.282806	146.200000
353.376251	146.300000
353.469696	145.760000
353.563141	146.300000
353.656586	145.760000
353.750061	145.420000
353.843475	145.400000
353.936981	146.020000
354.030396	145.360000
354.123871	145.600000
354.217285	146.540000
354.310760	146.720000
354.404175	146.600000
354.497681	146.260000
354.591095	146.020000
354.684570	145.120000
354.777985	144.560000
354.871490	144.420000
354.964935	145.300000
355.058380	145.480000
355.151855	145.500000
355.245300	146.260000
355.338745	146.680000
355.432220	146.640000
355.525665	146.340000
355.619110	147.080000
355.712585	146.820000
355.806030	146.800000
355.899475	146.180000
355.992950	146.560000
356.086426	146.440000
356.179871	146.320000
356.273346	146.200000
356.366791	146.560000
356.460266	146.800000
356.553711	146.220000
356.647186	146.220000
356.740631	145.840000
356.834106	145.540000
356.927551	145.220000
357.021027	145.520000
357.114471	145.640000
357.207947	146.040000
357.301422	146.500000
357.394867	146.700000
357.488342	146.920000
357.581818	147.000000
357.675262	147.020000
357.768738	146.540000
357.862213	145.900000
357.955658	146.000000
358.049133	145.820000
358.142609	145.900000
358.236053	146.040000
358.329529	146.460000
358.423035	146.340000
358.516449	145.880000
358.609955	146.120000
358.703400	146.740000
358.796906	146.720000
358.890350	146.320000
358.983826	146.700000
359.077271	146.020000
359.170776	145.480000
359.264221	145.340000
359.357727	145.740000
359.451172	146.260000
359.544647	146.700000
359.638123	146.580000
359.731598	146.840000
359.825073	147.160000
359.918549	146.740000
360.012024	146.540000
360.105499	146.420000
360.198975	146.380000
360.292450	146.240000
360.385925	146.420000
360.479401	146.100000
360.572876	146.180000
360.666351	146.340000
360.759857	146.140000
360.853302	145.940000
360.946808	145.760000
361.040253	145.780000
361.133759	145.600000
361.227203	145.880000
361.320709	145.700000
361.414154	146.240000
361.507660	146.720000
361.601105	147.340000
361.694641	147.560000
361.788086	147.500000
361.881592	148.000000
361.975067	147.360000
362.068542	147.180000
362.162018	146.640000
362.255524	146.460000
362.348999	146.080000
362.442474	146.720000
362.535950	145.920000
362.629456	145.980000
362.722931	146.180000
362.816406	146.480000
362.909882	146.540000
363.003387	146.580000
363.096863	146.860000
363.190338	146.900000
363.283875	146.280000
363.377319	146.040000
363.470825	146.640000
363.564301	146.000000
363.657806	146.200000
363.751282	146.260000
363.844788	146.960000
363.938232	146.360000
364.031769	147.300000
364.125214	147.340000
364.218750	147.620000
364.312225	146.560000
364.405731	147.260000
364.499207	146.420000
364.592712	145.960000
364.686188	145.940000
364.779694	146.380000
364.873169	146.120000
364.966675	146.040000
365.060150	146.000000
365.153656	146.060000
365.247131	145.940000
365.340637	145.860000
365.434143	146.300000
365.527618	146.560000
365.621155	146.000000
365.714600	145.940000
365.808136	145.900000
365.901611	145.220000
365.995117	145.040000
366.088593	144.980000
366.182129	144.860000
366.275604	144.980000
366.369110	145.200000
366.462585	145.320000
366.556122	146.220000
366.649567	146.260000
366.743103	146.220000
366.836609	146.040000
366.930115	146.400000
367.023590	146.120000
367.117096	145.980000
367.210602	145.920000
367.304108	146.860000
367.397614	147.180000
367.491119	147.380000
367.584595	148.020000
367.678101	148.180000
367.771606	147.680000
367.865112	147.280000
367.958649	146.520000
368.052124	145.840000
368.145660	145.600000
368.239136	145.920000
368.332672	145.860000
368.426147	146.480000
368.519684	146.640000
368.613159	147.040000
368.706696	146.660000
368.800171	146.680000
368.893707	146.480000
368.987183	146.600000
369.080719	146.660000
369.174225	146.620000
369.267731	146.580000
369.361237	146.260000
369.454742	145.980000
369.548248	146.220000
369.641754	146.180000
369.735260	146.000000
369.828766	145.660000
369.922272	146.500000
370.015808	145.520000
370.109314	145.660000
370.202820	145.740000
370.296356	146.940000
370.389832	146.260000
370.483368	146.380000
370.576874	146.080000
370.670410	146.300000
370.763885	145.080000
370.857422	145.020000
370.950928	145.100000
371.044464	145.740000
371.137939	145.880000
371.231476	146.400000
371.324982	147.400000
371.418518	147.660000
371.512024	147.380000
371.605560	146.880000
371.699066	147.140000
371.792572	146.200000
371.886108	146.280000
371.979614	146.180000
372.073120	146.740000
372.166656	146.380000
372.260162	146.820000
372.353668	146.640000
372.447205	146.300000
372.540710	146.040000
372.634277	146.220000
372.727753	146.220000
372.821320	146.140000
372.914795	146.440000
373.008362	146.300000
373.101837	146.480000
373.195404	146.060000
373.288879	146.280000
373.382446	146.660000
373.475922	146.820000
373.569489	146.940000
373.662964	147.600000
373.756531	147.560000
373.850037	147.320000
373.943573	146.900000
374.037109	146.160000
374.130615	146.040000
374.224152	146.200000
374.317657	146.000000
374.411194	147.120000
374.504730	147.200000
374.598236	146.700000
374.691772	146.240000
374.785309	146.480000
374.878815	145.360000
374.972351	145.800000
375.065887	145.860000
375.159454	146.640000
375.252930	146.560000
375.346497	147.000000
375.440002	147.440000
375.533569	147.480000
375.627045	146.560000
375.720612	146.460000
375.814117	146.460000
375.907684	145.840000
376.001160	145.500000
376.094727	145.400000
376.188232	145.820000
376.281799	145.840000
376.375336	145.960000
376.468872	146.760000
376.562408	147.020000
376.655914	146.620000
376.749451	146.440000
376.842987	146.640000
376.936523	146.300000
377.030060	146.360000
377.123596	146.580000
377.217133	146.160000
377.310669	146.240000
377.404205	146.500000
377.497772	146.920000
377.591278	146.700000
377.684845	147.560000
377.778351	147.580000
377.871918	147.440000
377.965424	146.540000
378.058990	146.600000
378.152496	146.400000
378.246063	146.500000
378.339569	146.500000
378.433136	147.100000
378.526642	147.000000
378.620209	146.740000
378.713745	146.400000
378.807312	146.600000
378.900848	146.540000
378.994385	146.820000
379.087921	146.360000
379.181458	146.480000
379.274994	145.720000
379.368530	145.500000
379.462097	145.260000
379.555634	145.900000
379.649170	145.320000
379.742706	145.620000
379.836273	145.660000
379.929810	145.540000
380.023376	145.000000
380.116882	145.160000
380.210449	145.120000
380.303986	144.880000
380.397552	144.620000
380.491058	145.200000
380.584656	145.060000
380.678162	145.420000
380.771729	145.360000
380.865265	146.540000
380.958832	146.600000
381.052368	147.140000
381.145935	147.240000
381.239471	148.060000
381.333008	147.380000
381.426575	147.060000
381.520111	147.180000
381.613647	147.140000
381.707214	146.740000
381.800751	146.160000
381.894318	146.100000
381.987854	145.380000
382.081421	145.240000
382.174988	145.280000
382.268524	145.280000
382.362091	145.620000
382.455627	146.580000
382.549194	146.320000
382.642731	145.780000
382.736298	145.940000
382.829834	145.620000
382.923401	146.080000
383.016937	146.500000
383.110504	147.240000
383.204041	147.380000
383.297607	147.560000
383.391174	146.620000
383.484741	147.200000
383.578278	146.780000
383.671844	146.640000
383.765411	146.260000
383.858948	146.620000
383.952515	145.880000
384.046051	146.400000
384.139618	146.940000
384.233185	147.280000
384.326721	146.900000
384.420288	147.540000
384.513855	147.280000
384.607422	147.240000
384.700989	147.620000
384.794525	147.600000
384.888123	147.140000
384.981659	146.960000
385.075226	146.600000
385.168762	145.960000
385.262360	145.800000
385.355896	144.920000
385.449463	145.320000
385.542999	145.380000
385.636597	146.140000
385.730164	146.780000
385.823730	146.820000
385.917267	146.220000
386.010834	146.420000
386.104401	146.200000
386.197968	146.260000
386.291534	147.040000
386.385101	147.420000
386.478668	147.660000
386.572235	147.400000
386.665802	146.640000
386.759338	146.240000
386.852905	146.000000
386.946472	145.620000
387.040070	145.920000
387.133606	146.040000
387.227203	145.960000
387.320740	146.100000
387.414337	145.700000
387.507874	145.380000
387.601471	145.340000
387.695007	145.000000
387.788605	144.840000
387.882141	145.280000
387.975739	145.280000
388.069275	145.060000
388.162872	145.740000
388.256439	145.820000
388.350037	145.620000
388.443604	145.620000
388.537170	145.740000
388.630737	146.060000
388.724304	146.220000
388.817871	146.240000
388.911438	146.380000
389.005005	146.720000
389.098602	146.620000
389.192169	146.160000
389.285736	146.680000
389.379333	146.480000
389.472870	146.000000
389.566467	145.700000
389.660034	145.720000
389.753632	145.080000
389.847168	145.340000
389.940765	145.600000
390.034332	145.660000
390.127930	145.260000
390.221466	145.160000
390.315063	144.380000
390.408630	143.920000
390.502228	143.380000
390.595795	144.360000
390.689362	144.540000
390.782959	145.380000
390.876526	146.180000
390.970093	146.200000
391.063690	146.400000
391.157257	146.620000
391.250824	146.860000
391.344421	146.180000
391.437988	146.540000
391.531555	146.100000
391.625153	146.120000
391.718750	146.080000
391.812317	146.420000
391.905914	146.440000
391.999481	146.700000
392.093079	146.860000
392.186615	147.000000
392.280243	146.980000
392.373779	146.740000
392.467407	147.040000
392.560944	146.880000
392.654572	146.340000
392.748108	146.620000
392.841736	146.860000
392.935303	146.380000
393.028900	146.480000
393.122467	146.680000
393.216064	146.040000
393.309631	145.640000
393.403229	145.240000
393.496796	144.880000
393.590393	144.300000
393.683990	144.940000
393.777557	145.440000
393.871155	145.960000
393.964722	146.300000
394.058350	146.720000
394.151917	146.440000
394.245514	146.160000
394.339081	146.340000
394.432678	146.520000
394.526245	146.480000
394.619873	146.200000
394.713409	146.520000
394.807037	145.960000
394.900604	145.800000
394.994202	145.800000
395.087769	145.960000
395.181396	145.360000
395.274994	146.500000
395.368561	145.760000
395.462158	145.680000
395.555756	145.400000
395.649353	145.740000
395.742920	144.880000
395.836517	145.940000
395.930115	145.680000
396.023712	146.060000
396.117279	146.360000
396.210876	146.080000
396.304474	145.640000
396.398071	145.740000
396.491669	146.140000
396.585266	145.860000
396.678833	146.040000
396.772461	146.520000
396.866028	146.640000
396.959656	146.840000
397.053223	147.220000
397.146851	147.340000
397.240417	147.640000
397.334015	149.100000
397.427582	149.560000
397.521210	150.920000
397.614807	153.200000
397.708405	155.820000
397.802002	158.800000
397.895599	163.980000
397.989197	170.040000
398.082794	177.160000
398.176392	186.340000
398.269989	197.120000
398.363586	209.940000
398.457184	224.740000
398.550781	242.100000
398.644379	259.420000
398.737976	278.800000
398.831573	298.960000
398.925201	319.480000
399.018768	340.880000
399.112396	364.860000
399.205963	390.700000
399.299591	418.400000
399.393158	447.900000
399.486786	479.000000
399.580353	508.980000
399.673981	535.600000
399.767578	560.140000
399.861206	579.700000
399.954773	591.840000
400.048401	595.320000
400.141998	590.920000
400.235596	578.260000
400.329193	561.380000
400.422791	541.440000
400.516418	520.560000
400.610016	500.480000
400.703613	479.820000
400.797211	455.820000
400.890808	431.000000
400.984436	406.180000
401.078033	380.060000
401.171631	354.460000
401.265259	330.080000
401.358826	307.360000
401.452484	285.040000
401.546051	265.300000
401.639679	245.820000
401.733246	229.220000
401.826904	213.000000
401.920471	199.260000
402.014099	187.260000
402.107697	177.660000
402.201324	169.820000
402.294891	164.220000
402.388550	159.840000
402.482147	156.420000
402.575745	153.660000
402.669373	151.540000
402.762970	149.740000
402.856567	148.840000
402.950195	148.100000
403.043793	147.600000
403.137390	148.040000
403.231018	147.400000
403.324615	147.760000
403.418243	147.280000
403.511841	147.760000
403.605469	147.260000
403.699066	147.840000
403.792694	147.600000
403.886292	147.900000
403.979919	147.560000
404.073517	147.400000
404.167145	147.180000
404.260712	147.000000
404.354370	146.620000
404.447937	146.780000
404.541595	147.040000
404.635162	147.360000
404.728821	148.000000
404.822418	147.740000
404.916046	147.240000
405.009644	146.940000
405.103271	146.840000
405.196899	146.080000
405.290497	146.480000
405.384125	147.060000
405.477722	146.860000
405.571350	146.420000
405.664948	146.380000
405.758575	145.980000
405.852203	145.280000
405.945801	145.500000
406.039429	146.040000
406.133057	145.900000
406.226654	146.060000
406.320312	146.260000
406.413879	146.360000
406.507538	146.240000
406.601135	146.260000
406.694763	146.920000
406.788361	146.800000
406.882019	146.480000
406.975586	146.760000
407.069244	147.360000
407.162872	146.800000
407.256470	146.560000
407.350098	146.640000
407.443726	146.120000
407.537323	145.520000
407.630951	145.900000
407.724579	145.880000
407.818207	146.460000
407.911804	146.500000
408.005432	146.420000
408.099060	146.140000
408.192688	146.780000
408.286285	145.920000
408.379913	145.620000
408.473572	145.780000
408.567169	145.260000
408.660828	145.020000
408.754395	145.160000
408.848053	145.160000
408.941650	145.260000
409.035309	144.920000
409.128906	145.080000
409.222565	145.240000
409.316132	145.700000
409.409790	145.420000
409.503387	146.060000
409.597046	146.040000
409.690674	146.120000
409.784302	145.780000
409.877930	145.840000
409.971558	145.940000
410.065186	145.460000
410.158783	145.440000
410.252411	145.580000
410.346039	146.300000
410.439667	146.260000
410.533295	146.620000
410.626923	146.640000
410.720551	146.300000
410.814209	146.140000
410.907806	146.380000
411.001465	145.980000
411.095062	146.220000
411.188721	146.680000
411.282318	146.220000
411.375977	145.860000
411.469574	146.180000
411.563232	145.620000
411.656830	145.340000
411.750488	145.280000
411.844086	145.280000
411.937744	145.340000
412.031372	145.500000
412.125000	145.140000
412.218628	145.360000
412.312256	145.720000
412.405884	146.160000
412.499512	146.180000
412.593170	146.860000
412.686798	146.920000
412.780426	146.560000
412.874054	146.460000
412.967682	146.380000
413.061310	146.740000
413.154968	146.660000
413.248566	146.860000
413.342224	146.480000
413.435852	146.660000
413.529510	145.920000
413.623108	145.280000
413.716766	145.260000
413.810364	145.600000
413.904022	145.340000
413.997650	145.060000
414.091309	146.240000
414.184906	146.300000
414.278564	145.800000
414.372192	146.120000
414.465851	146.780000
414.559479	146.200000
414.653107	146.840000
414.746735	146.960000
414.840393	147.160000
414.934021	147.300000
415.027649	147.020000
415.121277	146.680000
415.214935	147.000000
415.308563	146.940000
415.402191	146.180000
415.495850	146.320000
415.589478	145.900000
415.683136	145.680000
415.776733	145.620000
415.870422	146.280000
415.964020	145.940000
416.057678	146.060000
416.151306	145.980000
416.244965	145.820000
416.338562	145.680000
416.432251	146.620000
416.525848	147.240000
416.619507	147.680000
416.713165	148.180000
416.806793	147.940000
416.900421	147.520000
416.994080	146.840000
417.087708	146.520000
417.181366	145.920000
417.274994	145.980000
417.368622	146.060000
417.462280	146.480000
417.555908	146.540000
417.649567	146.540000
417.743195	146.760000
417.836853	146.640000
417.930481	146.600000
418.024170	146.520000
418.117767	147.080000
418.211426	147.300000
418.305054	147.280000
418.398712	146.600000
418.492340	146.540000
418.585999	146.520000
418.679626	146.560000
418.773285	146.580000
418.866913	147.240000
418.960571	147.460000
419.054230	147.300000
419.147858	147.040000
419.241516	147.220000
419.335144	146.840000
419.428802	146.860000
419.522461	146.480000
419.616089	146.140000
419.709747	146.140000
419.803375	146.260000
419.897034	146.180000
419.990662	146.400000
420.084320	147.080000
420.177979	147.240000
420.271606	147.280000
420.365295	147.540000
420.458893	147.760000
420.552582	147.580000
420.646210	147.480000
420.739868	147.300000
420.833496	147.220000
420.927155	146.560000
421.020782	146.560000
421.114471	145.760000
421.208069	145.960000
421.301758	146.020000
421.395386	146.500000
421.489044	146.020000
421.582703	146.460000
421.676361	146.800000
421.769989	146.220000
421.863647	146.560000
421.957306	146.940000
422.050934	147.300000
422.144592	146.900000
422.238251	146.820000
422.331909	146.260000
422.425537	145.840000
422.519196	145.500000
422.612854	145.200000
422.706543	145.180000
422.800140	145.580000
422.893829	145.560000
422.987457	145.220000
423.081146	145.360000
423.174744	146.200000
423.268433	145.900000
423.362061	145.860000
423.455750	146.080000
423.549347	146.300000
423.643036	145.420000
423.736664	145.800000
423.830353	146.140000
423.924011	146.760000
424.017639	146.280000
424.111298	146.540000
424.204956	146.120000
424.298615	146.080000
424.392273	145.560000
424.485931	145.840000
424.579559	146.100000
424.673218	146.060000
424.766876	146.000000
424.860535	145.720000
424.954193	145.500000
425.047882	145.580000
425.141510	145.480000
425.235199	145.540000
425.328796	145.560000
425.422485	145.800000
425.516113	145.320000
425.609802	145.700000
425.703430	145.900000
425.797119	146.080000
425.890747	146.100000
425.984436	146.360000
426.078064	146.320000
426.171753	146.220000
426.265411	145.980000
426.359070	146.260000
426.452728	146.060000
426.546356	145.580000
426.640015	145.260000
426.733673	145.420000
426.827332	145.020000
426.920990	145.940000
427.014648	145.840000
427.108307	146.400000
427.201965	146.900000
427.295624	147.000000
427.389282	145.840000
427.482941	146.360000
427.576630	146.140000
427.670258	145.320000
427.763947	145.360000
427.857574	146.040000
427.951263	145.780000
428.044922	145.580000
428.138611	145.980000
428.232239	146.500000
428.325928	146.400000
428.419556	146.840000
428.513245	146.400000
428.606903	146.640000
428.700562	145.660000
428.794220	145.160000
428.887878	144.620000
428.981537	145.380000
429.075195	145.100000
429.168854	145.760000
429.262512	145.920000
429.356201	146.400000
429.449860	146.020000
429.543518	146.100000
429.637177	146.140000
429.730835	146.120000
429.824493	145.600000
429.918182	145.860000
430.011810	145.480000
430.105530	144.880000
430.199158	145.280000
430.292847	145.200000
430.386475	145.020000
430.480164	145.160000
430.573792	145.000000
430.667511	144.560000
430.761139	145.060000
430.854828	145.360000
430.948456	145.660000
431.042145	146.260000
431.135834	146.360000
431.229492	146.300000
431.323151	146.340000
431.416809	146.160000
431.510468	146.080000
431.604156	146.060000
431.697815	145.860000
431.791473	145.380000
431.885132	145.000000
431.978821	145.300000
432.072479	145.460000
432.166138	145.880000
432.259827	145.880000
432.353485	146.460000
432.447174	146.420000
432.540802	146.120000
432.634491	146.080000
432.728149	146.240000
432.821838	146.480000
432.915466	145.960000
433.009186	146.100000
433.102814	145.460000
433.196503	145.300000
433.290131	144.760000
433.383850	145.240000
433.477509	145.300000
433.571167	146.240000
433.664856	146.620000
433.758514	147.620000
433.852173	147.580000
433.945862	147.720000
434.039520	147.620000
434.133179	147.160000
434.226868	146.480000
434.320526	145.760000
434.414185	146.240000
434.507874	145.800000
434.601562	146.160000
434.695221	146.100000
434.788910	146.620000
434.882538	146.260000
434.976257	145.980000
435.069885	146.180000
435.163574	146.080000
435.257233	145.620000
435.350922	145.400000
435.444580	145.040000
435.538269	144.740000
435.631897	145.300000
435.725616	146.000000
435.819275	146.400000
435.912964	147.420000
436.006622	147.580000
436.100311	147.080000
436.193970	146.360000
436.287628	145.840000
436.381317	145.240000
436.474976	144.980000
436.568665	144.820000
436.662323	144.840000
436.756012	144.920000
436.849670	145.000000
436.943390	144.680000
437.037018	144.740000
437.130737	144.980000
437.224365	144.720000
437.318085	145.020000
437.411713	145.560000
437.505432	145.940000
437.599060	146.440000
437.692780	147.380000
437.786407	147.080000
437.880127	147.100000
437.973755	147.000000
438.067474	146.500000
438.161133	146.160000
438.254822	146.720000
438.348480	146.440000
438.442169	147.040000
438.535828	147.320000
438.629517	146.880000
438.723175	145.920000
438.816864	146.240000
438.910553	145.700000
439.004211	145.660000
439.097900	145.580000
439.191559	146.020000
439.285248	145.380000
439.378906	145.340000
439.472626	145.360000
439.566284	145.300000
439.659973	145.700000
439.753632	145.620000
439.847321	145.920000
439.940979	146.000000
440.034698	146.260000
440.128326	145.620000
440.222046	145.880000
440.315674	145.320000
440.409393	145.320000
440.503082	145.320000
440.596741	145.520000
440.690430	146.040000
440.784088	145.840000
440.877777	144.980000
440.971466	145.060000
441.065125	145.200000
441.158813	144.700000
441.252502	145.080000
441.346161	145.900000
441.439850	146.280000
441.533539	146.080000
441.627197	146.360000
441.720886	146.200000
441.814606	146.340000
441.908234	146.380000
442.001953	146.360000
442.095612	146.400000
442.189301	146.600000
442.282959	146.680000
442.376678	145.960000
442.470306	146.600000
442.564026	146.240000
442.657684	146.340000
442.751404	146.100000
442.845032	147.080000
442.938751	146.300000
443.032440	146.840000
443.126099	146.280000
443.219788	146.700000
443.313477	146.200000
443.407166	146.880000
443.500824	146.800000
443.594513	147.220000
443.688202	147.000000
443.781891	146.500000
443.875549	145.700000
443.969238	145.800000
444.062927	145.760000
444.156647	145.460000
444.250275	146.160000
444.343994	146.760000
444.437653	146.660000
444.531372	146.680000
444.625031	146.740000
444.718719	146.320000
444.812378	146.120000
444.906097	145.780000
444.999756	145.340000
445.093445	145.440000
445.187103	145.240000
445.280823	145.720000
445.374512	145.340000
445.468201	145.500000
445.561859	145.400000
445.655548	145.840000
445.749237	145.120000
445.842926	145.540000
445.936615	146.040000
446.030304	145.820000
446.123962	145.740000
446.217651	145.820000
446.311340	145.880000
446.405029	145.360000
446.498749	145.320000
446.592407	145.240000
446.686096	145.800000
446.779755	145.900000
446.873474	146.240000
446.967133	146.580000
447.060852	146.240000
447.154510	145.960000
447.248230	146.120000
447.341858	146.120000
447.435577	145.540000
447.529236	145.580000
447.622955	145.180000
447.716644	144.800000
447.810333	144.860000
447.904022	145.620000
447.997711	145.540000
448.091400	146.100000
448.185059	146.160000
448.278748	146.180000
448.372437	145.600000
448.466125	145.900000
448.559814	145.620000
448.653503	146.060000
448.747192	146.240000
448.840912	146.940000
448.934570	146.880000
449.028290	147.240000
449.121948	147.040000
449.215637	146.680000
449.309296	145.600000
449.403015	145.700000
449.496674	145.480000
449.590393	145.460000
449.684052	144.900000
449.777771	146.220000
449.871429	145.780000
449.965149	145.680000
450.058838	145.860000
450.152527	146.840000
450.246216	146.380000
450.339905	146.760000
450.433594	146.600000
450.527283	147.060000
450.620972	146.480000
450.714661	146.460000
450.808350	146.740000
450.902039	147.000000
450.995728	146.500000
451.089417	146.580000
451.183105	146.660000
451.276794	146.820000
451.370514	146.180000
451.464172	145.400000
451.557892	145.280000
451.651550	145.120000
451.745270	144.660000
451.838928	144.600000
451.932648	145.240000
452.026306	145.840000
452.120026	145.500000
452.213684	146.100000
452.307404	146.680000
452.401062	146.620000
452.494781	146.300000
452.588470	146.700000
452.682159	146.100000
452.775848	146.000000
452.869537	145.420000
452.963226	145.100000
453.056915	144.840000
453.150604	144.720000
453.244293	144.980000
453.337982	145.960000
453.431671	146.500000
453.525360	146.960000
453.619049	147.100000
453.712769	146.820000
453.806427	146.020000
453.900146	145.340000
453.993805	145.080000
454.087555	145.360000
454.181213	145.800000
454.274933	145.980000
454.368591	146.400000
454.462311	146.340000
454.555969	146.100000
454.649689	146.440000
454.743347	146.440000
454.837067	146.780000
454.930756	147.100000
455.024445	147.240000
455.118134	146.820000
455.211853	147.100000
455.305542	146.440000
455.399231	146.380000
455.492920	146.040000
455.586609	145.860000
455.680298	145.640000
455.773987	145.480000
455.867676	145.160000
455.961365	145.760000
456.055084	145.700000
456.148773	145.840000
456.242493	146.240000
456.336151	146.460000
456.429871	146.560000
456.523529	146.920000
456.617249	146.440000
456.710907	146.920000
456.804626	146.840000
456.898315	146.020000
456.992035	145.660000
457.085693	145.700000
457.179413	144.780000
457.273102	145.500000
457.366791	145.760000
457.460480	146.280000
457.554199	147.140000
457.647888	147.580000
457.741577	147.200000
457.835266	147.400000
457.928955	147.260000
458.022644	146.940000
458.116364	147.240000
458.210052	146.880000
458.303741	146.820000
458.397461	146.260000
458.491119	146.180000
458.584839	145.980000
458.678528	145.700000
458.772247	145.180000
458.865906	145.040000
458.959625	145.720000
459.053284	145.700000
459.147003	145.700000
459.240692	146.780000
459.334412	147.280000
459.428070	146.680000
459.521790	146.260000
459.615479	146.020000
459.709198	145.900000
459.802887	145.420000
459.896576	145.060000
459.990265	145.240000
460.083954	145.580000
460.177673	145.000000
460.271362	145.500000
460.365051	145.460000
460.458740	145.360000
460.552429	145.180000
460.646149	145.120000
460.739838	144.580000
460.833527	145.040000
460.927246	145.060000
461.020905	144.920000
461.114655	145.100000
461.208313	145.500000
461.302032	144.960000
461.395691	145.380000
461.489441	145.500000
461.583099	145.420000
461.676819	144.980000
461.770477	145.640000
461.864197	145.220000
461.957916	145.320000
462.051605	144.600000
462.145294	145.840000
462.238983	145.180000
462.332703	145.680000
462.426392	146.400000
462.520081	147.000000
462.613770	145.960000
462.707489	146.380000
462.801178	146.140000
462.894867	145.240000
462.988556	145.300000
463.082275	145.440000
463.175964	144.840000
463.269684	145.160000
463.363342	145.480000
463.457092	145.040000
463.550751	145.220000
463.644470	145.700000
463.738129	145.220000
463.831879	145.540000
463.925537	146.380000
464.019257	146.620000
464.112946	146.860000
464.206665	146.980000
464.300323	146.820000
464.394043	146.360000
464.487762	146.160000
464.581451	146.360000
464.675140	146.440000
464.768829	146.680000
464.862549	146.760000
464.956238	146.860000
465.049927	146.580000
465.143646	146.620000
465.237335	145.880000
465.331024	146.440000
465.424713	146.160000
465.518433	146.240000
465.612152	145.980000
465.705811	146.400000
465.799561	145.980000
465.893219	145.980000
465.986938	145.820000
466.080597	146.000000
466.174347	146.220000
466.268005	146.260000
466.361725	146.200000
466.455414	146.520000
466.549133	146.300000
466.642792	146.360000
466.736542	145.940000
466.830231	146.060000
466.923920	145.540000
467.017609	145.720000
467.111328	145.200000
467.205017	145.440000
467.298706	145.480000
467.392426	145.800000
467.486115	145.920000
467.579803	145.940000
467.673523	146.280000
467.767212	146.440000
467.860901	146.240000
467.954651	146.380000
468.048309	146.780000
468.142029	146.640000
468.235718	146.500000
468.329437	146.380000
468.423096	146.380000
468.516846	146.040000
468.610504	145.820000
468.704224	145.660000
468.797913	145.820000
468.891632	145.900000
468.985291	145.840000
469.079010	146.020000
469.172729	145.760000
469.266418	146.080000
469.360107	145.720000
469.453827	145.660000
469.547516	145.680000
469.641205	146.240000
469.734924	146.260000
469.828613	146.660000
469.922302	147.200000
470.016022	147.100000
470.109711	146.700000
470.203430	145.840000
470.297150	145.260000
470.390808	144.880000
470.484558	144.720000
470.578217	145.460000
470.671936	146.360000
470.765625	146.900000
470.859344	146.760000
470.953003	147.180000
471.046753	146.520000
471.140411	145.440000
471.234131	145.460000
471.327820	146.000000
471.421539	145.940000
471.515228	145.420000
471.608948	146.120000
471.702637	145.500000
471.796326	145.220000
471.890045	145.280000
471.983734	145.980000
472.077423	145.720000
472.171143	146.000000
472.264832	145.940000
472.358521	145.480000
472.452240	145.000000
472.545929	145.820000
472.639648	146.060000
472.733337	146.440000
472.827057	146.660000
472.920746	147.120000
473.014465	146.900000
473.108124	146.740000
473.201874	146.640000
473.295532	146.320000
473.389252	146.660000
473.482941	146.740000
473.576660	146.320000
473.670319	146.220000
473.764069	146.800000
473.857727	146.440000
473.951477	146.540000
474.045166	147.200000
474.138855	146.840000
474.232574	146.640000
474.326263	146.780000
474.419952	146.840000
474.513672	146.660000
474.607361	146.760000
474.701050	146.780000
474.794769	147.040000
474.888458	147.160000
474.982178	147.020000
475.075867	147.480000
475.169586	147.600000
475.263275	147.280000
475.356995	147.160000
475.450653	147.180000
475.544403	146.620000
475.638062	147.140000
475.731812	146.720000
475.825470	146.120000
475.919189	146.460000
476.012878	146.780000
476.106598	146.000000
476.200256	146.460000
476.294006	146.520000
476.387695	146.220000
476.481384	146.240000
476.575104	146.520000
476.668793	146.240000
476.762512	146.100000
476.856201	146.580000
476.949890	146.260000
477.043610	145.800000
477.137299	146.040000
477.230988	146.280000
477.324707	145.820000
477.418396	146.320000
477.512146	146.460000
477.605804	146.340000
477.699524	146.420000
477.793213	146.420000
477.886932	146.000000
477.980591	145.600000
478.074341	145.460000
478.167999	145.140000
478.261749	144.960000
478.355408	144.980000
478.449127	145.740000
478.542816	146.380000
478.636536	147.120000
478.730225	147.500000
478.823944	147.620000
478.917633	147.340000
479.011322	147.280000
479.105042	146.760000
479.198730	146.860000
479.292450	146.820000
479.386139	146.800000
479.479828	146.580000
479.573547	146.980000
479.667267	146.560000
479.760925	146.260000
479.854675	146.500000
479.948334	146.380000
480.042084	145.840000
480.135742	146.340000
480.229462	146.200000
480.323151	145.960000
480.416870	145.640000
480.510529	146.080000
480.604279	145.580000
480.697937	146.400000
480.791656	146.260000
480.885345	145.940000
480.979065	145.660000
481.072754	146.240000
481.166473	146.260000
481.260132	146.260000
481.353882	146.760000
481.447540	146.660000
481.541260	146.400000
481.635010	145.960000
481.728668	145.980000
481.822388	145.960000
481.916077	146.060000
482.009796	146.120000
482.103485	146.480000
482.197205	146.720000
482.290863	146.680000
482.384613	146.260000
482.478271	145.760000
482.571991	145.420000
482.665680	145.240000
482.759399	146.000000
482.853058	146.560000
482.946808	146.800000
483.040466	146.880000
483.134216	146.720000
483.227875	145.920000
483.321594	146.100000
483.415283	146.020000
483.509003	145.880000
483.602661	145.980000
483.696411	146.440000
483.790070	146.440000
483.883789	146.480000
483.977478	146.660000
484.071198	146.600000
484.164917	145.800000
484.258606	145.520000
484.352325	145.800000
484.445984	146.000000
484.539734	145.780000
484.633392	145.820000
484.727142	146.120000
484.820801	146.040000
484.914520	146.000000
485.008209	146.300000
485.101929	146.980000
485.195587	146.500000
485.289337	146.280000
485.382996	146.240000
485.476715	146.380000
485.570404	146.560000
485.664124	146.480000
485.757782	147.300000
485.851532	147.000000
485.945190	146.740000
486.038910	146.600000
486.132599	147.120000
486.226318	146.340000
486.319977	146.320000
486.413727	147.100000
486.507446	146.560000
486.601105	146.100000
486.694855	145.740000
486.788513	145.760000
486.882233	145.400000
486.975922	145.540000
487.069641	145.520000
487.163300	145.780000
487.257050	146.960000
487.350708	146.500000
487.444427	146.500000
487.538116	146.340000
487.631836	146.200000
487.725494	145.300000
487.819214	145.160000
487.912903	145.060000
488.006622	145.620000
488.100281	145.880000
488.194031	146.000000
488.287689	146.580000
488.381409	147.380000
488.475098	147.100000
488.568817	147.360000
488.662476	146.900000
488.756226	146.360000
488.849945	145.220000
488.943604	145.340000
489.037354	145.280000
489.131012	145.380000
489.224731	145.440000
489.318390	145.820000
489.412140	145.940000
489.505798	145.720000
489.599518	145.360000
489.693207	145.620000
489.786926	145.540000
489.880585	145.300000
489.974335	145.580000
490.067993	146.660000
490.161713	146.860000
490.255371	147.700000
490.349121	147.760000
490.442780	147.360000
490.536499	146.400000
490.630188	146.440000
490.723907	145.580000
490.817566	145.660000
490.911285	145.600000
491.004974	145.760000
491.098694	145.120000
491.192413	145.900000
491.286102	145.600000
491.379822	145.960000
491.473480	146.160000
491.567200	146.520000
491.660889	145.740000
491.754608	145.640000
491.848267	145.200000
491.941986	145.020000
492.035675	145.040000
492.129395	145.260000
492.223053	145.340000
492.316772	145.620000
492.410461	145.640000
492.504181	145.560000
492.597839	145.280000
492.691559	145.640000
492.785248	145.760000
492.878967	145.740000
492.972626	145.640000
493.066345	145.940000
493.160034	145.400000
493.253754	145.140000
493.347412	144.680000
493.441132	145.120000
493.534882	145.460000
493.628540	145.840000
493.722260	146.360000
493.815918	146.980000
493.909668	147.200000
494.003326	147.560000
494.097046	147.420000
494.190704	146.780000
494.284454	147.040000
494.378113	146.520000
494.471832	146.040000
494.565491	145.960000
494.659210	146.280000
494.752899	145.920000
494.846619	145.800000
494.940277	145.900000
495.033997	145.800000
495.127686	145.160000
495.221405	144.900000
495.315063	145.460000
495.408783	145.440000
495.502441	145.580000
495.596191	146.180000
495.689850	146.160000
495.783569	146.200000
495.877228	145.980000
495.970947	145.800000
496.064697	145.700000
496.158356	146.920000
496.252075	146.540000
496.345734	146.280000
496.439453	147.260000
496.533142	147.220000
496.626862	147.000000
496.720520	147.260000
496.814240	147.660000
496.907898	146.900000
497.001617	147.200000
497.095306	146.320000
497.189026	145.920000
497.282684	146.020000
497.376404	146.420000
497.470062	146.280000
497.563782	146.680000
497.657471	146.720000
497.751190	146.280000
497.844849	146.060000
497.938568	146.000000
498.032227	145.660000
498.125946	145.960000
498.219635	146.220000
498.313354	146.560000
498.407074	146.480000
498.500732	146.920000
498.594452	147.020000
498.688110	146.560000
498.781830	146.000000
498.875519	146.020000
498.969238	145.820000
499.062897	145.560000
499.156616	146.160000
499.250275	146.360000
499.343994	145.980000
499.437653	145.720000
499.531372	145.660000
499.625061	146.220000
499.718781	146.160000
499.812439	147.020000
499.906158	147.060000
499.999817	147.040000
500.093536	146.240000
500.187195	146.800000
500.280914	146.440000
500.374573	146.740000
500.468323	146.580000
500.561981	147.000000
500.655701	146.240000
500.749420	146.160000
500.843079	146.180000
500.936798	146.540000
501.030457	146.800000
501.124176	147.300000
501.217834	147.160000
501.311554	147.100000
501.405212	146.580000
501.498962	145.620000
501.592621	145.340000
501.686340	145.700000
501.779999	145.720000
501.873718	146.060000
501.967377	146.620000
502.061096	146.800000
502.154755	146.480000
502.248474	146.560000
502.342133	146.580000
502.435852	146.100000
502.529510	146.640000
502.623230	147.280000
502.716888	146.660000
502.810608	146.660000
502.904266	147.380000
502.997986	146.800000
503.091705	146.040000
503.185364	146.300000
503.279083	146.420000
503.372772	146.020000
503.466492	145.720000
503.560150	146.040000
503.653870	146.140000
503.747528	146.100000
503.841248	146.040000
503.934906	146.500000
504.028625	145.960000
504.122284	146.280000
504.216003	146.660000
504.309662	146.440000
504.403381	146.600000
504.497040	146.860000
504.590759	146.540000
504.684418	146.660000
504.778137	147.240000
504.871796	147.560000
504.965515	147.740000
505.059174	147.740000
505.152893	146.840000
505.246521	146.420000
505.340240	145.740000
505.433899	145.640000
505.527618	145.980000
505.621338	146.480000
505.714996	146.380000
505.808716	146.280000
505.902374	146.780000
505.996094	146.740000
506.089752	146.620000
506.183472	146.680000
506.277130	146.740000
506.370850	146.600000
506.464508	146.140000
506.558228	146.040000
506.651886	145.760000
506.745605	145.920000
506.839264	145.660000
506.932983	146.240000
507.026611	146.120000
507.120331	146.920000
507.213989	146.480000
507.307709	146.520000
507.401367	146.360000
507.495087	147.300000
507.588745	146.600000
507.682465	147.640000
507.776123	147.420000
507.869843	147.640000
507.963531	147.000000
508.057190	147.460000
508.150909	146.140000
508.244568	146.780000
508.338287	146.140000
508.431946	146.100000
508.525665	145.580000
508.619324	145.760000
508.713013	145.820000
508.806671	146.260000
508.900391	147.220000
508.994049	147.640000
509.087769	147.740000
509.181427	147.280000
509.275146	146.940000
509.368774	145.580000
509.462494	145.460000
509.556152	145.440000
509.649872	145.520000
509.743530	145.580000
509.837250	145.860000
509.930878	145.780000
510.024597	145.640000
510.118256	145.600000
510.211975	145.460000
510.305695	145.400000
510.399353	146.020000
510.493042	146.600000
510.586700	146.620000
510.680420	147.360000
510.774078	147.240000
510.867798	146.820000
510.961426	146.260000
511.055145	146.140000
511.148804	145.620000
511.242523	146.060000
511.336151	146.140000
511.429871	146.640000
511.523529	146.560000
511.617249	146.340000
511.710876	146.080000
511.804596	145.660000
511.898254	145.300000
511.991974	145.560000
512.085632	145.460000
512.179321	145.680000
512.272949	146.200000
512.366699	146.460000
512.460327	146.400000
512.554077	147.500000
512.647766	147.280000
512.741394	147.040000
512.835144	147.480000
512.928772	147.040000
513.022461	146.520000
513.116150	146.340000
513.209839	146.760000
513.303467	146.200000
513.397217	146.280000
513.490845	146.040000
513.584595	146.100000
513.678223	145.860000
513.771912	145.220000
513.865601	145.660000
513.959290	145.440000
514.052917	145.600000
514.146667	145.920000
514.240295	146.900000
514.333984	147.100000
514.427673	147.040000
514.521362	147.480000
514.614990	146.720000
514.708740	146.800000
514.802368	146.640000
514.896057	147.000000
514.989746	147.140000
515.083435	147.480000
515.177124	147.280000
515.270752	146.880000
515.364502	147.000000
515.458130	146.880000
515.551819	146.420000
515.645508	146.360000
515.739197	146.300000
515.832825	146.100000
515.926575	145.400000
516.020203	145.820000
516.113892	146.300000
516.207520	146.400000
516.301270	146.540000
516.394897	146.800000
516.488586	147.200000
516.582275	146.740000
516.675964	146.320000
516.769592	145.960000
516.863281	146.660000
516.956970	146.760000
517.050659	146.840000
517.144287	147.040000
517.238037	147.320000
517.331665	146.740000
517.425354	146.060000
517.519043	146.020000
517.612732	146.440000
517.706421	146.200000
517.800049	145.820000
517.893738	145.800000
517.987427	145.800000
518.081116	145.720000
518.174744	145.200000
518.268433	145.720000
518.362122	146.420000
518.455811	146.320000
518.549438	146.780000
518.643127	148.140000
518.736816	148.060000
518.830505	147.400000
518.924133	147.280000
519.017822	147.020000
519.111511	146.380000
519.205200	146.640000
519.298828	146.780000
519.392517	146.560000
519.486206	146.960000
519.579895	146.940000
519.673523	146.560000
519.767212	146.340000
519.860901	147.080000
519.954590	146.540000
520.048279	146.280000
520.141907	146.120000
520.235596	146.980000
520.329224	146.980000
520.422974	146.960000
520.516602	147.060000
520.610291	146.720000
520.703918	146.460000
520.797607	146.020000
520.891296	146.020000
520.984985	146.220000
521.078613	147.040000
521.172302	146.480000
521.265930	147.200000
521.359680	147.900000
521.453308	147.880000
521.546997	147.700000
521.640625	147.940000
521.734314	147.360000
521.827942	146.680000
521.921692	146.880000
522.015320	146.680000
522.109009	146.300000
522.202698	146.220000
522.296326	146.520000
522.390015	146.720000
522.483704	146.820000
522.577393	146.800000
522.671021	146.620000
522.764709	146.020000
522.858337	146.060000
522.952026	146.100000
523.045654	146.800000
523.139404	147.160000
523.233032	147.480000
523.326721	146.920000
523.420349	146.940000
523.514038	146.440000
523.607666	146.820000
523.701355	146.500000
523.795044	146.620000
523.888733	146.640000
523.982361	147.020000
524.076050	146.220000
524.169678	146.920000
524.263367	146.560000
524.356995	146.380000
524.450684	146.200000
524.544373	146.360000
524.638062	145.840000
524.731750	146.260000
524.825378	146.360000
524.919067	145.980000
525.012695	146.020000
525.106384	146.020000
525.200012	145.900000
525.293701	145.660000
525.387329	146.140000
525.481018	146.380000
525.574646	146.640000
525.668396	146.680000
525.762024	147.060000
525.855713	147.060000
525.949341	146.520000
526.043030	146.440000
526.136658	146.380000
526.230347	146.100000
526.323975	145.620000
526.417664	145.560000
526.511292	145.460000
526.604980	145.460000
526.698608	145.580000
526.792297	146.040000
526.885925	146.680000
526.979614	146.860000
527.073303	146.840000
527.166931	146.920000
527.260620	147.020000
527.354309	146.940000
527.447998	146.740000
527.541626	146.480000
527.635315	146.620000
527.728943	146.920000
527.822632	146.900000
527.916260	147.120000
528.009949	147.620000
528.103577	147.220000
528.197266	146.600000
528.290894	146.640000
528.384583	146.240000
528.478210	146.140000
528.571899	146.320000
528.665527	146.680000
528.759216	146.660000
528.852844	147.540000
528.946533	147.360000
529.040161	147.240000
529.133850	146.900000
529.227478	147.020000
529.321167	146.760000
529.414856	147.340000
529.508484	147.720000
529.602173	147.520000
529.695801	147.200000
529.789490	146.860000
529.883057	146.200000
529.976746	146.440000
530.070374	146.960000
530.164062	147.040000
530.257690	147.460000
530.351379	148.120000
530.445007	147.740000
530.538696	147.140000
530.632324	147.500000
530.726013	147.300000
530.819641	146.940000
530.913330	147.020000
531.006958	147.120000
531.100647	146.920000
531.194275	146.800000
531.287964	146.800000
531.381592	146.380000
531.475220	146.460000
531.568848	146.240000
531.662537	146.240000
531.756226	146.480000
531.849854	146.600000
531.943542	146.800000
532.037170	146.440000
532.130859	146.740000
532.224487	146.080000
532.318176	145.800000
532.411804	146.180000
532.505432	146.660000
532.599060	146.300000
532.692749	146.520000
532.786377	147.200000
532.880066	146.420000
532.973694	145.860000
533.067383	145.800000
533.161011	145.600000
533.254639	145.060000
533.348267	144.960000
533.441956	145.580000
533.535583	145.540000
533.629272	145.740000
533.722900	145.420000
533.816589	145.720000
533.910156	146.000000
534.003845	145.540000
534.097534	145.840000
534.191162	146.900000
534.284851	147.060000
534.378479	146.580000
534.472107	147.160000
534.565735	146.600000
534.659424	146.360000
534.753052	146.280000
534.846741	145.980000
534.940369	146.320000
535.033997	146.540000
535.127625	146.360000
535.221313	146.920000
535.314941	147.080000
535.408630	146.120000
535.502197	146.700000
535.595886	146.440000
535.689514	145.940000
535.783203	146.500000
535.876831	147.220000
535.970459	147.100000
536.064087	147.040000
536.157776	147.120000
536.251404	146.760000
536.345093	146.540000
536.438721	146.020000
536.532349	146.460000
536.626038	146.200000
536.719666	146.300000
536.813293	146.060000
536.906921	146.140000
537.000610	146.220000
537.094238	146.140000
537.187866	146.220000
537.281494	146.180000
537.375183	146.500000
537.468811	146.260000
537.562439	146.300000
537.656067	146.000000
537.749756	146.420000
537.843384	146.700000
537.937012	146.900000
538.030640	146.800000
538.124329	146.820000
538.217896	147.060000
538.311584	146.720000
538.405212	146.400000
538.498901	146.660000
538.592468	147.240000
538.686157	146.740000
538.779785	146.400000
538.873413	146.380000
538.967102	146.100000
539.060730	145.440000
539.154358	145.820000
539.247986	146.220000
539.341675	146.300000
539.435242	146.620000
539.528931	146.760000
539.622559	146.060000
539.716187	146.380000
539.809814	146.140000
539.903503	146.020000
539.997070	145.900000
540.090759	146.200000
540.184387	145.900000
540.278015	146.600000
540.371643	146.620000
540.465332	146.720000
540.558899	146.900000
540.652588	146.880000
540.746216	146.260000
540.839844	146.680000
540.933472	146.700000
541.027100	146.280000
541.120728	146.380000
541.214417	146.620000
541.308044	146.620000
541.401672	146.500000
541.495300	146.680000
541.588928	146.400000
541.682617	146.000000
541.776184	145.600000
541.869873	146.080000
541.963440	146.440000
542.057129	146.560000
542.150757	146.940000
542.244385	146.820000
542.338013	146.220000
542.431641	146.040000
542.525269	145.640000
542.618958	146.000000
542.712524	146.480000
542.806213	146.420000
542.899780	146.500000
542.993469	146.500000
543.087036	146.040000
543.180725	145.240000
543.274292	145.880000
543.367981	146.100000
543.461548	146.700000
543.555237	146.960000
543.648926	147.800000
543.742493	148.360000
543.836182	148.340000
543.929749	148.300000
544.023437	148.020000
544.117004	147.960000
544.210693	147.460000
544.304260	147.180000
544.397949	146.700000
544.491516	147.240000
544.585205	147.160000
544.678772	146.780000
544.772461	147.200000
544.866028	147.280000
544.959717	146.800000
545.053284	146.440000
545.146973	146.600000
545.240540	146.480000
545.334229	147.220000
545.427795	147.480000
545.521423	147.820000
545.615051	148.180000
545.708679	148.600000
545.802307	148.440000
545.895935	148.620000
545.989624	149.420000
546.083191	149.020000
546.176880	148.780000
546.270447	148.180000
546.364136	148.440000
546.457703	147.680000
546.551331	147.740000
546.644958	147.500000
546.738586	147.640000
546.832214	147.240000
546.925842	147.000000
547.019409	147.200000
547.113098	146.700000
547.206665	146.360000
547.300354	146.540000
547.393921	146.840000
547.487549	146.880000
547.581177	147.360000
547.674805	147.420000
547.768433	146.500000
547.862061	146.780000
547.955627	146.160000
548.049316	146.380000
548.142883	146.800000
548.236572	147.400000
548.330139	147.200000
548.423767	147.360000
548.517456	146.940000
548.611023	147.180000
548.704651	146.780000
548.798279	146.500000
548.891907	147.100000
548.985474	147.060000
549.079163	146.960000
549.172729	146.780000
549.266357	146.520000
549.359985	146.080000
549.453613	145.600000
549.547180	145.300000
549.640869	146.120000
549.734436	145.900000
549.828064	146.360000
549.921631	146.760000
550.015320	146.700000
550.108887	146.820000
550.202515	147.080000
550.296143	146.480000
550.389771	146.700000
550.483337	146.780000
550.576965	146.340000
550.670593	146.800000
550.764221	146.940000
550.857849	146.680000
550.951477	146.240000
551.045105	145.780000
551.138672	145.400000
551.232300	144.760000
551.325928	145.000000
551.419556	145.660000
551.513123	145.900000
551.606750	145.880000
551.700378	146.340000
551.794006	146.360000
551.887573	146.040000
551.981201	146.440000
552.074768	146.160000
552.168457	146.020000
552.262024	146.840000
552.355652	146.800000
552.449219	147.160000
552.542847	147.360000
552.636475	147.420000
552.730103	146.280000
552.823669	146.260000
552.917297	145.580000
553.010864	145.900000
553.104553	146.260000
553.198181	146.180000
553.291748	146.540000
553.385376	146.840000
553.478943	146.660000
553.572571	146.520000
553.666199	146.680000
553.759827	146.420000
553.853394	145.920000
553.947021	145.880000
554.040588	145.680000
554.134216	145.700000
554.227783	146.240000
554.321411	147.100000
554.415039	146.720000
554.508667	146.740000
554.602234	147.140000
554.695862	146.520000
554.789429	146.080000
554.883057	146.580000
554.976624	146.520000
555.070251	146.140000
555.163818	145.940000
555.257507	146.140000
555.351074	146.020000
555.444702	147.380000
555.538330	147.440000
555.631897	148.260000
555.725525	147.880000
555.819092	147.500000
555.912720	145.920000
556.006287	146.440000
556.099915	145.780000
556.193481	145.780000
556.287109	146.180000
556.380676	146.220000
556.474304	145.760000
556.567871	146.100000
556.661499	145.840000
556.755066	145.940000
556.848694	146.240000
556.942261	146.160000
557.035889	146.260000
557.129517	146.580000
557.223145	147.020000
557.316711	147.040000
557.410339	147.200000
557.503906	146.940000
557.597473	147.260000
557.691040	146.580000
557.784668	146.580000
557.878296	146.460000
557.971863	146.520000
558.065491	146.320000
558.159058	146.320000
558.252686	146.980000
558.346252	147.660000
558.439880	147.080000
558.533447	146.740000
558.627075	146.560000
558.720642	145.760000
558.814270	145.240000
558.907837	145.400000
559.001465	145.660000
559.095032	146.360000
559.188660	146.700000
559.282227	146.180000
559.375854	147.100000
559.469360	146.640000
559.562988	146.580000
559.656555	146.520000
559.750183	147.040000
559.843750	146.820000
559.937378	147.340000
560.030945	147.200000
560.124573	0.000000
560.218140	0.000000
560.311707	0.000000
560.405334	0.000000
560.498901	0.000000
560.592529	0.000000
560.686096	0.000000
560.779724	0.000000
560.873291	0.000000
560.966858	0.000000
561.060425	0.000000
561.154053	0.000000
561.247620	0.000000
561.341248	0.000000
561.434814	0.000000
561.528381	0.000000
561.621948	0.000000
561.715576	0.000000
561.809143	0.000000
561.902771	0.000000
561.996277	0.000000
562.089905	0.000000
562.183472	0.000000
562.277100	0.000000
