Model Number: SPM-002-B   
Serial Number: 70087108
Firmware Version: 004.15.4
Exposure Time: 100000.000000us
Data Taken on: 11-12-2020 19:31:02.085
Wavelength	Amplitude
221.570786	0.000000
221.663406	0.000000
221.756027	0.000000
221.848648	0.000000
221.941269	0.000000
222.033905	0.000000
222.126526	0.000000
222.219162	0.000000
222.311798	0.000000
222.404419	0.000000
222.497055	0.000000
222.589676	0.000000
222.682312	0.000000
222.774933	0.000000
222.867569	0.000000
222.960205	0.000000
223.052841	0.000000
223.145462	0.000000
223.238098	0.000000
223.330734	0.000000
223.423386	0.000000
223.516022	0.000000
223.608658	0.000000
223.701309	0.000000
223.793945	0.000000
223.886581	0.000000
223.979218	0.000000
224.071869	0.000000
224.164505	0.000000
224.257156	0.000000
224.349792	0.000000
224.442444	0.000000
224.535095	0.000000
224.627747	0.000000
224.720398	0.000000
224.813034	0.000000
224.905685	0.000000
224.998337	145.440000
225.090988	144.660000
225.183640	144.780000
225.276291	144.440000
225.368942	144.980000
225.461594	145.520000
225.554245	146.240000
225.646912	146.100000
225.739578	146.840000
225.832230	147.100000
225.924896	146.120000
226.017548	146.420000
226.110199	146.780000
226.202866	146.200000
226.295532	145.940000
226.388184	146.220000
226.480850	145.120000
226.573517	144.920000
226.666168	145.300000
226.758835	145.380000
226.851501	146.160000
226.944183	146.480000
227.036850	146.180000
227.129517	146.160000
227.222183	146.260000
227.314850	145.820000
227.407516	146.180000
227.500198	146.600000
227.592865	146.060000
227.685532	145.840000
227.778214	145.580000
227.870880	146.000000
227.963562	146.440000
228.056229	147.160000
228.148926	146.980000
228.241592	147.920000
228.334274	147.400000
228.426956	147.140000
228.519638	147.200000
228.612305	147.220000
228.704987	146.980000
228.797668	146.880000
228.890350	146.240000
228.983032	145.240000
229.075714	145.640000
229.168396	145.100000
229.261108	144.840000
229.353790	145.020000
229.446472	145.680000
229.539169	145.360000
229.631851	145.140000
229.724533	145.280000
229.817230	145.520000
229.909912	146.220000
230.002609	146.320000
230.095306	146.320000
230.187988	146.600000
230.280685	146.080000
230.373383	145.100000
230.466095	144.940000
230.558792	145.340000
230.651474	145.260000
230.744171	145.540000
230.836868	145.720000
230.929581	145.920000
231.022278	146.160000
231.114975	146.180000
231.207672	146.080000
231.300369	146.480000
231.393082	146.400000
231.485779	145.840000
231.578506	145.840000
231.671204	145.820000
231.763916	145.580000
231.856613	145.780000
231.949326	146.100000
232.042023	145.680000
232.134735	145.620000
232.227448	145.420000
232.320160	145.260000
232.412872	145.360000
232.505585	146.200000
232.598297	146.800000
232.691010	146.920000
232.783722	146.740000
232.876450	146.940000
232.969162	146.420000
233.061874	145.800000
233.154587	145.480000
233.247314	145.900000
233.340027	145.320000
233.432739	145.520000
233.525467	145.520000
233.618179	145.880000
233.710907	145.180000
233.803635	145.840000
233.896347	145.760000
233.989090	146.340000
234.081818	146.320000
234.174545	146.860000
234.267258	146.100000
234.359985	146.260000
234.452713	145.860000
234.545441	145.920000
234.638168	145.640000
234.730896	146.420000
234.823639	146.200000
234.916367	146.840000
235.009094	146.800000
235.101822	147.000000
235.194580	146.720000
235.287308	146.660000
235.380051	145.820000
235.472778	145.960000
235.565521	146.300000
235.658249	145.760000
235.750992	145.940000
235.843719	146.180000
235.936462	146.180000
236.029205	145.680000
236.121948	145.480000
236.214691	145.600000
236.307449	146.180000
236.400192	145.460000
236.492935	145.100000
236.585678	145.580000
236.678421	145.400000
236.771164	145.060000
236.863907	146.120000
236.956665	146.540000
237.049408	148.140000
237.142151	148.140000
237.234909	148.840000
237.327652	148.400000
237.420410	148.160000
237.513153	146.880000
237.605927	146.660000
237.698669	146.120000
237.791428	145.480000
237.884186	145.820000
237.976944	145.420000
238.069702	145.760000
238.162445	145.120000
238.255203	145.420000
238.347961	145.720000
238.440720	145.760000
238.533478	145.760000
238.626266	145.740000
238.719025	145.980000
238.811783	145.720000
238.904541	145.460000
238.997314	145.020000
239.090073	144.800000
239.182831	144.940000
239.275604	145.760000
239.368362	145.940000
239.461136	146.200000
239.553909	146.360000
239.646667	146.200000
239.739441	145.400000
239.832214	145.820000
239.925003	145.840000
240.017761	146.420000
240.110535	147.000000
240.203308	146.840000
240.296082	146.540000
240.388855	146.480000
240.481628	146.460000
240.574417	146.380000
240.667191	146.700000
240.759964	146.640000
240.852737	146.800000
240.945526	146.540000
241.038315	146.200000
241.131088	146.120000
241.223877	146.560000
241.316650	146.040000
241.409439	146.400000
241.502228	145.960000
241.595001	146.620000
241.687790	146.420000
241.780579	146.740000
241.873367	146.940000
241.966141	147.740000
242.058929	146.780000
242.151718	147.100000
242.244507	147.600000
242.337311	146.540000
242.430099	146.820000
242.522903	147.040000
242.615692	146.340000
242.708481	146.120000
242.801270	146.860000
242.894073	146.260000
242.986862	146.640000
243.079651	147.320000
243.172455	146.940000
243.265244	147.000000
243.358063	146.600000
243.450867	146.220000
243.543655	145.900000
243.636459	146.260000
243.729263	146.740000
243.822067	147.280000
243.914856	147.580000
244.007660	147.800000
244.100464	147.660000
244.193268	146.800000
244.286072	146.320000
244.378876	145.860000
244.471680	145.060000
244.564499	145.020000
244.657318	145.940000
244.750122	146.180000
244.842926	145.860000
244.935745	146.700000
245.028549	146.560000
245.121368	145.940000
245.214172	146.120000
245.306992	146.460000
245.399796	145.640000
245.492615	146.000000
245.585434	146.040000
245.678253	145.860000
245.771072	145.800000
245.863892	146.520000
245.956711	146.600000
246.049530	146.740000
246.142349	146.800000
246.235168	146.980000
246.327988	147.420000
246.420807	146.980000
246.513626	146.800000
246.606445	146.600000
246.699280	146.500000
246.792099	145.840000
246.884918	145.620000
246.977753	145.320000
247.070587	145.420000
247.163422	145.540000
247.256241	145.720000
247.349075	146.340000
247.441895	146.440000
247.534729	146.520000
247.627563	146.540000
247.720383	146.980000
247.813217	146.740000
247.906052	146.860000
247.998886	146.700000
248.091736	146.680000
248.184570	146.100000
248.277405	146.220000
248.370239	146.860000
248.463074	147.580000
248.555908	147.680000
248.648743	147.740000
248.741592	147.680000
248.834427	146.880000
248.927261	145.780000
249.020111	146.380000
249.112946	147.380000
249.205795	147.060000
249.298630	147.100000
249.391495	147.660000
249.484344	146.840000
249.577179	146.100000
249.670029	146.420000
249.762878	146.920000
249.855728	146.960000
249.948563	147.140000
250.041412	146.540000
250.134262	146.740000
250.227112	146.520000
250.319962	146.580000
250.412827	146.820000
250.505692	146.540000
250.598541	146.400000
250.691391	146.000000
250.784241	146.100000
250.877106	145.880000
250.969955	145.920000
251.062805	146.420000
251.155670	147.060000
251.248520	146.400000
251.341385	146.660000
251.434235	146.980000
251.527100	146.320000
251.619965	146.020000
251.712814	146.880000
251.805695	146.600000
251.898560	146.640000
251.991425	146.940000
252.084290	147.000000
252.177155	146.260000
252.270020	145.960000
252.362885	146.080000
252.455750	145.980000
252.548615	145.520000
252.641479	145.680000
252.734360	145.720000
252.827240	145.480000
252.920105	145.520000
253.012970	145.680000
253.105850	145.400000
253.198715	145.080000
253.291595	145.420000
253.384460	145.020000
253.477341	145.140000
253.570221	145.720000
253.663086	145.860000
253.755966	146.280000
253.848846	146.520000
253.941727	146.960000
254.034592	146.740000
254.127472	146.760000
254.220367	146.340000
254.313248	146.440000
254.406128	145.940000
254.499008	146.240000
254.591904	147.060000
254.684784	147.760000
254.777664	147.860000
254.870544	147.360000
254.963440	147.120000
255.056335	146.720000
255.149216	145.860000
255.242111	146.040000
255.334991	146.600000
255.427887	146.860000
255.520767	146.940000
255.613663	147.000000
255.706558	146.400000
255.799438	146.120000
255.892334	145.360000
255.985229	144.980000
256.078125	145.260000
256.171021	145.500000
256.263916	145.980000
256.356812	146.580000
256.449707	147.040000
256.542603	146.580000
256.635498	147.260000
256.728394	147.200000
256.821289	146.860000
256.914215	146.760000
257.007080	147.080000
257.100006	146.620000
257.192932	146.700000
257.285828	146.980000
257.378723	146.700000
257.471619	146.540000
257.564545	146.300000
257.657440	146.180000
257.750336	146.480000
257.843262	146.060000
257.936157	147.160000
258.029053	147.380000
258.121979	147.500000
258.214874	146.840000
258.307800	147.200000
258.400696	146.000000
258.493622	145.640000
258.586517	144.920000
258.679443	145.380000
258.772339	144.980000
258.865265	144.800000
258.958160	144.760000
259.051086	145.720000
259.144012	145.560000
259.236938	146.360000
259.329834	146.780000
259.422791	147.060000
259.515717	146.520000
259.608612	146.260000
259.701538	146.520000
259.794464	146.140000
259.887390	145.820000
259.980316	146.040000
260.073212	145.940000
260.166138	144.740000
260.259064	145.360000
260.351990	145.880000
260.444916	145.620000
260.537842	146.340000
260.630768	147.180000
260.723694	146.560000
260.816620	146.180000
260.909546	146.220000
261.002472	145.700000
261.095398	145.260000
261.188354	145.560000
261.281281	145.120000
261.374207	145.240000
261.467133	146.040000
261.560089	146.320000
261.653015	146.360000
261.745972	147.500000
261.838867	147.660000
261.931824	147.340000
262.024780	147.020000
262.117706	147.020000
262.210663	146.780000
262.303589	146.740000
262.396515	146.780000
262.489471	147.660000
262.582397	147.580000
262.675354	146.880000
262.768280	147.120000
262.861237	147.320000
262.954163	146.820000
263.047119	147.020000
263.140045	147.140000
263.233002	146.740000
263.325958	146.320000
263.418884	146.000000
263.511841	146.100000
263.604797	146.060000
263.697723	146.120000
263.790680	145.800000
263.883636	146.440000
263.976593	145.820000
264.069550	146.060000
264.162476	145.640000
264.255463	145.840000
264.348419	145.360000
264.441376	146.140000
264.534332	145.740000
264.627289	145.940000
264.720245	146.300000
264.813202	145.960000
264.906158	145.680000
264.999115	146.280000
265.092072	146.180000
265.185028	146.400000
265.277985	147.100000
265.370941	146.740000
265.463898	146.540000
265.556854	146.700000
265.649811	145.680000
265.742798	145.180000
265.835754	145.420000
265.928711	145.580000
266.021667	145.540000
266.114655	146.180000
266.207611	146.520000
266.300568	146.080000
266.393585	145.820000
266.486511	146.200000
266.579498	145.400000
266.672485	145.220000
266.765442	145.320000
266.858429	145.540000
266.951385	145.120000
267.044342	145.400000
267.137329	145.380000
267.230316	145.740000
267.323273	145.380000
267.416260	145.780000
267.509216	145.860000
267.602203	145.820000
267.695160	145.900000
267.788147	146.140000
267.881134	145.400000
267.974091	145.560000
268.067078	145.460000
268.160065	145.360000
268.253052	145.140000
268.346008	145.620000
268.438995	145.540000
268.531982	145.700000
268.624969	145.620000
268.717987	146.140000
268.810944	145.980000
268.903961	146.300000
268.996948	146.100000
269.089905	146.500000
269.182892	146.160000
269.275879	146.400000
269.368866	145.820000
269.461853	146.120000
269.554871	145.820000
269.647858	145.880000
269.740845	146.140000
269.833832	146.660000
269.926819	146.220000
270.019806	146.640000
270.112793	146.120000
270.205811	146.180000
270.298798	146.000000
270.391785	146.600000
270.484772	145.740000
270.577789	146.380000
270.670776	145.720000
270.763763	145.700000
270.856750	145.680000
270.949768	145.740000
271.042786	145.760000
271.135773	146.280000
271.228790	146.440000
271.321808	145.920000
271.414795	145.920000
271.507782	145.540000
271.600800	145.260000
271.693817	145.240000
271.786804	145.760000
271.879822	146.020000
271.972809	146.060000
272.065826	146.540000
272.158844	146.160000
272.251831	146.520000
272.344849	146.500000
272.437866	146.200000
272.530853	146.140000
272.623871	146.520000
272.716888	145.480000
272.809906	145.960000
272.902893	146.000000
272.995911	145.400000
273.088928	145.480000
273.181946	145.720000
273.274963	145.240000
273.367981	145.360000
273.460999	145.680000
273.554047	145.820000
273.647003	146.600000
273.740051	146.840000
273.833069	147.180000
273.926086	147.300000
274.019135	147.040000
274.112152	146.420000
274.205170	146.040000
274.298187	146.440000
274.391205	145.620000
274.484222	145.640000
274.577240	145.500000
274.670258	145.760000
274.763306	145.400000
274.856323	146.020000
274.949341	145.860000
275.042358	146.400000
275.135406	146.140000
275.228424	145.940000
275.321442	146.040000
275.414490	145.820000
275.507507	145.940000
275.600525	146.620000
275.693573	146.540000
275.786591	146.180000
275.879669	146.620000
275.972656	146.260000
276.065735	145.760000
276.158752	146.300000
276.251801	147.200000
276.344818	147.100000
276.437866	147.240000
276.530884	147.060000
276.623932	146.180000
276.716980	145.980000
276.809998	145.980000
276.903046	145.840000
276.996094	146.820000
277.089111	147.520000
277.182159	147.600000
277.275208	147.620000
277.368256	147.500000
277.461304	146.960000
277.554321	146.600000
277.647369	146.380000
277.740417	146.040000
277.833466	146.300000
277.926514	145.940000
278.019562	146.520000
278.112610	146.000000
278.205688	146.700000
278.298706	146.600000
278.391785	146.560000
278.484833	145.860000
278.577881	145.960000
278.670929	145.740000
278.763977	145.600000
278.857025	145.840000
278.950073	146.060000
279.043121	145.900000
279.136169	145.600000
279.229248	145.520000
279.322296	145.600000
279.415344	145.300000
279.508392	145.580000
279.601440	145.620000
279.694519	145.480000
279.787567	145.580000
279.880615	145.540000
279.973694	145.240000
280.066742	145.420000
280.159790	145.840000
280.252869	145.360000
280.345917	145.500000
280.438995	145.580000
280.532074	145.440000
280.625122	145.580000
280.718201	146.560000
280.811279	146.920000
280.904327	147.040000
280.997406	147.080000
281.090454	147.140000
281.183533	146.380000
281.276581	146.260000
281.369659	146.000000
281.462738	146.040000
281.555786	146.060000
281.648865	145.940000
281.741943	145.920000
281.835022	146.540000
281.928070	146.240000
282.021149	145.780000
282.114227	145.840000
282.207306	145.680000
282.300385	145.540000
282.393433	145.900000
282.486511	146.040000
282.579590	146.360000
282.672668	146.640000
282.765747	145.960000
282.858856	145.940000
282.951904	146.000000
283.045013	146.140000
283.138062	146.440000
283.231171	146.980000
283.324249	146.960000
283.417328	147.140000
283.510406	146.500000
283.603485	146.020000
283.696564	145.740000
283.789642	145.860000
283.882751	145.520000
283.975830	146.440000
284.068909	146.260000
284.161987	146.960000
284.255066	146.480000
284.348175	146.660000
284.441254	146.360000
284.534332	147.140000
284.627441	146.780000
284.720520	146.660000
284.813599	146.760000
284.906708	146.760000
284.999786	145.740000
285.092896	145.520000
285.185974	146.740000
285.279053	146.260000
285.372192	146.000000
285.465240	146.840000
285.558380	146.700000
285.651459	146.100000
285.744568	147.220000
285.837677	146.980000
285.930756	146.640000
286.023865	146.980000
286.116943	146.340000
286.210052	145.980000
286.303162	146.080000
286.396240	146.260000
286.489349	146.000000
286.582458	146.740000
286.675568	146.100000
286.768646	146.120000
286.861755	146.380000
286.954865	147.180000
287.047974	146.580000
287.141083	146.680000
287.234161	146.380000
287.327271	145.740000
287.420380	145.880000
287.513519	145.880000
287.606598	146.160000
287.699738	146.700000
287.792816	146.840000
287.885956	146.200000
287.979034	146.420000
288.072174	146.140000
288.165283	145.860000
288.258392	146.320000
288.351501	145.840000
288.444611	146.020000
288.537720	146.440000
288.630859	146.260000
288.723969	146.400000
288.817078	146.900000
288.910187	146.460000
289.003296	145.880000
289.096436	145.760000
289.189545	145.420000
289.282654	145.240000
289.375763	145.660000
289.468903	146.160000
289.562012	146.740000
289.655121	146.660000
289.748260	146.640000
289.841400	147.020000
289.934509	146.840000
290.027649	146.640000
290.120728	146.580000
290.213898	146.480000
290.306976	146.180000
290.400146	146.360000
290.493256	145.840000
290.586395	145.880000
290.679535	146.420000
290.772644	146.120000
290.865784	145.100000
290.958893	145.340000
291.052032	145.160000
291.145172	144.920000
291.238281	144.840000
291.331421	145.560000
291.424561	146.120000
291.517670	145.720000
291.610809	146.000000
291.703949	145.840000
291.797089	146.220000
291.890228	145.440000
291.983337	146.060000
292.076477	145.680000
292.169617	146.220000
292.262756	145.740000
292.355927	146.140000
292.449036	145.880000
292.542206	145.820000
292.635315	145.780000
292.728485	146.000000
292.821625	145.540000
292.914764	146.420000
293.007904	146.800000
293.101044	146.700000
293.194183	146.640000
293.287323	146.880000
293.380463	146.080000
293.473602	145.660000
293.566742	146.080000
293.659882	146.460000
293.753021	146.660000
293.846191	146.580000
293.939331	146.460000
294.032471	145.980000
294.125610	145.440000
294.218781	146.100000
294.311920	146.560000
294.405060	146.920000
294.498230	146.840000
294.591370	147.080000
294.684540	146.060000
294.777679	145.540000
294.870850	145.760000
294.963959	145.740000
295.057159	145.660000
295.150299	146.380000
295.243469	146.380000
295.336609	145.400000
295.429779	145.480000
295.522919	145.680000
295.616089	145.420000
295.709229	145.980000
295.802399	146.580000
295.895569	146.300000
295.988708	146.020000
296.081879	146.220000
296.175018	145.740000
296.268188	145.740000
296.361359	146.440000
296.454529	146.380000
296.547668	146.080000
296.640839	146.380000
296.734009	146.120000
296.827179	146.080000
296.920319	146.320000
297.013519	146.080000
297.106659	145.960000
297.199860	146.040000
297.292999	145.800000
297.386200	145.520000
297.479309	145.500000
297.572510	145.460000
297.665680	145.480000
297.758850	145.660000
297.852020	145.940000
297.945190	146.020000
298.038361	145.780000
298.131531	146.620000
298.224701	146.220000
298.317871	145.520000
298.411072	145.160000
298.504242	145.200000
298.597412	144.480000
298.690582	144.820000
298.783752	145.320000
298.876923	145.800000
298.970093	145.760000
299.063293	146.160000
299.156464	146.440000
299.249634	146.540000
299.342834	146.640000
299.436005	147.060000
299.529205	146.860000
299.622345	146.860000
299.715576	146.400000
299.808716	146.460000
299.901917	146.360000
299.995117	146.580000
300.088287	146.600000
300.181488	146.800000
300.274658	146.400000
300.367828	146.360000
300.461029	146.200000
300.554199	146.040000
300.647400	146.140000
300.740601	146.840000
300.833771	146.580000
300.926971	146.580000
301.020142	146.100000
301.113342	146.040000
301.206512	145.740000
301.299713	146.180000
301.392914	145.900000
301.486084	146.040000
301.579285	146.120000
301.672516	146.320000
301.765686	145.960000
301.858887	146.360000
301.952057	146.220000
302.045288	146.020000
302.138458	146.000000
302.231659	145.860000
302.324860	145.300000
302.418060	145.340000
302.511261	145.440000
302.604462	145.480000
302.697662	145.480000
302.790863	145.720000
302.884064	145.440000
302.977264	145.700000
303.070465	145.560000
303.163666	146.280000
303.256866	146.600000
303.350067	146.680000
303.443268	146.520000
303.536469	146.920000
303.629669	146.380000
303.722870	146.120000
303.816071	146.400000
303.909271	146.360000
304.002472	145.260000
304.095673	145.000000
304.188934	144.740000
304.282104	145.340000
304.375336	145.380000
304.468506	145.820000
304.561768	145.740000
304.654968	146.360000
304.748169	145.980000
304.841370	145.980000
304.934601	146.620000
305.027802	146.660000
305.121002	146.120000
305.214233	145.880000
305.307434	146.020000
305.400665	146.120000
305.493866	146.020000
305.587097	146.340000
305.680298	146.360000
305.773499	146.600000
305.866730	146.100000
305.959930	146.940000
306.053162	146.920000
306.146393	146.480000
306.239594	145.580000
306.332825	145.480000
306.426025	145.600000
306.519287	145.180000
306.612488	145.700000
306.705719	146.140000
306.798920	146.300000
306.892181	145.520000
306.985352	145.700000
307.078613	145.020000
307.171844	145.460000
307.265045	144.880000
307.358276	144.600000
307.451508	144.820000
307.544739	145.500000
307.637970	145.120000
307.731201	145.300000
307.824402	146.260000
307.917633	146.340000
308.010864	146.720000
308.104095	147.040000
308.197327	147.160000
308.290558	146.860000
308.383789	146.260000
308.477020	145.900000
308.570251	145.300000
308.663483	145.160000
308.756714	144.980000
308.849976	145.420000
308.943176	145.280000
309.036438	145.200000
309.129639	145.040000
309.222900	145.020000
309.316101	144.520000
309.409393	144.340000
309.502625	144.320000
309.595856	144.420000
309.689087	144.540000
309.782318	144.780000
309.875580	144.900000
309.968811	145.220000
310.062042	144.940000
310.155273	144.740000
310.248535	145.460000
310.341766	145.540000
310.434998	145.420000
310.528259	145.780000
310.621490	146.080000
310.714722	145.000000
310.807983	145.100000
310.901215	144.880000
310.994476	145.220000
311.087708	144.900000
311.181000	145.500000
311.274200	145.020000
311.367462	145.400000
311.460693	144.960000
311.553986	145.660000
311.647186	146.160000
311.740479	147.200000
311.833710	146.500000
311.926971	146.540000
312.020203	145.740000
312.113464	145.120000
312.206726	144.340000
312.299957	145.320000
312.393219	145.900000
312.486481	146.300000
312.579712	146.140000
312.672974	146.220000
312.766235	145.560000
312.859497	145.140000
312.952759	144.940000
313.045990	145.820000
313.139252	145.420000
313.232513	145.680000
313.325775	146.040000
313.419037	145.840000
313.512299	145.040000
313.605530	145.880000
313.698822	146.280000
313.792053	145.980000
313.885345	145.880000
313.978577	146.060000
314.071869	145.600000
314.165131	145.560000
314.258392	145.660000
314.351654	145.720000
314.444916	145.100000
314.538177	145.600000
314.631439	145.820000
314.724701	145.900000
314.817993	145.980000
314.911255	146.320000
315.004517	145.800000
315.097778	145.360000
315.191040	145.600000
315.284302	146.120000
315.377594	146.140000
315.470856	146.040000
315.564117	145.640000
315.657379	145.100000
315.750671	144.380000
315.843933	144.820000
315.937195	144.540000
316.030518	144.560000
316.123749	144.860000
316.217041	146.020000
316.310303	145.580000
316.403595	145.820000
316.496857	146.500000
316.590149	146.600000
316.683411	145.840000
316.776703	146.060000
316.869965	146.100000
316.963257	145.860000
317.056519	145.320000
317.149811	145.080000
317.243073	145.100000
317.336365	145.280000
317.429626	145.340000
317.522919	145.920000
317.616180	145.880000
317.709473	145.500000
317.802765	145.420000
317.896027	145.200000
317.989319	145.400000
318.082611	145.540000
318.175873	145.480000
318.269165	145.320000
318.362488	145.480000
318.455750	145.160000
318.549042	145.740000
318.642303	146.360000
318.735626	146.380000
318.828888	146.640000
318.922211	146.220000
319.015472	146.480000
319.108765	145.760000
319.202057	145.720000
319.295349	145.820000
319.388641	145.900000
319.481934	145.320000
319.575226	145.560000
319.668518	145.780000
319.761810	145.640000
319.855103	145.860000
319.948395	145.920000
320.041687	146.220000
320.134979	146.240000
320.228271	145.780000
320.321564	145.660000
320.414856	145.460000
320.508148	145.100000
320.601440	145.060000
320.694763	145.240000
320.788025	145.820000
320.881348	146.160000
320.974640	146.320000
321.067963	145.780000
321.161224	145.880000
321.254547	145.020000
321.347839	145.360000
321.441162	145.280000
321.534454	145.900000
321.627747	145.500000
321.721069	146.660000
321.814362	146.540000
321.907654	146.540000
322.000946	146.360000
322.094269	147.300000
322.187561	146.400000
322.280884	146.600000
322.374176	146.560000
322.467468	146.800000
322.560791	146.300000
322.654083	146.880000
322.747406	146.640000
322.840698	147.140000
322.934021	147.540000
323.027344	147.760000
323.120636	147.160000
323.213959	146.660000
323.307251	146.060000
323.400574	145.500000
323.493866	145.120000
323.587219	145.520000
323.680511	146.120000
323.773834	146.180000
323.867157	146.240000
323.960449	146.420000
324.053772	146.040000
324.147095	145.560000
324.240387	146.320000
324.333710	146.400000
324.427032	146.240000
324.520355	146.220000
324.613647	146.100000
324.706970	145.680000
324.800293	145.620000
324.893616	146.000000
324.986938	146.440000
325.080231	146.460000
325.173553	146.560000
325.266876	146.980000
325.360199	146.800000
325.453522	146.240000
325.546875	145.980000
325.640167	146.200000
325.733521	145.940000
325.826813	146.300000
325.920166	146.320000
326.013489	146.520000
326.106812	145.540000
326.200134	145.380000
326.293457	144.240000
326.386780	144.460000
326.480103	144.500000
326.573425	144.600000
326.666748	144.560000
326.760071	145.500000
326.853424	145.680000
326.946747	145.680000
327.040070	146.760000
327.133392	146.600000
327.226715	145.860000
327.320068	145.380000
327.413391	145.980000
327.506714	144.920000
327.600037	145.140000
327.693390	145.540000
327.786713	145.800000
327.880066	145.460000
327.973358	145.940000
328.066742	146.260000
328.160034	146.560000
328.253418	146.500000
328.346710	146.260000
328.440063	146.320000
328.533417	145.900000
328.626740	145.620000
328.720093	145.600000
328.813416	145.520000
328.906769	145.300000
329.000092	145.600000
329.093445	145.620000
329.186768	145.640000
329.280121	145.900000
329.373444	146.320000
329.466797	146.320000
329.560120	146.600000
329.653473	146.620000
329.746796	146.340000
329.840149	146.000000
329.933502	145.860000
330.026825	145.460000
330.120178	145.360000
330.213562	145.220000
330.306854	145.240000
330.400238	145.080000
330.493561	144.960000
330.586945	145.920000
330.680237	146.420000
330.773621	146.320000
330.866974	146.420000
330.960327	146.860000
331.053680	145.960000
331.147003	145.960000
331.240356	146.220000
331.333710	146.120000
331.427063	145.600000
331.520416	145.540000
331.613770	145.380000
331.707123	145.480000
331.800476	145.920000
331.893829	146.980000
331.987152	147.080000
332.080505	147.060000
332.173859	146.600000
332.267212	145.820000
332.360565	145.160000
332.453918	145.100000
332.547333	145.120000
332.640656	145.460000
332.734039	146.060000
332.827362	145.920000
332.920746	146.580000
333.014069	146.720000
333.107452	147.060000
333.200806	146.940000
333.294159	147.120000
333.387543	146.380000
333.480896	146.040000
333.574249	145.560000
333.667603	145.020000
333.760956	145.180000
333.854340	145.460000
333.947693	145.600000
334.041046	145.800000
334.134430	146.400000
334.227783	145.720000
334.321136	145.460000
334.414520	145.220000
334.507874	145.220000
334.601227	145.380000
334.694611	145.500000
334.787964	145.540000
334.881348	146.120000
334.974701	146.020000
335.068085	145.680000
335.161438	146.320000
335.254822	146.320000
335.348175	146.060000
335.441559	145.860000
335.534943	146.540000
335.628296	145.880000
335.721680	145.980000
335.815033	146.060000
335.908417	146.380000
336.001770	146.000000
336.095154	146.240000
336.188538	145.920000
336.281891	145.300000
336.375275	144.880000
336.468658	144.440000
336.562012	144.640000
336.655396	145.080000
336.748779	145.800000
336.842133	146.220000
336.935516	146.720000
337.028900	146.140000
337.122284	145.980000
337.215637	146.040000
337.309021	145.620000
337.402435	145.000000
337.495789	145.120000
337.589203	145.180000
337.682526	144.740000
337.775940	145.320000
337.869324	145.820000
337.962708	145.860000
338.056091	146.260000
338.149475	146.160000
338.242859	146.000000
338.336243	145.760000
338.429626	145.980000
338.523010	145.600000
338.616394	145.740000
338.709778	145.920000
338.803162	145.940000
338.896545	145.800000
338.989929	145.640000
339.083313	145.900000
339.176697	145.200000
339.270081	145.280000
339.363464	145.980000
339.456848	146.500000
339.550232	145.840000
339.643616	146.060000
339.737030	146.180000
339.830383	145.620000
339.923828	145.540000
340.017181	145.920000
340.110596	146.060000
340.203949	145.760000
340.297363	145.360000
340.390778	145.100000
340.484161	145.200000
340.577545	145.000000
340.670959	145.200000
340.764343	145.540000
340.857727	145.560000
340.951111	144.960000
341.044525	145.540000
341.137909	145.460000
341.231293	145.280000
341.324707	144.740000
341.418091	145.740000
341.511505	145.460000
341.604889	145.620000
341.698303	145.760000
341.791687	146.180000
341.885071	145.780000
341.978485	145.420000
342.071899	145.480000
342.165283	145.960000
342.258698	146.420000
342.352081	146.740000
342.445496	147.500000
342.538879	147.320000
342.632324	146.680000
342.725708	146.440000
342.819122	145.880000
342.912506	145.320000
343.005920	145.260000
343.099335	146.300000
343.192719	146.060000
343.286133	146.360000
343.379547	146.540000
343.472931	146.380000
343.566345	145.540000
343.659760	145.720000
343.753143	145.040000
343.846558	145.000000
343.939972	145.340000
344.033386	145.720000
344.126770	145.620000
344.220184	146.040000
344.313599	146.080000
344.407043	146.220000
344.500427	145.780000
344.593872	146.240000
344.687225	146.320000
344.780670	146.160000
344.874054	145.860000
344.967499	146.360000
345.060913	146.200000
345.154327	146.280000
345.247742	146.280000
345.341156	146.120000
345.434570	145.760000
345.527985	145.580000
345.621399	145.520000
345.714813	145.040000
345.808228	145.140000
345.901642	144.980000
345.995056	144.640000
346.088470	144.760000
346.181885	145.260000
346.275299	144.900000
346.368713	144.940000
346.462128	144.760000
346.555573	144.280000
346.648987	144.440000
346.742401	144.740000
346.835815	145.300000
346.929260	145.460000
347.022644	146.000000
347.116119	146.040000
347.209503	146.620000
347.302948	147.220000
347.396362	147.820000
347.489807	147.780000
347.583221	148.220000
347.676636	147.480000
347.770050	146.020000
347.863495	145.180000
347.956909	145.240000
348.050323	144.720000
348.143768	144.760000
348.237183	144.780000
348.330597	145.760000
348.424042	145.840000
348.517456	145.720000
348.610901	146.060000
348.704315	146.500000
348.797760	145.380000
348.891174	144.880000
348.984619	144.900000
349.078033	145.080000
349.171448	145.500000
349.264923	145.920000
349.358337	145.700000
349.451782	145.800000
349.545197	145.000000
349.638641	144.520000
349.732086	144.040000
349.825500	144.840000
349.918945	144.320000
350.012390	145.220000
350.105804	145.360000
350.199249	146.040000
350.292664	146.100000
350.386108	146.660000
350.479553	146.560000
350.572968	146.440000
350.666412	146.600000
350.759857	146.140000
350.853302	146.280000
350.946716	145.760000
351.040161	145.920000
351.133606	145.960000
351.227081	145.960000
351.320465	146.360000
351.413940	146.600000
351.507355	146.820000
351.600830	146.440000
351.694244	146.420000
351.787720	145.840000
351.881104	145.900000
351.974579	145.640000
352.067993	146.300000
352.161469	146.320000
352.254883	145.860000
352.348358	145.860000
352.441803	145.560000
352.535248	145.280000
352.628693	145.580000
352.722137	145.820000
352.815582	146.060000
352.909027	146.480000
353.002472	146.140000
353.095917	146.100000
353.189362	146.360000
353.282806	146.240000
353.376251	146.000000
353.469696	145.780000
353.563141	146.020000
353.656586	146.040000
353.750061	145.480000
353.843475	145.440000
353.936981	146.180000
354.030396	145.480000
354.123871	145.160000
354.217285	146.160000
354.310760	146.360000
354.404175	145.680000
354.497681	145.660000
354.591095	145.900000
354.684570	144.620000
354.777985	144.260000
354.871490	144.320000
354.964935	144.860000
355.058380	144.840000
355.151855	144.940000
355.245300	145.220000
355.338745	145.920000
355.432220	145.780000
355.525665	145.160000
355.619110	146.080000
355.712585	145.680000
355.806030	145.020000
355.899475	144.560000
355.992950	145.140000
356.086426	145.000000
356.179871	145.260000
356.273346	145.320000
356.366791	145.620000
356.460266	146.080000
356.553711	145.520000
356.647186	145.700000
356.740631	145.640000
356.834106	145.540000
356.927551	145.320000
357.021027	145.760000
357.114471	145.980000
357.207947	146.140000
357.301422	146.680000
357.394867	146.640000
357.488342	146.740000
357.581818	146.620000
357.675262	146.820000
357.768738	146.160000
357.862213	145.700000
357.955658	145.540000
358.049133	145.280000
358.142609	145.260000
358.236053	145.340000
358.329529	145.400000
358.423035	145.960000
358.516449	145.580000
358.609955	145.920000
358.703400	146.620000
358.796906	147.040000
358.890350	146.520000
358.983826	146.940000
359.077271	146.120000
359.170776	145.620000
359.264221	145.100000
359.357727	144.980000
359.451172	145.320000
359.544647	145.720000
359.638123	145.520000
359.731598	146.100000
359.825073	146.560000
359.918549	146.460000
360.012024	146.420000
360.105499	146.440000
360.198975	146.280000
360.292450	146.100000
360.385925	145.960000
360.479401	145.620000
360.572876	145.800000
360.666351	146.040000
360.759857	145.880000
360.853302	145.720000
360.946808	145.700000
361.040253	145.580000
361.133759	144.860000
361.227203	145.040000
361.320709	144.720000
361.414154	144.920000
361.507660	145.340000
361.601105	145.920000
361.694641	146.080000
361.788086	146.220000
361.881592	146.860000
361.975067	146.240000
362.068542	146.640000
362.162018	146.780000
362.255524	146.580000
362.348999	146.100000
362.442474	146.500000
362.535950	145.660000
362.629456	144.980000
362.722931	144.920000
362.816406	145.480000
362.909882	145.880000
363.003387	145.700000
363.096863	146.520000
363.190338	146.960000
363.283875	146.120000
363.377319	145.700000
363.470825	146.380000
363.564301	145.420000
363.657806	145.580000
363.751282	145.580000
363.844788	146.460000
363.938232	145.980000
364.031769	146.660000
364.125214	146.960000
364.218750	147.400000
364.312225	146.000000
364.405731	146.320000
364.499207	145.780000
364.592712	145.380000
364.686188	145.380000
364.779694	146.000000
364.873169	146.220000
364.966675	146.300000
365.060150	145.960000
365.153656	146.240000
365.247131	146.140000
365.340637	145.880000
365.434143	146.440000
365.527618	146.700000
365.621155	145.820000
365.714600	145.500000
365.808136	145.500000
365.901611	144.680000
365.995117	144.500000
366.088593	144.840000
366.182129	144.780000
366.275604	145.020000
366.369110	145.320000
366.462585	145.320000
366.556122	145.740000
366.649567	146.080000
366.743103	145.920000
366.836609	145.840000
366.930115	146.280000
367.023590	146.300000
367.117096	146.040000
367.210602	145.880000
367.304108	146.160000
367.397614	146.600000
367.491119	146.420000
367.584595	146.640000
367.678101	147.080000
367.771606	147.000000
367.865112	146.560000
367.958649	146.200000
368.052124	146.080000
368.145660	145.540000
368.239136	145.740000
368.332672	145.480000
368.426147	145.840000
368.519684	145.600000
368.613159	146.140000
368.706696	145.700000
368.800171	145.920000
368.893707	145.680000
368.987183	145.760000
369.080719	145.640000
369.174225	145.880000
369.267731	146.020000
369.361237	145.820000
369.454742	146.040000
369.548248	146.080000
369.641754	145.880000
369.735260	145.540000
369.828766	145.240000
369.922272	146.100000
370.015808	145.760000
370.109314	145.400000
370.202820	145.240000
370.296356	146.700000
370.389832	146.060000
370.483368	145.880000
370.576874	146.080000
370.670410	146.380000
370.763885	145.020000
370.857422	144.960000
370.950928	145.220000
371.044464	146.260000
371.137939	146.280000
371.231476	146.780000
371.324982	147.300000
371.418518	147.380000
371.512024	146.560000
371.605560	146.400000
371.699066	146.880000
371.792572	146.040000
371.886108	146.460000
371.979614	146.240000
372.073120	146.700000
372.166656	146.240000
372.260162	146.860000
372.353668	146.340000
372.447205	146.380000
372.540710	145.860000
372.634277	145.760000
372.727753	145.600000
372.821320	145.560000
372.914795	145.780000
373.008362	146.020000
373.101837	146.500000
373.195404	146.120000
373.288879	146.160000
373.382446	146.580000
373.475922	146.440000
373.569489	146.680000
373.662964	147.220000
373.756531	147.020000
373.850037	147.300000
373.943573	147.360000
374.037109	146.020000
374.130615	146.020000
374.224152	146.180000
374.317657	145.620000
374.411194	146.160000
374.504730	146.640000
374.598236	146.240000
374.691772	146.100000
374.785309	145.920000
374.878815	145.000000
374.972351	145.740000
375.065887	145.920000
375.159454	146.460000
375.252930	146.520000
375.346497	147.200000
375.440002	147.080000
375.533569	146.880000
375.627045	146.460000
375.720612	146.380000
375.814117	146.300000
375.907684	146.080000
376.001160	145.860000
376.094727	145.240000
376.188232	145.840000
376.281799	145.840000
376.375336	145.520000
376.468872	146.420000
376.562408	146.800000
376.655914	146.380000
376.749451	146.020000
376.842987	146.420000
376.936523	145.880000
377.030060	145.740000
377.123596	145.880000
377.217133	145.620000
377.310669	145.520000
377.404205	145.740000
377.497772	146.480000
377.591278	146.100000
377.684845	147.000000
377.778351	147.080000
377.871918	146.920000
377.965424	145.840000
378.058990	145.840000
378.152496	145.240000
378.246063	145.220000
378.339569	145.480000
378.433136	145.900000
378.526642	146.260000
378.620209	146.540000
378.713745	146.000000
378.807312	146.200000
378.900848	146.460000
378.994385	146.520000
379.087921	145.540000
379.181458	146.000000
379.274994	145.100000
379.368530	145.100000
379.462097	145.060000
379.555634	145.900000
379.649170	145.320000
379.742706	145.380000
379.836273	145.620000
379.929810	145.460000
380.023376	145.300000
380.116882	145.600000
380.210449	145.880000
380.303986	145.500000
380.397552	144.880000
380.491058	145.180000
380.584656	145.180000
380.678162	145.460000
380.771729	145.420000
380.865265	146.920000
380.958832	147.020000
381.052368	147.160000
381.145935	147.340000
381.239471	148.020000
381.333008	147.240000
381.426575	147.000000
381.520111	147.020000
381.613647	146.940000
381.707214	146.340000
381.800751	146.060000
381.894318	146.380000
381.987854	146.100000
382.081421	146.000000
382.174988	146.080000
382.268524	145.920000
382.362091	145.560000
382.455627	146.520000
382.549194	146.080000
382.642731	145.500000
382.736298	145.420000
382.829834	145.360000
382.923401	145.500000
383.016937	145.980000
383.110504	146.720000
383.204041	146.860000
383.297607	147.220000
383.391174	146.280000
383.484741	146.660000
383.578278	146.180000
383.671844	146.120000
383.765411	145.560000
383.858948	145.980000
383.952515	145.480000
384.046051	145.860000
384.139618	146.200000
384.233185	146.500000
384.326721	146.360000
384.420288	146.580000
384.513855	146.620000
384.607422	146.780000
384.700989	146.840000
384.794525	146.700000
384.888123	146.640000
384.981659	146.500000
385.075226	145.720000
385.168762	145.420000
385.262360	145.220000
385.355896	144.460000
385.449463	144.260000
385.542999	144.580000
385.636597	145.220000
385.730164	145.440000
385.823730	145.580000
385.917267	145.540000
386.010834	145.500000
386.104401	145.520000
386.197968	145.820000
386.291534	146.100000
386.385101	146.460000
386.478668	147.100000
386.572235	146.620000
386.665802	146.140000
386.759338	145.840000
386.852905	145.660000
386.946472	144.960000
387.040070	145.300000
387.133606	145.380000
387.227203	145.280000
387.320740	145.480000
387.414337	145.500000
387.507874	145.020000
387.601471	144.980000
387.695007	144.980000
387.788605	144.540000
387.882141	144.940000
387.975739	145.160000
388.069275	145.080000
388.162872	145.660000
388.256439	145.960000
388.350037	145.600000
388.443604	145.520000
388.537170	145.340000
388.630737	145.420000
388.724304	145.700000
388.817871	146.020000
388.911438	145.900000
389.005005	146.360000
389.098602	146.200000
389.192169	145.480000
389.285736	145.740000
389.379333	145.820000
389.472870	145.460000
389.566467	145.740000
389.660034	146.260000
389.753632	145.520000
389.847168	145.640000
389.940765	145.800000
390.034332	145.660000
390.127930	145.100000
390.221466	145.240000
390.315063	144.900000
390.408630	144.300000
390.502228	143.540000
390.595795	143.980000
390.689362	144.280000
390.782959	144.900000
390.876526	145.600000
390.970093	145.800000
391.063690	145.980000
391.157257	145.840000
391.250824	145.740000
391.344421	145.600000
391.437988	145.880000
391.531555	146.100000
391.625153	146.060000
391.718750	146.160000
391.812317	146.400000
391.905914	146.420000
391.999481	146.240000
392.093079	146.340000
392.186615	146.280000
392.280243	145.880000
392.373779	145.940000
392.467407	146.340000
392.560944	146.180000
392.654572	146.080000
392.748108	145.900000
392.841736	146.040000
392.935303	145.620000
393.028900	145.720000
393.122467	145.720000
393.216064	145.880000
393.309631	145.140000
393.403229	144.560000
393.496796	144.460000
393.590393	143.900000
393.683990	144.160000
393.777557	144.980000
393.871155	145.580000
393.964722	146.120000
394.058350	146.340000
394.151917	146.180000
394.245514	145.720000
394.339081	146.000000
394.432678	145.760000
394.526245	145.860000
394.619873	145.700000
394.713409	145.980000
394.807037	145.480000
394.900604	145.920000
394.994202	146.240000
395.087769	146.560000
395.181396	146.000000
395.274994	146.860000
395.368561	145.720000
395.462158	145.760000
395.555756	145.520000
395.649353	146.100000
395.742920	145.500000
395.836517	146.720000
395.930115	146.100000
396.023712	146.560000
396.117279	146.860000
396.210876	146.300000
396.304474	145.900000
396.398071	146.440000
396.491669	146.280000
396.585266	145.900000
396.678833	146.160000
396.772461	146.240000
396.866028	145.960000
396.959656	146.280000
397.053223	146.480000
397.146851	146.560000
397.240417	147.020000
397.334015	148.180000
397.427582	148.640000
397.521210	149.940000
397.614807	151.720000
397.708405	153.380000
397.802002	155.480000
397.895599	158.840000
397.989197	162.600000
398.082794	167.240000
398.176392	173.660000
398.269989	180.380000
398.363586	188.780000
398.457184	198.560000
398.550781	209.480000
398.644379	219.560000
398.737976	231.760000
398.831573	244.540000
398.925201	257.740000
399.018768	271.100000
399.112396	287.500000
399.205963	304.460000
399.299591	322.900000
399.393158	343.100000
399.486786	365.320000
399.580353	386.500000
399.673981	406.600000
399.767578	425.680000
399.861206	442.060000
399.954773	454.600000
400.048401	461.420000
400.141998	464.180000
400.235596	461.940000
400.329193	455.600000
400.422791	446.820000
400.516418	438.200000
400.610016	428.580000
400.703613	418.260000
400.797211	404.500000
400.890808	389.560000
400.984436	372.820000
401.078033	354.140000
401.171631	334.140000
401.265259	314.780000
401.358826	296.060000
401.452484	277.040000
401.546051	259.420000
401.639679	241.580000
401.733246	226.420000
401.826904	211.080000
401.920471	198.060000
402.014099	186.840000
402.107697	177.920000
402.201324	170.540000
402.294891	165.200000
402.388550	160.600000
402.482147	157.180000
402.575745	154.220000
402.669373	151.400000
402.762970	149.600000
402.856567	148.880000
402.950195	148.020000
403.043793	147.600000
403.137390	148.000000
403.231018	147.140000
403.324615	147.140000
403.418243	146.620000
403.511841	146.840000
403.605469	146.720000
403.699066	147.260000
403.792694	147.080000
403.886292	147.380000
403.979919	146.980000
404.073517	146.540000
404.167145	146.880000
404.260712	146.620000
404.354370	146.060000
404.447937	146.260000
404.541595	146.360000
404.635162	146.400000
404.728821	146.920000
404.822418	146.780000
404.916046	146.620000
405.009644	147.040000
405.103271	146.880000
405.196899	146.600000
405.290497	147.140000
405.384125	147.400000
405.477722	146.540000
405.571350	146.200000
405.664948	146.080000
405.758575	145.780000
405.852203	145.300000
405.945801	145.720000
406.039429	145.640000
406.133057	145.480000
406.226654	145.540000
406.320312	145.720000
406.413879	146.140000
406.507538	146.340000
406.601135	145.900000
406.694763	146.420000
406.788361	146.180000
406.882019	145.400000
406.975586	145.760000
407.069244	146.300000
407.162872	146.100000
407.256470	146.280000
407.350098	146.580000
407.443726	146.060000
407.537323	145.900000
407.630951	145.920000
407.724579	145.440000
407.818207	145.780000
407.911804	145.620000
408.005432	145.400000
408.099060	145.740000
408.192688	146.500000
408.286285	146.060000
408.379913	146.260000
408.473572	146.420000
408.567169	145.360000
408.660828	144.880000
408.754395	144.880000
408.848053	144.600000
408.941650	144.820000
409.035309	144.600000
409.128906	144.940000
409.222565	145.160000
409.316132	145.640000
409.409790	145.160000
409.503387	145.520000
409.597046	145.320000
409.690674	145.360000
409.784302	145.280000
409.877930	145.220000
409.971558	145.520000
410.065186	145.320000
410.158783	145.240000
410.252411	145.080000
410.346039	145.660000
410.439667	145.580000
410.533295	146.020000
410.626923	146.200000
410.720551	145.920000
410.814209	146.300000
410.907806	146.440000
411.001465	145.720000
411.095062	145.580000
411.188721	145.960000
411.282318	145.480000
411.375977	145.120000
411.469574	145.840000
411.563232	145.640000
411.656830	145.480000
411.750488	145.400000
411.844086	145.460000
411.937744	145.220000
412.031372	145.260000
412.125000	145.020000
412.218628	144.780000
412.312256	145.600000
412.405884	146.200000
412.499512	146.200000
412.593170	146.900000
412.686798	147.280000
412.780426	146.460000
412.874054	146.340000
412.967682	146.460000
413.061310	147.040000
413.154968	147.420000
413.248566	147.620000
413.342224	147.260000
413.435852	147.460000
413.529510	146.440000
413.623108	145.640000
413.716766	145.660000
413.810364	146.120000
413.904022	145.560000
413.997650	145.360000
414.091309	145.900000
414.184906	145.640000
414.278564	144.940000
414.372192	145.560000
414.465851	145.900000
414.559479	145.680000
414.653107	146.500000
414.746735	146.420000
414.840393	146.400000
414.934021	146.540000
415.027649	146.160000
415.121277	146.000000
415.214935	146.460000
415.308563	146.220000
415.402191	145.680000
415.495850	145.940000
415.589478	145.280000
415.683136	145.100000
415.776733	145.220000
415.870422	145.920000
415.964020	145.560000
416.057678	145.980000
416.151306	146.000000
416.244965	145.740000
416.338562	145.420000
416.432251	146.060000
416.525848	146.340000
416.619507	146.820000
416.713165	147.420000
416.806793	147.360000
416.900421	147.100000
416.994080	146.440000
417.087708	146.140000
417.181366	145.680000
417.274994	145.660000
417.368622	145.860000
417.462280	146.540000
417.555908	146.260000
417.649567	146.240000
417.743195	146.340000
417.836853	146.140000
417.930481	146.140000
418.024170	146.420000
418.117767	146.820000
418.211426	146.940000
418.305054	147.060000
418.398712	146.200000
418.492340	146.240000
418.585999	146.300000
418.679626	146.200000
418.773285	146.380000
418.866913	147.320000
418.960571	147.480000
419.054230	147.500000
419.147858	147.440000
419.241516	147.520000
419.335144	146.960000
419.428802	146.560000
419.522461	145.740000
419.616089	145.480000
419.709747	145.520000
419.803375	145.900000
419.897034	145.900000
419.990662	146.260000
420.084320	146.840000
420.177979	146.900000
420.271606	146.820000
420.365295	147.020000
420.458893	147.120000
420.552582	147.320000
420.646210	147.140000
420.739868	146.640000
420.833496	146.520000
420.927155	146.020000
421.020782	145.500000
421.114471	144.960000
421.208069	145.240000
421.301758	145.440000
421.395386	145.780000
421.489044	145.780000
421.582703	145.980000
421.676361	146.360000
421.769989	146.000000
421.863647	146.440000
421.957306	146.680000
422.050934	147.120000
422.144592	146.980000
422.238251	146.760000
422.331909	146.380000
422.425537	145.980000
422.519196	145.780000
422.612854	145.300000
422.706543	145.200000
422.800140	145.420000
422.893829	145.520000
422.987457	145.440000
423.081146	145.920000
423.174744	146.920000
423.268433	146.400000
423.362061	146.160000
423.455750	145.720000
423.549347	145.440000
423.643036	144.220000
423.736664	145.080000
423.830353	145.280000
423.924011	145.720000
424.017639	145.080000
424.111298	145.660000
424.204956	145.160000
424.298615	145.080000
424.392273	144.920000
424.485931	145.400000
424.579559	145.380000
424.673218	145.220000
424.766876	145.640000
424.860535	145.340000
424.954193	145.340000
425.047882	145.560000
425.141510	145.540000
425.235199	145.040000
425.328796	145.060000
425.422485	144.940000
425.516113	144.580000
425.609802	144.720000
425.703430	144.980000
425.797119	144.740000
425.890747	144.740000
425.984436	144.800000
426.078064	144.820000
426.171753	144.480000
426.265411	144.720000
426.359070	145.120000
426.452728	145.060000
426.546356	144.980000
426.640015	145.180000
426.733673	145.380000
426.827332	145.000000
426.920990	145.860000
427.014648	145.500000
427.108307	145.600000
427.201965	146.200000
427.295624	146.320000
427.389282	145.440000
427.482941	145.860000
427.576630	145.660000
427.670258	144.580000
427.763947	144.960000
427.857574	145.000000
427.951263	144.880000
428.044922	144.780000
428.138611	145.360000
428.232239	145.400000
428.325928	146.140000
428.419556	146.520000
428.513245	146.300000
428.606903	146.280000
428.700562	145.780000
428.794220	144.360000
428.887878	143.780000
428.981537	144.320000
429.075195	144.260000
429.168854	144.920000
429.262512	145.640000
429.356201	145.740000
429.449860	145.520000
429.543518	145.240000
429.637177	144.960000
429.730835	144.960000
429.824493	144.940000
429.918182	145.200000
430.011810	145.000000
430.105530	144.420000
430.199158	144.680000
430.292847	144.560000
430.386475	144.500000
430.480164	144.460000
430.573792	144.300000
430.667511	143.960000
430.761139	143.860000
430.854828	144.100000
430.948456	144.320000
431.042145	144.980000
431.135834	144.840000
431.229492	145.420000
431.323151	145.500000
431.416809	145.760000
431.510468	145.400000
431.604156	145.740000
431.697815	145.440000
431.791473	144.800000
431.885132	144.220000
431.978821	144.840000
432.072479	145.040000
432.166138	145.420000
432.259827	145.580000
432.353485	146.400000
432.447174	146.100000
432.540802	145.940000
432.634491	146.040000
432.728149	146.420000
432.821838	146.680000
432.915466	146.340000
433.009186	146.200000
433.102814	145.260000
433.196503	144.840000
433.290131	144.320000
433.383850	144.720000
433.477509	144.680000
433.571167	145.640000
433.664856	146.120000
433.758514	146.480000
433.852173	146.220000
433.945862	146.320000
434.039520	146.160000
434.133179	145.340000
434.226868	145.040000
434.320526	144.580000
434.414185	145.000000
434.507874	144.500000
434.601562	145.300000
434.695221	145.040000
434.788910	145.620000
434.882538	145.300000
434.976257	145.200000
435.069885	145.020000
435.163574	145.620000
435.257233	145.000000
435.350922	145.180000
435.444580	145.040000
435.538269	144.680000
435.631897	144.720000
435.725616	145.560000
435.819275	145.600000
435.912964	146.320000
436.006622	146.760000
436.100311	146.440000
436.193970	145.680000
436.287628	145.480000
436.381317	145.240000
436.474976	144.920000
436.568665	144.540000
436.662323	144.900000
436.756012	145.120000
436.849670	144.540000
436.943390	144.560000
437.037018	144.700000
437.130737	144.580000
437.224365	144.020000
437.318085	144.880000
437.411713	144.880000
437.505432	145.180000
437.599060	146.180000
437.692780	146.960000
437.786407	146.520000
437.880127	146.660000
437.973755	146.600000
438.067474	145.580000
438.161133	145.480000
438.254822	145.900000
438.348480	145.680000
438.442169	146.100000
438.535828	146.640000
438.629517	145.920000
438.723175	145.620000
438.816864	146.140000
438.910553	145.580000
439.004211	145.400000
439.097900	145.380000
439.191559	145.260000
439.285248	144.440000
439.378906	144.740000
439.472626	144.700000
439.566284	144.900000
439.659973	145.400000
439.753632	145.520000
439.847321	146.040000
439.940979	145.940000
440.034698	145.860000
440.128326	145.500000
440.222046	145.520000
440.315674	144.580000
440.409393	145.020000
440.503082	144.940000
440.596741	144.980000
440.690430	145.360000
440.784088	145.500000
440.877777	144.740000
440.971466	144.940000
441.065125	144.880000
441.158813	144.340000
441.252502	144.420000
441.346161	144.900000
441.439850	145.120000
441.533539	144.860000
441.627197	145.340000
441.720886	145.240000
441.814606	145.240000
441.908234	145.380000
442.001953	145.480000
442.095612	145.500000
442.189301	145.560000
442.282959	145.840000
442.376678	145.420000
442.470306	146.360000
442.564026	145.900000
442.657684	146.220000
442.751404	146.120000
442.845032	146.860000
442.938751	146.300000
443.032440	146.740000
443.126099	145.840000
443.219788	146.380000
443.313477	145.940000
443.407166	146.020000
443.500824	146.080000
443.594513	146.800000
443.688202	146.000000
443.781891	145.560000
443.875549	145.020000
443.969238	144.780000
444.062927	144.760000
444.156647	144.740000
444.250275	145.380000
444.343994	145.620000
444.437653	145.920000
444.531372	145.520000
444.625031	145.720000
444.718719	145.100000
444.812378	145.180000
444.906097	144.980000
444.999756	144.720000
445.093445	144.500000
445.187103	144.640000
445.280823	144.800000
445.374512	144.400000
445.468201	145.000000
445.561859	144.700000
445.655548	144.880000
445.749237	144.720000
445.842926	145.260000
445.936615	145.680000
446.030304	145.820000
446.123962	145.760000
446.217651	145.740000
446.311340	145.640000
446.405029	145.000000
446.498749	144.640000
446.592407	144.520000
446.686096	144.640000
446.779755	144.660000
446.873474	144.820000
446.967133	145.580000
447.060852	145.360000
447.154510	145.280000
447.248230	145.620000
447.341858	145.480000
447.435577	144.900000
447.529236	144.760000
447.622955	144.620000
447.716644	144.420000
447.810333	144.640000
447.904022	145.360000
447.997711	145.700000
448.091400	146.040000
448.185059	146.160000
448.278748	146.460000
448.372437	145.940000
448.466125	146.080000
448.559814	145.720000
448.653503	145.840000
448.747192	146.140000
448.840912	146.600000
448.934570	146.800000
449.028290	147.400000
449.121948	146.600000
449.215637	145.820000
449.309296	145.280000
449.403015	145.360000
449.496674	144.780000
449.590393	145.260000
449.684052	145.400000
449.777771	146.540000
449.871429	145.820000
449.965149	145.900000
450.058838	146.180000
450.152527	146.420000
450.246216	145.740000
450.339905	145.740000
450.433594	145.540000
450.527283	145.780000
450.620972	145.400000
450.714661	145.180000
450.808350	145.800000
450.902039	146.320000
450.995728	145.660000
451.089417	145.340000
451.183105	145.460000
451.276794	145.420000
451.370514	144.680000
451.464172	144.160000
451.557892	144.460000
451.651550	144.720000
451.745270	144.520000
451.838928	144.360000
451.932648	145.160000
452.026306	145.560000
452.120026	145.080000
452.213684	145.520000
452.307404	145.780000
452.401062	145.680000
452.494781	145.600000
452.588470	145.880000
452.682159	145.100000
452.775848	145.680000
452.869537	145.140000
452.963226	144.820000
453.056915	144.740000
453.150604	144.960000
453.244293	144.620000
453.337982	145.620000
453.431671	146.180000
453.525360	146.560000
453.619049	146.720000
453.712769	146.860000
453.806427	146.160000
453.900146	145.440000
453.993805	145.180000
454.087555	145.360000
454.181213	145.300000
454.274933	145.400000
454.368591	145.560000
454.462311	145.460000
454.555969	145.040000
454.649689	145.940000
454.743347	145.620000
454.837067	146.480000
454.930756	147.000000
455.024445	147.200000
455.118134	146.320000
455.211853	146.820000
455.305542	146.020000
455.399231	145.680000
455.492920	145.960000
455.586609	146.260000
455.680298	146.180000
455.773987	146.100000
455.867676	146.200000
455.961365	146.340000
456.055084	146.020000
456.148773	145.900000
456.242493	146.180000
456.336151	145.840000
456.429871	145.880000
456.523529	146.360000
456.617249	146.120000
456.710907	146.580000
456.804626	146.760000
456.898315	146.060000
456.992035	145.680000
457.085693	145.520000
457.179413	144.760000
457.273102	145.440000
457.366791	145.900000
457.460480	146.340000
457.554199	147.020000
457.647888	147.220000
457.741577	146.540000
457.835266	146.340000
457.928955	145.980000
458.022644	146.200000
458.116364	146.540000
458.210052	146.760000
458.303741	146.780000
458.397461	146.320000
458.491119	145.620000
458.584839	145.520000
458.678528	144.960000
458.772247	145.140000
458.865906	145.400000
458.959625	146.280000
459.053284	146.320000
459.147003	146.280000
459.240692	146.720000
459.334412	147.120000
459.428070	146.260000
459.521790	146.040000
459.615479	146.320000
459.709198	146.500000
459.802887	146.140000
459.896576	146.200000
459.990265	146.380000
460.083954	146.420000
460.177673	145.360000
460.271362	145.500000
460.365051	145.700000
460.458740	145.320000
460.552429	144.780000
460.646149	145.220000
460.739838	144.860000
460.833527	144.560000
460.927246	144.440000
461.020905	144.640000
461.114655	144.740000
461.208313	145.220000
461.302032	145.260000
461.395691	145.800000
461.489441	146.080000
461.583099	145.660000
461.676819	145.120000
461.770477	145.400000
461.864197	144.640000
461.957916	144.320000
462.051605	144.160000
462.145294	145.380000
462.238983	144.860000
462.332703	145.900000
462.426392	146.540000
462.520081	146.520000
462.613770	145.700000
462.707489	146.280000
462.801178	145.940000
462.894867	145.780000
462.988556	146.000000
463.082275	146.120000
463.175964	145.800000
463.269684	145.660000
463.363342	145.380000
463.457092	144.760000
463.550751	144.960000
463.644470	145.280000
463.738129	145.120000
463.831879	145.260000
463.925537	146.160000
464.019257	146.060000
464.112946	145.660000
464.206665	145.360000
464.300323	145.380000
464.394043	145.120000
464.487762	145.020000
464.581451	145.600000
464.675140	145.840000
464.768829	145.760000
464.862549	146.140000
464.956238	145.880000
465.049927	145.600000
465.143646	145.820000
465.237335	145.800000
465.331024	145.960000
465.424713	146.260000
465.518433	146.280000
465.612152	146.260000
465.705811	146.500000
465.799561	146.060000
465.893219	145.900000
465.986938	145.880000
466.080597	145.640000
466.174347	145.560000
466.268005	145.880000
466.361725	145.940000
466.455414	145.840000
466.549133	145.960000
466.642792	146.080000
466.736542	145.460000
466.830231	145.620000
466.923920	145.400000
467.017609	145.240000
467.111328	144.800000
467.205017	144.980000
467.298706	144.760000
467.392426	145.120000
467.486115	145.600000
467.579803	145.700000
467.673523	146.220000
467.767212	146.540000
467.860901	146.440000
467.954651	146.240000
468.048309	146.300000
468.142029	145.680000
468.235718	145.440000
468.329437	145.360000
468.423096	145.360000
468.516846	145.320000
468.610504	145.240000
468.704224	145.060000
468.797913	144.860000
468.891632	145.020000
468.985291	144.700000
469.079010	144.920000
469.172729	144.520000
469.266418	145.160000
469.360107	145.280000
469.453827	145.400000
469.547516	145.440000
469.641205	146.180000
469.734924	146.000000
469.828613	146.200000
469.922302	146.540000
470.016022	146.460000
470.109711	146.120000
470.203430	145.740000
470.297150	144.840000
470.390808	144.920000
470.484558	144.800000
470.578217	145.560000
470.671936	146.200000
470.765625	147.100000
470.859344	146.700000
470.953003	147.220000
471.046753	146.340000
471.140411	145.540000
471.234131	145.480000
471.327820	146.460000
471.421539	146.480000
471.515228	146.220000
471.608948	146.520000
471.702637	145.760000
471.796326	144.780000
471.890045	144.900000
471.983734	145.420000
472.077423	145.200000
472.171143	145.620000
472.264832	146.080000
472.358521	145.580000
472.452240	145.380000
472.545929	146.060000
472.639648	146.120000
472.733337	146.380000
472.827057	146.540000
472.920746	146.560000
473.014465	146.860000
473.108124	146.580000
473.201874	146.000000
473.295532	145.940000
473.389252	146.240000
473.482941	145.700000
473.576660	145.660000
473.670319	145.680000
473.764069	145.760000
473.857727	145.780000
473.951477	146.100000
474.045166	146.560000
474.138855	146.680000
474.232574	146.380000
474.326263	146.300000
474.419952	146.460000
474.513672	146.240000
474.607361	145.840000
474.701050	146.320000
474.794769	146.560000
474.888458	146.520000
474.982178	146.740000
475.075867	147.060000
475.169586	146.960000
475.263275	146.800000
475.356995	146.600000
475.450653	146.040000
475.544403	145.840000
475.638062	146.460000
475.731812	145.980000
475.825470	145.780000
475.919189	145.980000
476.012878	146.420000
476.106598	145.520000
476.200256	146.080000
476.294006	145.700000
476.387695	146.040000
476.481384	145.440000
476.575104	145.580000
476.668793	145.120000
476.762512	145.180000
476.856201	145.420000
476.949890	145.640000
477.043610	145.120000
477.137299	145.060000
477.230988	145.660000
477.324707	145.200000
477.418396	145.560000
477.512146	146.060000
477.605804	146.060000
477.699524	145.940000
477.793213	145.780000
477.886932	145.500000
477.980591	145.420000
478.074341	145.160000
478.167999	144.560000
478.261749	144.680000
478.355408	144.700000
478.449127	145.040000
478.542816	145.960000
478.636536	146.760000
478.730225	147.080000
478.823944	147.400000
478.917633	147.160000
479.011322	147.220000
479.105042	147.020000
479.198730	147.180000
479.292450	146.580000
479.386139	146.700000
479.479828	146.660000
479.573547	146.920000
479.667267	146.540000
479.760925	146.880000
479.854675	146.820000
479.948334	146.560000
480.042084	145.880000
480.135742	146.300000
480.229462	145.860000
480.323151	145.880000
480.416870	145.260000
480.510529	145.560000
480.604279	144.720000
480.697937	145.420000
480.791656	144.840000
480.885345	144.860000
480.979065	144.520000
481.072754	144.960000
481.166473	145.280000
481.260132	145.580000
481.353882	145.800000
481.447540	146.040000
481.541260	146.280000
481.635010	145.520000
481.728668	145.380000
481.822388	145.500000
481.916077	145.440000
482.009796	145.220000
482.103485	145.640000
482.197205	145.760000
482.290863	145.760000
482.384613	145.460000
482.478271	145.100000
482.571991	144.940000
482.665680	145.160000
482.759399	145.860000
482.853058	146.560000
482.946808	146.820000
483.040466	146.760000
483.134216	146.600000
483.227875	146.060000
483.321594	146.200000
483.415283	146.200000
483.509003	145.720000
483.602661	145.460000
483.696411	145.640000
483.790070	145.320000
483.883789	145.260000
483.977478	146.100000
484.071198	146.480000
484.164917	146.060000
484.258606	145.460000
484.352325	145.600000
484.445984	145.420000
484.539734	145.540000
484.633392	145.160000
484.727142	145.760000
484.820801	145.640000
484.914520	145.300000
485.008209	145.280000
485.101929	146.080000
485.195587	145.860000
485.289337	145.920000
485.382996	146.200000
485.476715	146.140000
485.570404	146.220000
485.664124	146.300000
485.757782	146.820000
485.851532	146.500000
485.945190	146.420000
486.038910	146.360000
486.132599	146.600000
486.226318	145.660000
486.319977	145.700000
486.413727	146.280000
486.507446	145.820000
486.601105	145.360000
486.694855	145.640000
486.788513	145.700000
486.882233	145.120000
486.975922	145.160000
487.069641	145.120000
487.163300	145.100000
487.257050	145.940000
487.350708	145.820000
487.444427	145.500000
487.538116	145.700000
487.631836	145.480000
487.725494	145.040000
487.819214	145.140000
487.912903	145.280000
488.006622	145.440000
488.100281	145.780000
488.194031	145.740000
488.287689	146.020000
488.381409	146.700000
488.475098	146.760000
488.568817	146.920000
488.662476	146.540000
488.756226	145.880000
488.849945	144.740000
488.943604	144.460000
489.037354	144.720000
489.131012	144.500000
489.224731	144.580000
489.318390	145.120000
489.412140	145.240000
489.505798	144.940000
489.599518	145.080000
489.693207	145.460000
489.786926	145.480000
489.880585	145.340000
489.974335	145.300000
490.067993	146.040000
490.161713	146.320000
490.255371	147.000000
490.349121	147.100000
490.442780	146.900000
490.536499	146.220000
490.630188	146.120000
490.723907	145.240000
490.817566	145.280000
490.911285	145.260000
491.004974	145.160000
491.098694	144.920000
491.192413	145.720000
491.286102	145.540000
491.379822	145.660000
491.473480	145.840000
491.567200	145.620000
491.660889	144.660000
491.754608	144.660000
491.848267	144.760000
491.941986	144.600000
492.035675	144.280000
492.129395	144.740000
492.223053	144.420000
492.316772	144.680000
492.410461	144.680000
492.504181	145.460000
492.597839	145.040000
492.691559	145.540000
492.785248	145.080000
492.878967	145.500000
492.972626	144.940000
493.066345	145.420000
493.160034	144.880000
493.253754	145.260000
493.347412	144.920000
493.441132	145.140000
493.534882	145.720000
493.628540	146.400000
493.722260	146.280000
493.815918	146.580000
493.909668	147.220000
494.003326	147.080000
494.097046	146.960000
494.190704	146.880000
494.284454	146.860000
494.378113	146.520000
494.471832	146.160000
494.565491	145.840000
494.659210	146.040000
494.752899	146.000000
494.846619	145.820000
494.940277	145.960000
495.033997	145.980000
495.127686	145.300000
495.221405	145.260000
495.315063	145.100000
495.408783	144.840000
495.502441	144.960000
495.596191	145.480000
495.689850	145.220000
495.783569	145.580000
495.877228	145.500000
495.970947	145.500000
496.064697	145.320000
496.158356	146.000000
496.252075	145.920000
496.345734	146.020000
496.439453	146.780000
496.533142	146.720000
496.626862	146.720000
496.720520	146.600000
496.814240	146.520000
496.907898	145.980000
497.001617	146.300000
497.095306	145.660000
497.189026	145.660000
497.282684	145.740000
497.376404	146.000000
497.470062	145.840000
497.563782	146.040000
497.657471	146.140000
497.751190	146.000000
497.844849	145.700000
497.938568	145.820000
498.032227	145.860000
498.125946	145.720000
498.219635	145.660000
498.313354	145.760000
498.407074	145.460000
498.500732	145.380000
498.594452	145.740000
498.688110	145.660000
498.781830	145.280000
498.875519	145.300000
498.969238	145.280000
499.062897	144.820000
499.156616	145.360000
499.250275	145.560000
499.343994	145.140000
499.437653	145.220000
499.531372	145.180000
499.625061	145.460000
499.718781	145.760000
499.812439	146.480000
499.906158	146.160000
499.999817	146.360000
500.093536	145.740000
500.187195	145.600000
500.280914	145.500000
500.374573	145.760000
500.468323	145.420000
500.561981	145.860000
500.655701	145.500000
500.749420	145.420000
500.843079	145.480000
500.936798	145.980000
501.030457	145.940000
501.124176	146.040000
501.217834	145.720000
501.311554	145.360000
501.405212	144.880000
501.498962	144.280000
501.592621	144.140000
501.686340	144.760000
501.779999	145.220000
501.873718	145.440000
501.967377	145.920000
502.061096	146.620000
502.154755	145.680000
502.248474	145.580000
502.342133	145.520000
502.435852	145.380000
502.529510	145.340000
502.623230	146.380000
502.716888	145.720000
502.810608	146.200000
502.904266	146.520000
502.997986	146.040000
503.091705	145.360000
503.185364	145.720000
503.279083	145.320000
503.372772	145.140000
503.466492	144.840000
503.560150	144.940000
503.653870	145.460000
503.747528	145.400000
503.841248	144.960000
503.934906	145.400000
504.028625	145.040000
504.122284	144.900000
504.216003	145.620000
504.309662	145.780000
504.403381	145.980000
504.497040	146.620000
504.590759	146.480000
504.684418	146.300000
504.778137	146.940000
504.871796	147.120000
504.965515	146.340000
505.059174	146.500000
505.152893	145.960000
505.246521	144.940000
505.340240	144.560000
505.433899	145.200000
505.527618	145.040000
505.621338	145.380000
505.714996	145.560000
505.808716	145.200000
505.902374	145.880000
505.996094	146.160000
506.089752	146.000000
506.183472	146.320000
506.277130	146.680000
506.370850	146.000000
506.464508	145.640000
506.558228	145.560000
506.651886	145.280000
506.745605	145.520000
506.839264	145.520000
506.932983	145.520000
507.026611	145.420000
507.120331	146.020000
507.213989	145.260000
507.307709	145.480000
507.401367	145.820000
507.495087	146.620000
507.588745	146.140000
507.682465	147.100000
507.776123	146.920000
507.869843	146.580000
507.963531	146.140000
508.057190	146.140000
508.150909	145.260000
508.244568	145.340000
508.338287	145.080000
508.431946	144.680000
508.525665	144.680000
508.619324	144.720000
508.713013	144.800000
508.806671	145.080000
508.900391	145.860000
508.994049	145.940000
509.087769	145.900000
509.181427	145.720000
509.275146	145.700000
509.368774	144.800000
509.462494	144.700000
509.556152	145.000000
509.649872	145.500000
509.743530	145.580000
509.837250	145.940000
509.930878	145.840000
510.024597	145.860000
510.118256	145.240000
510.211975	145.080000
510.305695	144.680000
510.399353	145.080000
510.493042	145.500000
510.586700	145.780000
510.680420	146.500000
510.774078	146.640000
510.867798	146.780000
510.961426	146.360000
511.055145	146.300000
511.148804	145.680000
511.242523	146.240000
511.336151	146.140000
511.429871	145.940000
511.523529	145.900000
511.617249	145.580000
511.710876	145.080000
511.804596	144.740000
511.898254	144.860000
511.991974	144.940000
512.085632	145.160000
512.179321	145.380000
512.272949	146.060000
512.366699	146.660000
512.460327	146.540000
512.554077	147.380000
512.647766	147.320000
512.741394	147.060000
512.835144	146.660000
512.928772	146.400000
513.022461	145.840000
513.116150	145.660000
513.209839	145.880000
513.303467	145.680000
513.397217	145.540000
513.490845	145.280000
513.584595	145.180000
513.678223	144.420000
513.771912	143.960000
513.865601	144.360000
513.959290	144.360000
514.052917	144.600000
514.146667	145.400000
514.240295	145.940000
514.333984	146.240000
514.427673	146.140000
514.521362	146.440000
514.614990	145.940000
514.708740	146.040000
514.802368	145.980000
514.896057	146.400000
514.989746	146.740000
515.083435	146.900000
515.177124	147.360000
515.270752	147.020000
515.364502	146.500000
515.458130	146.380000
515.551819	145.980000
515.645508	145.220000
515.739197	145.140000
515.832825	145.380000
515.926575	144.580000
516.020203	145.080000
516.113892	145.840000
516.207520	145.920000
516.301270	146.160000
516.394897	146.320000
516.488586	146.560000
516.582275	146.100000
516.675964	145.700000
516.769592	145.240000
516.863281	146.140000
516.956970	146.140000
517.050659	146.140000
517.144287	146.560000
517.238037	146.920000
517.331665	146.000000
517.425354	145.580000
517.519043	145.520000
517.612732	145.620000
517.706421	145.660000
517.800049	145.700000
517.893738	145.240000
517.987427	145.200000
518.081116	144.940000
518.174744	144.360000
518.268433	144.860000
518.362122	145.800000
518.455811	145.760000
518.549438	146.340000
518.643127	147.560000
518.736816	147.040000
518.830505	146.420000
518.924133	146.660000
519.017822	146.440000
519.111511	145.740000
519.205200	146.500000
519.298828	146.520000
519.392517	146.140000
519.486206	146.580000
519.579895	146.700000
519.673523	146.260000
519.767212	146.220000
519.860901	146.720000
519.954590	146.300000
520.048279	145.840000
520.141907	145.700000
520.235596	146.780000
520.329224	146.760000
520.422974	146.560000
520.516602	146.740000
520.610291	146.700000
520.703918	146.240000
520.797607	146.080000
520.891296	146.200000
520.984985	146.420000
521.078613	146.780000
521.172302	145.920000
521.265930	146.560000
521.359680	147.100000
521.453308	146.920000
521.546997	146.660000
521.640625	147.020000
521.734314	146.360000
521.827942	146.040000
521.921692	146.360000
522.015320	146.560000
522.109009	146.400000
522.202698	146.540000
522.296326	146.500000
522.390015	146.520000
522.483704	146.520000
522.577393	146.500000
522.671021	145.880000
522.764709	145.300000
522.858337	145.600000
522.952026	145.560000
523.045654	146.220000
523.139404	147.120000
523.233032	147.520000
523.326721	147.200000
523.420349	146.960000
523.514038	146.420000
523.607666	146.620000
523.701355	146.220000
523.795044	146.220000
523.888733	146.660000
523.982361	146.820000
524.076050	146.240000
524.169678	147.100000
524.263367	146.820000
524.356995	146.300000
524.450684	146.120000
524.544373	145.920000
524.638062	145.440000
524.731750	145.580000
524.825378	145.700000
524.919067	145.400000
525.012695	145.580000
525.106384	145.240000
525.200012	144.920000
525.293701	144.840000
525.387329	145.220000
525.481018	145.080000
525.574646	145.340000
525.668396	145.660000
525.762024	145.960000
525.855713	146.340000
525.949341	146.280000
526.043030	146.580000
526.136658	146.200000
526.230347	145.900000
526.323975	145.360000
526.417664	145.020000
526.511292	144.840000
526.604980	145.220000
526.698608	145.400000
526.792297	145.320000
526.885925	145.600000
526.979614	145.720000
527.073303	145.620000
527.166931	145.560000
527.260620	146.020000
527.354309	146.480000
527.447998	146.260000
527.541626	146.080000
527.635315	146.060000
527.728943	146.460000
527.822632	146.400000
527.916260	146.580000
528.009949	146.740000
528.103577	146.420000
528.197266	145.360000
528.290894	145.360000
528.384583	145.260000
528.478210	145.140000
528.571899	145.780000
528.665527	146.740000
528.759216	146.880000
528.852844	147.340000
528.946533	147.640000
529.040161	147.220000
529.133850	146.520000
529.227478	146.680000
529.321167	146.580000
529.414856	146.980000
529.508484	147.560000
529.602173	147.340000
529.695801	146.820000
529.789490	146.720000
529.883057	146.060000
529.976746	145.780000
530.070374	146.700000
530.164062	146.720000
530.257690	146.560000
530.351379	147.000000
530.445007	147.000000
530.538696	146.020000
530.632324	146.480000
530.726013	146.480000
530.819641	146.540000
530.913330	146.580000
531.006958	146.820000
531.100647	146.800000
531.194275	146.740000
531.287964	146.240000
531.381592	145.840000
531.475220	145.960000
531.568848	145.540000
531.662537	145.800000
531.756226	146.560000
531.849854	146.880000
531.943542	147.120000
532.037170	147.080000
532.130859	147.400000
532.224487	146.660000
532.318176	145.900000
532.411804	146.120000
532.505432	146.540000
532.599060	145.940000
532.692749	145.940000
532.786377	146.760000
532.880066	146.220000
532.973694	145.320000
533.067383	145.480000
533.161011	145.540000
533.254639	145.300000
533.348267	145.060000
533.441956	145.780000
533.535583	145.620000
533.629272	145.620000
533.722900	145.460000
533.816589	145.780000
533.910156	145.780000
534.003845	145.460000
534.097534	145.720000
534.191162	146.420000
534.284851	146.680000
534.378479	146.400000
534.472107	146.540000
534.565735	146.620000
534.659424	146.360000
534.753052	146.480000
534.846741	146.520000
534.940369	147.120000
535.033997	146.760000
535.127625	146.660000
535.221313	146.540000
535.314941	146.520000
535.408630	145.500000
535.502197	146.200000
535.595886	145.800000
535.689514	145.520000
535.783203	145.960000
535.876831	146.880000
535.970459	146.480000
536.064087	146.680000
536.157776	146.760000
536.251404	146.420000
536.345093	145.960000
536.438721	145.800000
536.532349	146.020000
536.626038	145.920000
536.719666	146.180000
536.813293	146.100000
536.906921	146.060000
537.000610	146.200000
537.094238	146.500000
537.187866	146.560000
537.281494	146.560000
537.375183	146.780000
537.468811	146.260000
537.562439	146.280000
537.656067	146.160000
537.749756	146.340000
537.843384	146.660000
537.937012	146.980000
538.030640	146.500000
538.124329	146.520000
538.217896	146.720000
538.311584	146.740000
538.405212	146.660000
538.498901	147.260000
538.592468	147.660000
538.686157	147.180000
538.779785	146.300000
538.873413	146.320000
538.967102	145.540000
539.060730	145.000000
539.154358	145.660000
539.247986	145.960000
539.341675	145.880000
539.435242	146.060000
539.528931	146.380000
539.622559	145.640000
539.716187	146.200000
539.809814	145.920000
539.903503	146.040000
539.997070	145.600000
540.090759	146.000000
540.184387	145.860000
540.278015	146.640000
540.371643	147.060000
540.465332	147.420000
540.558899	147.080000
540.652588	147.000000
540.746216	146.500000
540.839844	146.540000
540.933472	146.380000
541.027100	146.460000
541.120728	146.240000
541.214417	146.560000
541.308044	146.680000
541.401672	146.280000
541.495300	146.340000
541.588928	146.560000
541.682617	146.380000
541.776184	145.900000
541.869873	146.640000
541.963440	146.760000
542.057129	146.700000
542.150757	146.820000
542.244385	146.520000
542.338013	145.660000
542.431641	145.700000
542.525269	145.440000
542.618958	145.560000
542.712524	145.940000
542.806213	146.120000
542.899780	146.080000
542.993469	145.920000
543.087036	145.680000
543.180725	145.260000
543.274292	145.760000
543.367981	146.120000
543.461548	146.500000
543.555237	146.360000
543.648926	147.180000
543.742493	147.700000
543.836182	147.460000
543.929749	147.500000
544.023437	147.600000
544.117004	147.240000
544.210693	146.740000
544.304260	146.700000
544.397949	146.640000
544.491516	147.100000
544.585205	147.140000
544.678772	146.480000
544.772461	146.940000
544.866028	146.620000
544.959717	146.340000
545.053284	146.080000
545.146973	146.500000
545.240540	146.180000
545.334229	146.880000
545.427795	146.820000
545.521423	147.280000
545.615051	147.600000
545.708679	148.000000
545.802307	147.820000
545.895935	148.260000
545.989624	148.900000
546.083191	148.600000
546.176880	148.460000
546.270447	148.120000
546.364136	148.280000
546.457703	147.460000
546.551331	147.600000
546.644958	147.760000
546.738586	148.140000
546.832214	147.280000
546.925842	147.200000
547.019409	147.260000
547.113098	146.380000
547.206665	145.820000
547.300354	146.020000
547.393921	146.040000
547.487549	146.140000
547.581177	146.380000
547.674805	146.240000
547.768433	145.720000
547.862061	145.740000
547.955627	144.880000
548.049316	145.400000
548.142883	145.640000
548.236572	146.220000
548.330139	146.560000
548.423767	146.920000
548.517456	146.700000
548.611023	147.340000
548.704651	146.960000
548.798279	146.780000
548.891907	147.500000
548.985474	147.360000
549.079163	147.100000
549.172729	146.900000
549.266357	146.240000
549.359985	145.900000
549.453613	145.520000
549.547180	145.220000
549.640869	145.980000
549.734436	146.320000
549.828064	146.680000
549.921631	146.640000
550.015320	146.660000
550.108887	146.760000
550.202515	146.940000
550.296143	146.440000
550.389771	146.680000
550.483337	146.540000
550.576965	146.260000
550.670593	146.580000
550.764221	146.760000
550.857849	146.900000
550.951477	146.480000
551.045105	145.960000
551.138672	145.720000
551.232300	145.140000
551.325928	145.360000
551.419556	146.120000
551.513123	146.560000
551.606750	146.080000
551.700378	146.280000
551.794006	146.180000
551.887573	145.680000
551.981201	145.960000
552.074768	146.120000
552.168457	145.940000
552.262024	146.640000
552.355652	146.600000
552.449219	146.860000
552.542847	147.240000
552.636475	146.880000
552.730103	145.680000
552.823669	145.820000
552.917297	145.140000
553.010864	144.780000
553.104553	145.480000
553.198181	145.380000
553.291748	145.620000
553.385376	145.880000
553.478943	145.980000
553.572571	145.980000
553.666199	146.420000
553.759827	146.240000
553.853394	145.560000
553.947021	145.680000
554.040588	145.580000
554.134216	145.540000
554.227783	146.140000
554.321411	147.060000
554.415039	146.380000
554.508667	146.440000
554.602234	146.840000
554.695862	146.080000
554.789429	145.900000
554.883057	146.260000
554.976624	145.920000
555.070251	145.760000
555.163818	145.820000
555.257507	145.580000
555.351074	145.640000
555.444702	147.040000
555.538330	146.480000
555.631897	146.980000
555.725525	147.080000
555.819092	147.020000
555.912720	145.820000
556.006287	146.360000
556.099915	145.900000
556.193481	146.160000
556.287109	146.480000
556.380676	146.460000
556.474304	146.540000
556.567871	146.700000
556.661499	145.780000
556.755066	145.660000
556.848694	145.540000
556.942261	145.520000
557.035889	145.760000
557.129517	146.300000
557.223145	146.540000
557.316711	146.700000
557.410339	146.360000
557.503906	146.160000
557.597473	146.340000
557.691040	146.180000
557.784668	146.240000
557.878296	146.440000
557.971863	146.640000
558.065491	146.680000
558.159058	146.540000
558.252686	147.280000
558.346252	147.700000
558.439880	147.240000
558.533447	146.800000
558.627075	146.600000
558.720642	145.860000
558.814270	145.660000
558.907837	145.600000
559.001465	145.380000
559.095032	146.240000
559.188660	146.180000
559.282227	145.520000
559.375854	146.280000
559.469360	146.180000
559.562988	146.140000
559.656555	145.940000
559.750183	146.300000
559.843750	145.980000
559.937378	146.520000
560.030945	146.080000
560.124573	0.000000
560.218140	0.000000
560.311707	0.000000
560.405334	0.000000
560.498901	0.000000
560.592529	0.000000
560.686096	0.000000
560.779724	0.000000
560.873291	0.000000
560.966858	0.000000
561.060425	0.000000
561.154053	0.000000
561.247620	0.000000
561.341248	0.000000
561.434814	0.000000
561.528381	0.000000
561.621948	0.000000
561.715576	0.000000
561.809143	0.000000
561.902771	0.000000
561.996277	0.000000
562.089905	0.000000
562.183472	0.000000
562.277100	0.000000
