Model Number: SPM-002-B   
Serial Number: 70087108
Firmware Version: 004.15.4
Exposure Time: 100000.000000us
Data Taken on: 11-12-2020 19:31:24.075
Wavelength	Amplitude
221.570786	0.000000
221.663406	0.000000
221.756027	0.000000
221.848648	0.000000
221.941269	0.000000
222.033905	0.000000
222.126526	0.000000
222.219162	0.000000
222.311798	0.000000
222.404419	0.000000
222.497055	0.000000
222.589676	0.000000
222.682312	0.000000
222.774933	0.000000
222.867569	0.000000
222.960205	0.000000
223.052841	0.000000
223.145462	0.000000
223.238098	0.000000
223.330734	0.000000
223.423386	0.000000
223.516022	0.000000
223.608658	0.000000
223.701309	0.000000
223.793945	0.000000
223.886581	0.000000
223.979218	0.000000
224.071869	0.000000
224.164505	0.000000
224.257156	0.000000
224.349792	0.000000
224.442444	0.000000
224.535095	0.000000
224.627747	0.000000
224.720398	0.000000
224.813034	0.000000
224.905685	0.000000
224.998337	145.560000
225.090988	145.140000
225.183640	145.720000
225.276291	145.460000
225.368942	145.940000
225.461594	146.280000
225.554245	146.880000
225.646912	146.520000
225.739578	147.040000
225.832230	147.100000
225.924896	146.280000
226.017548	146.620000
226.110199	147.200000
226.202866	146.460000
226.295532	146.220000
226.388184	146.300000
226.480850	145.540000
226.573517	145.160000
226.666168	145.400000
226.758835	145.740000
226.851501	146.200000
226.944183	146.420000
227.036850	146.060000
227.129517	146.220000
227.222183	146.260000
227.314850	146.020000
227.407516	146.380000
227.500198	147.040000
227.592865	146.700000
227.685532	146.280000
227.778214	146.200000
227.870880	146.560000
227.963562	147.000000
228.056229	147.300000
228.148926	147.420000
228.241592	148.240000
228.334274	147.660000
228.426956	147.360000
228.519638	147.320000
228.612305	146.840000
228.704987	146.540000
228.797668	146.500000
228.890350	145.800000
228.983032	145.240000
229.075714	146.140000
229.168396	145.760000
229.261108	145.340000
229.353790	145.660000
229.446472	145.880000
229.539169	145.820000
229.631851	145.600000
229.724533	145.800000
229.817230	145.820000
229.909912	146.560000
230.002609	146.100000
230.095306	145.860000
230.187988	146.040000
230.280685	146.060000
230.373383	144.980000
230.466095	144.900000
230.558792	145.180000
230.651474	145.160000
230.744171	144.960000
230.836868	145.280000
230.929581	145.720000
231.022278	145.840000
231.114975	145.780000
231.207672	145.640000
231.300369	145.940000
231.393082	145.900000
231.485779	145.720000
231.578506	145.740000
231.671204	146.300000
231.763916	146.500000
231.856613	146.520000
231.949326	146.760000
232.042023	146.640000
232.134735	146.100000
232.227448	145.760000
232.320160	145.780000
232.412872	145.620000
232.505585	146.520000
232.598297	147.180000
232.691010	146.960000
232.783722	146.700000
232.876450	147.400000
232.969162	146.860000
233.061874	146.260000
233.154587	146.340000
233.247314	146.660000
233.340027	145.940000
233.432739	146.340000
233.525467	146.360000
233.618179	146.700000
233.710907	146.340000
233.803635	147.080000
233.896347	146.380000
233.989090	146.960000
234.081818	146.620000
234.174545	146.840000
234.267258	146.020000
234.359985	146.200000
234.452713	146.060000
234.545441	146.140000
234.638168	145.840000
234.730896	146.300000
234.823639	146.160000
234.916367	146.420000
235.009094	146.720000
235.101822	146.660000
235.194580	146.360000
235.287308	146.420000
235.380051	145.800000
235.472778	145.640000
235.565521	146.080000
235.658249	145.800000
235.750992	145.860000
235.843719	145.900000
235.936462	146.280000
236.029205	145.780000
236.121948	145.760000
236.214691	146.280000
236.307449	147.240000
236.400192	147.040000
236.492935	147.060000
236.585678	147.220000
236.678421	147.120000
236.771164	146.520000
236.863907	146.520000
236.956665	146.860000
237.049408	148.460000
237.142151	147.900000
237.234909	148.500000
237.327652	148.700000
237.420410	148.500000
237.513153	147.400000
237.605927	147.560000
237.698669	147.000000
237.791428	146.420000
237.884186	146.880000
237.976944	146.460000
238.069702	146.820000
238.162445	146.180000
238.255203	146.200000
238.347961	146.160000
238.440720	146.200000
238.533478	145.820000
238.626266	145.740000
238.719025	146.240000
238.811783	145.860000
238.904541	145.940000
238.997314	145.900000
239.090073	145.820000
239.182831	145.760000
239.275604	146.780000
239.368362	146.520000
239.461136	146.640000
239.553909	146.900000
239.646667	146.540000
239.739441	145.900000
239.832214	146.420000
239.925003	146.520000
240.017761	147.160000
240.110535	147.760000
240.203308	147.380000
240.296082	147.160000
240.388855	147.060000
240.481628	146.880000
240.574417	146.840000
240.667191	147.060000
240.759964	147.040000
240.852737	147.060000
240.945526	146.580000
241.038315	146.120000
241.131088	146.220000
241.223877	146.500000
241.316650	145.920000
241.409439	146.300000
241.502228	146.160000
241.595001	146.400000
241.687790	146.120000
241.780579	146.560000
241.873367	146.780000
241.966141	147.220000
242.058929	146.480000
242.151718	146.660000
242.244507	146.980000
242.337311	145.920000
242.430099	146.100000
242.522903	146.520000
242.615692	146.020000
242.708481	145.720000
242.801270	146.580000
242.894073	146.300000
242.986862	146.640000
243.079651	147.380000
243.172455	147.360000
243.265244	147.480000
243.358063	147.060000
243.450867	146.980000
243.543655	146.700000
243.636459	146.800000
243.729263	146.880000
243.822067	147.420000
243.914856	147.700000
244.007660	147.740000
244.100464	147.920000
244.193268	147.260000
244.286072	146.940000
244.378876	145.960000
244.471680	145.780000
244.564499	145.760000
244.657318	146.800000
244.750122	146.860000
244.842926	146.640000
244.935745	146.780000
245.028549	146.620000
245.121368	146.200000
245.214172	146.380000
245.306992	147.120000
245.399796	146.460000
245.492615	146.560000
245.585434	146.320000
245.678253	146.520000
245.771072	146.400000
245.863892	147.120000
245.956711	147.220000
246.049530	147.120000
246.142349	146.640000
246.235168	146.560000
246.327988	147.300000
246.420807	147.260000
246.513626	147.320000
246.606445	147.240000
246.699280	147.380000
246.792099	146.720000
246.884918	145.980000
246.977753	145.760000
247.070587	146.060000
247.163422	145.840000
247.256241	145.760000
247.349075	146.600000
247.441895	146.760000
247.534729	146.380000
247.627563	146.340000
247.720383	146.860000
247.813217	146.740000
247.906052	146.620000
247.998886	146.780000
248.091736	147.020000
248.184570	146.480000
248.277405	146.300000
248.370239	147.160000
248.463074	148.060000
248.555908	148.000000
248.648743	148.040000
248.741592	148.140000
248.834427	147.380000
248.927261	146.600000
249.020111	146.980000
249.112946	147.560000
249.205795	147.320000
249.298630	147.300000
249.391495	147.220000
249.484344	146.860000
249.577179	146.640000
249.670029	146.760000
249.762878	147.400000
249.855728	147.300000
249.948563	147.300000
250.041412	146.280000
250.134262	146.680000
250.227112	146.600000
250.319962	146.760000
250.412827	146.800000
250.505692	146.880000
250.598541	146.720000
250.691391	146.040000
250.784241	145.880000
250.877106	145.800000
250.969955	145.780000
251.062805	146.320000
251.155670	147.160000
251.248520	147.400000
251.341385	147.680000
251.434235	147.900000
251.527100	147.220000
251.619965	146.780000
251.712814	147.460000
251.805695	147.460000
251.898560	147.700000
251.991425	148.200000
252.084290	148.460000
252.177155	147.800000
252.270020	147.360000
252.362885	147.220000
252.455750	146.820000
252.548615	146.220000
252.641479	146.020000
252.734360	146.060000
252.827240	146.080000
252.920105	146.380000
253.012970	146.480000
253.105850	146.480000
253.198715	146.460000
253.291595	146.460000
253.384460	145.760000
253.477341	145.640000
253.570221	145.900000
253.663086	145.720000
253.755966	146.380000
253.848846	146.640000
253.941727	147.440000
254.034592	147.340000
254.127472	146.940000
254.220367	146.580000
254.313248	146.900000
254.406128	146.020000
254.499008	146.240000
254.591904	147.280000
254.684784	147.680000
254.777664	147.560000
254.870544	147.660000
254.963440	147.500000
255.056335	147.480000
255.149216	146.880000
255.242111	147.180000
255.334991	147.720000
255.427887	147.760000
255.520767	147.460000
255.613663	147.620000
255.706558	146.900000
255.799438	146.300000
255.892334	146.000000
255.985229	146.020000
256.078125	145.860000
256.171021	146.260000
256.263916	146.720000
256.356812	147.100000
256.449707	147.520000
256.542603	147.620000
256.635498	147.960000
256.728394	147.780000
256.821289	147.320000
256.914215	147.140000
257.007080	147.180000
257.100006	147.100000
257.192932	147.540000
257.285828	147.840000
257.378723	147.700000
257.471619	147.700000
257.564545	146.960000
257.657440	146.780000
257.750336	147.340000
257.843262	146.960000
257.936157	147.840000
258.029053	148.620000
258.121979	148.440000
258.214874	147.860000
258.307800	147.840000
258.400696	146.700000
258.493622	146.120000
258.586517	145.600000
258.679443	145.800000
258.772339	145.700000
258.865265	145.760000
258.958160	145.640000
259.051086	146.600000
259.144012	146.300000
259.236938	147.120000
259.329834	147.080000
259.422791	146.880000
259.515717	145.980000
259.608612	146.120000
259.701538	146.120000
259.794464	146.160000
259.887390	146.480000
259.980316	146.620000
260.073212	146.180000
260.166138	144.820000
260.259064	144.980000
260.351990	145.560000
260.444916	145.680000
260.537842	146.460000
260.630768	147.560000
260.723694	147.480000
260.816620	146.940000
260.909546	146.980000
261.002472	146.220000
261.095398	145.560000
261.188354	145.560000
261.281281	145.300000
261.374207	145.560000
261.467133	146.420000
261.560089	146.660000
261.653015	146.360000
261.745972	147.260000
261.838867	147.380000
261.931824	147.160000
262.024780	146.760000
262.117706	147.200000
262.210663	146.820000
262.303589	146.440000
262.396515	146.200000
262.489471	147.080000
262.582397	146.960000
262.675354	146.460000
262.768280	146.620000
262.861237	147.240000
262.954163	147.100000
263.047119	147.080000
263.140045	146.940000
263.233002	147.040000
263.325958	146.440000
263.418884	146.000000
263.511841	146.380000
263.604797	146.900000
263.697723	146.580000
263.790680	146.260000
263.883636	146.760000
263.976593	146.040000
264.069550	145.840000
264.162476	145.580000
264.255463	145.760000
264.348419	145.420000
264.441376	145.980000
264.534332	145.720000
264.627289	145.800000
264.720245	146.280000
264.813202	145.820000
264.906158	145.900000
264.999115	146.560000
265.092072	146.700000
265.185028	147.180000
265.277985	147.520000
265.370941	147.360000
265.463898	147.280000
265.556854	147.360000
265.649811	146.220000
265.742798	146.460000
265.835754	146.620000
265.928711	146.660000
266.021667	146.580000
266.114655	146.960000
266.207611	147.300000
266.300568	146.820000
266.393585	146.140000
266.486511	146.580000
266.579498	145.940000
266.672485	145.680000
266.765442	145.720000
266.858429	146.560000
266.951385	146.000000
267.044342	146.340000
267.137329	146.060000
267.230316	146.200000
267.323273	145.640000
267.416260	146.380000
267.509216	146.360000
267.602203	146.600000
267.695160	146.920000
267.788147	147.180000
267.881134	146.300000
267.974091	146.680000
268.067078	146.640000
268.160065	146.620000
268.253052	146.340000
268.346008	146.740000
268.438995	146.380000
268.531982	146.500000
268.624969	146.280000
268.717987	146.680000
268.810944	146.740000
268.903961	147.020000
268.996948	146.660000
269.089905	146.880000
269.182892	146.860000
269.275879	146.920000
269.368866	146.380000
269.461853	146.580000
269.554871	146.600000
269.647858	146.420000
269.740845	146.660000
269.833832	147.040000
269.926819	147.000000
270.019806	146.920000
270.112793	146.400000
270.205811	146.480000
270.298798	146.400000
270.391785	146.840000
270.484772	146.560000
270.577789	147.240000
270.670776	146.480000
270.763763	146.400000
270.856750	146.060000
270.949768	145.820000
271.042786	145.920000
271.135773	146.440000
271.228790	146.800000
271.321808	146.460000
271.414795	146.420000
271.507782	146.040000
271.600800	145.560000
271.693817	145.580000
271.786804	145.940000
271.879822	146.060000
271.972809	146.100000
272.065826	146.520000
272.158844	145.960000
272.251831	146.780000
272.344849	146.760000
272.437866	146.480000
272.530853	146.500000
272.623871	147.100000
272.716888	145.740000
272.809906	146.260000
272.902893	146.400000
272.995911	146.120000
273.088928	145.880000
273.181946	146.560000
273.274963	146.080000
273.367981	146.180000
273.460999	146.200000
273.554047	146.500000
273.647003	146.940000
273.740051	147.240000
273.833069	147.580000
273.926086	147.800000
274.019135	147.660000
274.112152	146.960000
274.205170	146.980000
274.298187	147.020000
274.391205	146.480000
274.484222	146.260000
274.577240	146.280000
274.670258	145.860000
274.763306	145.280000
274.856323	145.940000
274.949341	146.120000
275.042358	146.660000
275.135406	146.620000
275.228424	146.520000
275.321442	146.260000
275.414490	146.040000
275.507507	146.100000
275.600525	146.820000
275.693573	146.940000
275.786591	146.580000
275.879669	146.680000
275.972656	146.240000
276.065735	146.000000
276.158752	146.800000
276.251801	147.800000
276.344818	148.140000
276.437866	148.200000
276.530884	147.860000
276.623932	146.980000
276.716980	146.820000
276.809998	146.900000
276.903046	146.760000
276.996094	147.780000
277.089111	148.540000
277.182159	148.760000
277.275208	148.220000
277.368256	148.300000
277.461304	147.720000
277.554321	147.020000
277.647369	146.700000
277.740417	146.980000
277.833466	147.020000
277.926514	146.560000
278.019562	147.240000
278.112610	146.560000
278.205688	146.620000
278.298706	146.700000
278.391785	146.700000
278.484833	145.980000
278.577881	146.160000
278.670929	146.340000
278.763977	146.520000
278.857025	146.740000
278.950073	147.040000
279.043121	147.160000
279.136169	146.840000
279.229248	146.320000
279.322296	146.480000
279.415344	146.520000
279.508392	146.380000
279.601440	146.260000
279.694519	146.400000
279.787567	146.320000
279.880615	145.980000
279.973694	145.980000
280.066742	146.160000
280.159790	146.400000
280.252869	146.260000
280.345917	146.460000
280.438995	146.860000
280.532074	146.660000
280.625122	146.660000
280.718201	147.460000
280.811279	147.560000
280.904327	147.100000
280.997406	147.220000
281.090454	146.940000
281.183533	146.000000
281.276581	145.820000
281.369659	146.000000
281.462738	146.120000
281.555786	146.380000
281.648865	146.760000
281.741943	146.680000
281.835022	147.220000
281.928070	146.860000
282.021149	146.780000
282.114227	146.660000
282.207306	146.840000
282.300385	146.780000
282.393433	147.100000
282.486511	147.040000
282.579590	147.540000
282.672668	147.800000
282.765747	147.140000
282.858856	146.980000
282.951904	147.260000
283.045013	146.980000
283.138062	147.220000
283.231171	147.780000
283.324249	148.120000
283.417328	147.920000
283.510406	147.660000
283.603485	147.360000
283.696564	147.220000
283.789642	147.240000
283.882751	147.120000
283.975830	147.540000
284.068909	147.300000
284.161987	147.800000
284.255066	147.020000
284.348175	147.020000
284.441254	146.700000
284.534332	147.080000
284.627441	146.500000
284.720520	146.840000
284.813599	147.000000
284.906708	147.260000
284.999786	146.600000
285.092896	146.260000
285.185974	146.980000
285.279053	146.600000
285.372192	146.760000
285.465240	147.720000
285.558380	147.600000
285.651459	147.240000
285.744568	148.020000
285.837677	147.400000
285.930756	146.780000
286.023865	147.160000
286.116943	146.900000
286.210052	146.760000
286.303162	147.040000
286.396240	147.300000
286.489349	147.040000
286.582458	147.240000
286.675568	146.780000
286.768646	146.640000
286.861755	146.880000
286.954865	147.640000
287.047974	147.060000
287.141083	146.980000
287.234161	146.780000
287.327271	146.340000
287.420380	146.520000
287.513519	146.540000
287.606598	146.740000
287.699738	147.080000
287.792816	146.980000
287.885956	146.520000
287.979034	146.680000
288.072174	146.580000
288.165283	146.240000
288.258392	146.540000
288.351501	145.840000
288.444611	146.120000
288.537720	146.400000
288.630859	146.500000
288.723969	146.440000
288.817078	146.920000
288.910187	146.700000
289.003296	146.400000
289.096436	146.200000
289.189545	146.200000
289.282654	145.620000
289.375763	146.240000
289.468903	146.440000
289.562012	146.700000
289.655121	146.720000
289.748260	147.240000
289.841400	147.320000
289.934509	147.320000
290.027649	147.620000
290.120728	147.360000
290.213898	147.320000
290.306976	146.800000
290.400146	146.840000
290.493256	146.280000
290.586395	146.400000
290.679535	146.820000
290.772644	146.760000
290.865784	145.960000
290.958893	146.000000
291.052032	145.840000
291.145172	145.460000
291.238281	145.080000
291.331421	145.480000
291.424561	146.040000
291.517670	145.940000
291.610809	146.220000
291.703949	146.440000
291.797089	146.960000
291.890228	146.320000
291.983337	146.320000
292.076477	145.860000
292.169617	146.260000
292.262756	146.100000
292.355927	145.920000
292.449036	146.000000
292.542206	146.220000
292.635315	146.360000
292.728485	146.620000
292.821625	146.700000
292.914764	147.740000
293.007904	147.700000
293.101044	147.320000
293.194183	147.060000
293.287323	147.340000
293.380463	146.460000
293.473602	146.260000
293.566742	146.620000
293.659882	146.900000
293.753021	146.940000
293.846191	146.820000
293.939331	146.760000
294.032471	146.520000
294.125610	145.880000
294.218781	146.200000
294.311920	146.840000
294.405060	147.120000
294.498230	146.800000
294.591370	147.060000
294.684540	146.420000
294.777679	145.820000
294.870850	146.040000
294.963959	146.080000
295.057159	146.040000
295.150299	146.360000
295.243469	146.440000
295.336609	145.800000
295.429779	146.260000
295.522919	146.720000
295.616089	147.080000
295.709229	147.540000
295.802399	148.000000
295.895569	147.580000
295.988708	147.320000
296.081879	147.280000
296.175018	146.900000
296.268188	146.880000
296.361359	147.080000
296.454529	147.060000
296.547668	146.640000
296.640839	146.900000
296.734009	146.740000
296.827179	146.960000
296.920319	147.160000
297.013519	147.020000
297.106659	146.820000
297.199860	147.180000
297.292999	146.880000
297.386200	146.640000
297.479309	146.480000
297.572510	146.460000
297.665680	145.800000
297.758850	146.060000
297.852020	145.840000
297.945190	145.960000
298.038361	146.060000
298.131531	147.040000
298.224701	146.900000
298.317871	146.700000
298.411072	146.400000
298.504242	146.040000
298.597412	145.340000
298.690582	145.460000
298.783752	145.520000
298.876923	146.400000
298.970093	146.420000
299.063293	147.140000
299.156464	147.520000
299.249634	148.020000
299.342834	147.780000
299.436005	148.400000
299.529205	147.580000
299.622345	147.060000
299.715576	146.360000
299.808716	146.320000
299.901917	145.940000
299.995117	146.600000
300.088287	146.960000
300.181488	147.060000
300.274658	147.120000
300.367828	147.060000
300.461029	146.720000
300.554199	146.740000
300.647400	146.900000
300.740601	147.140000
300.833771	146.840000
300.926971	147.020000
301.020142	146.660000
301.113342	146.760000
301.206512	146.600000
301.299713	147.260000
301.392914	147.340000
301.486084	147.360000
301.579285	147.400000
301.672516	147.720000
301.765686	147.140000
301.858887	146.960000
301.952057	147.220000
302.045288	146.920000
302.138458	146.520000
302.231659	146.560000
302.324860	146.400000
302.418060	145.800000
302.511261	145.940000
302.604462	146.340000
302.697662	146.260000
302.790863	146.280000
302.884064	146.020000
302.977264	145.840000
303.070465	145.780000
303.163666	146.280000
303.256866	146.500000
303.350067	146.920000
303.443268	147.220000
303.536469	147.120000
303.629669	146.940000
303.722870	146.920000
303.816071	146.700000
303.909271	146.740000
304.002472	145.860000
304.095673	145.240000
304.188934	144.680000
304.282104	145.560000
304.375336	145.660000
304.468506	146.020000
304.561768	146.260000
304.654968	146.900000
304.748169	146.160000
304.841370	145.880000
304.934601	146.360000
305.027802	146.220000
305.121002	145.820000
305.214233	145.900000
305.307434	146.080000
305.400665	146.640000
305.493866	146.640000
305.587097	146.780000
305.680298	146.860000
305.773499	147.160000
305.866730	146.600000
305.959930	147.280000
306.053162	147.640000
306.146393	147.380000
306.239594	146.660000
306.332825	146.440000
306.426025	146.500000
306.519287	145.660000
306.612488	145.880000
306.705719	146.160000
306.798920	146.300000
306.892181	145.640000
306.985352	145.580000
307.078613	144.920000
307.171844	145.280000
307.265045	144.800000
307.358276	144.600000
307.451508	145.180000
307.544739	146.100000
307.637970	145.740000
307.731201	145.640000
307.824402	146.680000
307.917633	146.880000
308.010864	147.200000
308.104095	147.660000
308.197327	148.100000
308.290558	147.740000
308.383789	147.120000
308.477020	146.500000
308.570251	145.740000
308.663483	145.640000
308.756714	145.460000
308.849976	145.700000
308.943176	146.100000
309.036438	146.060000
309.129639	145.840000
309.222900	146.000000
309.316101	145.860000
309.409393	145.320000
309.502625	145.300000
309.595856	145.480000
309.689087	145.160000
309.782318	145.480000
309.875580	145.720000
309.968811	146.320000
310.062042	146.080000
310.155273	146.060000
310.248535	146.120000
310.341766	146.080000
310.434998	145.580000
310.528259	145.360000
310.621490	145.860000
310.714722	145.460000
310.807983	145.580000
310.901215	145.660000
310.994476	146.140000
311.087708	145.700000
311.181000	146.000000
311.274200	145.560000
311.367462	145.780000
311.460693	145.620000
311.553986	146.280000
311.647186	146.440000
311.740479	147.500000
311.833710	146.960000
311.926971	146.900000
312.020203	146.100000
312.113464	146.100000
312.206726	145.020000
312.299957	145.580000
312.393219	146.340000
312.486481	146.560000
312.579712	146.500000
312.672974	146.460000
312.766235	146.360000
312.859497	145.820000
312.952759	145.440000
313.045990	145.820000
313.139252	145.600000
313.232513	145.860000
313.325775	146.020000
313.419037	146.280000
313.512299	145.560000
313.605530	146.200000
313.698822	146.080000
313.792053	146.120000
313.885345	145.760000
313.978577	145.860000
314.071869	145.700000
314.165131	145.740000
314.258392	145.900000
314.351654	146.220000
314.444916	145.840000
314.538177	146.360000
314.631439	146.600000
314.724701	146.040000
314.817993	146.260000
314.911255	146.520000
315.004517	145.720000
315.097778	145.380000
315.191040	145.940000
315.284302	145.820000
315.377594	145.740000
315.470856	145.940000
315.564117	145.520000
315.657379	145.060000
315.750671	144.800000
315.843933	145.240000
315.937195	144.660000
316.030518	144.960000
316.123749	144.960000
316.217041	145.940000
316.310303	145.960000
316.403595	146.640000
316.496857	146.880000
316.590149	147.360000
316.683411	146.240000
316.776703	145.640000
316.869965	145.520000
316.963257	145.120000
317.056519	144.220000
317.149811	144.380000
317.243073	144.800000
317.336365	145.040000
317.429626	145.380000
317.522919	146.220000
317.616180	146.740000
317.709473	146.240000
317.802765	145.960000
317.896027	145.780000
317.989319	145.780000
318.082611	145.360000
318.175873	145.540000
318.269165	145.700000
318.362488	145.560000
318.455750	145.400000
318.549042	145.880000
318.642303	146.440000
318.735626	146.560000
318.828888	146.800000
318.922211	146.660000
319.015472	147.000000
319.108765	146.380000
319.202057	145.860000
319.295349	145.960000
319.388641	145.820000
319.481934	145.180000
319.575226	145.040000
319.668518	145.780000
319.761810	145.820000
319.855103	145.860000
319.948395	146.240000
320.041687	146.860000
320.134979	146.540000
320.228271	146.260000
320.321564	146.200000
320.414856	146.200000
320.508148	145.800000
320.601440	145.940000
320.694763	145.820000
320.788025	146.460000
320.881348	146.240000
320.974640	146.280000
321.067963	145.780000
321.161224	146.020000
321.254547	145.380000
321.347839	145.780000
321.441162	145.680000
321.534454	145.980000
321.627747	145.560000
321.721069	146.160000
321.814362	145.920000
321.907654	146.420000
322.000946	146.360000
322.094269	147.300000
322.187561	146.800000
322.280884	147.160000
322.374176	146.880000
322.467468	147.260000
322.560791	147.060000
322.654083	147.640000
322.747406	147.320000
322.840698	147.520000
322.934021	147.640000
323.027344	147.440000
323.120636	147.100000
323.213959	147.260000
323.307251	146.660000
323.400574	146.560000
323.493866	146.420000
323.587219	146.560000
323.680511	146.480000
323.773834	147.060000
323.867157	146.840000
323.960449	146.880000
324.053772	146.720000
324.147095	146.480000
324.240387	146.800000
324.333710	146.820000
324.427032	147.060000
324.520355	146.840000
324.613647	146.720000
324.706970	146.460000
324.800293	146.580000
324.893616	146.640000
324.986938	147.040000
325.080231	146.840000
325.173553	147.140000
325.266876	147.520000
325.360199	147.260000
325.453522	146.660000
325.546875	146.860000
325.640167	147.020000
325.733521	146.940000
325.826813	147.100000
325.920166	147.000000
326.013489	146.540000
326.106812	145.400000
326.200134	145.060000
326.293457	144.540000
326.386780	144.960000
326.480103	145.160000
326.573425	145.260000
326.666748	145.080000
326.760071	145.940000
326.853424	145.880000
326.946747	146.040000
327.040070	146.920000
327.133392	146.760000
327.226715	145.680000
327.320068	145.340000
327.413391	145.820000
327.506714	144.820000
327.600037	144.860000
327.693390	145.320000
327.786713	145.520000
327.880066	145.120000
327.973358	146.040000
328.066742	146.600000
328.160034	146.840000
328.253418	147.020000
328.346710	146.660000
328.440063	146.180000
328.533417	145.640000
328.626740	145.540000
328.720093	145.440000
328.813416	145.560000
328.906769	145.660000
329.000092	145.900000
329.093445	145.860000
329.186768	145.580000
329.280121	146.320000
329.373444	146.540000
329.466797	146.800000
329.560120	147.000000
329.653473	147.320000
329.746796	146.740000
329.840149	146.140000
329.933502	145.480000
330.026825	144.820000
330.120178	144.760000
330.213562	144.700000
330.306854	144.940000
330.400238	145.480000
330.493561	145.700000
330.586945	146.500000
330.680237	147.020000
330.773621	147.180000
330.866974	147.300000
330.960327	147.600000
331.053680	146.900000
331.147003	146.880000
331.240356	147.120000
331.333710	146.720000
331.427063	146.600000
331.520416	146.560000
331.613770	145.980000
331.707123	146.120000
331.800476	146.300000
331.893829	147.020000
331.987152	146.840000
332.080505	146.920000
332.173859	146.540000
332.267212	146.120000
332.360565	145.200000
332.453918	145.340000
332.547333	145.500000
332.640656	145.480000
332.734039	146.000000
332.827362	146.220000
332.920746	146.660000
333.014069	146.920000
333.107452	147.480000
333.200806	147.400000
333.294159	147.560000
333.387543	146.780000
333.480896	146.160000
333.574249	145.960000
333.667603	145.920000
333.760956	146.080000
333.854340	146.400000
333.947693	146.540000
334.041046	146.180000
334.134430	146.160000
334.227783	146.000000
334.321136	145.940000
334.414520	145.860000
334.507874	146.140000
334.601227	146.040000
334.694611	145.860000
334.787964	145.980000
334.881348	146.660000
334.974701	146.840000
335.068085	146.700000
335.161438	146.700000
335.254822	146.480000
335.348175	146.280000
335.441559	145.680000
335.534943	146.340000
335.628296	146.240000
335.721680	146.260000
335.815033	146.320000
335.908417	146.980000
336.001770	146.820000
336.095154	146.920000
336.188538	147.000000
336.281891	146.400000
336.375275	145.660000
336.468658	145.160000
336.562012	145.380000
336.655396	145.800000
336.748779	146.300000
336.842133	146.600000
336.935516	147.120000
337.028900	146.680000
337.122284	146.500000
337.215637	146.520000
337.309021	146.500000
337.402435	145.900000
337.495789	146.140000
337.589203	145.740000
337.682526	145.420000
337.775940	145.400000
337.869324	145.740000
337.962708	145.220000
338.056091	146.020000
338.149475	145.680000
338.242859	145.700000
338.336243	145.520000
338.429626	145.940000
338.523010	145.540000
338.616394	145.960000
338.709778	146.260000
338.803162	146.680000
338.896545	146.880000
338.989929	146.700000
339.083313	146.660000
339.176697	146.620000
339.270081	146.100000
339.363464	146.360000
339.456848	146.580000
339.550232	146.100000
339.643616	145.460000
339.737030	145.660000
339.830383	145.240000
339.923828	145.220000
340.017181	145.940000
340.110596	146.240000
340.203949	146.300000
340.297363	146.200000
340.390778	146.000000
340.484161	145.580000
340.577545	145.660000
340.670959	145.740000
340.764343	145.740000
340.857727	145.840000
340.951111	145.600000
341.044525	145.880000
341.137909	145.340000
341.231293	145.320000
341.324707	145.060000
341.418091	146.240000
341.511505	146.120000
341.604889	146.980000
341.698303	147.600000
341.791687	147.860000
341.885071	147.080000
341.978485	146.800000
342.071899	146.680000
342.165283	146.420000
342.258698	146.520000
342.352081	147.000000
342.445496	147.460000
342.538879	147.120000
342.632324	146.640000
342.725708	146.640000
342.819122	145.920000
342.912506	145.380000
343.005920	145.720000
343.099335	146.680000
343.192719	146.300000
343.286133	146.440000
343.379547	147.060000
343.472931	146.600000
343.566345	145.820000
343.659760	146.460000
343.753143	146.460000
343.846558	145.600000
343.939972	145.840000
344.033386	146.680000
344.126770	146.620000
344.220184	146.900000
344.313599	148.000000
344.407043	148.000000
344.500427	147.180000
344.593872	147.300000
344.687225	146.740000
344.780670	146.060000
344.874054	145.760000
344.967499	146.420000
345.060913	146.520000
345.154327	146.840000
345.247742	146.680000
345.341156	146.480000
345.434570	145.560000
345.527985	145.040000
345.621399	145.260000
345.714813	145.320000
345.808228	145.740000
345.901642	145.620000
345.995056	145.380000
346.088470	145.480000
346.181885	145.460000
346.275299	145.200000
346.368713	145.420000
346.462128	145.320000
346.555573	145.000000
346.648987	145.180000
346.742401	145.320000
346.835815	145.820000
346.929260	145.740000
347.022644	146.060000
347.116119	146.260000
347.209503	146.700000
347.302948	147.260000
347.396362	147.840000
347.489807	147.900000
347.583221	148.220000
347.676636	147.580000
347.770050	146.580000
347.863495	145.940000
347.956909	145.820000
348.050323	145.180000
348.143768	145.420000
348.237183	145.580000
348.330597	146.360000
348.424042	146.380000
348.517456	146.700000
348.610901	146.900000
348.704315	146.680000
348.797760	146.080000
348.891174	145.520000
348.984619	145.040000
349.078033	145.280000
349.171448	146.120000
349.264923	146.120000
349.358337	146.520000
349.451782	146.860000
349.545197	146.240000
349.638641	145.260000
349.732086	145.000000
349.825500	145.380000
349.918945	144.920000
350.012390	145.560000
350.105804	146.280000
350.199249	146.600000
350.292664	146.620000
350.386108	146.780000
350.479553	147.200000
350.572968	146.980000
350.666412	147.360000
350.759857	146.980000
350.853302	147.540000
350.946716	146.500000
351.040161	146.460000
351.133606	146.140000
351.227081	146.220000
351.320465	146.780000
351.413940	147.360000
351.507355	147.320000
351.600830	147.240000
351.694244	146.960000
351.787720	146.460000
351.881104	146.280000
351.974579	146.240000
352.067993	147.120000
352.161469	147.280000
352.254883	146.500000
352.348358	146.520000
352.441803	146.420000
352.535248	145.820000
352.628693	146.100000
352.722137	146.340000
352.815582	146.300000
352.909027	146.420000
353.002472	146.120000
353.095917	145.980000
353.189362	146.460000
353.282806	146.520000
353.376251	146.280000
353.469696	146.020000
353.563141	146.640000
353.656586	146.240000
353.750061	145.480000
353.843475	145.700000
353.936981	146.460000
354.030396	145.600000
354.123871	145.480000
354.217285	146.440000
354.310760	146.560000
354.404175	146.340000
354.497681	146.140000
354.591095	146.060000
354.684570	145.240000
354.777985	144.740000
354.871490	144.780000
354.964935	145.040000
355.058380	145.260000
355.151855	145.160000
355.245300	145.980000
355.338745	146.080000
355.432220	146.240000
355.525665	145.700000
355.619110	146.460000
355.712585	145.940000
355.806030	145.440000
355.899475	144.860000
355.992950	145.600000
356.086426	145.600000
356.179871	145.620000
356.273346	145.840000
356.366791	146.340000
356.460266	146.320000
356.553711	145.860000
356.647186	146.140000
356.740631	146.080000
356.834106	145.920000
356.927551	146.120000
357.021027	146.340000
357.114471	146.620000
357.207947	146.640000
357.301422	147.020000
357.394867	146.800000
357.488342	147.000000
357.581818	146.500000
357.675262	146.760000
357.768738	146.380000
357.862213	145.600000
357.955658	145.280000
358.049133	144.960000
358.142609	145.220000
358.236053	145.440000
358.329529	145.920000
358.423035	146.340000
358.516449	146.460000
358.609955	146.700000
358.703400	147.060000
358.796906	147.420000
358.890350	146.900000
358.983826	147.220000
359.077271	146.280000
359.170776	145.780000
359.264221	145.380000
359.357727	145.640000
359.451172	145.740000
359.544647	146.080000
359.638123	145.860000
359.731598	146.040000
359.825073	146.140000
359.918549	145.940000
360.012024	146.100000
360.105499	146.020000
360.198975	146.240000
360.292450	146.280000
360.385925	146.560000
360.479401	146.160000
360.572876	146.560000
360.666351	146.700000
360.759857	146.400000
360.853302	146.100000
360.946808	145.840000
361.040253	145.840000
361.133759	145.420000
361.227203	145.700000
361.320709	145.580000
361.414154	146.180000
361.507660	146.560000
361.601105	147.040000
361.694641	147.500000
361.788086	147.480000
361.881592	147.900000
361.975067	147.200000
362.068542	147.160000
362.162018	146.800000
362.255524	146.640000
362.348999	146.300000
362.442474	146.800000
362.535950	146.160000
362.629456	146.000000
362.722931	146.200000
362.816406	146.620000
362.909882	146.760000
363.003387	146.880000
363.096863	147.320000
363.190338	147.260000
363.283875	146.720000
363.377319	146.540000
363.470825	146.860000
363.564301	146.020000
363.657806	146.280000
363.751282	146.060000
363.844788	146.580000
363.938232	146.120000
364.031769	146.920000
364.125214	147.020000
364.218750	147.700000
364.312225	146.720000
364.405731	146.940000
364.499207	146.280000
364.592712	146.080000
364.686188	145.780000
364.779694	146.140000
364.873169	146.160000
364.966675	146.320000
365.060150	146.400000
365.153656	146.780000
365.247131	146.800000
365.340637	147.120000
365.434143	147.500000
365.527618	147.460000
365.621155	146.480000
365.714600	146.360000
365.808136	146.560000
365.901611	145.580000
365.995117	145.300000
366.088593	145.340000
366.182129	145.200000
366.275604	144.880000
366.369110	145.180000
366.462585	145.160000
366.556122	146.060000
366.649567	146.220000
366.743103	146.360000
366.836609	146.500000
366.930115	146.720000
367.023590	146.320000
367.117096	146.180000
367.210602	145.800000
367.304108	146.380000
367.397614	146.900000
367.491119	146.940000
367.584595	147.200000
367.678101	147.480000
367.771606	146.980000
367.865112	146.440000
367.958649	146.060000
368.052124	145.920000
368.145660	145.840000
368.239136	146.300000
368.332672	146.260000
368.426147	146.320000
368.519684	146.200000
368.613159	146.460000
368.706696	145.780000
368.800171	145.880000
368.893707	145.680000
368.987183	145.640000
369.080719	145.600000
369.174225	145.940000
369.267731	146.220000
369.361237	146.540000
369.454742	146.900000
369.548248	146.960000
369.641754	146.680000
369.735260	146.340000
369.828766	145.760000
369.922272	146.060000
370.015808	145.580000
370.109314	145.500000
370.202820	145.320000
370.296356	146.540000
370.389832	145.860000
370.483368	145.580000
370.576874	145.600000
370.670410	145.860000
370.763885	144.720000
370.857422	144.740000
370.950928	144.920000
371.044464	145.680000
371.137939	145.840000
371.231476	146.380000
371.324982	147.120000
371.418518	147.380000
371.512024	146.900000
371.605560	146.660000
371.699066	146.780000
371.792572	146.180000
371.886108	146.500000
371.979614	146.440000
372.073120	146.920000
372.166656	146.840000
372.260162	147.100000
372.353668	146.660000
372.447205	146.480000
372.540710	146.100000
372.634277	145.860000
372.727753	145.740000
372.821320	145.900000
372.914795	145.980000
373.008362	145.820000
373.101837	145.780000
373.195404	145.540000
373.288879	145.420000
373.382446	146.020000
373.475922	146.220000
373.569489	146.820000
373.662964	147.300000
373.756531	147.460000
373.850037	147.220000
373.943573	147.080000
374.037109	146.040000
374.130615	146.200000
374.224152	146.260000
374.317657	145.740000
374.411194	146.480000
374.504730	147.000000
374.598236	146.560000
374.691772	146.280000
374.785309	146.580000
374.878815	145.440000
374.972351	145.660000
375.065887	145.600000
375.159454	146.260000
375.252930	146.120000
375.346497	146.900000
375.440002	147.400000
375.533569	147.460000
375.627045	146.460000
375.720612	146.680000
375.814117	146.760000
375.907684	146.120000
376.001160	146.020000
376.094727	145.760000
376.188232	146.020000
376.281799	145.840000
376.375336	145.960000
376.468872	146.540000
376.562408	147.300000
376.655914	147.060000
376.749451	147.080000
376.842987	147.200000
376.936523	146.660000
377.030060	146.600000
377.123596	146.900000
377.217133	146.340000
377.310669	146.140000
377.404205	146.420000
377.497772	146.780000
377.591278	146.240000
377.684845	147.120000
377.778351	147.340000
377.871918	146.960000
377.965424	146.280000
378.058990	146.620000
378.152496	146.240000
378.246063	146.420000
378.339569	146.940000
378.433136	147.240000
378.526642	147.160000
378.620209	147.140000
378.713745	146.760000
378.807312	146.900000
378.900848	146.580000
378.994385	146.900000
379.087921	146.260000
379.181458	146.440000
379.274994	145.620000
379.368530	145.900000
379.462097	145.760000
379.555634	146.340000
379.649170	145.880000
379.742706	146.160000
379.836273	146.360000
379.929810	145.840000
380.023376	145.620000
380.116882	145.580000
380.210449	145.440000
380.303986	144.900000
380.397552	144.920000
380.491058	145.280000
380.584656	145.440000
380.678162	145.620000
380.771729	145.880000
380.865265	146.740000
380.958832	146.740000
381.052368	147.140000
381.145935	147.400000
381.239471	147.800000
381.333008	147.580000
381.426575	147.420000
381.520111	147.340000
381.613647	147.500000
381.707214	147.100000
381.800751	146.460000
381.894318	146.640000
381.987854	146.060000
382.081421	145.780000
382.174988	145.820000
382.268524	145.580000
382.362091	145.160000
382.455627	146.420000
382.549194	145.960000
382.642731	145.800000
382.736298	145.740000
382.829834	145.680000
382.923401	145.780000
383.016937	146.240000
383.110504	146.600000
383.204041	147.040000
383.297607	147.740000
383.391174	146.680000
383.484741	147.320000
383.578278	146.880000
383.671844	146.600000
383.765411	145.800000
383.858948	145.920000
383.952515	145.480000
384.046051	145.840000
384.139618	146.480000
384.233185	146.800000
384.326721	147.100000
384.420288	147.540000
384.513855	147.500000
384.607422	147.460000
384.700989	147.860000
384.794525	147.560000
384.888123	146.980000
384.981659	147.180000
385.075226	146.680000
385.168762	146.180000
385.262360	145.900000
385.355896	145.420000
385.449463	145.040000
385.542999	145.000000
385.636597	145.760000
385.730164	146.220000
385.823730	146.320000
385.917267	146.220000
386.010834	146.560000
386.104401	146.320000
386.197968	146.460000
386.291534	146.660000
386.385101	147.020000
386.478668	147.320000
386.572235	147.060000
386.665802	146.480000
386.759338	146.300000
386.852905	145.840000
386.946472	145.240000
387.040070	145.280000
387.133606	145.340000
387.227203	145.380000
387.320740	145.640000
387.414337	145.580000
387.507874	145.560000
387.601471	145.980000
387.695007	146.040000
387.788605	145.780000
387.882141	146.120000
387.975739	146.180000
388.069275	145.840000
388.162872	145.840000
388.256439	145.880000
388.350037	145.680000
388.443604	145.360000
388.537170	145.340000
388.630737	145.980000
388.724304	146.500000
388.817871	146.280000
388.911438	146.500000
389.005005	146.800000
389.098602	146.820000
389.192169	146.140000
389.285736	146.760000
389.379333	146.740000
389.472870	146.360000
389.566467	146.080000
389.660034	146.460000
389.753632	145.800000
389.847168	146.040000
389.940765	146.360000
390.034332	146.200000
390.127930	145.960000
390.221466	146.140000
390.315063	146.040000
390.408630	145.320000
390.502228	144.680000
390.595795	144.960000
390.689362	145.400000
390.782959	145.540000
390.876526	146.160000
390.970093	146.520000
391.063690	146.980000
391.157257	146.700000
391.250824	146.840000
391.344421	146.700000
391.437988	147.000000
391.531555	146.860000
391.625153	146.960000
391.718750	146.960000
391.812317	147.040000
391.905914	146.640000
391.999481	146.880000
392.093079	146.920000
392.186615	147.240000
392.280243	147.100000
392.373779	147.480000
392.467407	147.560000
392.560944	147.220000
392.654572	146.360000
392.748108	146.540000
392.841736	146.740000
392.935303	146.120000
393.028900	146.220000
393.122467	146.320000
393.216064	146.020000
393.309631	145.260000
393.403229	145.200000
393.496796	145.280000
393.590393	144.780000
393.683990	145.060000
393.777557	145.700000
393.871155	145.500000
393.964722	145.780000
394.058350	146.280000
394.151917	146.120000
394.245514	145.820000
394.339081	146.500000
394.432678	146.680000
394.526245	146.740000
394.619873	146.440000
394.713409	146.780000
394.807037	146.400000
394.900604	146.140000
394.994202	146.320000
395.087769	146.700000
395.181396	146.260000
395.274994	146.840000
395.368561	146.220000
395.462158	146.040000
395.555756	145.720000
395.649353	146.180000
395.742920	145.600000
395.836517	146.480000
395.930115	145.820000
396.023712	146.280000
396.117279	146.160000
396.210876	146.040000
396.304474	145.800000
396.398071	146.380000
396.491669	146.560000
396.585266	146.320000
396.678833	146.340000
396.772461	146.520000
396.866028	146.440000
396.959656	146.600000
397.053223	147.060000
397.146851	147.080000
397.240417	147.360000
397.334015	148.620000
397.427582	149.060000
397.521210	150.020000
397.614807	151.820000
397.708405	153.560000
397.802002	155.440000
397.895599	159.060000
397.989197	163.100000
398.082794	168.060000
398.176392	174.620000
398.269989	181.780000
398.363586	190.140000
398.457184	200.180000
398.550781	211.660000
398.644379	223.080000
398.737976	236.560000
398.831573	249.840000
398.925201	264.040000
399.018768	279.220000
399.112396	297.040000
399.205963	315.060000
399.299591	336.400000
399.393158	359.520000
399.486786	384.740000
399.580353	409.720000
399.673981	434.600000
399.767578	459.300000
399.861206	481.440000
399.954773	498.820000
400.048401	510.080000
400.141998	515.840000
400.235596	514.540000
400.329193	508.240000
400.422791	499.100000
400.516418	488.700000
400.610016	478.160000
400.703613	465.940000
400.797211	450.100000
400.890808	432.360000
400.984436	413.720000
401.078033	392.020000
401.171631	369.640000
401.265259	347.560000
401.358826	326.200000
401.452484	303.320000
401.546051	282.140000
401.639679	260.560000
401.733246	242.100000
401.826904	223.660000
401.920471	207.800000
402.014099	194.300000
402.107697	183.700000
402.201324	174.620000
402.294891	167.520000
402.388550	162.320000
402.482147	158.240000
402.575745	154.920000
402.669373	152.080000
402.762970	150.300000
402.856567	149.080000
402.950195	148.160000
403.043793	147.660000
403.137390	147.840000
403.231018	147.140000
403.324615	147.760000
403.418243	147.180000
403.511841	147.280000
403.605469	146.980000
403.699066	147.480000
403.792694	146.860000
403.886292	147.240000
403.979919	147.140000
404.073517	146.520000
404.167145	146.560000
404.260712	146.440000
404.354370	146.220000
404.447937	146.400000
404.541595	146.940000
404.635162	147.080000
404.728821	147.420000
404.822418	147.160000
404.916046	146.980000
405.009644	147.460000
405.103271	147.500000
405.196899	147.180000
405.290497	147.480000
405.384125	147.700000
405.477722	147.080000
405.571350	146.740000
405.664948	146.940000
405.758575	146.520000
405.852203	145.700000
405.945801	145.700000
406.039429	145.720000
406.133057	145.420000
406.226654	145.400000
406.320312	145.580000
406.413879	145.640000
406.507538	145.660000
406.601135	145.700000
406.694763	146.320000
406.788361	146.020000
406.882019	145.740000
406.975586	145.940000
407.069244	146.520000
407.162872	146.220000
407.256470	146.480000
407.350098	146.520000
407.443726	146.220000
407.537323	145.600000
407.630951	146.040000
407.724579	146.080000
407.818207	146.680000
407.911804	146.560000
408.005432	146.740000
408.099060	146.700000
408.192688	147.000000
408.286285	146.560000
408.379913	146.520000
408.473572	146.520000
408.567169	145.900000
408.660828	145.700000
408.754395	145.760000
408.848053	145.740000
408.941650	146.040000
409.035309	145.840000
409.128906	145.660000
409.222565	145.560000
409.316132	145.800000
409.409790	145.160000
409.503387	145.580000
409.597046	145.960000
409.690674	146.060000
409.784302	146.160000
409.877930	146.100000
409.971558	146.280000
410.065186	146.000000
410.158783	145.600000
410.252411	145.640000
410.346039	146.300000
410.439667	145.960000
410.533295	146.180000
410.626923	146.760000
410.720551	146.640000
410.814209	146.920000
410.907806	147.120000
411.001465	146.520000
411.095062	146.300000
411.188721	146.220000
411.282318	145.680000
411.375977	145.480000
411.469574	146.200000
411.563232	145.900000
411.656830	145.680000
411.750488	145.600000
411.844086	145.320000
411.937744	145.000000
412.031372	145.100000
412.125000	145.080000
412.218628	145.020000
412.312256	145.780000
412.405884	146.340000
412.499512	146.320000
412.593170	146.720000
412.686798	146.980000
412.780426	146.400000
412.874054	146.140000
412.967682	146.300000
413.061310	146.620000
413.154968	146.520000
413.248566	146.860000
413.342224	146.740000
413.435852	146.940000
413.529510	146.500000
413.623108	145.900000
413.716766	145.860000
413.810364	146.020000
413.904022	145.700000
413.997650	145.460000
414.091309	146.680000
414.184906	146.520000
414.278564	146.260000
414.372192	146.600000
414.465851	146.920000
414.559479	146.300000
414.653107	147.200000
414.746735	147.260000
414.840393	147.440000
414.934021	147.560000
415.027649	147.260000
415.121277	146.760000
415.214935	147.180000
415.308563	146.920000
415.402191	146.160000
415.495850	146.240000
415.589478	145.920000
415.683136	145.440000
415.776733	145.660000
415.870422	146.560000
415.964020	146.300000
416.057678	146.360000
416.151306	146.480000
416.244965	146.320000
416.338562	146.240000
416.432251	146.860000
416.525848	147.440000
416.619507	147.880000
416.713165	148.180000
416.806793	147.800000
416.900421	147.700000
416.994080	146.900000
417.087708	146.580000
417.181366	146.000000
417.274994	145.960000
417.368622	146.100000
417.462280	146.820000
417.555908	146.280000
417.649567	146.300000
417.743195	146.500000
417.836853	146.360000
417.930481	146.360000
418.024170	146.960000
418.117767	147.440000
418.211426	147.600000
418.305054	147.760000
418.398712	147.300000
418.492340	147.340000
418.585999	147.260000
418.679626	147.360000
418.773285	147.060000
418.866913	147.220000
418.960571	147.340000
419.054230	147.740000
419.147858	147.720000
419.241516	147.780000
419.335144	147.400000
419.428802	147.260000
419.522461	146.620000
419.616089	146.040000
419.709747	146.220000
419.803375	146.460000
419.897034	146.080000
419.990662	145.900000
420.084320	146.460000
420.177979	146.600000
420.271606	146.700000
420.365295	147.320000
420.458893	147.460000
420.552582	147.300000
420.646210	147.080000
420.739868	146.840000
420.833496	146.420000
420.927155	146.180000
421.020782	146.240000
421.114471	145.780000
421.208069	145.800000
421.301758	146.000000
421.395386	146.340000
421.489044	146.120000
421.582703	146.380000
421.676361	147.200000
421.769989	146.760000
421.863647	146.980000
421.957306	147.140000
422.050934	147.360000
422.144592	147.040000
422.238251	146.940000
422.331909	146.460000
422.425537	146.320000
422.519196	146.440000
422.612854	145.840000
422.706543	145.660000
422.800140	146.380000
422.893829	146.060000
422.987457	145.780000
423.081146	146.000000
423.174744	146.920000
423.268433	145.920000
423.362061	145.960000
423.455750	145.720000
423.549347	145.960000
423.643036	145.240000
423.736664	146.340000
423.830353	146.460000
423.924011	147.080000
424.017639	146.440000
424.111298	146.560000
424.204956	146.080000
424.298615	146.280000
424.392273	145.740000
424.485931	146.120000
424.579559	146.320000
424.673218	146.260000
424.766876	146.440000
424.860535	146.560000
424.954193	146.360000
425.047882	146.660000
425.141510	146.500000
425.235199	146.400000
425.328796	146.020000
425.422485	145.760000
425.516113	145.140000
425.609802	145.300000
425.703430	145.420000
425.797119	145.740000
425.890747	146.220000
425.984436	146.620000
426.078064	146.320000
426.171753	145.880000
426.265411	145.320000
426.359070	145.360000
426.452728	144.900000
426.546356	145.140000
426.640015	145.100000
426.733673	145.620000
426.827332	145.040000
426.920990	145.880000
427.014648	145.580000
427.108307	145.800000
427.201965	146.240000
427.295624	146.840000
427.389282	146.040000
427.482941	146.420000
427.576630	146.300000
427.670258	145.420000
427.763947	145.180000
427.857574	145.280000
427.951263	145.400000
428.044922	145.540000
428.138611	145.700000
428.232239	146.220000
428.325928	146.580000
428.419556	146.720000
428.513245	146.420000
428.606903	146.580000
428.700562	146.000000
428.794220	145.240000
428.887878	145.000000
428.981537	145.460000
429.075195	145.740000
429.168854	146.080000
429.262512	146.580000
429.356201	146.420000
429.449860	146.100000
429.543518	145.800000
429.637177	146.080000
429.730835	146.260000
429.824493	146.120000
429.918182	146.560000
430.011810	146.240000
430.105530	145.300000
430.199158	145.360000
430.292847	145.360000
430.386475	144.760000
430.480164	144.660000
430.573792	144.640000
430.667511	144.240000
430.761139	144.460000
430.854828	145.160000
430.948456	145.580000
431.042145	146.280000
431.135834	146.180000
431.229492	146.000000
431.323151	146.120000
431.416809	146.360000
431.510468	146.220000
431.604156	146.640000
431.697815	146.660000
431.791473	145.940000
431.885132	145.380000
431.978821	145.480000
432.072479	145.480000
432.166138	146.040000
432.259827	146.260000
432.353485	146.920000
432.447174	146.940000
432.540802	146.640000
432.634491	146.500000
432.728149	146.600000
432.821838	146.860000
432.915466	146.580000
433.009186	146.980000
433.102814	146.400000
433.196503	146.340000
433.290131	145.980000
433.383850	146.320000
433.477509	146.080000
433.571167	146.940000
433.664856	147.400000
433.758514	147.820000
433.852173	147.380000
433.945862	147.340000
434.039520	146.960000
434.133179	146.060000
434.226868	145.480000
434.320526	145.220000
434.414185	145.600000
434.507874	145.380000
434.601562	145.840000
434.695221	145.880000
434.788910	146.480000
434.882538	146.340000
434.976257	146.160000
435.069885	146.060000
435.163574	146.200000
435.257233	145.400000
435.350922	145.420000
435.444580	145.240000
435.538269	144.840000
435.631897	144.860000
435.725616	145.880000
435.819275	145.980000
435.912964	146.680000
436.006622	147.460000
436.100311	147.500000
436.193970	146.540000
436.287628	146.380000
436.381317	145.940000
436.474976	145.520000
436.568665	145.060000
436.662323	145.460000
436.756012	145.440000
436.849670	145.380000
436.943390	145.160000
437.037018	145.080000
437.130737	145.020000
437.224365	144.720000
437.318085	145.040000
437.411713	145.300000
437.505432	145.760000
437.599060	146.400000
437.692780	147.200000
437.786407	146.820000
437.880127	146.940000
437.973755	146.980000
438.067474	146.280000
438.161133	145.680000
438.254822	146.220000
438.348480	145.900000
438.442169	146.360000
438.535828	146.800000
438.629517	146.660000
438.723175	146.020000
438.816864	146.540000
438.910553	145.500000
439.004211	145.460000
439.097900	145.380000
439.191559	145.680000
439.285248	144.860000
439.378906	145.560000
439.472626	145.340000
439.566284	145.120000
439.659973	145.220000
439.753632	145.140000
439.847321	145.400000
439.940979	145.420000
440.034698	145.780000
440.128326	145.160000
440.222046	145.400000
440.315674	144.820000
440.409393	145.020000
440.503082	144.860000
440.596741	145.420000
440.690430	145.940000
440.784088	145.820000
440.877777	145.220000
440.971466	145.320000
441.065125	145.080000
441.158813	144.460000
441.252502	144.840000
441.346161	145.300000
441.439850	145.140000
441.533539	145.140000
441.627197	145.720000
441.720886	145.360000
441.814606	145.880000
441.908234	146.440000
442.001953	146.320000
442.095612	146.380000
442.189301	146.900000
442.282959	146.840000
442.376678	146.180000
442.470306	147.260000
442.564026	147.080000
442.657684	146.800000
442.751404	146.400000
442.845032	147.280000
442.938751	146.480000
443.032440	146.700000
443.126099	146.480000
443.219788	146.660000
443.313477	146.420000
443.407166	146.660000
443.500824	146.500000
443.594513	146.900000
443.688202	147.100000
443.781891	146.720000
443.875549	146.580000
443.969238	146.480000
444.062927	146.400000
444.156647	146.080000
444.250275	146.580000
444.343994	146.480000
444.437653	146.680000
444.531372	146.620000
444.625031	146.520000
444.718719	146.020000
444.812378	146.100000
444.906097	145.960000
444.999756	145.500000
445.093445	145.780000
445.187103	146.100000
445.280823	146.800000
445.374512	146.300000
445.468201	146.440000
445.561859	145.980000
445.655548	145.880000
445.749237	144.860000
445.842926	145.140000
445.936615	145.740000
446.030304	145.520000
446.123962	145.800000
446.217651	145.980000
446.311340	146.180000
446.405029	145.640000
446.498749	145.640000
446.592407	145.140000
446.686096	145.440000
446.779755	145.620000
446.873474	145.720000
446.967133	146.200000
447.060852	146.100000
447.154510	145.820000
447.248230	145.640000
447.341858	145.660000
447.435577	145.400000
447.529236	145.100000
447.622955	145.060000
447.716644	144.960000
447.810333	145.360000
447.904022	145.800000
447.997711	146.020000
448.091400	146.260000
448.185059	146.400000
448.278748	146.280000
448.372437	145.960000
448.466125	146.140000
448.559814	145.980000
448.653503	146.500000
448.747192	146.760000
448.840912	146.960000
448.934570	147.200000
449.028290	147.680000
449.121948	146.920000
449.215637	146.200000
449.309296	146.200000
449.403015	146.160000
449.496674	145.860000
449.590393	146.280000
449.684052	146.360000
449.777771	147.140000
449.871429	146.480000
449.965149	146.300000
450.058838	146.240000
450.152527	146.900000
450.246216	146.220000
450.339905	146.520000
450.433594	146.400000
450.527283	146.800000
450.620972	146.140000
450.714661	145.920000
450.808350	146.240000
450.902039	146.600000
450.995728	146.120000
451.089417	145.560000
451.183105	145.840000
451.276794	146.340000
451.370514	145.980000
451.464172	145.440000
451.557892	146.100000
451.651550	145.980000
451.745270	145.420000
451.838928	144.920000
451.932648	145.440000
452.026306	145.780000
452.120026	145.560000
452.213684	145.820000
452.307404	146.580000
452.401062	146.520000
452.494781	146.680000
452.588470	146.700000
452.682159	146.460000
452.775848	146.280000
452.869537	145.880000
452.963226	145.280000
453.056915	145.100000
453.150604	145.160000
453.244293	145.280000
453.337982	145.880000
453.431671	146.300000
453.525360	147.060000
453.619049	146.900000
453.712769	146.820000
453.806427	146.420000
453.900146	145.940000
453.993805	145.380000
454.087555	145.940000
454.181213	146.140000
454.274933	146.080000
454.368591	146.460000
454.462311	146.400000
454.555969	145.700000
454.649689	146.100000
454.743347	146.220000
454.837067	146.800000
454.930756	147.380000
455.024445	147.660000
455.118134	147.400000
455.211853	147.440000
455.305542	146.680000
455.399231	146.320000
455.492920	146.140000
455.586609	145.940000
455.680298	146.240000
455.773987	145.960000
455.867676	146.040000
455.961365	146.540000
456.055084	146.520000
456.148773	146.180000
456.242493	146.480000
456.336151	146.420000
456.429871	146.560000
456.523529	146.820000
456.617249	146.700000
456.710907	147.100000
456.804626	146.940000
456.898315	146.280000
456.992035	146.040000
457.085693	145.780000
457.179413	145.060000
457.273102	145.940000
457.366791	146.260000
457.460480	146.440000
457.554199	147.340000
457.647888	147.600000
457.741577	146.840000
457.835266	146.680000
457.928955	146.560000
458.022644	146.360000
458.116364	146.760000
458.210052	146.700000
458.303741	146.800000
458.397461	146.420000
458.491119	146.060000
458.584839	146.180000
458.678528	145.880000
458.772247	145.780000
458.865906	146.080000
458.959625	146.920000
459.053284	146.420000
459.147003	146.600000
459.240692	147.100000
459.334412	147.300000
459.428070	146.600000
459.521790	146.520000
459.615479	146.340000
459.709198	146.220000
459.802887	145.720000
459.896576	145.540000
459.990265	145.660000
460.083954	146.280000
460.177673	145.820000
460.271362	145.880000
460.365051	145.760000
460.458740	145.660000
460.552429	145.020000
460.646149	145.180000
460.739838	145.040000
460.833527	145.520000
460.927246	145.360000
461.020905	145.340000
461.114655	145.180000
461.208313	145.680000
461.302032	145.020000
461.395691	145.180000
461.489441	145.460000
461.583099	145.600000
461.676819	144.980000
461.770477	145.700000
461.864197	145.600000
461.957916	145.320000
462.051605	144.800000
462.145294	146.140000
462.238983	145.780000
462.332703	146.320000
462.426392	147.060000
462.520081	147.420000
462.613770	146.600000
462.707489	147.120000
462.801178	146.760000
462.894867	146.340000
462.988556	146.440000
463.082275	146.600000
463.175964	146.020000
463.269684	146.420000
463.363342	146.540000
463.457092	146.040000
463.550751	146.300000
463.644470	146.440000
463.738129	146.140000
463.831879	146.220000
463.925537	147.120000
464.019257	146.760000
464.112946	146.920000
464.206665	146.620000
464.300323	146.280000
464.394043	145.800000
464.487762	145.900000
464.581451	146.160000
464.675140	146.460000
464.768829	146.780000
464.862549	146.720000
464.956238	146.660000
465.049927	146.540000
465.143646	146.620000
465.237335	146.400000
465.331024	146.900000
465.424713	147.060000
465.518433	147.000000
465.612152	146.680000
465.705811	146.880000
465.799561	146.460000
465.893219	145.880000
465.986938	145.600000
466.080597	145.560000
466.174347	145.620000
466.268005	145.840000
466.361725	146.080000
466.455414	146.220000
466.549133	146.380000
466.642792	146.480000
466.736542	146.260000
466.830231	146.500000
466.923920	146.380000
467.017609	146.460000
467.111328	145.960000
467.205017	145.960000
467.298706	146.020000
467.392426	146.420000
467.486115	146.560000
467.579803	146.400000
467.673523	146.840000
467.767212	146.960000
467.860901	146.540000
467.954651	146.500000
468.048309	146.880000
468.142029	146.480000
468.235718	146.220000
468.329437	146.200000
468.423096	146.140000
468.516846	146.060000
468.610504	145.960000
468.704224	145.900000
468.797913	145.760000
468.891632	145.740000
468.985291	145.800000
469.079010	145.780000
469.172729	145.360000
469.266418	145.840000
469.360107	145.860000
469.453827	145.660000
469.547516	145.560000
469.641205	146.000000
469.734924	146.080000
469.828613	146.380000
469.922302	146.720000
470.016022	146.840000
470.109711	146.500000
470.203430	145.860000
470.297150	144.960000
470.390808	144.940000
470.484558	144.800000
470.578217	145.540000
470.671936	145.800000
470.765625	146.940000
470.859344	146.800000
470.953003	147.180000
471.046753	146.540000
471.140411	146.160000
471.234131	145.920000
471.327820	146.520000
471.421539	146.500000
471.515228	146.240000
471.608948	146.540000
471.702637	145.940000
471.796326	145.060000
471.890045	145.200000
471.983734	145.860000
472.077423	145.820000
472.171143	146.060000
472.264832	146.440000
472.358521	146.040000
472.452240	145.180000
472.545929	145.960000
472.639648	146.060000
472.733337	146.280000
472.827057	146.560000
472.920746	147.000000
473.014465	147.080000
473.108124	147.120000
473.201874	146.960000
473.295532	146.620000
473.389252	146.860000
473.482941	146.540000
473.576660	146.220000
473.670319	145.900000
473.764069	146.240000
473.857727	146.700000
473.951477	146.600000
474.045166	147.300000
474.138855	147.020000
474.232574	146.840000
474.326263	146.220000
474.419952	146.460000
474.513672	146.160000
474.607361	146.440000
474.701050	146.680000
474.794769	147.060000
474.888458	147.140000
474.982178	147.160000
475.075867	147.140000
475.169586	147.300000
475.263275	146.800000
475.356995	146.400000
475.450653	146.060000
475.544403	146.140000
475.638062	146.220000
475.731812	146.360000
475.825470	146.200000
475.919189	146.360000
476.012878	146.400000
476.106598	145.980000
476.200256	146.240000
476.294006	146.020000
476.387695	146.200000
476.481384	146.020000
476.575104	146.100000
476.668793	145.640000
476.762512	145.620000
476.856201	145.760000
476.949890	145.620000
477.043610	144.860000
477.137299	144.900000
477.230988	145.240000
477.324707	144.960000
477.418396	145.460000
477.512146	145.960000
477.605804	146.080000
477.699524	146.140000
477.793213	145.980000
477.886932	145.640000
477.980591	145.780000
478.074341	145.540000
478.167999	145.060000
478.261749	145.300000
478.355408	145.260000
478.449127	145.540000
478.542816	146.520000
478.636536	147.160000
478.730225	147.220000
478.823944	147.680000
478.917633	147.260000
479.011322	146.740000
479.105042	146.460000
479.198730	146.680000
479.292450	146.220000
479.386139	146.680000
479.479828	146.800000
479.573547	146.960000
479.667267	146.520000
479.760925	146.860000
479.854675	146.900000
479.948334	146.980000
480.042084	146.420000
480.135742	146.720000
480.229462	146.280000
480.323151	145.820000
480.416870	145.160000
480.510529	145.600000
480.604279	144.880000
480.697937	145.220000
480.791656	144.900000
480.885345	144.920000
480.979065	144.940000
481.072754	145.620000
481.166473	145.920000
481.260132	146.160000
481.353882	146.400000
481.447540	146.160000
481.541260	146.120000
481.635010	145.420000
481.728668	145.360000
481.822388	145.020000
481.916077	145.200000
482.009796	144.940000
482.103485	145.260000
482.197205	145.360000
482.290863	145.620000
482.384613	145.460000
482.478271	145.200000
482.571991	145.280000
482.665680	145.460000
482.759399	146.340000
482.853058	146.720000
482.946808	146.880000
483.040466	146.560000
483.134216	146.200000
483.227875	145.280000
483.321594	145.880000
483.415283	145.960000
483.509003	146.020000
483.602661	145.880000
483.696411	146.220000
483.790070	145.500000
483.883789	145.480000
483.977478	146.080000
484.071198	146.420000
484.164917	146.040000
484.258606	145.660000
484.352325	146.060000
484.445984	145.600000
484.539734	145.380000
484.633392	145.080000
484.727142	145.520000
484.820801	145.320000
484.914520	145.500000
485.008209	145.800000
485.101929	146.320000
485.195587	146.060000
485.289337	145.920000
485.382996	146.020000
485.476715	145.900000
485.570404	146.160000
485.664124	146.060000
485.757782	146.180000
485.851532	145.620000
485.945190	145.820000
486.038910	145.840000
486.132599	146.560000
486.226318	146.240000
486.319977	146.540000
486.413727	147.020000
486.507446	146.620000
486.601105	145.560000
486.694855	145.380000
486.788513	145.220000
486.882233	144.700000
486.975922	145.040000
487.069641	145.260000
487.163300	145.560000
487.257050	146.660000
487.350708	146.360000
487.444427	145.840000
487.538116	145.960000
487.631836	145.920000
487.725494	145.420000
487.819214	145.780000
487.912903	145.880000
488.006622	146.420000
488.100281	146.780000
488.194031	146.720000
488.287689	146.840000
488.381409	147.400000
488.475098	147.180000
488.568817	147.040000
488.662476	146.680000
488.756226	146.280000
488.849945	145.380000
488.943604	145.160000
489.037354	145.300000
489.131012	145.260000
489.224731	145.040000
489.318390	145.540000
489.412140	145.580000
489.505798	145.280000
489.599518	144.820000
489.693207	145.360000
489.786926	145.120000
489.880585	145.060000
489.974335	145.400000
490.067993	146.740000
490.161713	146.620000
490.255371	147.060000
490.349121	147.120000
490.442780	146.980000
490.536499	146.040000
490.630188	145.960000
490.723907	145.320000
490.817566	145.320000
490.911285	145.160000
491.004974	145.380000
491.098694	145.120000
491.192413	146.080000
491.286102	145.800000
491.379822	145.760000
491.473480	145.880000
491.567200	146.080000
491.660889	145.440000
491.754608	145.540000
491.848267	145.480000
491.941986	145.280000
492.035675	145.460000
492.129395	145.680000
492.223053	145.720000
492.316772	146.160000
492.410461	145.860000
492.504181	145.660000
492.597839	145.340000
492.691559	145.780000
492.785248	145.720000
492.878967	146.000000
492.972626	145.840000
493.066345	145.980000
493.160034	145.420000
493.253754	144.840000
493.347412	144.480000
493.441132	144.860000
493.534882	144.940000
493.628540	145.360000
493.722260	145.900000
493.815918	146.400000
493.909668	146.800000
494.003326	147.320000
494.097046	147.020000
494.190704	146.740000
494.284454	146.860000
494.378113	146.600000
494.471832	146.160000
494.565491	146.140000
494.659210	146.400000
494.752899	146.180000
494.846619	145.900000
494.940277	145.880000
495.033997	145.680000
495.127686	145.140000
495.221405	145.120000
495.315063	145.100000
495.408783	145.380000
495.502441	145.780000
495.596191	146.220000
495.689850	146.120000
495.783569	146.460000
495.877228	146.340000
495.970947	146.280000
496.064697	145.960000
496.158356	146.640000
496.252075	146.560000
496.345734	146.400000
496.439453	147.020000
496.533142	147.320000
496.626862	147.440000
496.720520	147.520000
496.814240	147.780000
496.907898	147.340000
497.001617	147.580000
497.095306	146.780000
497.189026	146.780000
497.282684	146.700000
497.376404	147.200000
497.470062	146.920000
497.563782	147.360000
497.657471	147.100000
497.751190	146.760000
497.844849	146.300000
497.938568	146.500000
498.032227	146.120000
498.125946	146.140000
498.219635	146.200000
498.313354	146.260000
498.407074	145.780000
498.500732	146.060000
498.594452	146.140000
498.688110	145.960000
498.781830	145.440000
498.875519	145.520000
498.969238	145.120000
499.062897	144.860000
499.156616	145.540000
499.250275	146.060000
499.343994	145.900000
499.437653	146.220000
499.531372	146.560000
499.625061	146.940000
499.718781	146.880000
499.812439	147.620000
499.906158	147.260000
499.999817	147.120000
500.093536	146.420000
500.187195	146.420000
500.280914	145.900000
500.374573	146.200000
500.468323	145.960000
500.561981	145.880000
500.655701	145.420000
500.749420	145.540000
500.843079	145.680000
500.936798	145.880000
501.030457	146.460000
501.124176	146.800000
501.217834	146.720000
501.311554	146.520000
501.405212	146.560000
501.498962	145.860000
501.592621	145.820000
501.686340	146.100000
501.779999	146.140000
501.873718	146.280000
501.967377	146.360000
502.061096	146.460000
502.154755	145.840000
502.248474	145.880000
502.342133	145.920000
502.435852	146.000000
502.529510	146.680000
502.623230	147.680000
502.716888	147.560000
502.810608	147.520000
502.904266	148.020000
502.997986	147.220000
503.091705	146.360000
503.185364	146.400000
503.279083	146.240000
503.372772	145.760000
503.466492	145.380000
503.560150	145.320000
503.653870	145.420000
503.747528	145.460000
503.841248	145.580000
503.934906	146.260000
504.028625	146.340000
504.122284	146.540000
504.216003	147.060000
504.309662	146.820000
504.403381	146.620000
504.497040	146.780000
504.590759	146.600000
504.684418	146.580000
504.778137	147.180000
504.871796	147.660000
504.965515	147.540000
505.059174	147.260000
505.152893	146.580000
505.246521	146.100000
505.340240	145.640000
505.433899	145.900000
505.527618	146.160000
505.621338	146.640000
505.714996	146.380000
505.808716	146.480000
505.902374	146.940000
505.996094	147.140000
506.089752	146.900000
506.183472	147.100000
506.277130	146.980000
506.370850	146.820000
506.464508	146.240000
506.558228	146.580000
506.651886	146.580000
506.745605	146.640000
506.839264	146.640000
506.932983	147.080000
507.026611	146.440000
507.120331	146.820000
507.213989	146.360000
507.307709	146.080000
507.401367	146.340000
507.495087	147.400000
507.588745	146.920000
507.682465	147.840000
507.776123	147.900000
507.869843	147.460000
507.963531	147.020000
508.057190	147.600000
508.150909	146.760000
508.244568	146.800000
508.338287	146.580000
508.431946	146.140000
508.525665	145.680000
508.619324	146.060000
508.713013	146.240000
508.806671	146.660000
508.900391	147.720000
508.994049	147.960000
509.087769	147.620000
509.181427	147.280000
509.275146	146.860000
509.368774	145.660000
509.462494	145.460000
509.556152	145.660000
509.649872	145.920000
509.743530	146.460000
509.837250	146.700000
509.930878	146.680000
510.024597	146.460000
510.118256	146.140000
510.211975	145.720000
510.305695	145.640000
510.399353	145.900000
510.493042	146.380000
510.586700	146.560000
510.680420	147.480000
510.774078	147.460000
510.867798	147.560000
510.961426	146.920000
511.055145	146.880000
511.148804	146.160000
511.242523	146.580000
511.336151	146.280000
511.429871	146.760000
511.523529	146.600000
511.617249	146.380000
511.710876	146.240000
511.804596	145.800000
511.898254	145.880000
511.991974	146.200000
512.085632	146.120000
512.179321	146.120000
512.272949	146.700000
512.366699	146.880000
512.460327	146.460000
512.554077	147.400000
512.647766	147.240000
512.741394	147.180000
512.835144	147.260000
512.928772	147.560000
513.022461	147.040000
513.116150	146.920000
513.209839	147.260000
513.303467	146.900000
513.397217	146.720000
513.490845	146.580000
513.584595	146.440000
513.678223	146.120000
513.771912	145.420000
513.865601	145.600000
513.959290	145.500000
514.052917	146.020000
514.146667	146.380000
514.240295	147.000000
514.333984	147.340000
514.427673	147.280000
514.521362	147.420000
514.614990	146.660000
514.708740	146.940000
514.802368	146.860000
514.896057	146.900000
514.989746	147.260000
515.083435	147.480000
515.177124	147.560000
515.270752	147.120000
515.364502	147.120000
515.458130	146.820000
515.551819	146.580000
515.645508	146.260000
515.739197	146.420000
515.832825	146.540000
515.926575	145.880000
516.020203	146.220000
516.113892	146.900000
516.207520	146.440000
516.301270	146.640000
516.394897	147.220000
516.488586	147.720000
516.582275	147.240000
516.675964	146.980000
516.769592	146.480000
516.863281	146.700000
516.956970	146.560000
517.050659	146.280000
517.144287	146.960000
517.238037	147.200000
517.331665	146.460000
517.425354	146.120000
517.519043	146.140000
517.612732	146.360000
517.706421	146.180000
517.800049	146.180000
517.893738	145.820000
517.987427	145.840000
518.081116	145.440000
518.174744	145.340000
518.268433	145.580000
518.362122	146.440000
518.455811	146.420000
518.549438	147.100000
518.643127	148.380000
518.736816	148.300000
518.830505	147.740000
518.924133	147.900000
519.017822	147.760000
519.111511	146.900000
519.205200	147.460000
519.298828	147.360000
519.392517	146.900000
519.486206	146.960000
519.579895	146.840000
519.673523	146.560000
519.767212	146.600000
519.860901	147.200000
519.954590	146.900000
520.048279	146.580000
520.141907	146.300000
520.235596	147.320000
520.329224	147.260000
520.422974	147.240000
520.516602	147.480000
520.610291	147.500000
520.703918	146.880000
520.797607	146.680000
520.891296	146.840000
520.984985	147.000000
521.078613	147.460000
521.172302	147.000000
521.265930	148.060000
521.359680	148.360000
521.453308	148.320000
521.546997	148.120000
521.640625	148.480000
521.734314	147.560000
521.827942	147.360000
521.921692	147.540000
522.015320	147.540000
522.109009	147.360000
522.202698	147.220000
522.296326	147.200000
522.390015	147.460000
522.483704	147.320000
522.577393	147.100000
522.671021	146.900000
522.764709	146.500000
522.858337	146.420000
522.952026	146.400000
523.045654	147.040000
523.139404	147.900000
523.233032	148.120000
523.326721	147.980000
523.420349	147.800000
523.514038	147.180000
523.607666	147.260000
523.701355	146.840000
523.795044	146.920000
523.888733	147.200000
523.982361	147.680000
524.076050	147.080000
524.169678	147.720000
524.263367	147.360000
524.356995	146.880000
524.450684	146.580000
524.544373	146.300000
524.638062	146.120000
524.731750	146.480000
524.825378	146.720000
524.919067	146.300000
525.012695	146.720000
525.106384	146.380000
525.200012	146.160000
525.293701	146.060000
525.387329	146.740000
525.481018	146.740000
525.574646	147.060000
525.668396	146.960000
525.762024	147.200000
525.855713	147.120000
525.949341	146.620000
526.043030	146.300000
526.136658	146.280000
526.230347	146.020000
526.323975	145.800000
526.417664	145.900000
526.511292	146.160000
526.604980	146.240000
526.698608	146.200000
526.792297	146.080000
526.885925	146.620000
526.979614	146.660000
527.073303	146.480000
527.166931	146.620000
527.260620	146.880000
527.354309	146.940000
527.447998	146.900000
527.541626	146.740000
527.635315	146.960000
527.728943	147.420000
527.822632	147.000000
527.916260	146.900000
528.009949	147.180000
528.103577	147.040000
528.197266	146.180000
528.290894	146.200000
528.384583	146.360000
528.478210	146.380000
528.571899	146.380000
528.665527	146.920000
528.759216	147.180000
528.852844	147.320000
528.946533	147.400000
529.040161	147.380000
529.133850	147.160000
529.227478	147.040000
529.321167	147.100000
529.414856	147.340000
529.508484	147.880000
529.602173	147.640000
529.695801	147.380000
529.789490	147.140000
529.883057	146.860000
529.976746	146.680000
530.070374	147.160000
530.164062	147.260000
530.257690	147.460000
530.351379	147.820000
530.445007	147.900000
530.538696	147.240000
530.632324	147.540000
530.726013	147.280000
530.819641	147.120000
530.913330	146.760000
531.006958	146.760000
531.100647	146.680000
531.194275	146.740000
531.287964	146.220000
531.381592	146.160000
531.475220	146.480000
531.568848	146.280000
531.662537	145.800000
531.756226	146.580000
531.849854	146.600000
531.943542	146.660000
532.037170	146.240000
532.130859	147.140000
532.224487	146.420000
532.318176	146.100000
532.411804	146.780000
532.505432	147.360000
532.599060	147.020000
532.692749	146.820000
532.786377	147.380000
532.880066	146.500000
532.973694	146.040000
533.067383	145.840000
533.161011	146.140000
533.254639	145.920000
533.348267	145.780000
533.441956	146.220000
533.535583	146.020000
533.629272	145.880000
533.722900	145.620000
533.816589	145.740000
533.910156	145.740000
534.003845	145.660000
534.097534	146.240000
534.191162	147.060000
534.284851	147.260000
534.378479	147.220000
534.472107	147.380000
534.565735	146.800000
534.659424	146.480000
534.753052	146.900000
534.846741	146.560000
534.940369	147.160000
535.033997	147.200000
535.127625	147.200000
535.221313	147.380000
535.314941	147.560000
535.408630	146.560000
535.502197	147.180000
535.595886	146.680000
535.689514	146.200000
535.783203	146.360000
535.876831	146.860000
535.970459	146.680000
536.064087	146.560000
536.157776	146.560000
536.251404	146.380000
536.345093	146.360000
536.438721	146.220000
536.532349	146.740000
536.626038	146.600000
536.719666	146.960000
536.813293	146.700000
536.906921	146.860000
537.000610	147.200000
537.094238	147.100000
537.187866	147.020000
537.281494	147.140000
537.375183	146.960000
537.468811	146.600000
537.562439	146.700000
537.656067	146.400000
537.749756	146.260000
537.843384	146.900000
537.937012	147.000000
538.030640	146.780000
538.124329	146.780000
538.217896	147.540000
538.311584	147.140000
538.405212	146.760000
538.498901	146.920000
538.592468	147.420000
538.686157	146.600000
538.779785	145.860000
538.873413	145.960000
538.967102	145.740000
539.060730	145.320000
539.154358	146.220000
539.247986	146.760000
539.341675	146.620000
539.435242	146.900000
539.528931	146.980000
539.622559	146.180000
539.716187	146.860000
539.809814	146.980000
539.903503	146.820000
539.997070	146.760000
540.090759	146.960000
540.184387	146.400000
540.278015	146.880000
540.371643	147.160000
540.465332	147.220000
540.558899	147.260000
540.652588	147.180000
540.746216	146.700000
540.839844	146.920000
540.933472	146.980000
541.027100	146.820000
541.120728	146.840000
541.214417	146.940000
541.308044	146.940000
541.401672	146.760000
541.495300	146.480000
541.588928	146.180000
541.682617	145.800000
541.776184	145.460000
541.869873	145.740000
541.963440	146.160000
542.057129	146.420000
542.150757	146.780000
542.244385	146.540000
542.338013	146.200000
542.431641	146.200000
542.525269	146.160000
542.618958	146.720000
542.712524	147.180000
542.806213	147.120000
542.899780	147.340000
542.993469	146.780000
543.087036	146.060000
543.180725	145.400000
543.274292	146.020000
543.367981	145.980000
543.461548	146.600000
543.555237	146.720000
543.648926	147.460000
543.742493	147.540000
543.836182	147.580000
543.929749	147.840000
544.023437	147.880000
544.117004	147.600000
544.210693	147.300000
544.304260	147.200000
544.397949	147.000000
544.491516	147.420000
544.585205	147.400000
544.678772	146.960000
544.772461	147.140000
544.866028	146.880000
544.959717	146.700000
545.053284	146.500000
545.146973	147.180000
545.240540	147.200000
545.334229	147.960000
545.427795	148.040000
545.521423	148.500000
545.615051	148.120000
545.708679	148.200000
545.802307	147.800000
545.895935	147.740000
545.989624	148.340000
546.083191	148.420000
546.176880	148.440000
546.270447	148.080000
546.364136	148.420000
546.457703	147.740000
546.551331	147.900000
546.644958	148.020000
546.738586	148.540000
546.832214	147.940000
546.925842	147.880000
547.019409	147.700000
547.113098	147.020000
547.206665	146.340000
547.300354	146.640000
547.393921	146.960000
547.487549	147.200000
547.581177	147.180000
547.674805	147.420000
547.768433	146.520000
547.862061	146.080000
547.955627	145.180000
548.049316	145.680000
548.142883	145.980000
548.236572	146.920000
548.330139	146.900000
548.423767	147.300000
548.517456	147.020000
548.611023	146.980000
548.704651	146.120000
548.798279	146.260000
548.891907	146.760000
548.985474	146.920000
549.079163	147.080000
549.172729	147.060000
549.266357	146.720000
549.359985	146.520000
549.453613	145.800000
549.547180	145.220000
549.640869	145.880000
549.734436	145.780000
549.828064	145.920000
549.921631	145.840000
550.015320	145.820000
550.108887	146.140000
550.202515	146.140000
550.296143	145.820000
550.389771	146.440000
550.483337	146.640000
550.576965	146.100000
550.670593	146.540000
550.764221	146.640000
550.857849	146.480000
550.951477	146.000000
551.045105	145.600000
551.138672	145.580000
551.232300	145.140000
551.325928	145.360000
551.419556	146.100000
551.513123	146.320000
551.606750	146.020000
551.700378	146.440000
551.794006	146.600000
551.887573	146.200000
551.981201	146.680000
552.074768	146.520000
552.168457	146.020000
552.262024	146.620000
552.355652	146.560000
552.449219	147.040000
552.542847	147.180000
552.636475	147.480000
552.730103	146.380000
552.823669	146.340000
552.917297	145.500000
553.010864	145.700000
553.104553	145.840000
553.198181	145.680000
553.291748	146.040000
553.385376	146.460000
553.478943	146.400000
553.572571	146.620000
553.666199	146.840000
553.759827	146.620000
553.853394	145.900000
553.947021	145.900000
554.040588	145.600000
554.134216	145.820000
554.227783	146.440000
554.321411	147.280000
554.415039	146.940000
554.508667	146.860000
554.602234	147.040000
554.695862	146.140000
554.789429	146.080000
554.883057	146.280000
554.976624	146.400000
555.070251	146.280000
555.163818	146.400000
555.257507	146.160000
555.351074	146.380000
555.444702	147.280000
555.538330	146.800000
555.631897	147.280000
555.725525	147.120000
555.819092	146.580000
555.912720	145.480000
556.006287	146.200000
556.099915	145.740000
556.193481	145.740000
556.287109	146.440000
556.380676	146.440000
556.474304	146.280000
556.567871	146.280000
556.661499	146.120000
556.755066	146.100000
556.848694	146.300000
556.942261	146.180000
557.035889	146.480000
557.129517	146.600000
557.223145	146.600000
557.316711	146.660000
557.410339	146.880000
557.503906	146.780000
557.597473	147.280000
557.691040	147.000000
557.784668	146.980000
557.878296	146.680000
557.971863	146.700000
558.065491	146.600000
558.159058	146.640000
558.252686	147.220000
558.346252	148.000000
558.439880	147.540000
558.533447	147.020000
558.627075	146.880000
558.720642	146.140000
558.814270	145.620000
558.907837	145.860000
559.001465	145.740000
559.095032	146.220000
559.188660	146.720000
559.282227	146.080000
559.375854	146.540000
559.469360	146.640000
559.562988	146.960000
559.656555	146.820000
559.750183	147.300000
559.843750	147.280000
559.937378	147.300000
560.030945	146.840000
560.124573	0.000000
560.218140	0.000000
560.311707	0.000000
560.405334	0.000000
560.498901	0.000000
560.592529	0.000000
560.686096	0.000000
560.779724	0.000000
560.873291	0.000000
560.966858	0.000000
561.060425	0.000000
561.154053	0.000000
561.247620	0.000000
561.341248	0.000000
561.434814	0.000000
561.528381	0.000000
561.621948	0.000000
561.715576	0.000000
561.809143	0.000000
561.902771	0.000000
561.996277	0.000000
562.089905	0.000000
562.183472	0.000000
562.277100	0.000000
