Model Number: SPM-002-B   
Serial Number: 70087108
Firmware Version: 004.15.4
Exposure Time: 100000.000000us
Data Taken on: 11-12-2020 19:31:41.177
Wavelength	Amplitude
221.570786	0.000000
221.663406	0.000000
221.756027	0.000000
221.848648	0.000000
221.941269	0.000000
222.033905	0.000000
222.126526	0.000000
222.219162	0.000000
222.311798	0.000000
222.404419	0.000000
222.497055	0.000000
222.589676	0.000000
222.682312	0.000000
222.774933	0.000000
222.867569	0.000000
222.960205	0.000000
223.052841	0.000000
223.145462	0.000000
223.238098	0.000000
223.330734	0.000000
223.423386	0.000000
223.516022	0.000000
223.608658	0.000000
223.701309	0.000000
223.793945	0.000000
223.886581	0.000000
223.979218	0.000000
224.071869	0.000000
224.164505	0.000000
224.257156	0.000000
224.349792	0.000000
224.442444	0.000000
224.535095	0.000000
224.627747	0.000000
224.720398	0.000000
224.813034	0.000000
224.905685	0.000000
224.998337	145.680000
225.090988	145.480000
225.183640	145.540000
225.276291	145.240000
225.368942	145.460000
225.461594	146.300000
225.554245	146.300000
225.646912	146.340000
225.739578	146.740000
225.832230	146.880000
225.924896	145.680000
226.017548	146.280000
226.110199	146.560000
226.202866	146.060000
226.295532	145.960000
226.388184	146.000000
226.480850	145.480000
226.573517	144.840000
226.666168	145.040000
226.758835	145.180000
226.851501	145.620000
226.944183	145.520000
227.036850	145.380000
227.129517	145.400000
227.222183	145.580000
227.314850	145.560000
227.407516	146.080000
227.500198	146.960000
227.592865	146.600000
227.685532	146.020000
227.778214	145.680000
227.870880	145.860000
227.963562	145.860000
228.056229	146.620000
228.148926	146.880000
228.241592	147.900000
228.334274	147.320000
228.426956	147.180000
228.519638	146.820000
228.612305	146.460000
228.704987	146.380000
228.797668	146.720000
228.890350	146.420000
228.983032	145.800000
229.075714	146.620000
229.168396	145.760000
229.261108	145.300000
229.353790	145.340000
229.446472	145.940000
229.539169	145.660000
229.631851	145.520000
229.724533	145.900000
229.817230	146.100000
229.909912	147.060000
230.002609	147.040000
230.095306	147.220000
230.187988	147.000000
230.280685	146.920000
230.373383	145.520000
230.466095	145.300000
230.558792	145.640000
230.651474	145.620000
230.744171	145.220000
230.836868	145.060000
230.929581	145.560000
231.022278	145.520000
231.114975	145.680000
231.207672	145.920000
231.300369	146.520000
231.393082	146.260000
231.485779	145.980000
231.578506	146.180000
231.671204	146.320000
231.763916	146.540000
231.856613	146.400000
231.949326	146.580000
232.042023	146.120000
232.134735	145.980000
232.227448	145.540000
232.320160	145.760000
232.412872	145.580000
232.505585	146.320000
232.598297	146.780000
232.691010	146.860000
232.783722	146.320000
232.876450	146.920000
232.969162	146.140000
233.061874	145.540000
233.154587	145.300000
233.247314	145.800000
233.340027	145.260000
233.432739	145.980000
233.525467	145.900000
233.618179	146.320000
233.710907	145.840000
233.803635	146.080000
233.896347	145.740000
233.989090	146.480000
234.081818	146.420000
234.174545	146.760000
234.267258	146.540000
234.359985	146.560000
234.452713	146.340000
234.545441	146.040000
234.638168	145.860000
234.730896	146.280000
234.823639	146.000000
234.916367	146.000000
235.009094	145.820000
235.101822	146.060000
235.194580	145.860000
235.287308	146.120000
235.380051	145.920000
235.472778	146.480000
235.565521	146.400000
235.658249	146.200000
235.750992	146.400000
235.843719	146.660000
235.936462	146.660000
236.029205	146.240000
236.121948	146.240000
236.214691	146.400000
236.307449	146.780000
236.400192	146.500000
236.492935	146.720000
236.585678	146.800000
236.678421	146.720000
236.771164	146.320000
236.863907	146.700000
236.956665	146.880000
237.049408	148.440000
237.142151	147.900000
237.234909	148.660000
237.327652	148.380000
237.420410	147.940000
237.513153	146.760000
237.605927	146.720000
237.698669	145.820000
237.791428	145.560000
237.884186	146.440000
237.976944	145.880000
238.069702	146.220000
238.162445	145.840000
238.255203	145.840000
238.347961	145.680000
238.440720	145.800000
238.533478	145.860000
238.626266	145.780000
238.719025	146.180000
238.811783	146.000000
238.904541	145.880000
238.997314	145.560000
239.090073	145.420000
239.182831	145.500000
239.275604	146.280000
239.368362	146.240000
239.461136	146.360000
239.553909	146.660000
239.646667	146.560000
239.739441	145.740000
239.832214	145.800000
239.925003	146.040000
240.017761	146.980000
240.110535	147.360000
240.203308	147.040000
240.296082	147.420000
240.388855	147.300000
240.481628	146.820000
240.574417	146.620000
240.667191	146.680000
240.759964	146.100000
240.852737	146.120000
240.945526	145.820000
241.038315	145.620000
241.131088	145.880000
241.223877	146.460000
241.316650	146.120000
241.409439	146.660000
241.502228	146.580000
241.595001	147.040000
241.687790	146.540000
241.780579	146.800000
241.873367	146.620000
241.966141	146.920000
242.058929	146.060000
242.151718	146.240000
242.244507	146.460000
242.337311	145.620000
242.430099	145.740000
242.522903	146.040000
242.615692	145.700000
242.708481	145.660000
242.801270	146.220000
242.894073	146.020000
242.986862	146.140000
243.079651	147.000000
243.172455	146.260000
243.265244	146.740000
243.358063	146.060000
243.450867	146.220000
243.543655	146.020000
243.636459	146.360000
243.729263	146.320000
243.822067	146.920000
243.914856	147.140000
244.007660	147.080000
244.100464	147.360000
244.193268	146.760000
244.286072	146.500000
244.378876	145.600000
244.471680	145.620000
244.564499	145.880000
244.657318	146.820000
244.750122	147.020000
244.842926	147.240000
244.935745	147.260000
245.028549	146.840000
245.121368	146.140000
245.214172	146.120000
245.306992	146.900000
245.399796	146.300000
245.492615	146.300000
245.585434	146.200000
245.678253	146.600000
245.771072	146.200000
245.863892	146.880000
245.956711	147.000000
246.049530	146.620000
246.142349	145.920000
246.235168	145.880000
246.327988	146.400000
246.420807	146.380000
246.513626	146.700000
246.606445	146.780000
246.699280	146.560000
246.792099	145.940000
246.884918	145.440000
246.977753	145.160000
247.070587	145.400000
247.163422	145.480000
247.256241	145.360000
247.349075	145.760000
247.441895	145.960000
247.534729	145.800000
247.627563	145.540000
247.720383	146.140000
247.813217	146.000000
247.906052	146.060000
247.998886	146.140000
248.091736	146.240000
248.184570	145.640000
248.277405	145.880000
248.370239	146.760000
248.463074	147.620000
248.555908	147.920000
248.648743	147.920000
248.741592	148.120000
248.834427	147.060000
248.927261	145.840000
249.020111	146.100000
249.112946	146.640000
249.205795	146.080000
249.298630	146.580000
249.391495	146.940000
249.484344	146.280000
249.577179	146.000000
249.670029	146.180000
249.762878	146.420000
249.855728	146.540000
249.948563	146.900000
250.041412	146.320000
250.134262	146.800000
250.227112	146.740000
250.319962	146.540000
250.412827	146.700000
250.505692	146.540000
250.598541	145.860000
250.691391	145.360000
250.784241	145.400000
250.877106	145.480000
250.969955	145.660000
251.062805	146.640000
251.155670	147.240000
251.248520	147.280000
251.341385	147.300000
251.434235	147.180000
251.527100	146.540000
251.619965	146.120000
251.712814	146.840000
251.805695	146.800000
251.898560	146.980000
251.991425	147.100000
252.084290	147.120000
252.177155	146.140000
252.270020	145.540000
252.362885	145.740000
252.455750	145.840000
252.548615	145.640000
252.641479	145.940000
252.734360	146.300000
252.827240	146.220000
252.920105	146.400000
253.012970	146.340000
253.105850	146.380000
253.198715	145.700000
253.291595	145.460000
253.384460	144.880000
253.477341	144.760000
253.570221	144.800000
253.663086	145.260000
253.755966	145.960000
253.848846	146.140000
253.941727	146.560000
254.034592	146.500000
254.127472	145.800000
254.220367	145.760000
254.313248	145.720000
254.406128	145.660000
254.499008	145.920000
254.591904	147.360000
254.684784	147.820000
254.777664	148.080000
254.870544	147.440000
254.963440	147.160000
255.056335	146.840000
255.149216	146.160000
255.242111	146.520000
255.334991	147.260000
255.427887	147.260000
255.520767	147.340000
255.613663	147.720000
255.706558	147.220000
255.799438	147.000000
255.892334	146.900000
255.985229	146.640000
256.078125	146.200000
256.171021	146.240000
256.263916	146.480000
256.356812	146.760000
256.449707	147.060000
256.542603	147.000000
256.635498	147.280000
256.728394	147.200000
256.821289	146.920000
256.914215	146.720000
257.007080	146.980000
257.100006	146.820000
257.192932	146.940000
257.285828	147.200000
257.378723	147.140000
257.471619	146.840000
257.564545	146.400000
257.657440	147.020000
257.750336	147.400000
257.843262	147.380000
257.936157	148.480000
258.029053	148.780000
258.121979	148.260000
258.214874	147.640000
258.307800	147.660000
258.400696	146.680000
258.493622	146.900000
258.586517	146.060000
258.679443	146.360000
258.772339	145.880000
258.865265	145.700000
258.958160	145.120000
259.051086	146.080000
259.144012	145.880000
259.236938	146.800000
259.329834	146.960000
259.422791	146.820000
259.515717	145.980000
259.608612	145.720000
259.701538	145.580000
259.794464	145.460000
259.887390	145.580000
259.980316	145.740000
260.073212	145.680000
260.166138	144.800000
260.259064	145.220000
260.351990	146.000000
260.444916	146.100000
260.537842	146.700000
260.630768	147.460000
260.723694	147.240000
260.816620	146.680000
260.909546	146.840000
261.002472	146.460000
261.095398	145.760000
261.188354	145.660000
261.281281	145.560000
261.374207	145.580000
261.467133	146.200000
261.560089	146.640000
261.653015	146.300000
261.745972	146.980000
261.838867	147.540000
261.931824	147.560000
262.024780	147.040000
262.117706	147.580000
262.210663	147.140000
262.303589	146.560000
262.396515	146.200000
262.489471	147.300000
262.582397	146.840000
262.675354	146.480000
262.768280	146.480000
262.861237	146.560000
262.954163	146.080000
263.047119	146.560000
263.140045	146.620000
263.233002	146.740000
263.325958	146.360000
263.418884	145.880000
263.511841	145.740000
263.604797	145.800000
263.697723	145.460000
263.790680	145.580000
263.883636	146.140000
263.976593	146.040000
264.069550	146.140000
264.162476	146.060000
264.255463	146.160000
264.348419	145.880000
264.441376	145.900000
264.534332	145.440000
264.627289	145.660000
264.720245	145.960000
264.813202	145.560000
264.906158	145.780000
264.999115	146.680000
265.092072	146.700000
265.185028	146.960000
265.277985	147.460000
265.370941	147.380000
265.463898	146.840000
265.556854	146.960000
265.649811	146.180000
265.742798	146.180000
265.835754	146.200000
265.928711	146.920000
266.021667	146.480000
266.114655	146.640000
266.207611	146.840000
266.300568	146.080000
266.393585	145.420000
266.486511	145.900000
266.579498	145.320000
266.672485	145.000000
266.765442	145.240000
266.858429	145.580000
266.951385	145.080000
267.044342	145.260000
267.137329	145.200000
267.230316	145.500000
267.323273	144.960000
267.416260	145.640000
267.509216	145.780000
267.602203	145.700000
267.695160	146.220000
267.788147	146.320000
267.881134	145.480000
267.974091	145.700000
268.067078	145.480000
268.160065	145.000000
268.253052	145.120000
268.346008	145.480000
268.438995	145.160000
268.531982	145.700000
268.624969	145.380000
268.717987	145.520000
268.810944	145.480000
268.903961	145.700000
268.996948	145.000000
269.089905	145.880000
269.182892	146.180000
269.275879	146.540000
269.368866	146.080000
269.461853	146.540000
269.554871	146.080000
269.647858	146.060000
269.740845	146.140000
269.833832	146.740000
269.926819	146.480000
270.019806	146.600000
270.112793	146.120000
270.205811	145.940000
270.298798	145.840000
270.391785	146.700000
270.484772	146.140000
270.577789	146.140000
270.670776	146.280000
270.763763	146.280000
270.856750	146.060000
270.949768	146.340000
271.042786	146.480000
271.135773	145.900000
271.228790	146.080000
271.321808	145.480000
271.414795	145.300000
271.507782	145.100000
271.600800	145.380000
271.693817	145.360000
271.786804	146.000000
271.879822	146.260000
271.972809	146.180000
272.065826	146.700000
272.158844	146.300000
272.251831	146.520000
272.344849	146.440000
272.437866	146.300000
272.530853	145.740000
272.623871	146.120000
272.716888	145.280000
272.809906	145.740000
272.902893	146.120000
272.995911	145.780000
273.088928	145.740000
273.181946	146.200000
273.274963	145.620000
273.367981	145.320000
273.460999	145.740000
273.554047	146.420000
273.647003	146.900000
273.740051	147.160000
273.833069	147.440000
273.926086	147.560000
274.019135	146.580000
274.112152	146.060000
274.205170	146.180000
274.298187	146.500000
274.391205	145.900000
274.484222	145.980000
274.577240	145.840000
274.670258	145.800000
274.763306	145.580000
274.856323	146.280000
274.949341	146.600000
275.042358	147.040000
275.135406	146.680000
275.228424	146.640000
275.321442	146.580000
275.414490	145.980000
275.507507	146.480000
275.600525	147.140000
275.693573	146.780000
275.786591	146.300000
275.879669	146.900000
275.972656	146.080000
276.065735	145.660000
276.158752	146.280000
276.251801	147.420000
276.344818	147.260000
276.437866	147.080000
276.530884	146.820000
276.623932	145.980000
276.716980	145.720000
276.809998	145.760000
276.903046	146.320000
276.996094	147.080000
277.089111	147.980000
277.182159	148.020000
277.275208	147.940000
277.368256	147.160000
277.461304	146.760000
277.554321	145.740000
277.647369	145.880000
277.740417	145.800000
277.833466	145.960000
277.926514	145.680000
278.019562	146.600000
278.112610	145.460000
278.205688	145.660000
278.298706	145.840000
278.391785	145.980000
278.484833	145.360000
278.577881	145.680000
278.670929	145.860000
278.763977	145.900000
278.857025	146.080000
278.950073	146.460000
279.043121	146.380000
279.136169	146.120000
279.229248	145.860000
279.322296	145.560000
279.415344	145.260000
279.508392	145.100000
279.601440	145.080000
279.694519	145.220000
279.787567	144.980000
279.880615	144.780000
279.973694	145.040000
280.066742	145.140000
280.159790	145.160000
280.252869	145.160000
280.345917	145.540000
280.438995	145.700000
280.532074	145.740000
280.625122	146.060000
280.718201	147.160000
280.811279	147.000000
280.904327	146.880000
280.997406	146.920000
281.090454	146.840000
281.183533	146.100000
281.276581	146.140000
281.369659	145.900000
281.462738	145.760000
281.555786	145.660000
281.648865	145.860000
281.741943	145.620000
281.835022	146.060000
281.928070	146.020000
282.021149	145.780000
282.114227	145.320000
282.207306	145.360000
282.300385	145.660000
282.393433	145.840000
282.486511	146.040000
282.579590	146.740000
282.672668	147.240000
282.765747	146.660000
282.858856	146.460000
282.951904	146.420000
283.045013	146.280000
283.138062	146.200000
283.231171	146.300000
283.324249	146.520000
283.417328	146.860000
283.510406	146.480000
283.603485	146.360000
283.696564	146.380000
283.789642	146.360000
283.882751	145.880000
283.975830	146.220000
284.068909	146.000000
284.161987	146.360000
284.255066	145.600000
284.348175	145.680000
284.441254	145.700000
284.534332	146.200000
284.627441	145.740000
284.720520	145.980000
284.813599	146.260000
284.906708	146.420000
284.999786	145.980000
285.092896	145.700000
285.185974	146.680000
285.279053	146.080000
285.372192	145.860000
285.465240	146.500000
285.558380	146.540000
285.651459	145.860000
285.744568	146.860000
285.837677	146.460000
285.930756	146.100000
286.023865	146.440000
286.116943	146.000000
286.210052	145.740000
286.303162	145.820000
286.396240	146.000000
286.489349	145.820000
286.582458	146.320000
286.675568	146.060000
286.768646	146.340000
286.861755	146.580000
286.954865	147.120000
287.047974	146.580000
287.141083	146.200000
287.234161	145.900000
287.327271	145.460000
287.420380	145.680000
287.513519	145.760000
287.606598	146.120000
287.699738	146.120000
287.792816	146.200000
287.885956	145.880000
287.979034	146.220000
288.072174	146.200000
288.165283	146.260000
288.258392	146.340000
288.351501	145.680000
288.444611	145.840000
288.537720	146.220000
288.630859	146.160000
288.723969	146.200000
288.817078	146.720000
288.910187	146.760000
289.003296	146.320000
289.096436	146.360000
289.189545	146.040000
289.282654	145.440000
289.375763	145.600000
289.468903	146.000000
289.562012	146.020000
289.655121	146.280000
289.748260	146.700000
289.841400	146.860000
289.934509	146.500000
290.027649	146.800000
290.120728	146.620000
290.213898	146.520000
290.306976	145.980000
290.400146	146.360000
290.493256	145.900000
290.586395	146.100000
290.679535	146.260000
290.772644	146.340000
290.865784	145.380000
290.958893	145.460000
291.052032	144.980000
291.145172	145.000000
291.238281	144.540000
291.331421	145.040000
291.424561	145.480000
291.517670	145.680000
291.610809	145.780000
291.703949	145.820000
291.797089	145.940000
291.890228	145.460000
291.983337	145.300000
292.076477	145.160000
292.169617	145.840000
292.262756	145.780000
292.355927	145.720000
292.449036	145.360000
292.542206	145.620000
292.635315	145.560000
292.728485	145.800000
292.821625	145.560000
292.914764	146.900000
293.007904	147.040000
293.101044	146.760000
293.194183	146.340000
293.287323	146.840000
293.380463	145.940000
293.473602	145.180000
293.566742	145.580000
293.659882	145.780000
293.753021	145.640000
293.846191	145.720000
293.939331	145.660000
294.032471	145.300000
294.125610	145.160000
294.218781	145.740000
294.311920	146.140000
294.405060	146.460000
294.498230	146.680000
294.591370	147.120000
294.684540	146.200000
294.777679	145.640000
294.870850	146.020000
294.963959	145.840000
295.057159	145.300000
295.150299	145.920000
295.243469	146.140000
295.336609	145.560000
295.429779	145.460000
295.522919	146.160000
295.616089	145.940000
295.709229	146.340000
295.802399	146.840000
295.895569	146.760000
295.988708	146.200000
296.081879	146.440000
296.175018	145.900000
296.268188	145.720000
296.361359	146.080000
296.454529	146.180000
296.547668	145.820000
296.640839	146.000000
296.734009	145.640000
296.827179	145.720000
296.920319	146.000000
297.013519	146.140000
297.106659	146.540000
297.199860	146.620000
297.292999	146.600000
297.386200	146.260000
297.479309	146.040000
297.572510	145.820000
297.665680	145.620000
297.758850	145.580000
297.852020	145.820000
297.945190	145.940000
298.038361	145.580000
298.131531	146.900000
298.224701	146.580000
298.317871	146.180000
298.411072	145.700000
298.504242	145.400000
298.597412	144.340000
298.690582	144.600000
298.783752	144.700000
298.876923	145.280000
298.970093	145.740000
299.063293	146.440000
299.156464	146.700000
299.249634	146.900000
299.342834	147.020000
299.436005	147.400000
299.529205	147.100000
299.622345	146.980000
299.715576	146.420000
299.808716	146.240000
299.901917	145.980000
299.995117	146.180000
300.088287	146.200000
300.181488	146.060000
300.274658	145.960000
300.367828	145.960000
300.461029	145.560000
300.554199	145.500000
300.647400	145.760000
300.740601	146.160000
300.833771	145.560000
300.926971	146.140000
301.020142	145.760000
301.113342	145.980000
301.206512	145.800000
301.299713	146.360000
301.392914	146.020000
301.486084	146.400000
301.579285	146.100000
301.672516	146.300000
301.765686	146.200000
301.858887	146.000000
301.952057	146.020000
302.045288	146.440000
302.138458	146.200000
302.231659	146.100000
302.324860	146.140000
302.418060	145.660000
302.511261	145.240000
302.604462	145.400000
302.697662	145.400000
302.790863	145.400000
302.884064	145.360000
302.977264	145.500000
303.070465	145.800000
303.163666	146.540000
303.256866	146.780000
303.350067	147.100000
303.443268	147.340000
303.536469	147.320000
303.629669	146.560000
303.722870	146.720000
303.816071	146.380000
303.909271	146.260000
304.002472	145.240000
304.095673	145.000000
304.188934	144.100000
304.282104	145.200000
304.375336	145.220000
304.468506	145.660000
304.561768	145.660000
304.654968	146.240000
304.748169	145.380000
304.841370	145.080000
304.934601	145.260000
305.027802	145.180000
305.121002	144.800000
305.214233	144.760000
305.307434	145.100000
305.400665	145.780000
305.493866	145.540000
305.587097	145.900000
305.680298	145.820000
305.773499	146.220000
305.866730	145.660000
305.959930	146.780000
306.053162	146.980000
306.146393	146.840000
306.239594	145.700000
306.332825	145.440000
306.426025	145.420000
306.519287	144.940000
306.612488	145.000000
306.705719	145.820000
306.798920	146.140000
306.892181	145.680000
306.985352	145.480000
307.078613	145.240000
307.171844	145.140000
307.265045	144.460000
307.358276	144.000000
307.451508	144.740000
307.544739	145.400000
307.637970	145.280000
307.731201	145.640000
307.824402	146.660000
307.917633	146.760000
308.010864	147.020000
308.104095	147.360000
308.197327	147.300000
308.290558	146.740000
308.383789	146.120000
308.477020	145.660000
308.570251	145.060000
308.663483	144.760000
308.756714	144.560000
308.849976	144.700000
308.943176	145.120000
309.036438	144.940000
309.129639	145.160000
309.222900	145.480000
309.316101	145.380000
309.409393	144.780000
309.502625	144.800000
309.595856	144.820000
309.689087	144.740000
309.782318	144.680000
309.875580	145.040000
309.968811	145.520000
310.062042	145.320000
310.155273	144.800000
310.248535	145.520000
310.341766	145.220000
310.434998	144.780000
310.528259	144.880000
310.621490	145.500000
310.714722	144.540000
310.807983	144.680000
310.901215	145.180000
310.994476	145.440000
311.087708	145.160000
311.181000	145.640000
311.274200	145.300000
311.367462	144.980000
311.460693	144.740000
311.553986	145.460000
311.647186	145.480000
311.740479	146.140000
311.833710	145.960000
311.926971	145.980000
312.020203	145.040000
312.113464	145.000000
312.206726	144.280000
312.299957	144.760000
312.393219	145.160000
312.486481	145.420000
312.579712	145.380000
312.672974	145.880000
312.766235	145.820000
312.859497	145.660000
312.952759	145.820000
313.045990	146.440000
313.139252	145.880000
313.232513	146.220000
313.325775	146.660000
313.419037	146.440000
313.512299	145.760000
313.605530	146.580000
313.698822	146.340000
313.792053	145.800000
313.885345	145.480000
313.978577	145.560000
314.071869	144.860000
314.165131	145.140000
314.258392	145.440000
314.351654	146.020000
314.444916	145.420000
314.538177	146.280000
314.631439	146.400000
314.724701	146.000000
314.817993	145.520000
314.911255	146.180000
315.004517	145.280000
315.097778	144.860000
315.191040	145.540000
315.284302	146.280000
315.377594	145.920000
315.470856	146.000000
315.564117	145.240000
315.657379	144.740000
315.750671	144.320000
315.843933	144.660000
315.937195	144.640000
316.030518	144.880000
316.123749	144.920000
316.217041	145.440000
316.310303	145.340000
316.403595	145.840000
316.496857	146.480000
316.590149	146.580000
316.683411	145.820000
316.776703	145.820000
316.869965	145.600000
316.963257	145.280000
317.056519	144.720000
317.149811	144.560000
317.243073	144.440000
317.336365	144.480000
317.429626	144.740000
317.522919	145.520000
317.616180	145.860000
317.709473	145.720000
317.802765	145.680000
317.896027	145.760000
317.989319	146.000000
318.082611	145.940000
318.175873	145.800000
318.269165	145.820000
318.362488	145.640000
318.455750	145.120000
318.549042	145.700000
318.642303	146.260000
318.735626	146.180000
318.828888	146.540000
318.922211	146.420000
319.015472	146.580000
319.108765	145.840000
319.202057	145.540000
319.295349	145.340000
319.388641	145.240000
319.481934	144.740000
319.575226	144.760000
319.668518	145.000000
319.761810	144.820000
319.855103	145.060000
319.948395	145.000000
320.041687	145.540000
320.134979	145.300000
320.228271	145.320000
320.321564	145.180000
320.414856	145.320000
320.508148	145.000000
320.601440	145.220000
320.694763	144.980000
320.788025	145.640000
320.881348	145.500000
320.974640	145.640000
321.067963	145.460000
321.161224	145.980000
321.254547	145.320000
321.347839	145.980000
321.441162	145.660000
321.534454	145.700000
321.627747	145.460000
321.721069	146.040000
321.814362	145.540000
321.907654	145.860000
322.000946	146.040000
322.094269	146.220000
322.187561	145.540000
322.280884	145.840000
322.374176	146.080000
322.467468	146.500000
322.560791	146.380000
322.654083	146.660000
322.747406	146.340000
322.840698	146.060000
322.934021	145.940000
323.027344	145.880000
323.120636	145.640000
323.213959	145.760000
323.307251	145.700000
323.400574	145.160000
323.493866	144.920000
323.587219	145.540000
323.680511	145.580000
323.773834	145.560000
323.867157	145.760000
323.960449	145.900000
324.053772	145.140000
324.147095	145.100000
324.240387	145.740000
324.333710	146.180000
324.427032	146.180000
324.520355	146.380000
324.613647	145.740000
324.706970	145.140000
324.800293	144.800000
324.893616	144.920000
324.986938	145.320000
325.080231	145.740000
325.173553	146.320000
325.266876	146.660000
325.360199	146.860000
325.453522	146.220000
325.546875	145.740000
325.640167	145.440000
325.733521	145.160000
325.826813	145.340000
325.920166	145.220000
326.013489	145.440000
326.106812	144.740000
326.200134	144.840000
326.293457	144.280000
326.386780	144.700000
326.480103	144.620000
326.573425	144.800000
326.666748	144.440000
326.760071	145.000000
326.853424	145.020000
326.946747	145.260000
327.040070	146.140000
327.133392	146.160000
327.226715	145.120000
327.320068	144.680000
327.413391	145.120000
327.506714	144.380000
327.600037	144.280000
327.693390	144.740000
327.786713	144.900000
327.880066	144.780000
327.973358	144.920000
328.066742	145.740000
328.160034	145.980000
328.253418	146.440000
328.346710	146.380000
328.440063	146.160000
328.533417	145.560000
328.626740	145.920000
328.720093	145.320000
328.813416	145.260000
328.906769	145.760000
329.000092	145.900000
329.093445	145.320000
329.186768	145.440000
329.280121	145.780000
329.373444	145.860000
329.466797	145.940000
329.560120	146.320000
329.653473	146.640000
329.746796	146.140000
329.840149	146.020000
329.933502	145.840000
330.026825	145.660000
330.120178	145.340000
330.213562	145.340000
330.306854	145.080000
330.400238	145.140000
330.493561	144.800000
330.586945	145.620000
330.680237	145.700000
330.773621	145.620000
330.866974	145.660000
330.960327	145.960000
331.053680	145.400000
331.147003	145.480000
331.240356	145.960000
331.333710	145.980000
331.427063	145.760000
331.520416	145.940000
331.613770	145.780000
331.707123	145.640000
331.800476	145.700000
331.893829	146.540000
331.987152	146.420000
332.080505	146.660000
332.173859	146.540000
332.267212	146.020000
332.360565	145.240000
332.453918	145.120000
332.547333	144.720000
332.640656	144.780000
332.734039	145.060000
332.827362	145.200000
332.920746	145.400000
333.014069	145.680000
333.107452	146.180000
333.200806	146.360000
333.294159	146.560000
333.387543	146.260000
333.480896	145.820000
333.574249	145.160000
333.667603	145.120000
333.760956	145.200000
333.854340	145.120000
333.947693	145.220000
334.041046	145.460000
334.134430	145.600000
334.227783	145.260000
334.321136	145.500000
334.414520	145.480000
334.507874	145.480000
334.601227	145.420000
334.694611	145.140000
334.787964	145.080000
334.881348	145.460000
334.974701	145.340000
335.068085	144.960000
335.161438	145.440000
335.254822	145.380000
335.348175	145.120000
335.441559	144.740000
335.534943	145.320000
335.628296	144.880000
335.721680	144.720000
335.815033	145.060000
335.908417	145.540000
336.001770	145.460000
336.095154	145.580000
336.188538	145.440000
336.281891	144.940000
336.375275	144.540000
336.468658	143.960000
336.562012	144.240000
336.655396	144.720000
336.748779	145.280000
336.842133	145.760000
336.935516	146.280000
337.028900	145.720000
337.122284	145.480000
337.215637	145.340000
337.309021	144.980000
337.402435	144.440000
337.495789	144.660000
337.589203	144.680000
337.682526	144.340000
337.775940	144.960000
337.869324	145.540000
337.962708	145.180000
338.056091	145.880000
338.149475	145.600000
338.242859	145.260000
338.336243	144.780000
338.429626	145.340000
338.523010	144.880000
338.616394	145.220000
338.709778	145.400000
338.803162	145.780000
338.896545	145.980000
338.989929	145.480000
339.083313	145.960000
339.176697	145.580000
339.270081	145.380000
339.363464	145.420000
339.456848	145.920000
339.550232	145.040000
339.643616	144.840000
339.737030	144.960000
339.830383	144.720000
339.923828	144.620000
340.017181	145.140000
340.110596	145.460000
340.203949	145.400000
340.297363	145.000000
340.390778	145.020000
340.484161	145.000000
340.577545	144.880000
340.670959	145.380000
340.764343	145.820000
340.857727	146.140000
340.951111	145.660000
341.044525	145.860000
341.137909	144.940000
341.231293	144.560000
341.324707	143.900000
341.418091	144.660000
341.511505	144.600000
341.604889	145.160000
341.698303	145.220000
341.791687	145.580000
341.885071	145.060000
341.978485	144.720000
342.071899	144.780000
342.165283	145.320000
342.258698	145.380000
342.352081	146.020000
342.445496	146.860000
342.538879	146.720000
342.632324	146.240000
342.725708	146.020000
342.819122	145.320000
342.912506	144.880000
343.005920	144.940000
343.099335	145.780000
343.192719	145.800000
343.286133	146.200000
343.379547	146.620000
343.472931	146.620000
343.566345	146.120000
343.659760	146.600000
343.753143	146.400000
343.846558	145.780000
343.939972	145.660000
344.033386	146.100000
344.126770	145.460000
344.220184	145.540000
344.313599	145.960000
344.407043	146.020000
344.500427	145.080000
344.593872	145.880000
344.687225	145.620000
344.780670	144.960000
344.874054	144.880000
344.967499	145.860000
345.060913	145.740000
345.154327	146.000000
345.247742	146.280000
345.341156	146.160000
345.434570	145.660000
345.527985	145.440000
345.621399	145.600000
345.714813	145.380000
345.808228	146.080000
345.901642	145.720000
345.995056	145.380000
346.088470	145.240000
346.181885	145.460000
346.275299	144.660000
346.368713	145.020000
346.462128	144.980000
346.555573	145.000000
346.648987	145.140000
346.742401	145.320000
346.835815	145.540000
346.929260	145.500000
347.022644	145.660000
347.116119	145.820000
347.209503	146.000000
347.302948	146.580000
347.396362	147.240000
347.489807	147.320000
347.583221	147.820000
347.676636	147.520000
347.770050	146.400000
347.863495	145.800000
347.956909	145.760000
348.050323	144.780000
348.143768	144.900000
348.237183	145.040000
348.330597	145.460000
348.424042	145.320000
348.517456	146.120000
348.610901	146.720000
348.704315	146.540000
348.797760	146.020000
348.891174	145.660000
348.984619	144.820000
349.078033	144.940000
349.171448	145.660000
349.264923	145.840000
349.358337	146.080000
349.451782	146.460000
349.545197	145.340000
349.638641	144.680000
349.732086	144.200000
349.825500	144.580000
349.918945	144.360000
350.012390	145.400000
350.105804	146.040000
350.199249	146.500000
350.292664	146.560000
350.386108	146.520000
350.479553	146.400000
350.572968	146.260000
350.666412	146.620000
350.759857	146.500000
350.853302	147.140000
350.946716	146.660000
351.040161	146.640000
351.133606	146.320000
351.227081	146.180000
351.320465	146.560000
351.413940	146.980000
351.507355	147.020000
351.600830	147.140000
351.694244	146.680000
351.787720	146.180000
351.881104	145.900000
351.974579	145.620000
352.067993	146.200000
352.161469	146.540000
352.254883	146.040000
352.348358	146.000000
352.441803	146.020000
352.535248	145.580000
352.628693	145.920000
352.722137	146.060000
352.815582	146.180000
352.909027	146.240000
353.002472	145.860000
353.095917	145.520000
353.189362	145.840000
353.282806	145.540000
353.376251	145.320000
353.469696	145.200000
353.563141	145.600000
353.656586	145.340000
353.750061	145.200000
353.843475	145.440000
353.936981	146.320000
354.030396	145.980000
354.123871	146.160000
354.217285	146.980000
354.310760	147.280000
354.404175	146.680000
354.497681	146.340000
354.591095	146.000000
354.684570	145.280000
354.777985	144.800000
354.871490	144.660000
354.964935	145.260000
355.058380	145.480000
355.151855	145.400000
355.245300	145.820000
355.338745	146.220000
355.432220	146.100000
355.525665	145.860000
355.619110	146.140000
355.712585	145.840000
355.806030	145.740000
355.899475	145.520000
355.992950	145.660000
356.086426	146.100000
356.179871	146.000000
356.273346	145.920000
356.366791	146.140000
356.460266	146.420000
356.553711	145.660000
356.647186	145.820000
356.740631	145.580000
356.834106	145.040000
356.927551	145.140000
357.021027	145.360000
357.114471	145.640000
357.207947	145.960000
357.301422	146.480000
357.394867	146.560000
357.488342	146.680000
357.581818	146.360000
357.675262	146.200000
357.768738	145.900000
357.862213	145.240000
357.955658	145.360000
358.049133	145.120000
358.142609	145.420000
358.236053	145.400000
358.329529	145.540000
358.423035	145.840000
358.516449	145.780000
358.609955	146.420000
358.703400	147.140000
358.796906	147.240000
358.890350	146.520000
358.983826	146.880000
359.077271	145.580000
359.170776	145.100000
359.264221	144.920000
359.357727	145.200000
359.451172	145.600000
359.544647	146.140000
359.638123	145.860000
359.731598	146.400000
359.825073	146.800000
359.918549	146.360000
360.012024	146.300000
360.105499	146.220000
360.198975	145.960000
360.292450	145.900000
360.385925	146.000000
360.479401	145.740000
360.572876	145.820000
360.666351	146.180000
360.759857	146.000000
360.853302	145.900000
360.946808	145.640000
361.040253	146.040000
361.133759	145.420000
361.227203	145.360000
361.320709	145.080000
361.414154	145.580000
361.507660	145.760000
361.601105	146.260000
361.694641	146.740000
361.788086	146.800000
361.881592	147.240000
361.975067	146.640000
362.068542	146.700000
362.162018	146.480000
362.255524	146.340000
362.348999	146.160000
362.442474	146.760000
362.535950	146.160000
362.629456	146.060000
362.722931	146.260000
362.816406	146.540000
362.909882	146.620000
363.003387	146.680000
363.096863	147.000000
363.190338	146.920000
363.283875	146.540000
363.377319	146.400000
363.470825	146.880000
363.564301	146.300000
363.657806	146.600000
363.751282	146.320000
363.844788	146.540000
363.938232	146.160000
364.031769	146.720000
364.125214	146.640000
364.218750	146.840000
364.312225	145.780000
364.405731	145.420000
364.499207	144.640000
364.592712	144.300000
364.686188	144.360000
364.779694	144.860000
364.873169	145.320000
364.966675	145.540000
365.060150	145.820000
365.153656	146.120000
365.247131	146.320000
365.340637	146.720000
365.434143	147.180000
365.527618	147.400000
365.621155	146.520000
365.714600	146.380000
365.808136	146.220000
365.901611	145.260000
365.995117	144.920000
366.088593	144.960000
366.182129	144.880000
366.275604	144.840000
366.369110	145.180000
366.462585	145.240000
366.556122	146.020000
366.649567	146.300000
366.743103	146.540000
366.836609	146.780000
366.930115	147.100000
367.023590	146.780000
367.117096	146.480000
367.210602	146.140000
367.304108	146.960000
367.397614	147.140000
367.491119	147.340000
367.584595	147.560000
367.678101	147.620000
367.771606	146.460000
367.865112	145.900000
367.958649	145.160000
368.052124	144.680000
368.145660	144.760000
368.239136	145.760000
368.332672	146.220000
368.426147	146.920000
368.519684	146.980000
368.613159	147.020000
368.706696	146.400000
368.800171	146.200000
368.893707	145.980000
368.987183	145.920000
369.080719	145.700000
369.174225	145.380000
369.267731	145.640000
369.361237	145.680000
369.454742	145.880000
369.548248	146.360000
369.641754	146.140000
369.735260	146.020000
369.828766	145.120000
369.922272	145.800000
370.015808	145.340000
370.109314	145.560000
370.202820	145.320000
370.296356	146.700000
370.389832	145.760000
370.483368	145.540000
370.576874	145.580000
370.670410	145.620000
370.763885	144.540000
370.857422	144.660000
370.950928	145.020000
371.044464	145.840000
371.137939	145.920000
371.231476	146.540000
371.324982	147.380000
371.418518	147.240000
371.512024	146.640000
371.605560	146.380000
371.699066	146.500000
371.792572	145.980000
371.886108	146.160000
371.979614	146.120000
372.073120	146.680000
372.166656	146.280000
372.260162	146.360000
372.353668	146.240000
372.447205	146.100000
372.540710	145.700000
372.634277	145.640000
372.727753	145.740000
372.821320	145.800000
372.914795	146.060000
373.008362	146.060000
373.101837	146.400000
373.195404	146.080000
373.288879	145.820000
373.382446	146.180000
373.475922	146.240000
373.569489	146.640000
373.662964	146.900000
373.756531	147.060000
373.850037	146.980000
373.943573	146.760000
374.037109	145.720000
374.130615	146.180000
374.224152	146.520000
374.317657	145.940000
374.411194	146.940000
374.504730	147.320000
374.598236	146.780000
374.691772	146.300000
374.785309	146.440000
374.878815	145.200000
374.972351	145.420000
375.065887	145.420000
375.159454	145.940000
375.252930	145.960000
375.346497	146.400000
375.440002	146.940000
375.533569	146.900000
375.627045	146.240000
375.720612	146.380000
375.814117	146.980000
375.907684	146.320000
376.001160	146.160000
376.094727	146.000000
376.188232	146.480000
376.281799	146.020000
376.375336	145.860000
376.468872	146.400000
376.562408	146.580000
376.655914	146.040000
376.749451	146.080000
376.842987	146.260000
376.936523	145.960000
377.030060	145.960000
377.123596	145.940000
377.217133	145.520000
377.310669	145.340000
377.404205	145.460000
377.497772	146.040000
377.591278	145.880000
377.684845	146.440000
377.778351	146.980000
377.871918	146.820000
377.965424	146.020000
378.058990	146.020000
378.152496	145.560000
378.246063	145.520000
378.339569	145.680000
378.433136	145.600000
378.526642	145.920000
378.620209	146.240000
378.713745	146.120000
378.807312	146.540000
378.900848	146.800000
378.994385	146.840000
379.087921	146.100000
379.181458	145.960000
379.274994	145.080000
379.368530	145.040000
379.462097	144.920000
379.555634	145.600000
379.649170	145.160000
379.742706	145.240000
379.836273	145.780000
379.929810	145.440000
380.023376	144.980000
380.116882	145.300000
380.210449	145.320000
380.303986	144.800000
380.397552	144.900000
380.491058	145.140000
380.584656	145.040000
380.678162	145.580000
380.771729	145.680000
380.865265	146.240000
380.958832	146.260000
381.052368	146.400000
381.145935	146.300000
381.239471	146.720000
381.333008	146.400000
381.426575	146.540000
381.520111	147.040000
381.613647	147.180000
381.707214	146.820000
381.800751	146.100000
381.894318	146.180000
381.987854	145.520000
382.081421	145.080000
382.174988	145.300000
382.268524	145.640000
382.362091	145.380000
382.455627	146.400000
382.549194	146.400000
382.642731	145.620000
382.736298	145.460000
382.829834	145.420000
382.923401	145.220000
383.016937	145.320000
383.110504	145.980000
383.204041	146.340000
383.297607	146.620000
383.391174	145.620000
383.484741	146.140000
383.578278	145.740000
383.671844	145.220000
383.765411	144.600000
383.858948	145.220000
383.952515	145.100000
384.046051	145.760000
384.139618	146.360000
384.233185	146.780000
384.326721	146.400000
384.420288	146.900000
384.513855	146.540000
384.607422	147.000000
384.700989	147.520000
384.794525	147.280000
384.888123	146.540000
384.981659	146.920000
385.075226	146.180000
385.168762	145.620000
385.262360	145.960000
385.355896	145.260000
385.449463	144.680000
385.542999	144.780000
385.636597	145.440000
385.730164	145.540000
385.823730	145.600000
385.917267	145.700000
386.010834	145.920000
386.104401	145.540000
386.197968	145.740000
386.291534	146.540000
386.385101	146.640000
386.478668	146.840000
386.572235	146.860000
386.665802	146.300000
386.759338	145.680000
386.852905	145.440000
386.946472	145.140000
387.040070	145.360000
387.133606	145.640000
387.227203	145.840000
387.320740	146.180000
387.414337	146.020000
387.507874	145.640000
387.601471	145.760000
387.695007	145.380000
387.788605	145.380000
387.882141	145.620000
387.975739	145.540000
388.069275	145.380000
388.162872	145.860000
388.256439	145.700000
388.350037	145.420000
388.443604	145.360000
388.537170	145.500000
388.630737	146.040000
388.724304	146.240000
388.817871	146.120000
388.911438	146.100000
389.005005	146.200000
389.098602	146.160000
389.192169	145.640000
389.285736	146.200000
389.379333	146.240000
389.472870	145.700000
389.566467	145.400000
389.660034	145.380000
389.753632	144.960000
389.847168	145.340000
389.940765	145.800000
390.034332	145.740000
390.127930	145.560000
390.221466	145.500000
390.315063	144.920000
390.408630	144.080000
390.502228	143.520000
390.595795	144.120000
390.689362	144.400000
390.782959	144.880000
390.876526	145.820000
390.970093	145.760000
391.063690	146.220000
391.157257	146.360000
391.250824	146.720000
391.344421	146.320000
391.437988	146.900000
391.531555	146.940000
391.625153	147.020000
391.718750	146.800000
391.812317	146.840000
391.905914	146.540000
391.999481	145.980000
392.093079	145.600000
392.186615	145.780000
392.280243	145.920000
392.373779	146.000000
392.467407	146.400000
392.560944	146.680000
392.654572	146.300000
392.748108	146.120000
392.841736	146.200000
392.935303	145.980000
393.028900	145.740000
393.122467	145.920000
393.216064	145.820000
393.309631	145.440000
393.403229	144.920000
393.496796	144.680000
393.590393	144.040000
393.683990	144.360000
393.777557	144.980000
393.871155	145.240000
393.964722	145.860000
394.058350	146.200000
394.151917	146.280000
394.245514	146.000000
394.339081	146.380000
394.432678	146.640000
394.526245	146.460000
394.619873	145.920000
394.713409	146.080000
394.807037	145.680000
394.900604	145.380000
394.994202	145.600000
395.087769	146.060000
395.181396	145.660000
395.274994	146.580000
395.368561	145.960000
395.462158	146.120000
395.555756	145.800000
395.649353	146.300000
395.742920	145.600000
395.836517	146.360000
395.930115	145.560000
396.023712	145.960000
396.117279	145.720000
396.210876	145.380000
396.304474	144.900000
396.398071	145.700000
396.491669	145.740000
396.585266	145.380000
396.678833	145.360000
396.772461	146.000000
396.866028	145.740000
396.959656	145.760000
397.053223	146.680000
397.146851	147.020000
397.240417	147.280000
397.334015	148.500000
397.427582	149.220000
397.521210	150.080000
397.614807	151.780000
397.708405	153.540000
397.802002	155.760000
397.895599	159.720000
397.989197	164.280000
398.082794	169.580000
398.176392	176.700000
398.269989	184.320000
398.363586	193.320000
398.457184	204.480000
398.550781	217.120000
398.644379	229.180000
398.737976	243.340000
398.831573	257.840000
398.925201	272.360000
399.018768	287.960000
399.112396	305.600000
399.205963	324.000000
399.299591	344.520000
399.393158	366.500000
399.486786	390.000000
399.580353	413.460000
399.673981	435.860000
399.767578	457.340000
399.861206	475.680000
399.954773	489.500000
400.048401	495.940000
400.141998	496.880000
400.235596	490.900000
400.329193	480.160000
400.422791	466.100000
400.516418	452.220000
400.610016	438.460000
400.703613	424.400000
400.797211	407.780000
400.890808	391.000000
400.984436	373.340000
401.078033	352.920000
401.171631	332.100000
401.265259	312.300000
401.358826	292.300000
401.452484	272.240000
401.546051	254.500000
401.639679	236.500000
401.733246	221.280000
401.826904	206.780000
401.920471	194.140000
402.014099	183.440000
402.107697	175.080000
402.201324	168.200000
402.294891	163.080000
402.388550	159.460000
402.482147	156.200000
402.575745	153.660000
402.669373	151.140000
402.762970	149.520000
402.856567	148.540000
402.950195	148.160000
403.043793	147.760000
403.137390	148.320000
403.231018	147.320000
403.324615	147.500000
403.418243	146.820000
403.511841	146.860000
403.605469	146.320000
403.699066	147.200000
403.792694	146.860000
403.886292	147.220000
403.979919	147.240000
404.073517	146.940000
404.167145	146.960000
404.260712	146.860000
404.354370	146.720000
404.447937	146.760000
404.541595	147.220000
404.635162	147.140000
404.728821	147.340000
404.822418	146.760000
404.916046	146.540000
405.009644	146.600000
405.103271	146.840000
405.196899	146.340000
405.290497	147.020000
405.384125	147.380000
405.477722	146.920000
405.571350	146.200000
405.664948	146.880000
405.758575	146.380000
405.852203	145.800000
405.945801	145.860000
406.039429	146.260000
406.133057	145.680000
406.226654	145.760000
406.320312	145.960000
406.413879	145.900000
406.507538	145.920000
406.601135	145.540000
406.694763	146.040000
406.788361	145.600000
406.882019	145.360000
406.975586	145.600000
407.069244	146.420000
407.162872	146.460000
407.256470	146.820000
407.350098	146.880000
407.443726	146.480000
407.537323	145.960000
407.630951	145.900000
407.724579	145.400000
407.818207	145.800000
407.911804	145.600000
408.005432	145.780000
408.099060	145.840000
408.192688	146.540000
408.286285	146.100000
408.379913	146.020000
408.473572	146.100000
408.567169	145.460000
408.660828	145.320000
408.754395	145.300000
408.848053	145.500000
408.941650	145.760000
409.035309	145.420000
409.128906	145.520000
409.222565	145.760000
409.316132	145.600000
409.409790	145.100000
409.503387	145.540000
409.597046	145.580000
409.690674	145.540000
409.784302	145.800000
409.877930	145.580000
409.971558	145.640000
410.065186	145.400000
410.158783	145.260000
410.252411	145.340000
410.346039	145.720000
410.439667	145.520000
410.533295	146.040000
410.626923	146.440000
410.720551	146.120000
410.814209	146.740000
410.907806	146.940000
411.001465	146.080000
411.095062	146.040000
411.188721	146.420000
411.282318	145.880000
411.375977	145.540000
411.469574	145.800000
411.563232	145.640000
411.656830	145.320000
411.750488	145.100000
411.844086	145.260000
411.937744	145.440000
412.031372	145.520000
412.125000	145.640000
412.218628	145.860000
412.312256	146.580000
412.405884	146.940000
412.499512	146.760000
412.593170	146.700000
412.686798	146.900000
412.780426	146.000000
412.874054	145.760000
412.967682	145.820000
413.061310	146.460000
413.154968	146.060000
413.248566	146.260000
413.342224	146.340000
413.435852	146.340000
413.529510	145.720000
413.623108	145.860000
413.716766	145.900000
413.810364	145.960000
413.904022	145.700000
413.997650	145.420000
414.091309	146.220000
414.184906	146.080000
414.278564	145.700000
414.372192	146.200000
414.465851	146.400000
414.559479	145.680000
414.653107	146.640000
414.746735	146.600000
414.840393	146.580000
414.934021	146.820000
415.027649	146.580000
415.121277	146.260000
415.214935	146.760000
415.308563	146.600000
415.402191	146.100000
415.495850	146.080000
415.589478	145.720000
415.683136	145.180000
415.776733	145.300000
415.870422	146.160000
415.964020	145.940000
416.057678	145.960000
416.151306	145.840000
416.244965	145.720000
416.338562	145.240000
416.432251	145.980000
416.525848	146.480000
416.619507	147.100000
416.713165	147.520000
416.806793	147.640000
416.900421	147.580000
416.994080	147.000000
417.087708	146.860000
417.181366	146.120000
417.274994	145.960000
417.368622	145.880000
417.462280	146.400000
417.555908	146.280000
417.649567	146.160000
417.743195	145.980000
417.836853	145.900000
417.930481	146.120000
418.024170	146.300000
418.117767	146.860000
418.211426	147.460000
418.305054	147.500000
418.398712	146.780000
418.492340	146.560000
418.585999	146.840000
418.679626	146.580000
418.773285	146.620000
418.866913	146.980000
418.960571	147.200000
419.054230	147.340000
419.147858	147.540000
419.241516	147.560000
419.335144	147.080000
419.428802	147.080000
419.522461	146.500000
419.616089	145.920000
419.709747	145.880000
419.803375	146.360000
419.897034	146.020000
419.990662	146.060000
420.084320	146.760000
420.177979	147.000000
420.271606	147.080000
420.365295	147.440000
420.458893	147.700000
420.552582	147.560000
420.646210	147.620000
420.739868	147.140000
420.833496	146.740000
420.927155	146.240000
421.020782	145.940000
421.114471	145.220000
421.208069	145.540000
421.301758	145.920000
421.395386	146.260000
421.489044	146.460000
421.582703	146.620000
421.676361	146.980000
421.769989	146.760000
421.863647	147.140000
421.957306	147.040000
422.050934	147.360000
422.144592	147.100000
422.238251	146.900000
422.331909	146.300000
422.425537	145.980000
422.519196	145.740000
422.612854	145.360000
422.706543	145.060000
422.800140	145.400000
422.893829	145.480000
422.987457	145.300000
423.081146	145.380000
423.174744	146.320000
423.268433	145.640000
423.362061	145.580000
423.455750	145.500000
423.549347	145.440000
423.643036	144.720000
423.736664	145.520000
423.830353	145.800000
423.924011	146.340000
424.017639	146.120000
424.111298	146.260000
424.204956	146.240000
424.298615	146.060000
424.392273	145.740000
424.485931	146.240000
424.579559	146.380000
424.673218	145.900000
424.766876	145.800000
424.860535	145.680000
424.954193	145.200000
425.047882	145.600000
425.141510	145.840000
425.235199	146.080000
425.328796	145.900000
425.422485	145.920000
425.516113	145.540000
425.609802	145.540000
425.703430	145.580000
425.797119	145.840000
425.890747	146.080000
425.984436	145.860000
426.078064	145.980000
426.171753	146.040000
426.265411	145.920000
426.359070	145.840000
426.452728	145.900000
426.546356	145.540000
426.640015	144.880000
426.733673	144.760000
426.827332	144.500000
426.920990	145.460000
427.014648	145.540000
427.108307	146.060000
427.201965	146.680000
427.295624	147.000000
427.389282	145.800000
427.482941	145.900000
427.576630	145.720000
427.670258	144.880000
427.763947	144.840000
427.857574	145.160000
427.951263	145.060000
428.044922	144.860000
428.138611	145.180000
428.232239	145.360000
428.325928	145.820000
428.419556	146.100000
428.513245	146.240000
428.606903	146.480000
428.700562	146.120000
428.794220	145.460000
428.887878	145.080000
428.981537	145.340000
429.075195	145.400000
429.168854	145.840000
429.262512	145.980000
429.356201	146.180000
429.449860	145.780000
429.543518	145.420000
429.637177	145.560000
429.730835	145.340000
429.824493	145.180000
429.918182	145.640000
430.011810	145.460000
430.105530	144.580000
430.199158	145.000000
430.292847	145.200000
430.386475	144.940000
430.480164	145.240000
430.573792	145.540000
430.667511	145.240000
430.761139	145.160000
430.854828	145.520000
430.948456	145.480000
431.042145	145.960000
431.135834	146.100000
431.229492	145.840000
431.323151	145.800000
431.416809	145.480000
431.510468	145.060000
431.604156	145.060000
431.697815	145.720000
431.791473	145.360000
431.885132	145.160000
431.978821	145.780000
432.072479	146.000000
432.166138	146.260000
432.259827	146.140000
432.353485	147.000000
432.447174	146.860000
432.540802	146.320000
432.634491	146.040000
432.728149	146.460000
432.821838	146.620000
432.915466	146.140000
433.009186	146.380000
433.102814	145.740000
433.196503	145.680000
433.290131	145.420000
433.383850	145.720000
433.477509	145.860000
433.571167	146.640000
433.664856	146.740000
433.758514	147.160000
433.852173	146.720000
433.945862	146.460000
434.039520	146.160000
434.133179	145.940000
434.226868	145.100000
434.320526	145.180000
434.414185	146.000000
434.507874	145.640000
434.601562	145.640000
434.695221	145.760000
434.788910	146.320000
434.882538	146.140000
434.976257	146.040000
435.069885	146.000000
435.163574	146.260000
435.257233	145.740000
435.350922	145.620000
435.444580	145.540000
435.538269	145.260000
435.631897	145.380000
435.725616	145.900000
435.819275	145.920000
435.912964	146.380000
436.006622	147.040000
436.100311	147.040000
436.193970	146.100000
436.287628	145.700000
436.381317	145.480000
436.474976	144.940000
436.568665	144.320000
436.662323	145.000000
436.756012	145.100000
436.849670	144.800000
436.943390	144.920000
437.037018	144.800000
437.130737	144.300000
437.224365	144.220000
437.318085	144.600000
437.411713	144.680000
437.505432	145.500000
437.599060	146.520000
437.692780	147.260000
437.786407	147.160000
437.880127	147.400000
437.973755	147.040000
438.067474	146.300000
438.161133	145.980000
438.254822	146.440000
438.348480	145.780000
438.442169	146.500000
438.535828	147.000000
438.629517	146.700000
438.723175	145.980000
438.816864	146.840000
438.910553	146.280000
439.004211	145.880000
439.097900	145.660000
439.191559	146.080000
439.285248	145.260000
439.378906	145.460000
439.472626	145.340000
439.566284	145.320000
439.659973	145.580000
439.753632	145.500000
439.847321	145.740000
439.940979	146.080000
440.034698	146.280000
440.128326	145.680000
440.222046	145.660000
440.315674	144.840000
440.409393	144.800000
440.503082	144.580000
440.596741	144.960000
440.690430	145.500000
440.784088	145.620000
440.877777	145.060000
440.971466	145.280000
441.065125	145.020000
441.158813	144.620000
441.252502	144.740000
441.346161	144.960000
441.439850	145.220000
441.533539	144.940000
441.627197	145.440000
441.720886	145.300000
441.814606	145.760000
441.908234	145.680000
442.001953	145.720000
442.095612	145.620000
442.189301	145.820000
442.282959	145.400000
442.376678	145.020000
442.470306	146.220000
442.564026	145.920000
442.657684	146.020000
442.751404	146.160000
442.845032	146.920000
442.938751	145.660000
443.032440	145.960000
443.126099	145.620000
443.219788	145.960000
443.313477	145.560000
443.407166	146.300000
443.500824	146.220000
443.594513	146.580000
443.688202	146.460000
443.781891	145.960000
443.875549	145.160000
443.969238	145.240000
444.062927	145.340000
444.156647	145.000000
444.250275	145.560000
444.343994	146.120000
444.437653	146.380000
444.531372	145.860000
444.625031	145.900000
444.718719	145.580000
444.812378	145.340000
444.906097	145.080000
444.999756	144.940000
445.093445	145.220000
445.187103	145.240000
445.280823	145.920000
445.374512	145.580000
445.468201	145.780000
445.561859	145.540000
445.655548	145.640000
445.749237	144.840000
445.842926	144.920000
445.936615	145.360000
446.030304	145.020000
446.123962	145.360000
446.217651	145.460000
446.311340	145.780000
446.405029	145.400000
446.498749	145.540000
446.592407	145.160000
446.686096	145.500000
446.779755	145.320000
446.873474	145.500000
446.967133	145.900000
447.060852	145.620000
447.154510	145.520000
447.248230	145.600000
447.341858	145.540000
447.435577	144.940000
447.529236	144.880000
447.622955	144.480000
447.716644	144.760000
447.810333	144.800000
447.904022	145.380000
447.997711	145.580000
448.091400	146.080000
448.185059	145.780000
448.278748	146.040000
448.372437	145.680000
448.466125	145.820000
448.559814	145.600000
448.653503	146.100000
448.747192	146.040000
448.840912	146.400000
448.934570	146.820000
449.028290	147.100000
449.121948	146.660000
449.215637	146.420000
449.309296	146.060000
449.403015	145.780000
449.496674	145.700000
449.590393	145.400000
449.684052	145.380000
449.777771	146.060000
449.871429	145.540000
449.965149	145.440000
450.058838	145.940000
450.152527	146.500000
450.246216	146.000000
450.339905	146.180000
450.433594	146.220000
450.527283	146.640000
450.620972	146.000000
450.714661	146.160000
450.808350	146.360000
450.902039	146.460000
450.995728	145.860000
451.089417	145.800000
451.183105	145.780000
451.276794	146.180000
451.370514	145.720000
451.464172	145.060000
451.557892	144.940000
451.651550	145.060000
451.745270	144.460000
451.838928	144.100000
451.932648	144.760000
452.026306	145.300000
452.120026	144.860000
452.213684	145.480000
452.307404	146.120000
452.401062	146.180000
452.494781	146.440000
452.588470	146.540000
452.682159	145.860000
452.775848	145.560000
452.869537	145.180000
452.963226	144.360000
453.056915	144.480000
453.150604	144.480000
453.244293	144.780000
453.337982	145.300000
453.431671	146.060000
453.525360	146.720000
453.619049	146.840000
453.712769	146.860000
453.806427	146.340000
453.900146	145.440000
453.993805	144.600000
454.087555	145.020000
454.181213	145.220000
454.274933	145.160000
454.368591	145.500000
454.462311	145.420000
454.555969	144.900000
454.649689	145.400000
454.743347	145.240000
454.837067	145.740000
454.930756	146.160000
455.024445	146.400000
455.118134	145.580000
455.211853	146.000000
455.305542	145.740000
455.399231	145.780000
455.492920	145.540000
455.586609	145.660000
455.680298	145.720000
455.773987	145.400000
455.867676	145.240000
455.961365	145.500000
456.055084	145.460000
456.148773	145.280000
456.242493	145.540000
456.336151	145.680000
456.429871	145.800000
456.523529	146.120000
456.617249	145.940000
456.710907	146.560000
456.804626	146.320000
456.898315	145.720000
456.992035	145.500000
457.085693	145.400000
457.179413	144.200000
457.273102	145.060000
457.366791	145.380000
457.460480	145.860000
457.554199	146.680000
457.647888	146.920000
457.741577	146.280000
457.835266	146.720000
457.928955	146.580000
458.022644	146.520000
458.116364	147.180000
458.210052	146.940000
458.303741	146.780000
458.397461	146.080000
458.491119	145.440000
458.584839	145.180000
458.678528	145.120000
458.772247	144.800000
458.865906	145.240000
458.959625	146.280000
459.053284	146.180000
459.147003	146.040000
459.240692	146.600000
459.334412	146.700000
459.428070	145.860000
459.521790	145.880000
459.615479	145.980000
459.709198	146.260000
459.802887	146.180000
459.896576	146.160000
459.990265	146.380000
460.083954	146.880000
460.177673	146.080000
460.271362	145.960000
460.365051	146.120000
460.458740	145.600000
460.552429	145.020000
460.646149	145.060000
460.739838	144.680000
460.833527	144.680000
460.927246	144.600000
461.020905	144.740000
461.114655	144.720000
461.208313	145.100000
461.302032	144.740000
461.395691	145.020000
461.489441	144.920000
461.583099	145.200000
461.676819	144.880000
461.770477	145.300000
461.864197	145.020000
461.957916	144.640000
462.051605	144.040000
462.145294	144.780000
462.238983	144.480000
462.332703	145.080000
462.426392	146.120000
462.520081	146.320000
462.613770	145.960000
462.707489	146.360000
462.801178	146.040000
462.894867	145.980000
462.988556	146.020000
463.082275	146.160000
463.175964	145.420000
463.269684	145.900000
463.363342	145.380000
463.457092	144.880000
463.550751	144.980000
463.644470	145.540000
463.738129	145.100000
463.831879	145.440000
463.925537	146.660000
464.019257	146.420000
464.112946	146.420000
464.206665	146.140000
464.300323	145.760000
464.394043	144.840000
464.487762	144.860000
464.581451	145.060000
464.675140	145.260000
464.768829	145.780000
464.862549	146.280000
464.956238	146.520000
465.049927	146.200000
465.143646	146.480000
465.237335	145.980000
465.331024	146.500000
465.424713	146.240000
465.518433	146.320000
465.612152	145.800000
465.705811	146.040000
465.799561	145.460000
465.893219	145.260000
465.986938	145.160000
466.080597	145.380000
466.174347	145.620000
466.268005	145.820000
466.361725	145.800000
466.455414	145.860000
466.549133	145.720000
466.642792	145.660000
466.736542	145.180000
466.830231	145.480000
466.923920	145.200000
467.017609	145.320000
467.111328	144.840000
467.205017	145.040000
467.298706	144.780000
467.392426	145.360000
467.486115	145.720000
467.579803	145.760000
467.673523	146.060000
467.767212	146.160000
467.860901	146.100000
467.954651	145.940000
468.048309	146.240000
468.142029	145.880000
468.235718	146.160000
468.329437	145.680000
468.423096	145.700000
468.516846	145.260000
468.610504	145.140000
468.704224	144.600000
468.797913	144.800000
468.891632	144.620000
468.985291	144.860000
469.079010	145.120000
469.172729	144.980000
469.266418	145.280000
469.360107	145.420000
469.453827	145.220000
469.547516	145.260000
469.641205	145.640000
469.734924	145.700000
469.828613	146.180000
469.922302	146.420000
470.016022	146.320000
470.109711	146.180000
470.203430	145.520000
470.297150	144.220000
470.390808	144.420000
470.484558	144.140000
470.578217	144.740000
470.671936	145.700000
470.765625	146.740000
470.859344	146.340000
470.953003	146.880000
471.046753	146.400000
471.140411	145.540000
471.234131	145.720000
471.327820	146.300000
471.421539	146.180000
471.515228	145.780000
471.608948	146.060000
471.702637	145.200000
471.796326	144.760000
471.890045	144.760000
471.983734	145.020000
472.077423	144.880000
472.171143	145.560000
472.264832	145.500000
472.358521	145.320000
472.452240	145.060000
472.545929	145.720000
472.639648	145.680000
472.733337	146.020000
472.827057	146.120000
472.920746	146.360000
473.014465	146.340000
473.108124	146.620000
473.201874	146.580000
473.295532	146.380000
473.389252	146.820000
473.482941	146.320000
473.576660	145.700000
473.670319	145.460000
473.764069	145.560000
473.857727	145.460000
473.951477	145.960000
474.045166	146.400000
474.138855	146.300000
474.232574	146.240000
474.326263	146.360000
474.419952	146.140000
474.513672	146.060000
474.607361	146.420000
474.701050	146.580000
474.794769	146.720000
474.888458	146.980000
474.982178	147.100000
475.075867	147.000000
475.169586	147.200000
475.263275	146.880000
475.356995	146.700000
475.450653	146.140000
475.544403	145.800000
475.638062	146.300000
475.731812	145.880000
475.825470	145.460000
475.919189	145.840000
476.012878	146.280000
476.106598	145.460000
476.200256	145.720000
476.294006	145.960000
476.387695	145.900000
476.481384	145.580000
476.575104	145.440000
476.668793	145.140000
476.762512	144.560000
476.856201	144.820000
476.949890	144.440000
477.043610	144.300000
477.137299	144.420000
477.230988	144.900000
477.324707	144.580000
477.418396	145.260000
477.512146	145.540000
477.605804	145.700000
477.699524	146.100000
477.793213	145.680000
477.886932	145.500000
477.980591	145.340000
478.074341	145.320000
478.167999	144.460000
478.261749	144.920000
478.355408	144.640000
478.449127	144.980000
478.542816	145.800000
478.636536	146.440000
478.730225	146.480000
478.823944	146.980000
478.917633	146.720000
479.011322	146.320000
479.105042	146.180000
479.198730	146.260000
479.292450	145.760000
479.386139	145.940000
479.479828	145.940000
479.573547	146.300000
479.667267	146.300000
479.760925	146.540000
479.854675	146.780000
479.948334	146.640000
480.042084	145.860000
480.135742	145.980000
480.229462	145.460000
480.323151	145.240000
480.416870	144.680000
480.510529	145.160000
480.604279	144.300000
480.697937	145.120000
480.791656	144.840000
480.885345	144.960000
480.979065	144.640000
481.072754	145.540000
481.166473	145.820000
481.260132	146.100000
481.353882	146.000000
481.447540	146.120000
481.541260	145.920000
481.635010	145.020000
481.728668	144.960000
481.822388	145.240000
481.916077	145.340000
482.009796	145.180000
482.103485	145.700000
482.197205	145.620000
482.290863	145.820000
482.384613	145.320000
482.478271	145.140000
482.571991	145.160000
482.665680	145.000000
482.759399	145.440000
482.853058	146.220000
482.946808	146.100000
483.040466	145.740000
483.134216	145.960000
483.227875	145.060000
483.321594	145.340000
483.415283	145.460000
483.509003	145.340000
483.602661	144.960000
483.696411	145.460000
483.790070	144.960000
483.883789	145.240000
483.977478	145.800000
484.071198	145.800000
484.164917	145.420000
484.258606	145.200000
484.352325	145.580000
484.445984	145.400000
484.539734	145.520000
484.633392	145.140000
484.727142	145.280000
484.820801	144.900000
484.914520	144.860000
485.008209	145.200000
485.101929	145.900000
485.195587	145.800000
485.289337	145.580000
485.382996	145.400000
485.476715	145.480000
485.570404	145.900000
485.664124	145.900000
485.757782	146.220000
485.851532	146.000000
485.945190	145.840000
486.038910	145.460000
486.132599	146.040000
486.226318	145.520000
486.319977	145.700000
486.413727	146.060000
486.507446	145.660000
486.601105	145.180000
486.694855	145.140000
486.788513	145.140000
486.882233	144.880000
486.975922	144.860000
487.069641	144.720000
487.163300	144.840000
487.257050	145.960000
487.350708	145.360000
487.444427	145.500000
487.538116	145.520000
487.631836	145.340000
487.725494	144.280000
487.819214	144.780000
487.912903	144.820000
488.006622	145.060000
488.100281	145.540000
488.194031	145.720000
488.287689	145.880000
488.381409	146.520000
488.475098	146.380000
488.568817	146.380000
488.662476	146.420000
488.756226	145.940000
488.849945	144.860000
488.943604	144.820000
489.037354	144.980000
489.131012	144.840000
489.224731	144.800000
489.318390	144.980000
489.412140	145.360000
489.505798	145.280000
489.599518	145.200000
489.693207	145.620000
489.786926	145.680000
489.880585	145.340000
489.974335	145.420000
490.067993	146.560000
490.161713	146.640000
490.255371	147.460000
490.349121	147.680000
490.442780	147.600000
490.536499	146.300000
490.630188	146.200000
490.723907	145.580000
490.817566	145.500000
490.911285	145.760000
491.004974	145.840000
491.098694	145.360000
491.192413	146.000000
491.286102	145.820000
491.379822	145.580000
491.473480	146.280000
491.567200	146.680000
491.660889	146.020000
491.754608	146.120000
491.848267	145.800000
491.941986	145.380000
492.035675	145.340000
492.129395	145.700000
492.223053	145.520000
492.316772	145.880000
492.410461	145.660000
492.504181	145.740000
492.597839	145.160000
492.691559	145.300000
492.785248	145.300000
492.878967	145.560000
492.972626	145.160000
493.066345	145.620000
493.160034	145.200000
493.253754	144.980000
493.347412	144.340000
493.441132	144.780000
493.534882	145.040000
493.628540	145.660000
493.722260	145.940000
493.815918	146.520000
493.909668	146.900000
494.003326	146.760000
494.097046	146.480000
494.190704	146.000000
494.284454	146.040000
494.378113	145.740000
494.471832	145.200000
494.565491	145.120000
494.659210	145.440000
494.752899	145.140000
494.846619	145.240000
494.940277	145.600000
495.033997	145.500000
495.127686	145.100000
495.221405	144.940000
495.315063	144.940000
495.408783	145.100000
495.502441	145.140000
495.596191	145.540000
495.689850	145.620000
495.783569	145.820000
495.877228	145.940000
495.970947	145.680000
496.064697	145.540000
496.158356	146.500000
496.252075	146.400000
496.345734	145.980000
496.439453	146.820000
496.533142	147.020000
496.626862	147.080000
496.720520	146.860000
496.814240	146.920000
496.907898	146.560000
497.001617	146.320000
497.095306	144.880000
497.189026	144.740000
497.282684	145.040000
497.376404	145.460000
497.470062	145.400000
497.563782	146.100000
497.657471	145.900000
497.751190	145.540000
497.844849	145.120000
497.938568	145.380000
498.032227	145.280000
498.125946	145.840000
498.219635	145.700000
498.313354	145.960000
498.407074	145.580000
498.500732	145.880000
498.594452	145.720000
498.688110	145.480000
498.781830	144.840000
498.875519	144.940000
498.969238	144.520000
499.062897	144.120000
499.156616	144.840000
499.250275	145.440000
499.343994	145.180000
499.437653	145.300000
499.531372	145.800000
499.625061	146.280000
499.718781	146.060000
499.812439	146.580000
499.906158	146.600000
499.999817	146.280000
500.093536	145.280000
500.187195	144.980000
500.280914	144.940000
500.374573	145.020000
500.468323	144.940000
500.561981	145.340000
500.655701	145.100000
500.749420	145.060000
500.843079	145.100000
500.936798	145.140000
501.030457	145.540000
501.124176	146.160000
501.217834	146.320000
501.311554	146.340000
501.405212	146.580000
501.498962	145.380000
501.592621	145.380000
501.686340	145.480000
501.779999	145.420000
501.873718	145.400000
501.967377	145.980000
502.061096	145.920000
502.154755	145.180000
502.248474	145.340000
502.342133	145.540000
502.435852	145.620000
502.529510	146.320000
502.623230	147.080000
502.716888	146.580000
502.810608	146.120000
502.904266	146.540000
502.997986	145.820000
503.091705	145.060000
503.185364	145.060000
503.279083	145.300000
503.372772	144.960000
503.466492	144.520000
503.560150	144.780000
503.653870	145.140000
503.747528	144.960000
503.841248	144.920000
503.934906	145.360000
504.028625	145.440000
504.122284	145.960000
504.216003	146.780000
504.309662	146.320000
504.403381	146.560000
504.497040	146.760000
504.590759	146.080000
504.684418	146.020000
504.778137	146.520000
504.871796	146.660000
504.965515	146.340000
505.059174	146.700000
505.152893	145.740000
505.246521	145.600000
505.340240	145.060000
505.433899	145.340000
505.527618	145.360000
505.621338	146.040000
505.714996	146.020000
505.808716	146.160000
505.902374	146.600000
505.996094	146.280000
506.089752	145.800000
506.183472	146.100000
506.277130	146.080000
506.370850	145.840000
506.464508	145.720000
506.558228	145.860000
506.651886	145.540000
506.745605	145.700000
506.839264	145.600000
506.932983	146.200000
507.026611	146.020000
507.120331	146.440000
507.213989	146.280000
507.307709	146.060000
507.401367	145.960000
507.495087	146.980000
507.588745	146.500000
507.682465	147.340000
507.776123	147.520000
507.869843	147.540000
507.963531	146.760000
508.057190	147.060000
508.150909	145.980000
508.244568	146.340000
508.338287	145.540000
508.431946	145.180000
508.525665	145.060000
508.619324	145.100000
508.713013	145.080000
508.806671	145.960000
508.900391	147.100000
508.994049	147.240000
509.087769	147.000000
509.181427	146.620000
509.275146	146.160000
509.368774	144.960000
509.462494	144.640000
509.556152	144.660000
509.649872	145.020000
509.743530	145.160000
509.837250	145.420000
509.930878	145.640000
510.024597	145.840000
510.118256	145.660000
510.211975	145.640000
510.305695	145.720000
510.399353	146.080000
510.493042	146.840000
510.586700	146.820000
510.680420	147.420000
510.774078	147.080000
510.867798	146.940000
510.961426	146.000000
511.055145	145.700000
511.148804	144.920000
511.242523	145.720000
511.336151	145.620000
511.429871	146.060000
511.523529	146.040000
511.617249	146.040000
511.710876	145.720000
511.804596	145.480000
511.898254	145.440000
511.991974	145.860000
512.085632	145.720000
512.179321	145.700000
512.272949	145.880000
512.366699	146.100000
512.460327	145.720000
512.554077	146.780000
512.647766	146.760000
512.741394	146.740000
512.835144	147.100000
512.928772	147.080000
513.022461	146.600000
513.116150	146.360000
513.209839	146.680000
513.303467	146.120000
513.397217	145.860000
513.490845	145.400000
513.584595	145.100000
513.678223	144.680000
513.771912	144.360000
513.865601	144.920000
513.959290	144.900000
514.052917	145.220000
514.146667	145.840000
514.240295	146.380000
514.333984	146.600000
514.427673	146.760000
514.521362	147.420000
514.614990	146.640000
514.708740	146.460000
514.802368	146.260000
514.896057	146.220000
514.989746	146.520000
515.083435	146.480000
515.177124	146.740000
515.270752	146.560000
515.364502	146.660000
515.458130	146.200000
515.551819	146.100000
515.645508	145.680000
515.739197	145.720000
515.832825	145.660000
515.926575	145.240000
516.020203	145.720000
516.113892	146.260000
516.207520	146.060000
516.301270	146.240000
516.394897	146.480000
516.488586	146.680000
516.582275	146.740000
516.675964	146.240000
516.769592	145.780000
516.863281	146.500000
516.956970	146.840000
517.050659	146.440000
517.144287	146.800000
517.238037	147.280000
517.331665	146.320000
517.425354	145.880000
517.519043	145.780000
517.612732	146.060000
517.706421	145.880000
517.800049	145.840000
517.893738	145.380000
517.987427	145.460000
518.081116	145.380000
518.174744	145.040000
518.268433	145.240000
518.362122	145.760000
518.455811	145.800000
518.549438	146.280000
518.643127	147.320000
518.736816	147.240000
518.830505	146.780000
518.924133	146.540000
519.017822	146.260000
519.111511	145.580000
519.205200	145.820000
519.298828	145.800000
519.392517	145.720000
519.486206	145.880000
519.579895	145.840000
519.673523	145.480000
519.767212	145.960000
519.860901	146.820000
519.954590	146.560000
520.048279	146.160000
520.141907	146.300000
520.235596	147.040000
520.329224	146.760000
520.422974	146.900000
520.516602	147.400000
520.610291	147.020000
520.703918	146.240000
520.797607	145.800000
520.891296	145.760000
520.984985	146.000000
521.078613	146.720000
521.172302	146.120000
521.265930	146.880000
521.359680	147.420000
521.453308	147.000000
521.546997	147.080000
521.640625	147.540000
521.734314	146.660000
521.827942	146.080000
521.921692	146.340000
522.015320	146.020000
522.109009	145.680000
522.202698	145.900000
522.296326	145.880000
522.390015	145.840000
522.483704	145.900000
522.577393	145.840000
522.671021	145.840000
522.764709	145.420000
522.858337	145.840000
522.952026	145.840000
523.045654	146.560000
523.139404	146.960000
523.233032	147.280000
523.326721	146.960000
523.420349	146.760000
523.514038	146.360000
523.607666	146.420000
523.701355	146.380000
523.795044	146.100000
523.888733	146.380000
523.982361	146.820000
524.076050	146.320000
524.169678	146.600000
524.263367	146.560000
524.356995	146.180000
524.450684	145.500000
524.544373	145.600000
524.638062	145.380000
524.731750	145.420000
524.825378	145.500000
524.919067	145.500000
525.012695	145.440000
525.106384	145.300000
525.200012	145.640000
525.293701	145.860000
525.387329	146.200000
525.481018	146.300000
525.574646	146.460000
525.668396	146.340000
525.762024	146.480000
525.855713	146.840000
525.949341	146.460000
526.043030	146.980000
526.136658	146.540000
526.230347	146.360000
526.323975	145.860000
526.417664	146.060000
526.511292	145.720000
526.604980	146.100000
526.698608	145.840000
526.792297	145.800000
526.885925	146.180000
526.979614	146.380000
527.073303	146.260000
527.166931	146.360000
527.260620	146.520000
527.354309	146.620000
527.447998	146.280000
527.541626	146.240000
527.635315	146.300000
527.728943	146.940000
527.822632	147.140000
527.916260	146.980000
528.009949	147.040000
528.103577	146.880000
528.197266	145.900000
528.290894	145.560000
528.384583	145.680000
528.478210	145.560000
528.571899	145.840000
528.665527	146.180000
528.759216	146.640000
528.852844	147.160000
528.946533	147.320000
529.040161	147.080000
529.133850	147.100000
529.227478	146.840000
529.321167	146.660000
529.414856	147.040000
529.508484	147.540000
529.602173	147.400000
529.695801	147.220000
529.789490	146.980000
529.883057	146.540000
529.976746	146.540000
530.070374	146.780000
530.164062	146.560000
530.257690	146.900000
530.351379	147.140000
530.445007	146.920000
530.538696	146.280000
530.632324	146.760000
530.726013	146.640000
530.819641	146.560000
530.913330	146.480000
531.006958	146.500000
531.100647	146.180000
531.194275	145.820000
531.287964	145.460000
531.381592	145.420000
531.475220	146.020000
531.568848	145.880000
531.662537	145.780000
531.756226	146.320000
531.849854	146.280000
531.943542	146.200000
532.037170	145.800000
532.130859	146.320000
532.224487	146.020000
532.318176	145.680000
532.411804	145.980000
532.505432	146.540000
532.599060	145.980000
532.692749	145.920000
532.786377	146.500000
532.880066	145.620000
532.973694	144.920000
533.067383	144.980000
533.161011	144.900000
533.254639	144.380000
533.348267	144.780000
533.441956	145.420000
533.535583	145.520000
533.629272	145.580000
533.722900	145.400000
533.816589	145.280000
533.910156	145.220000
534.003845	145.100000
534.097534	145.240000
534.191162	146.080000
534.284851	146.220000
534.378479	146.120000
534.472107	146.460000
534.565735	146.280000
534.659424	146.420000
534.753052	146.700000
534.846741	146.420000
534.940369	146.600000
535.033997	146.400000
535.127625	146.180000
535.221313	146.280000
535.314941	146.420000
535.408630	145.840000
535.502197	146.540000
535.595886	146.040000
535.689514	145.660000
535.783203	145.940000
535.876831	146.380000
535.970459	145.960000
536.064087	145.920000
536.157776	145.820000
536.251404	145.680000
536.345093	145.520000
536.438721	145.660000
536.532349	146.220000
536.626038	146.280000
536.719666	146.540000
536.813293	146.500000
536.906921	146.360000
537.000610	146.180000
537.094238	146.300000
537.187866	146.220000
537.281494	146.160000
537.375183	146.140000
537.468811	145.900000
537.562439	145.840000
537.656067	145.860000
537.749756	145.960000
537.843384	146.660000
537.937012	146.900000
538.030640	146.700000
538.124329	146.660000
538.217896	146.880000
538.311584	146.520000
538.405212	146.540000
538.498901	146.820000
538.592468	147.160000
538.686157	146.420000
538.779785	145.600000
538.873413	145.420000
538.967102	145.260000
539.060730	144.920000
539.154358	145.440000
539.247986	146.200000
539.341675	146.040000
539.435242	146.100000
539.528931	146.140000
539.622559	145.760000
539.716187	146.220000
539.809814	146.260000
539.903503	145.980000
539.997070	145.660000
540.090759	145.760000
540.184387	145.380000
540.278015	145.940000
540.371643	146.140000
540.465332	146.080000
540.558899	145.940000
540.652588	145.640000
540.746216	145.440000
540.839844	145.860000
540.933472	146.280000
541.027100	146.500000
541.120728	146.680000
541.214417	146.640000
541.308044	146.780000
541.401672	146.500000
541.495300	146.460000
541.588928	146.280000
541.682617	145.980000
541.776184	145.340000
541.869873	145.740000
541.963440	146.100000
542.057129	146.140000
542.150757	146.380000
542.244385	146.140000
542.338013	145.820000
542.431641	145.440000
542.525269	145.640000
542.618958	146.040000
542.712524	146.740000
542.806213	146.260000
542.899780	146.560000
542.993469	146.160000
543.087036	145.540000
543.180725	144.980000
543.274292	145.620000
543.367981	145.620000
543.461548	146.060000
543.555237	146.140000
543.648926	146.560000
543.742493	147.100000
543.836182	146.980000
543.929749	146.840000
544.023437	146.740000
544.117004	146.760000
544.210693	146.600000
544.304260	146.860000
544.397949	146.720000
544.491516	147.000000
544.585205	146.920000
544.678772	146.320000
544.772461	146.520000
544.866028	146.320000
544.959717	146.400000
545.053284	145.960000
545.146973	146.500000
545.240540	146.320000
545.334229	147.260000
545.427795	147.400000
545.521423	147.880000
545.615051	147.680000
545.708679	147.920000
545.802307	147.560000
545.895935	147.800000
545.989624	148.300000
546.083191	147.800000
546.176880	147.760000
546.270447	147.280000
546.364136	147.320000
546.457703	146.840000
546.551331	147.040000
546.644958	146.740000
546.738586	147.060000
546.832214	146.340000
546.925842	146.320000
547.019409	146.760000
547.113098	146.680000
547.206665	146.360000
547.300354	146.520000
547.393921	146.580000
547.487549	146.640000
547.581177	146.380000
547.674805	146.300000
547.768433	145.660000
547.862061	145.780000
547.955627	144.900000
548.049316	145.320000
548.142883	145.880000
548.236572	146.480000
548.330139	146.080000
548.423767	146.340000
548.517456	146.180000
548.611023	146.020000
548.704651	145.500000
548.798279	145.740000
548.891907	146.200000
548.985474	146.060000
549.079163	146.180000
549.172729	146.340000
549.266357	145.740000
549.359985	145.600000
549.453613	145.220000
549.547180	144.860000
549.640869	145.280000
549.734436	145.440000
549.828064	145.660000
549.921631	145.720000
550.015320	145.800000
550.108887	145.940000
550.202515	146.200000
550.296143	145.480000
550.389771	145.540000
550.483337	145.540000
550.576965	145.340000
550.670593	145.560000
550.764221	145.880000
550.857849	145.980000
550.951477	145.420000
551.045105	145.000000
551.138672	145.120000
551.232300	144.900000
551.325928	145.160000
551.419556	145.580000
551.513123	145.700000
551.606750	145.120000
551.700378	144.960000
551.794006	144.800000
551.887573	144.760000
551.981201	145.500000
552.074768	145.480000
552.168457	145.440000
552.262024	146.020000
552.355652	145.960000
552.449219	146.180000
552.542847	146.200000
552.636475	146.420000
552.730103	145.700000
552.823669	145.420000
552.917297	144.520000
553.010864	144.720000
553.104553	144.840000
553.198181	144.720000
553.291748	145.280000
553.385376	145.720000
553.478943	145.380000
553.572571	145.420000
553.666199	145.540000
553.759827	145.340000
553.853394	144.800000
553.947021	145.040000
554.040588	144.800000
554.134216	144.840000
554.227783	145.580000
554.321411	146.300000
554.415039	145.860000
554.508667	146.120000
554.602234	146.600000
554.695862	145.900000
554.789429	145.340000
554.883057	145.900000
554.976624	145.800000
555.070251	145.540000
555.163818	145.440000
555.257507	145.680000
555.351074	145.620000
555.444702	146.860000
555.538330	146.660000
555.631897	147.080000
555.725525	146.820000
555.819092	146.680000
555.912720	145.280000
556.006287	145.780000
556.099915	145.460000
556.193481	145.840000
556.287109	146.020000
556.380676	146.360000
556.474304	145.940000
556.567871	146.340000
556.661499	145.660000
556.755066	145.560000
556.848694	145.320000
556.942261	145.400000
557.035889	145.040000
557.129517	145.500000
557.223145	146.000000
557.316711	146.000000
557.410339	146.060000
557.503906	146.000000
557.597473	146.200000
557.691040	145.640000
557.784668	145.880000
557.878296	146.020000
557.971863	146.180000
558.065491	146.100000
558.159058	146.260000
558.252686	146.580000
558.346252	146.960000
558.439880	146.640000
558.533447	146.520000
558.627075	146.060000
558.720642	145.700000
558.814270	145.300000
558.907837	145.380000
559.001465	145.120000
559.095032	146.080000
559.188660	146.280000
559.282227	145.760000
559.375854	146.340000
559.469360	146.140000
559.562988	146.000000
559.656555	145.720000
559.750183	146.180000
559.843750	145.960000
559.937378	146.260000
560.030945	146.160000
560.124573	0.000000
560.218140	0.000000
560.311707	0.000000
560.405334	0.000000
560.498901	0.000000
560.592529	0.000000
560.686096	0.000000
560.779724	0.000000
560.873291	0.000000
560.966858	0.000000
561.060425	0.000000
561.154053	0.000000
561.247620	0.000000
561.341248	0.000000
561.434814	0.000000
561.528381	0.000000
561.621948	0.000000
561.715576	0.000000
561.809143	0.000000
561.902771	0.000000
561.996277	0.000000
562.089905	0.000000
562.183472	0.000000
562.277100	0.000000
