Model Number: SPM-002-B   
Serial Number: 70087108
Firmware Version: 004.15.4
Exposure Time: 100000.000000us
Data Taken on: 11-12-2020 19:31:52.546
Wavelength	Amplitude
221.570786	0.000000
221.663406	0.000000
221.756027	0.000000
221.848648	0.000000
221.941269	0.000000
222.033905	0.000000
222.126526	0.000000
222.219162	0.000000
222.311798	0.000000
222.404419	0.000000
222.497055	0.000000
222.589676	0.000000
222.682312	0.000000
222.774933	0.000000
222.867569	0.000000
222.960205	0.000000
223.052841	0.000000
223.145462	0.000000
223.238098	0.000000
223.330734	0.000000
223.423386	0.000000
223.516022	0.000000
223.608658	0.000000
223.701309	0.000000
223.793945	0.000000
223.886581	0.000000
223.979218	0.000000
224.071869	0.000000
224.164505	0.000000
224.257156	0.000000
224.349792	0.000000
224.442444	0.000000
224.535095	0.000000
224.627747	0.000000
224.720398	0.000000
224.813034	0.000000
224.905685	0.000000
224.998337	145.120000
225.090988	144.580000
225.183640	144.540000
225.276291	144.720000
225.368942	145.260000
225.461594	145.740000
225.554245	145.960000
225.646912	146.020000
225.739578	146.260000
225.832230	146.280000
225.924896	145.480000
226.017548	145.960000
226.110199	146.560000
226.202866	146.220000
226.295532	145.980000
226.388184	146.000000
226.480850	145.380000
226.573517	144.860000
226.666168	145.000000
226.758835	145.520000
226.851501	146.340000
226.944183	146.580000
227.036850	146.080000
227.129517	146.260000
227.222183	146.080000
227.314850	145.780000
227.407516	146.020000
227.500198	146.960000
227.592865	146.260000
227.685532	146.060000
227.778214	145.820000
227.870880	146.200000
227.963562	146.400000
228.056229	147.120000
228.148926	146.900000
228.241592	147.660000
228.334274	147.080000
228.426956	146.640000
228.519638	146.540000
228.612305	145.980000
228.704987	145.640000
228.797668	145.440000
228.890350	145.380000
228.983032	144.680000
229.075714	145.940000
229.168396	145.360000
229.261108	145.340000
229.353790	145.220000
229.446472	145.740000
229.539169	145.320000
229.631851	145.300000
229.724533	145.520000
229.817230	145.840000
229.909912	146.660000
230.002609	146.760000
230.095306	146.980000
230.187988	147.140000
230.280685	146.900000
230.373383	145.940000
230.466095	145.520000
230.558792	145.680000
230.651474	145.520000
230.744171	145.360000
230.836868	145.300000
230.929581	145.580000
231.022278	145.540000
231.114975	145.620000
231.207672	145.540000
231.300369	145.860000
231.393082	146.000000
231.485779	145.580000
231.578506	145.600000
231.671204	145.900000
231.763916	145.840000
231.856613	145.780000
231.949326	146.420000
232.042023	146.320000
232.134735	146.040000
232.227448	145.760000
232.320160	145.860000
232.412872	145.780000
232.505585	146.420000
232.598297	147.080000
232.691010	147.000000
232.783722	146.500000
232.876450	146.720000
232.969162	146.200000
233.061874	145.640000
233.154587	145.580000
233.247314	146.100000
233.340027	145.680000
233.432739	146.180000
233.525467	146.140000
233.618179	146.720000
233.710907	146.440000
233.803635	146.860000
233.896347	146.280000
233.989090	146.860000
234.081818	146.640000
234.174545	146.780000
234.267258	146.060000
234.359985	146.440000
234.452713	146.240000
234.545441	145.900000
234.638168	145.920000
234.730896	146.760000
234.823639	146.360000
234.916367	146.420000
235.009094	146.640000
235.101822	146.700000
235.194580	146.180000
235.287308	146.120000
235.380051	145.620000
235.472778	146.000000
235.565521	146.020000
235.658249	146.000000
235.750992	146.060000
235.843719	146.140000
235.936462	146.020000
236.029205	145.880000
236.121948	145.860000
236.214691	146.480000
236.307449	147.040000
236.400192	146.740000
236.492935	146.080000
236.585678	146.000000
236.678421	145.880000
236.771164	145.500000
236.863907	146.060000
236.956665	146.860000
237.049408	148.520000
237.142151	148.040000
237.234909	148.720000
237.327652	148.600000
237.420410	148.200000
237.513153	147.080000
237.605927	147.040000
237.698669	146.380000
237.791428	145.900000
237.884186	146.440000
237.976944	145.740000
238.069702	145.820000
238.162445	145.440000
238.255203	145.620000
238.347961	145.960000
238.440720	146.100000
238.533478	146.180000
238.626266	145.960000
238.719025	146.240000
238.811783	145.940000
238.904541	145.900000
238.997314	145.820000
239.090073	146.060000
239.182831	145.960000
239.275604	146.380000
239.368362	146.320000
239.461136	146.520000
239.553909	146.540000
239.646667	146.440000
239.739441	146.020000
239.832214	146.180000
239.925003	146.280000
240.017761	147.000000
240.110535	147.660000
240.203308	147.160000
240.296082	147.340000
240.388855	146.740000
240.481628	146.580000
240.574417	146.140000
240.667191	146.240000
240.759964	145.920000
240.852737	146.160000
240.945526	145.740000
241.038315	145.600000
241.131088	145.700000
241.223877	145.920000
241.316650	145.540000
241.409439	145.860000
241.502228	145.580000
241.595001	146.060000
241.687790	145.840000
241.780579	146.120000
241.873367	146.160000
241.966141	146.580000
242.058929	146.060000
242.151718	146.600000
242.244507	147.140000
242.337311	146.380000
242.430099	146.860000
242.522903	146.980000
242.615692	146.320000
242.708481	145.860000
242.801270	146.640000
242.894073	146.400000
242.986862	146.600000
243.079651	147.120000
243.172455	146.880000
243.265244	146.800000
243.358063	145.840000
243.450867	146.080000
243.543655	145.840000
243.636459	145.980000
243.729263	146.100000
243.822067	146.660000
243.914856	146.680000
244.007660	146.820000
244.100464	146.880000
244.193268	146.440000
244.286072	146.300000
244.378876	145.660000
244.471680	145.460000
244.564499	145.660000
244.657318	146.440000
244.750122	146.720000
244.842926	146.440000
244.935745	146.880000
245.028549	146.540000
245.121368	145.720000
245.214172	145.440000
245.306992	145.860000
245.399796	145.320000
245.492615	145.560000
245.585434	145.540000
245.678253	145.480000
245.771072	145.300000
245.863892	145.880000
245.956711	146.060000
246.049530	145.940000
246.142349	145.880000
246.235168	145.820000
246.327988	146.040000
246.420807	145.340000
246.513626	145.620000
246.606445	145.400000
246.699280	145.440000
246.792099	145.000000
246.884918	145.260000
246.977753	145.260000
247.070587	145.540000
247.163422	145.520000
247.256241	145.680000
247.349075	146.000000
247.441895	145.920000
247.534729	146.200000
247.627563	146.120000
247.720383	146.600000
247.813217	146.300000
247.906052	146.220000
247.998886	145.960000
248.091736	146.120000
248.184570	145.460000
248.277405	145.720000
248.370239	146.480000
248.463074	147.380000
248.555908	147.580000
248.648743	147.420000
248.741592	147.340000
248.834427	146.860000
248.927261	145.480000
249.020111	145.800000
249.112946	146.600000
249.205795	146.360000
249.298630	146.340000
249.391495	146.880000
249.484344	146.560000
249.577179	146.180000
249.670029	146.460000
249.762878	146.660000
249.855728	146.680000
249.948563	146.800000
250.041412	146.060000
250.134262	146.140000
250.227112	146.160000
250.319962	146.040000
250.412827	145.740000
250.505692	145.520000
250.598541	145.440000
250.691391	144.900000
250.784241	145.020000
250.877106	145.320000
250.969955	145.460000
251.062805	146.080000
251.155670	147.120000
251.248520	147.120000
251.341385	147.260000
251.434235	147.340000
251.527100	146.740000
251.619965	146.040000
251.712814	146.480000
251.805695	146.360000
251.898560	146.720000
251.991425	147.080000
252.084290	147.300000
252.177155	146.660000
252.270020	146.180000
252.362885	146.200000
252.455750	146.380000
252.548615	146.000000
252.641479	145.820000
252.734360	145.920000
252.827240	145.480000
252.920105	145.080000
253.012970	145.040000
253.105850	145.480000
253.198715	145.200000
253.291595	145.580000
253.384460	145.140000
253.477341	144.980000
253.570221	144.780000
253.663086	145.060000
253.755966	145.820000
253.848846	146.220000
253.941727	146.620000
254.034592	147.000000
254.127472	146.460000
254.220367	145.960000
254.313248	145.920000
254.406128	145.380000
254.499008	145.220000
254.591904	146.100000
254.684784	146.700000
254.777664	146.600000
254.870544	146.540000
254.963440	146.480000
255.056335	146.540000
255.149216	145.920000
255.242111	146.600000
255.334991	147.140000
255.427887	147.260000
255.520767	147.160000
255.613663	147.260000
255.706558	146.400000
255.799438	146.120000
255.892334	145.820000
255.985229	145.580000
256.078125	145.340000
256.171021	145.820000
256.263916	146.400000
256.356812	146.820000
256.449707	147.080000
256.542603	146.920000
256.635498	146.920000
256.728394	146.780000
256.821289	146.200000
256.914215	146.340000
257.007080	146.640000
257.100006	146.700000
257.192932	146.820000
257.285828	147.040000
257.378723	146.680000
257.471619	146.500000
257.564545	145.820000
257.657440	145.860000
257.750336	146.320000
257.843262	146.240000
257.936157	147.040000
258.029053	147.500000
258.121979	147.440000
258.214874	147.040000
258.307800	146.960000
258.400696	145.920000
258.493622	145.900000
258.586517	145.040000
258.679443	145.460000
258.772339	145.380000
258.865265	145.440000
258.958160	145.020000
259.051086	146.020000
259.144012	145.560000
259.236938	146.140000
259.329834	146.420000
259.422791	146.460000
259.515717	145.740000
259.608612	145.580000
259.701538	145.600000
259.794464	145.400000
259.887390	145.580000
259.980316	145.780000
260.073212	145.700000
260.166138	144.640000
260.259064	145.100000
260.351990	145.820000
260.444916	145.880000
260.537842	146.480000
260.630768	147.520000
260.723694	147.360000
260.816620	146.860000
260.909546	146.880000
261.002472	146.180000
261.095398	145.700000
261.188354	145.340000
261.281281	145.020000
261.374207	145.120000
261.467133	146.080000
261.560089	146.220000
261.653015	146.400000
261.745972	146.820000
261.838867	146.900000
261.931824	146.700000
262.024780	146.140000
262.117706	146.260000
262.210663	146.340000
262.303589	146.080000
262.396515	145.900000
262.489471	147.220000
262.582397	147.140000
262.675354	146.660000
262.768280	146.760000
262.861237	146.880000
262.954163	146.400000
263.047119	146.580000
263.140045	146.580000
263.233002	146.380000
263.325958	146.180000
263.418884	145.620000
263.511841	145.200000
263.604797	145.260000
263.697723	145.260000
263.790680	145.320000
263.883636	145.920000
263.976593	145.620000
264.069550	145.980000
264.162476	146.000000
264.255463	145.920000
264.348419	145.420000
264.441376	146.080000
264.534332	145.680000
264.627289	145.820000
264.720245	146.180000
264.813202	145.760000
264.906158	146.000000
264.999115	146.580000
265.092072	146.520000
265.185028	146.680000
265.277985	147.240000
265.370941	146.820000
265.463898	146.460000
265.556854	146.220000
265.649811	145.500000
265.742798	145.560000
265.835754	145.580000
265.928711	145.840000
266.021667	145.900000
266.114655	146.280000
266.207611	146.500000
266.300568	146.160000
266.393585	145.460000
266.486511	146.040000
266.579498	145.280000
266.672485	145.080000
266.765442	145.240000
266.858429	146.260000
266.951385	145.520000
267.044342	145.840000
267.137329	145.780000
267.230316	146.040000
267.323273	144.960000
267.416260	145.660000
267.509216	145.620000
267.602203	145.540000
267.695160	145.920000
267.788147	146.220000
267.881134	145.780000
267.974091	146.240000
268.067078	146.340000
268.160065	146.000000
268.253052	146.020000
268.346008	145.960000
268.438995	145.480000
268.531982	145.500000
268.624969	145.220000
268.717987	145.740000
268.810944	145.800000
268.903961	146.100000
268.996948	145.740000
269.089905	146.280000
269.182892	146.120000
269.275879	146.480000
269.368866	145.840000
269.461853	146.440000
269.554871	146.100000
269.647858	146.040000
269.740845	146.240000
269.833832	146.960000
269.926819	146.360000
270.019806	146.480000
270.112793	146.100000
270.205811	146.100000
270.298798	145.960000
270.391785	146.560000
270.484772	146.360000
270.577789	146.280000
270.670776	145.700000
270.763763	145.700000
270.856750	145.360000
270.949768	145.020000
271.042786	145.220000
271.135773	145.560000
271.228790	145.900000
271.321808	145.720000
271.414795	145.560000
271.507782	145.260000
271.600800	144.760000
271.693817	144.660000
271.786804	145.300000
271.879822	145.900000
271.972809	146.140000
272.065826	146.660000
272.158844	146.100000
272.251831	146.100000
272.344849	146.140000
272.437866	146.180000
272.530853	146.060000
272.623871	146.520000
272.716888	145.620000
272.809906	145.540000
272.902893	145.220000
272.995911	144.840000
273.088928	144.680000
273.181946	145.100000
273.274963	145.020000
273.367981	145.380000
273.460999	145.740000
273.554047	146.280000
273.647003	146.960000
273.740051	147.420000
273.833069	147.600000
273.926086	147.880000
274.019135	147.200000
274.112152	146.860000
274.205170	146.460000
274.298187	146.800000
274.391205	145.940000
274.484222	146.480000
274.577240	146.140000
274.670258	146.180000
274.763306	145.760000
274.856323	146.440000
274.949341	145.960000
275.042358	146.660000
275.135406	146.500000
275.228424	146.520000
275.321442	146.480000
275.414490	146.360000
275.507507	146.160000
275.600525	146.580000
275.693573	146.420000
275.786591	146.180000
275.879669	146.540000
275.972656	146.080000
276.065735	145.700000
276.158752	146.140000
276.251801	146.760000
276.344818	146.900000
276.437866	147.240000
276.530884	146.900000
276.623932	146.060000
276.716980	145.980000
276.809998	145.660000
276.903046	145.520000
276.996094	146.700000
277.089111	147.540000
277.182159	148.040000
277.275208	147.860000
277.368256	147.860000
277.461304	147.340000
277.554321	146.560000
277.647369	145.900000
277.740417	145.980000
277.833466	146.200000
277.926514	145.980000
278.019562	146.660000
278.112610	146.240000
278.205688	146.560000
278.298706	146.340000
278.391785	146.020000
278.484833	145.600000
278.577881	145.560000
278.670929	145.740000
278.763977	145.880000
278.857025	146.560000
278.950073	146.600000
279.043121	146.500000
279.136169	146.140000
279.229248	145.700000
279.322296	145.260000
279.415344	145.060000
279.508392	145.300000
279.601440	145.200000
279.694519	145.380000
279.787567	145.320000
279.880615	145.280000
279.973694	145.300000
280.066742	145.300000
280.159790	145.240000
280.252869	144.980000
280.345917	145.360000
280.438995	144.980000
280.532074	144.880000
280.625122	145.060000
280.718201	146.260000
280.811279	146.060000
280.904327	146.380000
280.997406	146.640000
281.090454	146.660000
281.183533	145.800000
281.276581	145.860000
281.369659	145.600000
281.462738	145.660000
281.555786	145.620000
281.648865	145.740000
281.741943	145.460000
281.835022	146.220000
281.928070	146.140000
282.021149	146.260000
282.114227	146.020000
282.207306	146.260000
282.300385	146.080000
282.393433	146.280000
282.486511	146.040000
282.579590	146.700000
282.672668	146.920000
282.765747	146.720000
282.858856	146.460000
282.951904	146.880000
283.045013	146.960000
283.138062	147.160000
283.231171	147.240000
283.324249	147.560000
283.417328	147.640000
283.510406	146.960000
283.603485	146.700000
283.696564	146.660000
283.789642	146.260000
283.882751	145.800000
283.975830	146.560000
284.068909	146.400000
284.161987	146.580000
284.255066	146.140000
284.348175	146.320000
284.441254	145.820000
284.534332	146.300000
284.627441	145.940000
284.720520	146.260000
284.813599	146.400000
284.906708	146.180000
284.999786	145.280000
285.092896	145.080000
285.185974	145.820000
285.279053	145.080000
285.372192	145.220000
285.465240	146.240000
285.558380	146.340000
285.651459	145.820000
285.744568	146.560000
285.837677	146.160000
285.930756	145.820000
286.023865	145.860000
286.116943	145.700000
286.210052	145.760000
286.303162	146.100000
286.396240	146.040000
286.489349	146.040000
286.582458	146.200000
286.675568	145.720000
286.768646	145.740000
286.861755	145.920000
286.954865	146.400000
287.047974	146.100000
287.141083	146.160000
287.234161	145.800000
287.327271	145.580000
287.420380	145.760000
287.513519	145.900000
287.606598	146.040000
287.699738	146.240000
287.792816	146.180000
287.885956	145.980000
287.979034	145.980000
288.072174	146.180000
288.165283	146.200000
288.258392	146.480000
288.351501	146.100000
288.444611	146.460000
288.537720	146.600000
288.630859	146.500000
288.723969	146.620000
288.817078	146.820000
288.910187	146.520000
289.003296	145.860000
289.096436	145.540000
289.189545	145.140000
289.282654	144.680000
289.375763	145.260000
289.468903	145.920000
289.562012	146.420000
289.655121	146.640000
289.748260	146.860000
289.841400	146.780000
289.934509	146.520000
290.027649	146.580000
290.120728	146.400000
290.213898	146.480000
290.306976	146.320000
290.400146	146.640000
290.493256	146.280000
290.586395	146.520000
290.679535	146.780000
290.772644	146.220000
290.865784	145.260000
290.958893	145.440000
291.052032	144.940000
291.145172	144.380000
291.238281	144.440000
291.331421	144.920000
291.424561	145.360000
291.517670	145.440000
291.610809	145.960000
291.703949	146.020000
291.797089	145.940000
291.890228	145.600000
291.983337	145.540000
292.076477	145.240000
292.169617	145.500000
292.262756	145.560000
292.355927	145.560000
292.449036	145.420000
292.542206	145.520000
292.635315	145.840000
292.728485	146.140000
292.821625	145.920000
292.914764	147.160000
293.007904	147.280000
293.101044	147.000000
293.194183	147.020000
293.287323	147.220000
293.380463	146.560000
293.473602	146.300000
293.566742	146.560000
293.659882	146.680000
293.753021	146.840000
293.846191	146.520000
293.939331	146.300000
294.032471	146.000000
294.125610	145.660000
294.218781	145.880000
294.311920	146.460000
294.405060	146.620000
294.498230	146.500000
294.591370	146.400000
294.684540	145.760000
294.777679	145.260000
294.870850	145.860000
294.963959	145.980000
295.057159	145.700000
295.150299	145.880000
295.243469	145.840000
295.336609	145.300000
295.429779	145.300000
295.522919	146.060000
295.616089	146.080000
295.709229	146.360000
295.802399	146.460000
295.895569	146.040000
295.988708	145.480000
296.081879	145.720000
296.175018	145.460000
296.268188	145.440000
296.361359	146.240000
296.454529	146.520000
296.547668	146.520000
296.640839	146.700000
296.734009	146.460000
296.827179	146.300000
296.920319	146.400000
297.013519	145.880000
297.106659	145.800000
297.199860	145.700000
297.292999	145.460000
297.386200	145.260000
297.479309	145.140000
297.572510	145.200000
297.665680	145.120000
297.758850	145.080000
297.852020	145.060000
297.945190	145.240000
298.038361	144.500000
298.131531	145.480000
298.224701	145.500000
298.317871	145.160000
298.411072	144.540000
298.504242	144.960000
298.597412	144.380000
298.690582	144.340000
298.783752	144.500000
298.876923	145.480000
298.970093	145.500000
299.063293	145.940000
299.156464	146.400000
299.249634	146.500000
299.342834	146.680000
299.436005	147.120000
299.529205	146.900000
299.622345	146.780000
299.715576	146.340000
299.808716	145.900000
299.901917	145.640000
299.995117	145.680000
300.088287	145.580000
300.181488	145.700000
300.274658	145.640000
300.367828	145.600000
300.461029	145.380000
300.554199	145.840000
300.647400	145.900000
300.740601	146.240000
300.833771	146.320000
300.926971	146.880000
301.020142	145.900000
301.113342	145.860000
301.206512	145.960000
301.299713	146.100000
301.392914	145.920000
301.486084	146.280000
301.579285	146.380000
301.672516	146.580000
301.765686	146.360000
301.858887	146.120000
301.952057	146.120000
302.045288	146.140000
302.138458	145.700000
302.231659	145.460000
302.324860	145.400000
302.418060	145.280000
302.511261	145.420000
302.604462	145.860000
302.697662	145.940000
302.790863	145.760000
302.884064	145.620000
302.977264	145.660000
303.070465	145.760000
303.163666	146.400000
303.256866	146.840000
303.350067	146.860000
303.443268	146.640000
303.536469	146.680000
303.629669	146.220000
303.722870	146.400000
303.816071	146.620000
303.909271	146.940000
304.002472	146.020000
304.095673	145.600000
304.188934	144.600000
304.282104	145.400000
304.375336	145.200000
304.468506	145.340000
304.561768	145.500000
304.654968	146.180000
304.748169	145.500000
304.841370	145.220000
304.934601	145.580000
305.027802	145.340000
305.121002	145.160000
305.214233	145.400000
305.307434	145.440000
305.400665	145.940000
305.493866	146.220000
305.587097	146.440000
305.680298	145.720000
305.773499	146.340000
305.866730	145.880000
305.959930	146.340000
306.053162	146.460000
306.146393	146.780000
306.239594	145.980000
306.332825	145.820000
306.426025	145.840000
306.519287	145.280000
306.612488	145.180000
306.705719	145.340000
306.798920	145.300000
306.892181	144.780000
306.985352	144.740000
307.078613	144.600000
307.171844	145.220000
307.265045	144.900000
307.358276	144.640000
307.451508	145.040000
307.544739	145.460000
307.637970	144.860000
307.731201	145.080000
307.824402	145.720000
307.917633	146.260000
308.010864	146.760000
308.104095	147.140000
308.197327	147.280000
308.290558	147.080000
308.383789	146.260000
308.477020	145.520000
308.570251	145.180000
308.663483	145.020000
308.756714	144.820000
308.849976	145.060000
308.943176	145.520000
309.036438	145.460000
309.129639	145.100000
309.222900	145.260000
309.316101	145.160000
309.409393	144.800000
309.502625	144.520000
309.595856	144.900000
309.689087	145.180000
309.782318	145.020000
309.875580	145.020000
309.968811	145.540000
310.062042	145.280000
310.155273	145.060000
310.248535	145.920000
310.341766	145.880000
310.434998	145.700000
310.528259	146.020000
310.621490	146.280000
310.714722	145.240000
310.807983	145.400000
310.901215	145.080000
310.994476	145.140000
311.087708	144.860000
311.181000	145.280000
311.274200	144.720000
311.367462	145.140000
311.460693	144.700000
311.553986	145.420000
311.647186	145.680000
311.740479	146.600000
311.833710	146.300000
311.926971	146.460000
312.020203	145.400000
312.113464	144.940000
312.206726	144.240000
312.299957	144.700000
312.393219	145.220000
312.486481	145.640000
312.579712	145.640000
312.672974	145.580000
312.766235	145.220000
312.859497	144.960000
312.952759	144.700000
313.045990	145.640000
313.139252	145.440000
313.232513	145.660000
313.325775	145.820000
313.419037	145.920000
313.512299	144.920000
313.605530	145.740000
313.698822	145.840000
313.792053	145.820000
313.885345	145.480000
313.978577	145.820000
314.071869	145.140000
314.165131	145.400000
314.258392	145.500000
314.351654	146.080000
314.444916	145.700000
314.538177	146.420000
314.631439	146.540000
314.724701	146.460000
314.817993	146.140000
314.911255	146.300000
315.004517	145.640000
315.097778	145.120000
315.191040	145.400000
315.284302	145.700000
315.377594	145.480000
315.470856	145.560000
315.564117	145.260000
315.657379	144.420000
315.750671	143.920000
315.843933	144.540000
315.937195	144.180000
316.030518	144.220000
316.123749	144.580000
316.217041	145.700000
316.310303	145.400000
316.403595	145.960000
316.496857	146.320000
316.590149	146.520000
316.683411	145.600000
316.776703	145.540000
316.869965	145.300000
316.963257	144.880000
317.056519	144.300000
317.149811	144.060000
317.243073	144.040000
317.336365	144.480000
317.429626	145.120000
317.522919	145.840000
317.616180	146.240000
317.709473	145.940000
317.802765	145.380000
317.896027	145.020000
317.989319	144.940000
318.082611	144.660000
318.175873	144.860000
318.269165	145.060000
318.362488	145.300000
318.455750	145.140000
318.549042	145.680000
318.642303	146.360000
318.735626	146.240000
318.828888	146.320000
318.922211	145.960000
319.015472	146.380000
319.108765	145.280000
319.202057	145.200000
319.295349	145.140000
319.388641	145.300000
319.481934	144.960000
319.575226	145.300000
319.668518	145.620000
319.761810	145.860000
319.855103	145.900000
319.948395	145.600000
320.041687	145.880000
320.134979	145.640000
320.228271	145.380000
320.321564	145.480000
320.414856	145.600000
320.508148	145.240000
320.601440	145.220000
320.694763	144.960000
320.788025	145.600000
320.881348	145.680000
320.974640	145.740000
321.067963	145.680000
321.161224	146.040000
321.254547	145.220000
321.347839	145.680000
321.441162	145.440000
321.534454	145.360000
321.627747	145.220000
321.721069	145.880000
321.814362	145.900000
321.907654	146.260000
322.000946	146.620000
322.094269	146.980000
322.187561	146.340000
322.280884	146.440000
322.374176	146.920000
322.467468	147.280000
322.560791	147.040000
322.654083	147.480000
322.747406	147.020000
322.840698	146.860000
322.934021	146.780000
323.027344	146.960000
323.120636	146.680000
323.213959	146.660000
323.307251	146.280000
323.400574	145.720000
323.493866	145.300000
323.587219	145.680000
323.680511	145.960000
323.773834	145.920000
323.867157	146.200000
323.960449	146.200000
324.053772	145.760000
324.147095	145.540000
324.240387	146.040000
324.333710	146.000000
324.427032	146.240000
324.520355	146.480000
324.613647	146.060000
324.706970	145.700000
324.800293	145.980000
324.893616	146.040000
324.986938	146.180000
325.080231	146.400000
325.173553	146.860000
325.266876	147.060000
325.360199	147.200000
325.453522	146.520000
325.546875	146.080000
325.640167	146.020000
325.733521	146.040000
325.826813	146.300000
325.920166	146.540000
326.013489	146.780000
326.106812	146.080000
326.200134	145.620000
326.293457	144.900000
326.386780	145.140000
326.480103	145.020000
326.573425	145.160000
326.666748	145.080000
326.760071	145.480000
326.853424	145.560000
326.946747	146.100000
327.040070	146.860000
327.133392	146.820000
327.226715	146.140000
327.320068	145.680000
327.413391	145.540000
327.506714	144.560000
327.600037	144.620000
327.693390	144.940000
327.786713	145.180000
327.880066	145.100000
327.973358	145.800000
328.066742	146.100000
328.160034	146.280000
328.253418	146.480000
328.346710	146.200000
328.440063	145.740000
328.533417	145.560000
328.626740	145.760000
328.720093	145.420000
328.813416	145.400000
328.906769	145.500000
329.000092	145.820000
329.093445	145.700000
329.186768	145.420000
329.280121	145.880000
329.373444	146.080000
329.466797	145.740000
329.560120	145.760000
329.653473	146.280000
329.746796	146.140000
329.840149	145.840000
329.933502	145.680000
330.026825	145.360000
330.120178	145.140000
330.213562	144.900000
330.306854	144.960000
330.400238	145.100000
330.493561	145.000000
330.586945	145.740000
330.680237	146.000000
330.773621	146.060000
330.866974	146.080000
330.960327	146.400000
331.053680	145.460000
331.147003	145.580000
331.240356	145.660000
331.333710	145.740000
331.427063	145.400000
331.520416	145.520000
331.613770	145.120000
331.707123	145.240000
331.800476	145.580000
331.893829	146.320000
331.987152	146.660000
332.080505	147.040000
332.173859	146.820000
332.267212	146.100000
332.360565	145.660000
332.453918	145.340000
332.547333	145.240000
332.640656	145.540000
332.734039	145.760000
332.827362	145.620000
332.920746	146.300000
333.014069	146.440000
333.107452	146.560000
333.200806	146.700000
333.294159	146.840000
333.387543	146.140000
333.480896	145.420000
333.574249	145.120000
333.667603	144.580000
333.760956	144.960000
333.854340	144.940000
333.947693	145.580000
334.041046	145.560000
334.134430	146.260000
334.227783	145.700000
334.321136	145.800000
334.414520	145.540000
334.507874	145.620000
334.601227	145.440000
334.694611	145.500000
334.787964	145.660000
334.881348	145.800000
334.974701	145.980000
335.068085	145.740000
335.161438	145.980000
335.254822	146.060000
335.348175	146.080000
335.441559	145.640000
335.534943	146.320000
335.628296	146.400000
335.721680	146.060000
335.815033	146.280000
335.908417	146.680000
336.001770	146.420000
336.095154	145.840000
336.188538	145.580000
336.281891	144.900000
336.375275	144.260000
336.468658	144.020000
336.562012	144.400000
336.655396	145.140000
336.748779	145.560000
336.842133	145.900000
336.935516	146.140000
337.028900	145.920000
337.122284	145.540000
337.215637	145.800000
337.309021	145.900000
337.402435	145.440000
337.495789	145.600000
337.589203	145.680000
337.682526	145.240000
337.775940	145.280000
337.869324	145.420000
337.962708	144.940000
338.056091	145.360000
338.149475	145.400000
338.242859	145.340000
338.336243	145.360000
338.429626	145.920000
338.523010	145.840000
338.616394	145.660000
338.709778	145.560000
338.803162	145.680000
338.896545	145.840000
338.989929	145.360000
339.083313	145.740000
339.176697	145.640000
339.270081	145.540000
339.363464	145.700000
339.456848	145.840000
339.550232	145.420000
339.643616	145.400000
339.737030	145.440000
339.830383	144.780000
339.923828	145.060000
340.017181	145.420000
340.110596	145.640000
340.203949	145.560000
340.297363	145.600000
340.390778	145.460000
340.484161	145.000000
340.577545	145.040000
340.670959	145.220000
340.764343	145.500000
340.857727	145.740000
340.951111	145.580000
341.044525	145.680000
341.137909	145.360000
341.231293	145.100000
341.324707	144.520000
341.418091	145.660000
341.511505	145.440000
341.604889	145.500000
341.698303	145.980000
341.791687	146.340000
341.885071	145.560000
341.978485	145.180000
342.071899	145.580000
342.165283	145.520000
342.258698	145.880000
342.352081	146.300000
342.445496	147.340000
342.538879	147.100000
342.632324	146.680000
342.725708	146.300000
342.819122	145.840000
342.912506	145.440000
343.005920	145.360000
343.099335	146.120000
343.192719	145.980000
343.286133	146.040000
343.379547	146.240000
343.472931	146.280000
343.566345	145.540000
343.659760	145.760000
343.753143	145.640000
343.846558	145.200000
343.939972	145.280000
344.033386	146.220000
344.126770	146.000000
344.220184	146.220000
344.313599	146.560000
344.407043	146.480000
344.500427	145.460000
344.593872	145.980000
344.687225	145.480000
344.780670	144.900000
344.874054	144.820000
344.967499	145.220000
345.060913	144.980000
345.154327	145.500000
345.247742	145.800000
345.341156	145.780000
345.434570	145.360000
345.527985	145.020000
345.621399	145.060000
345.714813	144.600000
345.808228	144.740000
345.901642	144.680000
345.995056	144.560000
346.088470	144.380000
346.181885	144.840000
346.275299	144.520000
346.368713	144.560000
346.462128	144.580000
346.555573	144.600000
346.648987	144.920000
346.742401	145.040000
346.835815	145.420000
346.929260	145.600000
347.022644	145.720000
347.116119	145.700000
347.209503	145.940000
347.302948	146.560000
347.396362	147.020000
347.489807	147.320000
347.583221	147.680000
347.676636	147.240000
347.770050	146.240000
347.863495	145.600000
347.956909	145.620000
348.050323	144.840000
348.143768	145.080000
348.237183	144.900000
348.330597	145.640000
348.424042	145.500000
348.517456	145.920000
348.610901	146.220000
348.704315	146.380000
348.797760	145.380000
348.891174	144.800000
348.984619	144.300000
349.078033	144.560000
349.171448	145.420000
349.264923	145.480000
349.358337	145.960000
349.451782	146.280000
349.545197	145.600000
349.638641	144.680000
349.732086	144.360000
349.825500	144.500000
349.918945	143.940000
350.012390	144.480000
350.105804	145.320000
350.199249	145.980000
350.292664	146.320000
350.386108	146.560000
350.479553	146.920000
350.572968	146.580000
350.666412	146.720000
350.759857	146.300000
350.853302	147.020000
350.946716	146.400000
351.040161	146.300000
351.133606	146.300000
351.227081	146.000000
351.320465	146.400000
351.413940	146.480000
351.507355	146.580000
351.600830	146.540000
351.694244	146.380000
351.787720	145.880000
351.881104	145.940000
351.974579	145.860000
352.067993	146.440000
352.161469	146.540000
352.254883	145.940000
352.348358	145.720000
352.441803	145.600000
352.535248	145.200000
352.628693	145.600000
352.722137	145.660000
352.815582	145.720000
352.909027	145.940000
353.002472	145.640000
353.095917	145.340000
353.189362	145.720000
353.282806	145.700000
353.376251	145.520000
353.469696	145.300000
353.563141	145.960000
353.656586	145.660000
353.750061	145.420000
353.843475	145.380000
353.936981	145.920000
354.030396	145.160000
354.123871	145.100000
354.217285	146.000000
354.310760	146.300000
354.404175	146.120000
354.497681	146.040000
354.591095	146.000000
354.684570	144.820000
354.777985	144.540000
354.871490	144.200000
354.964935	144.800000
355.058380	145.060000
355.151855	145.120000
355.245300	145.360000
355.338745	145.820000
355.432220	145.900000
355.525665	145.700000
355.619110	146.120000
355.712585	145.840000
355.806030	145.520000
355.899475	144.780000
355.992950	144.740000
356.086426	145.220000
356.179871	145.220000
356.273346	145.620000
356.366791	146.060000
356.460266	146.500000
356.553711	145.820000
356.647186	145.960000
356.740631	145.660000
356.834106	145.580000
356.927551	145.680000
357.021027	146.060000
357.114471	146.280000
357.207947	146.300000
357.301422	146.520000
357.394867	146.160000
357.488342	146.300000
357.581818	146.020000
357.675262	146.320000
357.768738	146.020000
357.862213	145.600000
357.955658	145.380000
358.049133	145.220000
358.142609	145.220000
358.236053	145.200000
358.329529	145.340000
358.423035	145.820000
358.516449	145.820000
358.609955	146.060000
358.703400	146.780000
358.796906	147.020000
358.890350	146.320000
358.983826	146.840000
359.077271	146.160000
359.170776	145.660000
359.264221	145.580000
359.357727	145.700000
359.451172	145.720000
359.544647	146.000000
359.638123	145.920000
359.731598	146.300000
359.825073	146.700000
359.918549	146.460000
360.012024	146.500000
360.105499	146.020000
360.198975	145.880000
360.292450	145.740000
360.385925	145.420000
360.479401	144.740000
360.572876	145.240000
360.666351	145.420000
360.759857	145.300000
360.853302	145.280000
360.946808	145.460000
361.040253	145.140000
361.133759	144.780000
361.227203	144.740000
361.320709	144.700000
361.414154	145.060000
361.507660	145.700000
361.601105	146.000000
361.694641	146.460000
361.788086	146.420000
361.881592	146.880000
361.975067	146.340000
362.068542	146.520000
362.162018	146.280000
362.255524	146.280000
362.348999	145.880000
362.442474	146.200000
362.535950	145.900000
362.629456	145.760000
362.722931	145.880000
362.816406	146.520000
362.909882	146.740000
363.003387	146.200000
363.096863	146.600000
363.190338	146.680000
363.283875	146.040000
363.377319	145.720000
363.470825	146.440000
363.564301	145.640000
363.657806	145.840000
363.751282	145.560000
363.844788	146.320000
363.938232	145.640000
364.031769	146.880000
364.125214	146.960000
364.218750	147.600000
364.312225	146.400000
364.405731	146.680000
364.499207	145.660000
364.592712	145.220000
364.686188	144.820000
364.779694	145.160000
364.873169	145.360000
364.966675	145.360000
365.060150	145.420000
365.153656	145.580000
365.247131	145.440000
365.340637	145.400000
365.434143	146.060000
365.527618	146.380000
365.621155	145.700000
365.714600	145.680000
365.808136	145.580000
365.901611	144.480000
365.995117	144.140000
366.088593	144.660000
366.182129	144.460000
366.275604	144.760000
366.369110	145.240000
366.462585	145.320000
366.556122	145.740000
366.649567	146.360000
366.743103	146.320000
366.836609	146.020000
366.930115	146.400000
367.023590	146.140000
367.117096	145.760000
367.210602	145.580000
367.304108	146.320000
367.397614	146.580000
367.491119	146.700000
367.584595	147.060000
367.678101	147.580000
367.771606	147.040000
367.865112	146.300000
367.958649	145.780000
368.052124	145.540000
368.145660	145.180000
368.239136	145.900000
368.332672	146.580000
368.426147	147.180000
368.519684	146.940000
368.613159	147.220000
368.706696	146.760000
368.800171	146.340000
368.893707	145.960000
368.987183	146.160000
369.080719	145.720000
369.174225	145.580000
369.267731	145.620000
369.361237	145.680000
369.454742	145.900000
369.548248	146.180000
369.641754	145.900000
369.735260	145.600000
369.828766	145.000000
369.922272	145.280000
370.015808	144.860000
370.109314	144.680000
370.202820	144.760000
370.296356	145.820000
370.389832	145.060000
370.483368	145.040000
370.576874	145.240000
370.670410	145.500000
370.763885	144.720000
370.857422	145.100000
370.950928	145.180000
371.044464	146.000000
371.137939	146.060000
371.231476	146.660000
371.324982	147.380000
371.418518	147.680000
371.512024	147.140000
371.605560	146.660000
371.699066	146.560000
371.792572	145.660000
371.886108	145.980000
371.979614	145.740000
372.073120	146.660000
372.166656	146.560000
372.260162	146.980000
372.353668	146.520000
372.447205	146.520000
372.540710	145.860000
372.634277	145.360000
372.727753	145.200000
372.821320	145.000000
372.914795	145.280000
373.008362	145.440000
373.101837	145.860000
373.195404	145.660000
373.288879	145.580000
373.382446	145.820000
373.475922	145.600000
373.569489	146.100000
373.662964	146.500000
373.756531	146.760000
373.850037	146.820000
373.943573	146.760000
374.037109	145.640000
374.130615	145.740000
374.224152	145.800000
374.317657	145.260000
374.411194	146.440000
374.504730	146.660000
374.598236	146.040000
374.691772	145.720000
374.785309	146.040000
374.878815	144.700000
374.972351	145.100000
375.065887	145.160000
375.159454	146.100000
375.252930	145.920000
375.346497	146.300000
375.440002	146.740000
375.533569	147.040000
375.627045	146.100000
375.720612	146.060000
375.814117	146.440000
375.907684	145.960000
376.001160	145.700000
376.094727	145.480000
376.188232	146.260000
376.281799	146.000000
376.375336	146.120000
376.468872	147.140000
376.562408	147.400000
376.655914	146.560000
376.749451	146.480000
376.842987	146.680000
376.936523	145.920000
377.030060	145.940000
377.123596	146.400000
377.217133	146.040000
377.310669	145.840000
377.404205	145.960000
377.497772	146.580000
377.591278	146.100000
377.684845	147.060000
377.778351	147.200000
377.871918	146.920000
377.965424	146.020000
378.058990	145.940000
378.152496	145.600000
378.246063	145.600000
378.339569	145.640000
378.433136	145.960000
378.526642	146.060000
378.620209	145.680000
378.713745	145.220000
378.807312	145.720000
378.900848	145.520000
378.994385	145.820000
379.087921	145.140000
379.181458	145.740000
379.274994	145.220000
379.368530	145.320000
379.462097	145.580000
379.555634	146.500000
379.649170	145.660000
379.742706	145.380000
379.836273	145.560000
379.929810	145.160000
380.023376	144.540000
380.116882	144.800000
380.210449	144.800000
380.303986	144.520000
380.397552	144.420000
380.491058	145.040000
380.584656	145.080000
380.678162	145.520000
380.771729	145.560000
380.865265	146.180000
380.958832	145.720000
381.052368	145.860000
381.145935	146.100000
381.239471	146.600000
381.333008	146.240000
381.426575	146.560000
381.520111	146.660000
381.613647	146.460000
381.707214	146.060000
381.800751	145.540000
381.894318	145.700000
381.987854	145.260000
382.081421	145.380000
382.174988	145.460000
382.268524	145.680000
382.362091	145.540000
382.455627	146.620000
382.549194	146.160000
382.642731	145.540000
382.736298	145.220000
382.829834	144.960000
382.923401	144.880000
383.016937	145.080000
383.110504	145.560000
383.204041	146.000000
383.297607	146.520000
383.391174	145.620000
383.484741	146.220000
383.578278	146.180000
383.671844	145.640000
383.765411	144.860000
383.858948	145.440000
383.952515	145.000000
384.046051	145.360000
384.139618	145.960000
384.233185	146.380000
384.326721	146.060000
384.420288	146.600000
384.513855	146.440000
384.607422	146.560000
384.700989	146.840000
384.794525	146.680000
384.888123	146.160000
384.981659	146.100000
385.075226	145.740000
385.168762	145.240000
385.262360	145.360000
385.355896	144.720000
385.449463	144.700000
385.542999	144.640000
385.636597	145.160000
385.730164	145.180000
385.823730	145.160000
385.917267	145.140000
386.010834	145.460000
386.104401	145.560000
386.197968	146.120000
386.291534	146.680000
386.385101	146.660000
386.478668	147.060000
386.572235	146.800000
386.665802	146.020000
386.759338	145.700000
386.852905	145.600000
386.946472	145.000000
387.040070	145.200000
387.133606	145.480000
387.227203	145.160000
387.320740	145.560000
387.414337	145.240000
387.507874	145.040000
387.601471	145.140000
387.695007	145.440000
387.788605	145.120000
387.882141	145.660000
387.975739	145.740000
388.069275	145.320000
388.162872	145.440000
388.256439	145.300000
388.350037	145.020000
388.443604	145.140000
388.537170	145.420000
388.630737	145.940000
388.724304	146.080000
388.817871	146.080000
388.911438	146.100000
389.005005	146.500000
389.098602	146.580000
389.192169	146.100000
389.285736	146.780000
389.379333	146.400000
389.472870	145.620000
389.566467	145.480000
389.660034	146.060000
389.753632	145.160000
389.847168	145.460000
389.940765	145.840000
390.034332	145.960000
390.127930	145.360000
390.221466	145.400000
390.315063	145.040000
390.408630	144.380000
390.502228	143.620000
390.595795	144.220000
390.689362	144.400000
390.782959	144.920000
390.876526	145.620000
390.970093	145.720000
391.063690	146.220000
391.157257	146.180000
391.250824	146.300000
391.344421	146.140000
391.437988	146.420000
391.531555	146.020000
391.625153	146.180000
391.718750	146.240000
391.812317	146.020000
391.905914	145.760000
391.999481	146.200000
392.093079	146.400000
392.186615	146.600000
392.280243	146.460000
392.373779	146.640000
392.467407	146.620000
392.560944	146.240000
392.654572	145.480000
392.748108	145.940000
392.841736	145.960000
392.935303	145.260000
393.028900	145.400000
393.122467	145.640000
393.216064	145.320000
393.309631	144.880000
393.403229	144.840000
393.496796	144.780000
393.590393	144.280000
393.683990	144.680000
393.777557	145.240000
393.871155	145.500000
393.964722	146.080000
394.058350	146.480000
394.151917	146.320000
394.245514	146.200000
394.339081	146.600000
394.432678	146.620000
394.526245	146.480000
394.619873	146.120000
394.713409	146.180000
394.807037	145.640000
394.900604	145.600000
394.994202	145.380000
395.087769	145.780000
395.181396	145.240000
395.274994	146.020000
395.368561	145.260000
395.462158	145.600000
395.555756	144.900000
395.649353	145.900000
395.742920	145.100000
395.836517	145.920000
395.930115	145.440000
396.023712	146.340000
396.117279	146.320000
396.210876	146.140000
396.304474	145.740000
396.398071	146.180000
396.491669	145.980000
396.585266	145.640000
396.678833	145.840000
396.772461	146.180000
396.866028	146.240000
396.959656	146.880000
397.053223	147.220000
397.146851	147.580000
397.240417	148.080000
397.334015	149.340000
397.427582	149.560000
397.521210	150.360000
397.614807	152.180000
397.708405	154.060000
397.802002	156.220000
397.895599	159.980000
397.989197	164.180000
398.082794	169.260000
398.176392	175.800000
398.269989	182.740000
398.363586	191.480000
398.457184	201.980000
398.550781	213.340000
398.644379	223.980000
398.737976	236.880000
398.831573	249.840000
398.925201	262.840000
399.018768	275.760000
399.112396	290.180000
399.205963	305.120000
399.299591	321.220000
399.393158	338.740000
399.486786	359.100000
399.580353	379.600000
399.673981	398.680000
399.767578	417.400000
399.861206	434.620000
399.954773	447.320000
400.048401	454.540000
400.141998	457.360000
400.235596	454.740000
400.329193	447.320000
400.422791	437.640000
400.516418	427.440000
400.610016	417.380000
400.703613	406.920000
400.797211	394.040000
400.890808	379.900000
400.984436	365.260000
401.078033	348.660000
401.171631	330.440000
401.265259	312.380000
401.358826	294.200000
401.452484	275.080000
401.546051	256.840000
401.639679	238.760000
401.733246	222.940000
401.826904	207.760000
401.920471	194.740000
402.014099	183.860000
402.107697	175.620000
402.201324	168.620000
402.294891	163.500000
402.388550	159.720000
402.482147	156.340000
402.575745	153.480000
402.669373	151.040000
402.762970	149.420000
402.856567	148.600000
402.950195	148.340000
403.043793	147.620000
403.137390	148.160000
403.231018	147.080000
403.324615	147.220000
403.418243	146.600000
403.511841	147.280000
403.605469	146.660000
403.699066	147.280000
403.792694	146.940000
403.886292	147.120000
403.979919	146.760000
404.073517	146.700000
404.167145	146.940000
404.260712	146.920000
404.354370	146.720000
404.447937	146.660000
404.541595	146.520000
404.635162	146.500000
404.728821	146.900000
404.822418	146.600000
404.916046	146.600000
405.009644	146.860000
405.103271	147.100000
405.196899	146.240000
405.290497	146.400000
405.384125	146.540000
405.477722	145.900000
405.571350	145.060000
405.664948	145.500000
405.758575	145.060000
405.852203	144.580000
405.945801	145.160000
406.039429	145.660000
406.133057	145.300000
406.226654	145.400000
406.320312	145.560000
406.413879	145.260000
406.507538	145.340000
406.601135	145.260000
406.694763	145.960000
406.788361	145.580000
406.882019	145.600000
406.975586	145.540000
407.069244	146.220000
407.162872	145.980000
407.256470	146.060000
407.350098	146.000000
407.443726	145.600000
407.537323	145.020000
407.630951	145.100000
407.724579	145.200000
407.818207	145.840000
407.911804	145.940000
408.005432	146.220000
408.099060	146.300000
408.192688	146.720000
408.286285	146.300000
408.379913	146.120000
408.473572	146.020000
408.567169	145.320000
408.660828	144.980000
408.754395	144.900000
408.848053	144.780000
408.941650	144.840000
409.035309	144.700000
409.128906	144.920000
409.222565	145.160000
409.316132	145.640000
409.409790	145.120000
409.503387	145.480000
409.597046	145.580000
409.690674	145.560000
409.784302	145.440000
409.877930	145.680000
409.971558	145.960000
410.065186	145.580000
410.158783	145.540000
410.252411	145.280000
410.346039	145.860000
410.439667	145.520000
410.533295	145.860000
410.626923	145.980000
410.720551	145.860000
410.814209	145.920000
410.907806	146.280000
411.001465	145.800000
411.095062	145.920000
411.188721	146.640000
411.282318	146.220000
411.375977	145.740000
411.469574	146.100000
411.563232	145.440000
411.656830	144.960000
411.750488	144.720000
411.844086	144.740000
411.937744	144.660000
412.031372	144.840000
412.125000	145.040000
412.218628	145.040000
412.312256	145.780000
412.405884	146.340000
412.499512	146.320000
412.593170	146.380000
412.686798	146.840000
412.780426	146.000000
412.874054	145.760000
412.967682	145.940000
413.061310	146.620000
413.154968	146.560000
413.248566	146.880000
413.342224	146.520000
413.435852	146.340000
413.529510	145.420000
413.623108	144.760000
413.716766	145.020000
413.810364	145.280000
413.904022	145.140000
413.997650	144.900000
414.091309	145.660000
414.184906	145.180000
414.278564	144.960000
414.372192	145.400000
414.465851	145.880000
414.559479	145.460000
414.653107	146.600000
414.746735	146.340000
414.840393	146.360000
414.934021	146.540000
415.027649	146.240000
415.121277	145.500000
415.214935	146.200000
415.308563	146.020000
415.402191	145.480000
415.495850	145.760000
415.589478	145.440000
415.683136	144.940000
415.776733	145.240000
415.870422	145.820000
415.964020	145.420000
416.057678	145.720000
416.151306	145.760000
416.244965	145.280000
416.338562	145.060000
416.432251	146.080000
416.525848	146.680000
416.619507	146.940000
416.713165	147.520000
416.806793	147.400000
416.900421	146.920000
416.994080	146.020000
417.087708	145.880000
417.181366	145.320000
417.274994	145.340000
417.368622	145.420000
417.462280	146.160000
417.555908	146.020000
417.649567	146.100000
417.743195	146.120000
417.836853	146.020000
417.930481	145.900000
418.024170	146.260000
418.117767	146.520000
418.211426	146.860000
418.305054	147.180000
418.398712	146.580000
418.492340	146.660000
418.585999	147.000000
418.679626	147.140000
418.773285	147.260000
418.866913	147.840000
418.960571	147.880000
419.054230	147.740000
419.147858	147.480000
419.241516	147.320000
419.335144	146.880000
419.428802	146.580000
419.522461	145.880000
419.616089	145.480000
419.709747	145.480000
419.803375	145.720000
419.897034	145.700000
419.990662	145.940000
420.084320	146.620000
420.177979	147.000000
420.271606	147.260000
420.365295	147.620000
420.458893	147.560000
420.552582	147.560000
420.646210	146.920000
420.739868	146.300000
420.833496	145.880000
420.927155	145.740000
421.020782	145.200000
421.114471	145.120000
421.208069	145.380000
421.301758	145.720000
421.395386	146.000000
421.489044	145.740000
421.582703	145.560000
421.676361	146.140000
421.769989	145.640000
421.863647	145.920000
421.957306	146.420000
422.050934	147.020000
422.144592	146.300000
422.238251	146.100000
422.331909	145.480000
422.425537	145.200000
422.519196	145.060000
422.612854	144.800000
422.706543	144.740000
422.800140	145.420000
422.893829	145.020000
422.987457	144.280000
423.081146	144.680000
423.174744	145.420000
423.268433	145.060000
423.362061	145.260000
423.455750	145.420000
423.549347	145.420000
423.643036	144.540000
423.736664	145.060000
423.830353	145.420000
423.924011	146.160000
424.017639	145.840000
424.111298	146.440000
424.204956	146.220000
424.298615	146.140000
424.392273	145.540000
424.485931	145.800000
424.579559	145.720000
424.673218	145.700000
424.766876	145.620000
424.860535	145.580000
424.954193	145.280000
425.047882	145.760000
425.141510	145.520000
425.235199	145.580000
425.328796	145.540000
425.422485	145.400000
425.516113	144.500000
425.609802	144.660000
425.703430	144.820000
425.797119	145.040000
425.890747	145.340000
425.984436	145.740000
426.078064	145.880000
426.171753	145.740000
426.265411	145.640000
426.359070	145.760000
426.452728	145.640000
426.546356	145.320000
426.640015	145.480000
426.733673	145.640000
426.827332	145.460000
426.920990	146.160000
427.014648	145.880000
427.108307	145.860000
427.201965	146.240000
427.295624	146.680000
427.389282	146.080000
427.482941	146.940000
427.576630	146.820000
427.670258	146.000000
427.763947	145.580000
427.857574	145.540000
427.951263	145.080000
428.044922	144.680000
428.138611	145.120000
428.232239	145.500000
428.325928	145.800000
428.419556	146.200000
428.513245	146.160000
428.606903	146.000000
428.700562	145.520000
428.794220	145.000000
428.887878	144.240000
428.981537	144.460000
429.075195	144.580000
429.168854	145.200000
429.262512	145.580000
429.356201	145.900000
429.449860	146.020000
429.543518	146.260000
429.637177	146.160000
429.730835	146.060000
429.824493	146.020000
429.918182	146.380000
430.011810	145.440000
430.105530	144.780000
430.199158	144.960000
430.292847	144.660000
430.386475	144.280000
430.480164	144.500000
430.573792	144.340000
430.667511	144.060000
430.761139	144.520000
430.854828	144.960000
430.948456	145.440000
431.042145	146.040000
431.135834	145.720000
431.229492	145.980000
431.323151	146.020000
431.416809	145.940000
431.510468	145.720000
431.604156	145.980000
431.697815	145.640000
431.791473	145.100000
431.885132	144.680000
431.978821	145.080000
432.072479	145.460000
432.166138	145.840000
432.259827	145.920000
432.353485	146.640000
432.447174	146.840000
432.540802	146.500000
432.634491	146.500000
432.728149	146.680000
432.821838	146.900000
432.915466	146.420000
433.009186	146.560000
433.102814	145.820000
433.196503	145.620000
433.290131	145.500000
433.383850	145.520000
433.477509	145.360000
433.571167	146.240000
433.664856	146.480000
433.758514	146.620000
433.852173	146.660000
433.945862	146.660000
434.039520	146.080000
434.133179	145.760000
434.226868	145.360000
434.320526	144.680000
434.414185	145.220000
434.507874	145.160000
434.601562	145.360000
434.695221	145.080000
434.788910	145.720000
434.882538	145.580000
434.976257	145.320000
435.069885	145.380000
435.163574	145.960000
435.257233	145.620000
435.350922	145.660000
435.444580	145.720000
435.538269	145.400000
435.631897	145.580000
435.725616	146.400000
435.819275	146.540000
435.912964	147.200000
436.006622	147.700000
436.100311	147.140000
436.193970	146.160000
436.287628	145.820000
436.381317	145.240000
436.474976	144.740000
436.568665	144.500000
436.662323	144.660000
436.756012	144.780000
436.849670	144.820000
436.943390	145.060000
437.037018	145.100000
437.130737	145.120000
437.224365	144.560000
437.318085	144.620000
437.411713	144.440000
437.505432	144.620000
437.599060	145.200000
437.692780	146.500000
437.786407	146.560000
437.880127	146.920000
437.973755	146.920000
438.067474	146.200000
438.161133	145.620000
438.254822	145.960000
438.348480	145.640000
438.442169	146.180000
438.535828	147.200000
438.629517	146.880000
438.723175	146.480000
438.816864	147.000000
438.910553	146.260000
439.004211	145.480000
439.097900	145.220000
439.191559	145.360000
439.285248	144.620000
439.378906	145.240000
439.472626	145.500000
439.566284	145.500000
439.659973	145.500000
439.753632	145.540000
439.847321	145.500000
439.940979	145.440000
440.034698	145.580000
440.128326	145.360000
440.222046	145.340000
440.315674	144.640000
440.409393	144.840000
440.503082	144.820000
440.596741	145.220000
440.690430	145.500000
440.784088	145.440000
440.877777	144.940000
440.971466	145.280000
441.065125	144.780000
441.158813	144.540000
441.252502	145.080000
441.346161	145.400000
441.439850	145.440000
441.533539	145.540000
441.627197	145.960000
441.720886	145.720000
441.814606	146.020000
441.908234	145.920000
442.001953	145.980000
442.095612	146.020000
442.189301	146.300000
442.282959	146.200000
442.376678	145.580000
442.470306	146.240000
442.564026	145.600000
442.657684	145.560000
442.751404	145.660000
442.845032	146.660000
442.938751	146.020000
443.032440	146.460000
443.126099	145.960000
443.219788	146.220000
443.313477	145.940000
443.407166	146.020000
443.500824	145.920000
443.594513	146.360000
443.688202	146.140000
443.781891	145.660000
443.875549	145.420000
443.969238	145.520000
444.062927	145.540000
444.156647	145.320000
444.250275	145.820000
444.343994	146.060000
444.437653	146.140000
444.531372	146.160000
444.625031	145.900000
444.718719	145.460000
444.812378	145.400000
444.906097	145.120000
444.999756	144.560000
445.093445	144.620000
445.187103	144.980000
445.280823	145.580000
445.374512	145.420000
445.468201	145.900000
445.561859	146.040000
445.655548	145.840000
445.749237	144.920000
445.842926	144.800000
445.936615	145.100000
446.030304	145.060000
446.123962	145.240000
446.217651	145.620000
446.311340	146.240000
446.405029	145.560000
446.498749	145.360000
446.592407	145.000000
446.686096	145.000000
446.779755	144.880000
446.873474	145.660000
446.967133	145.840000
447.060852	145.620000
447.154510	145.500000
447.248230	145.540000
447.341858	145.120000
447.435577	144.660000
447.529236	144.700000
447.622955	144.740000
447.716644	144.700000
447.810333	144.840000
447.904022	145.620000
447.997711	145.860000
448.091400	146.300000
448.185059	146.120000
448.278748	146.180000
448.372437	145.740000
448.466125	145.820000
448.559814	145.460000
448.653503	145.960000
448.747192	145.700000
448.840912	146.280000
448.934570	146.160000
449.028290	146.660000
449.121948	146.160000
449.215637	145.980000
449.309296	145.380000
449.403015	145.640000
449.496674	145.200000
449.590393	145.360000
449.684052	145.280000
449.777771	146.300000
449.871429	145.520000
449.965149	145.520000
450.058838	145.600000
450.152527	146.300000
450.246216	145.440000
450.339905	145.960000
450.433594	145.720000
450.527283	146.340000
450.620972	146.080000
450.714661	146.300000
450.808350	146.400000
450.902039	146.680000
450.995728	145.860000
451.089417	145.600000
451.183105	145.320000
451.276794	145.640000
451.370514	145.280000
451.464172	144.780000
451.557892	144.800000
451.651550	145.180000
451.745270	144.620000
451.838928	144.160000
451.932648	144.680000
452.026306	145.000000
452.120026	144.580000
452.213684	145.300000
452.307404	145.580000
452.401062	145.680000
452.494781	145.800000
452.588470	145.840000
452.682159	145.020000
452.775848	145.620000
452.869537	145.300000
452.963226	144.660000
453.056915	144.880000
453.150604	144.900000
453.244293	144.840000
453.337982	145.680000
453.431671	146.180000
453.525360	146.280000
453.619049	146.840000
453.712769	146.720000
453.806427	146.020000
453.900146	145.800000
453.993805	145.600000
454.087555	145.960000
454.181213	146.040000
454.274933	145.940000
454.368591	145.840000
454.462311	145.480000
454.555969	144.980000
454.649689	145.500000
454.743347	145.500000
454.837067	146.240000
454.930756	147.100000
455.024445	147.060000
455.118134	146.420000
455.211853	146.760000
455.305542	146.120000
455.399231	145.740000
455.492920	145.520000
455.586609	145.540000
455.680298	145.620000
455.773987	145.420000
455.867676	145.380000
455.961365	145.680000
456.055084	145.540000
456.148773	145.460000
456.242493	145.560000
456.336151	145.480000
456.429871	145.780000
456.523529	146.420000
456.617249	145.840000
456.710907	146.660000
456.804626	146.800000
456.898315	146.040000
456.992035	145.640000
457.085693	145.580000
457.179413	144.380000
457.273102	145.100000
457.366791	145.100000
457.460480	145.240000
457.554199	146.020000
457.647888	146.520000
457.741577	145.680000
457.835266	146.200000
457.928955	146.400000
458.022644	146.560000
458.116364	146.740000
458.210052	146.520000
458.303741	146.820000
458.397461	146.060000
458.491119	145.300000
458.584839	145.440000
458.678528	145.680000
458.772247	145.060000
458.865906	145.320000
458.959625	146.420000
459.053284	145.900000
459.147003	145.500000
459.240692	146.320000
459.334412	146.600000
459.428070	145.680000
459.521790	145.680000
459.615479	145.780000
459.709198	145.820000
459.802887	145.380000
459.896576	145.240000
459.990265	145.440000
460.083954	145.820000
460.177673	144.980000
460.271362	145.180000
460.365051	145.600000
460.458740	145.520000
460.552429	145.060000
460.646149	145.180000
460.739838	144.880000
460.833527	144.820000
460.927246	144.680000
461.020905	144.600000
461.114655	144.600000
461.208313	145.260000
461.302032	144.680000
461.395691	144.700000
461.489441	144.980000
461.583099	144.760000
461.676819	144.260000
461.770477	144.820000
461.864197	144.800000
461.957916	144.620000
462.051605	144.420000
462.145294	145.220000
462.238983	144.900000
462.332703	145.340000
462.426392	145.920000
462.520081	146.020000
462.613770	145.220000
462.707489	145.660000
462.801178	145.420000
462.894867	145.160000
462.988556	145.120000
463.082275	145.360000
463.175964	145.100000
463.269684	145.200000
463.363342	145.240000
463.457092	144.900000
463.550751	145.000000
463.644470	145.080000
463.738129	144.960000
463.831879	144.840000
463.925537	145.820000
464.019257	145.880000
464.112946	145.980000
464.206665	145.760000
464.300323	145.600000
464.394043	145.160000
464.487762	144.880000
464.581451	144.980000
464.675140	144.960000
464.768829	145.400000
464.862549	145.480000
464.956238	145.920000
465.049927	145.820000
465.143646	146.320000
465.237335	145.980000
465.331024	146.460000
465.424713	146.360000
465.518433	146.340000
465.612152	145.920000
465.705811	146.060000
465.799561	145.580000
465.893219	145.060000
465.986938	144.840000
466.080597	144.720000
466.174347	144.840000
466.268005	144.900000
466.361725	145.220000
466.455414	145.300000
466.549133	145.340000
466.642792	145.400000
466.736542	145.140000
466.830231	145.180000
466.923920	145.080000
467.017609	145.200000
467.111328	144.780000
467.205017	144.860000
467.298706	144.700000
467.392426	145.020000
467.486115	145.340000
467.579803	145.200000
467.673523	145.500000
467.767212	145.780000
467.860901	145.460000
467.954651	145.440000
468.048309	146.000000
468.142029	145.860000
468.235718	145.840000
468.329437	145.580000
468.423096	145.560000
468.516846	145.200000
468.610504	144.800000
468.704224	144.260000
468.797913	144.460000
468.891632	144.420000
468.985291	144.360000
469.079010	144.540000
469.172729	144.320000
469.266418	144.500000
469.360107	144.380000
469.453827	144.260000
469.547516	144.580000
469.641205	145.260000
469.734924	145.480000
469.828613	146.060000
469.922302	146.520000
470.016022	146.460000
470.109711	146.080000
470.203430	145.800000
470.297150	145.040000
470.390808	144.920000
470.484558	144.900000
470.578217	145.760000
470.671936	146.380000
470.765625	147.080000
470.859344	146.640000
470.953003	146.720000
471.046753	145.920000
471.140411	145.140000
471.234131	144.960000
471.327820	145.380000
471.421539	145.520000
471.515228	145.260000
471.608948	145.780000
471.702637	145.080000
471.796326	144.720000
471.890045	144.680000
471.983734	145.120000
472.077423	144.360000
472.171143	144.760000
472.264832	145.120000
472.358521	144.820000
472.452240	144.520000
472.545929	145.560000
472.639648	145.800000
472.733337	145.980000
472.827057	146.120000
472.920746	146.160000
473.014465	146.200000
473.108124	145.900000
473.201874	145.840000
473.295532	145.600000
473.389252	145.960000
473.482941	145.920000
473.576660	145.800000
473.670319	145.600000
473.764069	145.880000
473.857727	146.060000
473.951477	145.720000
474.045166	145.960000
474.138855	145.680000
474.232574	145.420000
474.326263	145.580000
474.419952	145.840000
474.513672	145.720000
474.607361	145.780000
474.701050	146.340000
474.794769	146.000000
474.888458	146.180000
474.982178	146.600000
475.075867	146.940000
475.169586	146.560000
475.263275	146.740000
475.356995	146.640000
475.450653	146.220000
475.544403	145.900000
475.638062	146.660000
475.731812	146.200000
475.825470	145.700000
475.919189	146.040000
476.012878	146.380000
476.106598	145.620000
476.200256	145.900000
476.294006	145.680000
476.387695	145.420000
476.481384	145.160000
476.575104	145.140000
476.668793	144.640000
476.762512	144.540000
476.856201	144.940000
476.949890	144.800000
477.043610	144.380000
477.137299	144.700000
477.230988	145.280000
477.324707	144.800000
477.418396	145.540000
477.512146	145.960000
477.605804	145.940000
477.699524	145.940000
477.793213	146.000000
477.886932	145.380000
477.980591	145.360000
478.074341	145.000000
478.167999	144.480000
478.261749	144.560000
478.355408	144.640000
478.449127	144.960000
478.542816	146.180000
478.636536	146.880000
478.730225	146.900000
478.823944	147.100000
478.917633	146.820000
479.011322	146.640000
479.105042	146.300000
479.198730	146.680000
479.292450	146.480000
479.386139	146.720000
479.479828	146.440000
479.573547	146.880000
479.667267	146.440000
479.760925	146.380000
479.854675	146.480000
479.948334	146.500000
480.042084	146.000000
480.135742	146.280000
480.229462	146.160000
480.323151	145.920000
480.416870	145.200000
480.510529	145.080000
480.604279	144.760000
480.697937	145.000000
480.791656	144.500000
480.885345	144.640000
480.979065	144.720000
481.072754	145.100000
481.166473	145.380000
481.260132	145.900000
481.353882	145.940000
481.447540	145.800000
481.541260	145.760000
481.635010	145.160000
481.728668	144.740000
481.822388	144.800000
481.916077	145.000000
482.009796	144.620000
482.103485	145.240000
482.197205	145.520000
482.290863	145.780000
482.384613	145.560000
482.478271	145.400000
482.571991	144.960000
482.665680	144.760000
482.759399	145.320000
482.853058	145.780000
482.946808	145.720000
483.040466	145.760000
483.134216	146.160000
483.227875	145.340000
483.321594	146.000000
483.415283	146.260000
483.509003	146.240000
483.602661	145.920000
483.696411	146.360000
483.790070	145.520000
483.883789	145.500000
483.977478	145.740000
484.071198	145.600000
484.164917	145.060000
484.258606	144.700000
484.352325	145.160000
484.445984	145.400000
484.539734	145.520000
484.633392	145.280000
484.727142	145.880000
484.820801	145.380000
484.914520	144.920000
485.008209	145.200000
485.101929	145.800000
485.195587	145.340000
485.289337	145.400000
485.382996	145.480000
485.476715	145.220000
485.570404	145.480000
485.664124	145.640000
485.757782	146.040000
485.851532	145.880000
485.945190	145.780000
486.038910	146.040000
486.132599	146.360000
486.226318	145.600000
486.319977	145.640000
486.413727	146.180000
486.507446	145.120000
486.601105	144.440000
486.694855	144.620000
486.788513	144.600000
486.882233	144.360000
486.975922	144.480000
487.069641	144.720000
487.163300	144.440000
487.257050	145.440000
487.350708	145.200000
487.444427	145.200000
487.538116	145.060000
487.631836	145.200000
487.725494	144.500000
487.819214	144.760000
487.912903	144.640000
488.006622	145.280000
488.100281	145.740000
488.194031	145.880000
488.287689	146.120000
488.381409	147.140000
488.475098	146.760000
488.568817	146.660000
488.662476	146.440000
488.756226	145.940000
488.849945	144.940000
488.943604	144.860000
489.037354	144.800000
489.131012	144.800000
489.224731	144.920000
489.318390	144.940000
489.412140	145.140000
489.505798	145.280000
489.599518	144.940000
489.693207	145.240000
489.786926	145.340000
489.880585	145.000000
489.974335	144.960000
490.067993	146.340000
490.161713	146.480000
490.255371	147.140000
490.349121	147.420000
490.442780	147.420000
490.536499	145.760000
490.630188	145.300000
490.723907	144.720000
490.817566	144.700000
490.911285	144.620000
491.004974	145.120000
491.098694	144.720000
491.192413	145.280000
491.286102	144.780000
491.379822	144.840000
491.473480	145.060000
491.567200	145.360000
491.660889	144.740000
491.754608	145.180000
491.848267	145.120000
491.941986	144.840000
492.035675	144.820000
492.129395	145.400000
492.223053	145.260000
492.316772	145.640000
492.410461	145.820000
492.504181	145.960000
492.597839	145.340000
492.691559	145.480000
492.785248	145.240000
492.878967	145.160000
492.972626	144.900000
493.066345	145.160000
493.160034	144.740000
493.253754	144.580000
493.347412	144.200000
493.441132	144.660000
493.534882	145.060000
493.628540	145.720000
493.722260	146.180000
493.815918	146.780000
493.909668	146.840000
494.003326	147.260000
494.097046	146.900000
494.190704	146.580000
494.284454	146.340000
494.378113	146.240000
494.471832	145.620000
494.565491	145.580000
494.659210	145.500000
494.752899	145.660000
494.846619	145.540000
494.940277	145.720000
495.033997	145.740000
495.127686	145.360000
495.221405	145.020000
495.315063	145.240000
495.408783	144.960000
495.502441	145.220000
495.596191	145.460000
495.689850	145.280000
495.783569	145.620000
495.877228	145.860000
495.970947	145.440000
496.064697	145.560000
496.158356	146.640000
496.252075	146.180000
496.345734	145.980000
496.439453	146.680000
496.533142	146.880000
496.626862	146.920000
496.720520	146.700000
496.814240	146.640000
496.907898	146.320000
497.001617	146.280000
497.095306	145.320000
497.189026	145.360000
497.282684	145.400000
497.376404	145.600000
497.470062	145.120000
497.563782	145.240000
497.657471	145.160000
497.751190	145.220000
497.844849	145.120000
497.938568	145.600000
498.032227	145.880000
498.125946	146.360000
498.219635	145.920000
498.313354	145.540000
498.407074	145.180000
498.500732	145.320000
498.594452	145.300000
498.688110	145.300000
498.781830	145.180000
498.875519	145.240000
498.969238	144.660000
499.062897	144.340000
499.156616	144.940000
499.250275	145.280000
499.343994	144.900000
499.437653	145.120000
499.531372	145.380000
499.625061	145.840000
499.718781	145.960000
499.812439	146.500000
499.906158	146.560000
499.999817	146.240000
500.093536	145.440000
500.187195	145.340000
500.280914	145.580000
500.374573	145.660000
500.468323	145.560000
500.561981	145.580000
500.655701	145.440000
500.749420	145.100000
500.843079	145.280000
500.936798	145.440000
501.030457	146.040000
501.124176	146.360000
501.217834	146.320000
501.311554	146.020000
501.405212	145.720000
501.498962	144.900000
501.592621	144.600000
501.686340	144.960000
501.779999	145.240000
501.873718	145.720000
501.967377	146.180000
502.061096	146.460000
502.154755	145.960000
502.248474	146.060000
502.342133	145.960000
502.435852	145.580000
502.529510	146.000000
502.623230	146.640000
502.716888	146.020000
502.810608	146.060000
502.904266	146.640000
502.997986	146.080000
503.091705	145.440000
503.185364	145.600000
503.279083	145.560000
503.372772	145.320000
503.466492	145.020000
503.560150	144.940000
503.653870	145.220000
503.747528	145.360000
503.841248	145.100000
503.934906	145.460000
504.028625	145.440000
504.122284	145.380000
504.216003	145.920000
504.309662	145.740000
504.403381	145.780000
504.497040	145.940000
504.590759	145.840000
504.684418	145.600000
504.778137	146.300000
504.871796	146.600000
504.965515	146.640000
505.059174	146.420000
505.152893	145.680000
505.246521	145.060000
505.340240	144.720000
505.433899	144.820000
505.527618	145.520000
505.621338	146.100000
505.714996	146.040000
505.808716	145.880000
505.902374	146.320000
505.996094	146.140000
506.089752	145.820000
506.183472	146.200000
506.277130	146.360000
506.370850	146.120000
506.464508	146.060000
506.558228	146.320000
506.651886	146.180000
506.745605	146.260000
506.839264	146.220000
506.932983	146.180000
507.026611	146.020000
507.120331	146.300000
507.213989	145.600000
507.307709	145.500000
507.401367	145.600000
507.495087	146.320000
507.588745	145.860000
507.682465	146.980000
507.776123	147.000000
507.869843	146.940000
507.963531	146.560000
508.057190	146.960000
508.150909	146.320000
508.244568	146.580000
508.338287	146.320000
508.431946	145.880000
508.525665	145.480000
508.619324	145.420000
508.713013	145.700000
508.806671	146.040000
508.900391	146.960000
508.994049	147.560000
509.087769	147.320000
509.181427	146.560000
509.275146	146.220000
509.368774	145.180000
509.462494	144.800000
509.556152	145.000000
509.649872	145.600000
509.743530	145.920000
509.837250	146.440000
509.930878	146.640000
510.024597	146.340000
510.118256	146.100000
510.211975	145.480000
510.305695	144.780000
510.399353	145.080000
510.493042	145.740000
510.586700	145.920000
510.680420	146.980000
510.774078	147.100000
510.867798	146.700000
510.961426	145.860000
511.055145	145.680000
511.148804	144.980000
511.242523	145.440000
511.336151	145.400000
511.429871	146.120000
511.523529	145.660000
511.617249	145.420000
511.710876	145.200000
511.804596	144.940000
511.898254	144.860000
511.991974	145.440000
512.085632	145.460000
512.179321	145.660000
512.272949	146.220000
512.366699	146.280000
512.460327	146.200000
512.554077	147.140000
512.647766	147.140000
512.741394	146.740000
512.835144	147.120000
512.928772	146.860000
513.022461	146.600000
513.116150	146.200000
513.209839	146.820000
513.303467	146.060000
513.397217	145.700000
513.490845	145.360000
513.584595	145.240000
513.678223	144.420000
513.771912	144.020000
513.865601	144.660000
513.959290	144.380000
514.052917	144.620000
514.146667	145.460000
514.240295	146.300000
514.333984	146.360000
514.427673	146.260000
514.521362	146.580000
514.614990	145.820000
514.708740	145.740000
514.802368	145.820000
514.896057	146.140000
514.989746	146.640000
515.083435	146.640000
515.177124	146.960000
515.270752	146.580000
515.364502	146.460000
515.458130	146.280000
515.551819	146.320000
515.645508	146.000000
515.739197	145.860000
515.832825	145.960000
515.926575	145.280000
516.020203	145.520000
516.113892	146.220000
516.207520	146.340000
516.301270	146.320000
516.394897	146.300000
516.488586	146.520000
516.582275	145.980000
516.675964	145.580000
516.769592	145.500000
516.863281	146.300000
516.956970	146.660000
517.050659	146.440000
517.144287	146.760000
517.238037	146.920000
517.331665	146.320000
517.425354	145.820000
517.519043	145.780000
517.612732	146.080000
517.706421	145.940000
517.800049	145.560000
517.893738	145.220000
517.987427	145.160000
518.081116	144.820000
518.174744	144.720000
518.268433	145.320000
518.362122	145.900000
518.455811	145.920000
518.549438	146.500000
518.643127	147.260000
518.736816	146.880000
518.830505	146.260000
518.924133	146.240000
519.017822	146.120000
519.111511	145.700000
519.205200	146.260000
519.298828	146.520000
519.392517	146.360000
519.486206	146.680000
519.579895	146.560000
519.673523	146.200000
519.767212	146.040000
519.860901	146.440000
519.954590	145.900000
520.048279	145.420000
520.141907	145.300000
520.235596	146.360000
520.329224	146.500000
520.422974	146.200000
520.516602	146.480000
520.610291	146.380000
520.703918	146.080000
520.797607	145.900000
520.891296	146.420000
520.984985	146.840000
521.078613	147.240000
521.172302	146.540000
521.265930	147.080000
521.359680	147.240000
521.453308	146.980000
521.546997	146.720000
521.640625	146.760000
521.734314	146.120000
521.827942	146.080000
521.921692	146.500000
522.015320	146.500000
522.109009	146.080000
522.202698	145.980000
522.296326	145.520000
522.390015	145.380000
522.483704	145.520000
522.577393	145.900000
522.671021	145.840000
522.764709	145.840000
522.858337	146.040000
522.952026	146.360000
523.045654	147.020000
523.139404	147.660000
523.233032	148.020000
523.326721	148.020000
523.420349	147.660000
523.514038	147.120000
523.607666	147.540000
523.701355	146.900000
523.795044	146.300000
523.888733	146.640000
523.982361	146.780000
524.076050	146.020000
524.169678	146.660000
524.263367	146.580000
524.356995	145.740000
524.450684	145.620000
524.544373	145.340000
524.638062	144.880000
524.731750	144.940000
524.825378	145.140000
524.919067	144.660000
525.012695	144.920000
525.106384	144.740000
525.200012	145.040000
525.293701	144.740000
525.387329	145.220000
525.481018	145.260000
525.574646	145.780000
525.668396	145.660000
525.762024	146.520000
525.855713	146.520000
525.949341	145.840000
526.043030	146.100000
526.136658	146.040000
526.230347	145.320000
526.323975	144.800000
526.417664	145.060000
526.511292	144.880000
526.604980	145.160000
526.698608	145.520000
526.792297	145.840000
526.885925	146.240000
526.979614	146.220000
527.073303	145.780000
527.166931	145.800000
527.260620	146.000000
527.354309	146.240000
527.447998	145.900000
527.541626	145.780000
527.635315	145.900000
527.728943	146.560000
527.822632	146.540000
527.916260	146.800000
528.009949	147.240000
528.103577	146.800000
528.197266	145.860000
528.290894	145.720000
528.384583	145.520000
528.478210	145.440000
528.571899	145.900000
528.665527	146.400000
528.759216	146.580000
528.852844	147.040000
528.946533	147.080000
529.040161	146.780000
529.133850	146.460000
529.227478	146.160000
529.321167	146.160000
529.414856	146.440000
529.508484	147.080000
529.602173	146.940000
529.695801	146.940000
529.789490	146.840000
529.883057	146.360000
529.976746	146.460000
530.070374	146.740000
530.164062	146.680000
530.257690	146.680000
530.351379	146.800000
530.445007	146.580000
530.538696	146.060000
530.632324	146.680000
530.726013	146.700000
530.819641	146.660000
530.913330	146.460000
531.006958	146.540000
531.100647	146.140000
531.194275	145.900000
531.287964	145.760000
531.381592	145.520000
531.475220	145.720000
531.568848	145.680000
531.662537	145.460000
531.756226	146.000000
531.849854	146.120000
531.943542	146.220000
532.037170	145.740000
532.130859	146.360000
532.224487	145.980000
532.318176	145.740000
532.411804	146.220000
532.505432	146.540000
532.599060	145.980000
532.692749	146.000000
532.786377	146.460000
532.880066	145.740000
532.973694	145.360000
533.067383	145.260000
533.161011	145.140000
533.254639	144.820000
533.348267	144.680000
533.441956	145.180000
533.535583	144.960000
533.629272	145.180000
533.722900	144.560000
533.816589	144.920000
533.910156	145.060000
534.003845	145.000000
534.097534	145.240000
534.191162	146.440000
534.284851	146.680000
534.378479	146.240000
534.472107	146.820000
534.565735	146.440000
534.659424	146.340000
534.753052	146.220000
534.846741	146.080000
534.940369	146.380000
535.033997	146.280000
535.127625	146.040000
535.221313	146.440000
535.314941	146.440000
535.408630	145.960000
535.502197	146.320000
535.595886	145.900000
535.689514	145.140000
535.783203	145.480000
535.876831	145.820000
535.970459	145.660000
536.064087	146.080000
536.157776	146.500000
536.251404	146.480000
536.345093	146.180000
536.438721	146.240000
536.532349	146.440000
536.626038	146.360000
536.719666	146.840000
536.813293	146.820000
536.906921	146.600000
537.000610	146.500000
537.094238	146.560000
537.187866	146.100000
537.281494	146.260000
537.375183	146.540000
537.468811	146.260000
537.562439	146.080000
537.656067	146.460000
537.749756	146.320000
537.843384	146.600000
537.937012	146.840000
538.030640	146.640000
538.124329	146.180000
538.217896	146.520000
538.311584	146.320000
538.405212	146.200000
538.498901	146.520000
538.592468	147.120000
538.686157	146.580000
538.779785	146.040000
538.873413	146.160000
538.967102	145.940000
539.060730	145.200000
539.154358	145.660000
539.247986	146.240000
539.341675	146.140000
539.435242	146.180000
539.528931	146.740000
539.622559	146.320000
539.716187	146.620000
539.809814	146.280000
539.903503	146.200000
539.997070	146.020000
540.090759	146.200000
540.184387	145.680000
540.278015	146.300000
540.371643	146.540000
540.465332	146.660000
540.558899	146.540000
540.652588	146.460000
540.746216	146.020000
540.839844	146.220000
540.933472	145.980000
541.027100	145.940000
541.120728	146.180000
541.214417	146.420000
541.308044	146.840000
541.401672	146.540000
541.495300	146.440000
541.588928	146.300000
541.682617	146.020000
541.776184	145.240000
541.869873	145.660000
541.963440	145.820000
542.057129	145.740000
542.150757	145.880000
542.244385	146.060000
542.338013	145.540000
542.431641	145.740000
542.525269	145.640000
542.618958	145.960000
542.712524	146.000000
542.806213	146.080000
542.899780	145.900000
542.993469	145.840000
543.087036	145.360000
543.180725	144.720000
543.274292	145.080000
543.367981	145.480000
543.461548	146.140000
543.555237	146.480000
543.648926	147.400000
543.742493	147.880000
543.836182	147.620000
543.929749	146.980000
544.023437	146.900000
544.117004	146.700000
544.210693	146.400000
544.304260	146.680000
544.397949	146.660000
544.491516	146.700000
544.585205	146.580000
544.678772	146.200000
544.772461	146.080000
544.866028	146.080000
544.959717	146.140000
545.053284	146.020000
545.146973	146.620000
545.240540	146.780000
545.334229	147.620000
545.427795	148.020000
545.521423	148.180000
545.615051	147.920000
545.708679	148.120000
545.802307	147.660000
545.895935	147.600000
545.989624	148.220000
546.083191	148.300000
546.176880	147.980000
546.270447	147.880000
546.364136	148.160000
546.457703	147.660000
546.551331	147.520000
546.644958	147.640000
546.738586	147.640000
546.832214	146.880000
546.925842	146.760000
547.019409	147.040000
547.113098	146.640000
547.206665	146.380000
547.300354	146.680000
547.393921	146.660000
547.487549	146.620000
547.581177	146.620000
547.674805	146.600000
547.768433	145.980000
547.862061	145.920000
547.955627	145.420000
548.049316	145.880000
548.142883	146.320000
548.236572	146.980000
548.330139	147.220000
548.423767	147.140000
548.517456	146.700000
548.611023	146.840000
548.704651	145.840000
548.798279	145.400000
548.891907	145.960000
548.985474	146.000000
549.079163	146.060000
549.172729	146.160000
549.266357	145.860000
549.359985	145.800000
549.453613	145.360000
549.547180	144.860000
549.640869	145.500000
549.734436	145.620000
549.828064	145.900000
549.921631	145.980000
550.015320	145.740000
550.108887	145.860000
550.202515	146.260000
550.296143	145.700000
550.389771	146.040000
550.483337	146.360000
550.576965	146.320000
550.670593	146.620000
550.764221	146.680000
550.857849	146.760000
550.951477	146.280000
551.045105	145.660000
551.138672	145.420000
551.232300	144.920000
551.325928	144.900000
551.419556	145.160000
551.513123	145.340000
551.606750	145.220000
551.700378	145.340000
551.794006	145.400000
551.887573	145.180000
551.981201	145.560000
552.074768	145.360000
552.168457	145.000000
552.262024	145.680000
552.355652	145.800000
552.449219	146.280000
552.542847	146.560000
552.636475	146.740000
552.730103	145.780000
552.823669	145.740000
552.917297	145.120000
553.010864	145.200000
553.104553	145.820000
553.198181	145.840000
553.291748	146.340000
553.385376	146.520000
553.478943	146.160000
553.572571	146.040000
553.666199	146.500000
553.759827	146.200000
553.853394	145.760000
553.947021	145.920000
554.040588	145.900000
554.134216	145.540000
554.227783	146.240000
554.321411	147.100000
554.415039	146.580000
554.508667	146.620000
554.602234	146.980000
554.695862	146.220000
554.789429	145.660000
554.883057	145.920000
554.976624	145.700000
555.070251	145.260000
555.163818	145.060000
555.257507	144.880000
555.351074	145.260000
555.444702	146.340000
555.538330	145.980000
555.631897	146.500000
555.725525	146.800000
555.819092	146.500000
555.912720	145.400000
556.006287	146.140000
556.099915	145.800000
556.193481	145.700000
556.287109	145.940000
556.380676	145.600000
556.474304	145.640000
556.567871	146.020000
556.661499	145.540000
556.755066	145.460000
556.848694	146.000000
556.942261	145.520000
557.035889	145.420000
557.129517	146.040000
557.223145	146.540000
557.316711	146.720000
557.410339	146.960000
557.503906	146.620000
557.597473	146.540000
557.691040	145.960000
557.784668	145.420000
557.878296	145.280000
557.971863	145.820000
558.065491	145.800000
558.159058	145.480000
558.252686	146.560000
558.346252	147.460000
558.439880	146.620000
558.533447	146.420000
558.627075	146.700000
558.720642	145.820000
558.814270	145.180000
558.907837	145.500000
559.001465	145.360000
559.095032	145.940000
559.188660	146.120000
559.282227	145.380000
559.375854	145.920000
559.469360	145.860000
559.562988	145.880000
559.656555	145.720000
559.750183	146.480000
559.843750	146.540000
559.937378	146.700000
560.030945	146.320000
560.124573	0.000000
560.218140	0.000000
560.311707	0.000000
560.405334	0.000000
560.498901	0.000000
560.592529	0.000000
560.686096	0.000000
560.779724	0.000000
560.873291	0.000000
560.966858	0.000000
561.060425	0.000000
561.154053	0.000000
561.247620	0.000000
561.341248	0.000000
561.434814	0.000000
561.528381	0.000000
561.621948	0.000000
561.715576	0.000000
561.809143	0.000000
561.902771	0.000000
561.996277	0.000000
562.089905	0.000000
562.183472	0.000000
562.277100	0.000000
