Model Number: SPM-002-B   
Serial Number: 70087108
Firmware Version: 004.15.4
Exposure Time: 100000.000000us
Data Taken on: 11-12-2020 19:32:22.695
Wavelength	Amplitude
221.570786	0.000000
221.663406	0.000000
221.756027	0.000000
221.848648	0.000000
221.941269	0.000000
222.033905	0.000000
222.126526	0.000000
222.219162	0.000000
222.311798	0.000000
222.404419	0.000000
222.497055	0.000000
222.589676	0.000000
222.682312	0.000000
222.774933	0.000000
222.867569	0.000000
222.960205	0.000000
223.052841	0.000000
223.145462	0.000000
223.238098	0.000000
223.330734	0.000000
223.423386	0.000000
223.516022	0.000000
223.608658	0.000000
223.701309	0.000000
223.793945	0.000000
223.886581	0.000000
223.979218	0.000000
224.071869	0.000000
224.164505	0.000000
224.257156	0.000000
224.349792	0.000000
224.442444	0.000000
224.535095	0.000000
224.627747	0.000000
224.720398	0.000000
224.813034	0.000000
224.905685	0.000000
224.998337	144.320000
225.090988	144.060000
225.183640	144.180000
225.276291	144.260000
225.368942	144.960000
225.461594	145.280000
225.554245	145.760000
225.646912	145.420000
225.739578	146.240000
225.832230	146.520000
225.924896	145.720000
226.017548	145.800000
226.110199	146.640000
226.202866	145.600000
226.295532	145.200000
226.388184	145.300000
226.480850	144.740000
226.573517	144.260000
226.666168	144.540000
226.758835	144.980000
226.851501	145.340000
226.944183	145.640000
227.036850	145.320000
227.129517	145.560000
227.222183	145.360000
227.314850	145.120000
227.407516	145.280000
227.500198	145.960000
227.592865	145.520000
227.685532	145.260000
227.778214	145.180000
227.870880	145.260000
227.963562	145.580000
228.056229	145.900000
228.148926	145.980000
228.241592	146.840000
228.334274	146.800000
228.426956	146.360000
228.519638	146.560000
228.612305	146.320000
228.704987	145.900000
228.797668	145.760000
228.890350	145.640000
228.983032	144.980000
229.075714	145.820000
229.168396	145.820000
229.261108	145.580000
229.353790	145.420000
229.446472	146.140000
229.539169	145.720000
229.631851	145.160000
229.724533	145.360000
229.817230	145.720000
229.909912	146.300000
230.002609	146.140000
230.095306	146.180000
230.187988	146.040000
230.280685	145.740000
230.373383	144.360000
230.466095	144.500000
230.558792	144.800000
230.651474	145.060000
230.744171	145.020000
230.836868	145.260000
230.929581	145.400000
231.022278	145.520000
231.114975	145.380000
231.207672	145.220000
231.300369	145.600000
231.393082	145.540000
231.485779	145.460000
231.578506	145.560000
231.671204	145.900000
231.763916	146.000000
231.856613	145.720000
231.949326	145.760000
232.042023	145.640000
232.134735	145.380000
232.227448	144.960000
232.320160	145.380000
232.412872	145.320000
232.505585	146.220000
232.598297	146.540000
232.691010	146.580000
232.783722	146.200000
232.876450	146.780000
232.969162	145.940000
233.061874	145.540000
233.154587	145.560000
233.247314	145.620000
233.340027	145.020000
233.432739	145.480000
233.525467	145.740000
233.618179	146.080000
233.710907	145.740000
233.803635	146.200000
233.896347	145.880000
233.989090	146.180000
234.081818	145.700000
234.174545	146.220000
234.267258	145.260000
234.359985	145.440000
234.452713	145.300000
234.545441	145.440000
234.638168	145.140000
234.730896	146.240000
234.823639	146.080000
234.916367	146.340000
235.009094	146.400000
235.101822	146.520000
235.194580	146.040000
235.287308	146.000000
235.380051	145.200000
235.472778	145.320000
235.565521	145.280000
235.658249	145.000000
235.750992	145.140000
235.843719	145.460000
235.936462	145.620000
236.029205	145.340000
236.121948	145.060000
236.214691	145.160000
236.307449	145.580000
236.400192	145.280000
236.492935	145.340000
236.585678	145.660000
236.678421	145.560000
236.771164	145.060000
236.863907	145.640000
236.956665	145.980000
237.049408	147.580000
237.142151	146.800000
237.234909	147.580000
237.327652	147.200000
237.420410	146.900000
237.513153	145.820000
237.605927	145.960000
237.698669	145.340000
237.791428	144.660000
237.884186	145.040000
237.976944	144.480000
238.069702	145.100000
238.162445	144.980000
238.255203	145.320000
238.347961	145.680000
238.440720	145.680000
238.533478	145.640000
238.626266	145.580000
238.719025	145.860000
238.811783	145.460000
238.904541	145.700000
238.997314	145.180000
239.090073	144.940000
239.182831	145.160000
239.275604	146.000000
239.368362	145.720000
239.461136	146.180000
239.553909	146.300000
239.646667	145.920000
239.739441	145.220000
239.832214	145.620000
239.925003	145.820000
240.017761	146.400000
240.110535	146.900000
240.203308	146.320000
240.296082	146.240000
240.388855	145.640000
240.481628	145.580000
240.574417	145.580000
240.667191	146.060000
240.759964	145.740000
240.852737	146.220000
240.945526	145.720000
241.038315	145.380000
241.131088	145.300000
241.223877	145.740000
241.316650	145.140000
241.409439	145.840000
241.502228	145.580000
241.595001	146.040000
241.687790	145.860000
241.780579	146.080000
241.873367	146.020000
241.966141	146.460000
242.058929	145.640000
242.151718	146.000000
242.244507	146.320000
242.337311	145.500000
242.430099	145.920000
242.522903	146.500000
242.615692	146.020000
242.708481	146.100000
242.801270	146.800000
242.894073	146.320000
242.986862	146.500000
243.079651	146.840000
243.172455	146.320000
243.265244	146.380000
243.358063	145.900000
243.450867	145.700000
243.543655	145.660000
243.636459	146.000000
243.729263	146.060000
243.822067	146.440000
243.914856	146.640000
244.007660	146.460000
244.100464	146.520000
244.193268	146.060000
244.286072	146.200000
244.378876	145.620000
244.471680	145.440000
244.564499	145.700000
244.657318	146.280000
244.750122	146.060000
244.842926	145.740000
244.935745	146.100000
245.028549	145.720000
245.121368	145.340000
245.214172	145.500000
245.306992	145.980000
245.399796	145.560000
245.492615	145.840000
245.585434	145.740000
245.678253	145.500000
245.771072	145.220000
245.863892	146.040000
245.956711	146.060000
246.049530	145.840000
246.142349	145.960000
246.235168	146.020000
246.327988	146.060000
246.420807	145.580000
246.513626	145.760000
246.606445	145.360000
246.699280	145.480000
246.792099	144.860000
246.884918	144.880000
246.977753	144.720000
247.070587	144.900000
247.163422	145.000000
247.256241	145.120000
247.349075	145.620000
247.441895	145.520000
247.534729	145.640000
247.627563	145.480000
247.720383	146.320000
247.813217	145.920000
247.906052	145.880000
247.998886	145.660000
248.091736	145.760000
248.184570	145.020000
248.277405	145.080000
248.370239	146.380000
248.463074	147.280000
248.555908	147.640000
248.648743	147.220000
248.741592	147.200000
248.834427	146.140000
248.927261	145.100000
249.020111	145.180000
249.112946	146.100000
249.205795	145.840000
249.298630	146.120000
249.391495	146.460000
249.484344	145.860000
249.577179	145.720000
249.670029	146.160000
249.762878	146.600000
249.855728	146.700000
249.948563	147.140000
250.041412	146.280000
250.134262	146.400000
250.227112	146.000000
250.319962	146.000000
250.412827	145.800000
250.505692	145.680000
250.598541	145.540000
250.691391	145.480000
250.784241	145.520000
250.877106	145.740000
250.969955	145.780000
251.062805	146.500000
251.155670	146.820000
251.248520	146.560000
251.341385	146.880000
251.434235	147.000000
251.527100	146.360000
251.619965	145.980000
251.712814	147.020000
251.805695	146.560000
251.898560	146.940000
251.991425	147.180000
252.084290	147.360000
252.177155	146.300000
252.270020	146.100000
252.362885	145.900000
252.455750	145.520000
252.548615	145.180000
252.641479	145.180000
252.734360	145.020000
252.827240	145.120000
252.920105	145.120000
253.012970	145.160000
253.105850	145.120000
253.198715	145.100000
253.291595	145.060000
253.384460	144.820000
253.477341	144.560000
253.570221	145.000000
253.663086	144.780000
253.755966	145.320000
253.848846	145.560000
253.941727	145.980000
254.034592	146.060000
254.127472	145.960000
254.220367	145.620000
254.313248	145.820000
254.406128	145.780000
254.499008	145.620000
254.591904	146.480000
254.684784	146.860000
254.777664	146.720000
254.870544	146.220000
254.963440	146.060000
255.056335	145.980000
255.149216	145.520000
255.242111	145.780000
255.334991	146.300000
255.427887	146.660000
255.520767	146.540000
255.613663	146.820000
255.706558	146.220000
255.799438	145.920000
255.892334	145.440000
255.985229	145.400000
256.078125	145.340000
256.171021	145.580000
256.263916	145.980000
256.356812	146.220000
256.449707	146.500000
256.542603	145.940000
256.635498	146.540000
256.728394	146.200000
256.821289	146.120000
256.914215	146.200000
257.007080	146.700000
257.100006	146.400000
257.192932	146.880000
257.285828	147.120000
257.378723	146.660000
257.471619	146.380000
257.564545	146.220000
257.657440	146.120000
257.750336	146.820000
257.843262	146.940000
257.936157	148.120000
258.029053	148.160000
258.121979	148.160000
258.214874	147.340000
258.307800	147.260000
258.400696	145.940000
258.493622	146.160000
258.586517	145.240000
258.679443	145.420000
258.772339	145.060000
258.865265	145.100000
258.958160	144.400000
259.051086	145.520000
259.144012	145.340000
259.236938	146.220000
259.329834	146.240000
259.422791	146.240000
259.515717	145.700000
259.608612	145.400000
259.701538	145.320000
259.794464	145.380000
259.887390	145.220000
259.980316	145.200000
260.073212	145.140000
260.166138	144.000000
260.259064	144.240000
260.351990	145.160000
260.444916	144.920000
260.537842	145.260000
260.630768	146.180000
260.723694	146.260000
260.816620	146.000000
260.909546	146.380000
261.002472	145.980000
261.095398	145.660000
261.188354	145.400000
261.281281	144.700000
261.374207	144.760000
261.467133	145.700000
261.560089	145.760000
261.653015	145.820000
261.745972	146.800000
261.838867	147.180000
261.931824	146.980000
262.024780	146.600000
262.117706	146.720000
262.210663	146.480000
262.303589	146.180000
262.396515	146.080000
262.489471	146.920000
262.582397	147.020000
262.675354	146.580000
262.768280	146.340000
262.861237	146.280000
262.954163	146.060000
263.047119	145.840000
263.140045	146.100000
263.233002	146.220000
263.325958	146.060000
263.418884	145.600000
263.511841	145.660000
263.604797	145.520000
263.697723	145.380000
263.790680	145.320000
263.883636	145.980000
263.976593	145.560000
264.069550	145.540000
264.162476	145.360000
264.255463	145.180000
264.348419	144.560000
264.441376	145.180000
264.534332	144.920000
264.627289	145.260000
264.720245	146.040000
264.813202	145.760000
264.906158	145.660000
264.999115	146.340000
265.092072	145.920000
265.185028	145.920000
265.277985	146.540000
265.370941	146.580000
265.463898	146.120000
265.556854	146.000000
265.649811	145.080000
265.742798	144.940000
265.835754	144.840000
265.928711	145.060000
266.021667	145.140000
266.114655	145.620000
266.207611	145.680000
266.300568	144.920000
266.393585	144.820000
266.486511	145.420000
266.579498	145.000000
266.672485	145.100000
266.765442	145.460000
266.858429	145.900000
266.951385	145.240000
267.044342	145.420000
267.137329	145.260000
267.230316	145.520000
267.323273	144.860000
267.416260	145.860000
267.509216	145.580000
267.602203	145.420000
267.695160	145.700000
267.788147	145.780000
267.881134	145.020000
267.974091	145.620000
268.067078	145.580000
268.160065	145.400000
268.253052	145.140000
268.346008	145.300000
268.438995	145.100000
268.531982	145.580000
268.624969	145.580000
268.717987	146.080000
268.810944	146.020000
268.903961	145.840000
268.996948	145.400000
269.089905	145.760000
269.182892	146.020000
269.275879	146.600000
269.368866	146.240000
269.461853	146.540000
269.554871	146.340000
269.647858	145.960000
269.740845	145.900000
269.833832	146.500000
269.926819	146.040000
270.019806	146.080000
270.112793	145.680000
270.205811	145.500000
270.298798	145.280000
270.391785	146.060000
270.484772	145.580000
270.577789	145.880000
270.670776	145.320000
270.763763	145.340000
270.856750	144.960000
270.949768	144.960000
271.042786	144.820000
271.135773	145.240000
271.228790	145.760000
271.321808	145.160000
271.414795	144.960000
271.507782	145.040000
271.600800	144.600000
271.693817	144.100000
271.786804	144.940000
271.879822	145.460000
271.972809	145.580000
272.065826	146.140000
272.158844	145.940000
272.251831	145.940000
272.344849	145.980000
272.437866	145.720000
272.530853	145.560000
272.623871	145.900000
272.716888	144.960000
272.809906	145.060000
272.902893	145.400000
272.995911	144.880000
273.088928	145.020000
273.181946	145.820000
273.274963	145.300000
273.367981	145.060000
273.460999	145.420000
273.554047	145.640000
273.647003	146.040000
273.740051	146.180000
273.833069	146.700000
273.926086	146.880000
274.019135	146.400000
274.112152	145.940000
274.205170	146.060000
274.298187	146.060000
274.391205	145.560000
274.484222	145.500000
274.577240	145.260000
274.670258	144.940000
274.763306	144.540000
274.856323	144.880000
274.949341	145.000000
275.042358	145.460000
275.135406	145.440000
275.228424	145.560000
275.321442	145.560000
275.414490	145.320000
275.507507	145.480000
275.600525	146.060000
275.693573	145.840000
275.786591	145.560000
275.879669	145.660000
275.972656	145.440000
276.065735	144.900000
276.158752	145.520000
276.251801	146.160000
276.344818	146.540000
276.437866	146.280000
276.530884	146.360000
276.623932	145.640000
276.716980	145.660000
276.809998	145.560000
276.903046	145.960000
276.996094	147.020000
277.089111	147.580000
277.182159	148.040000
277.275208	147.540000
277.368256	147.220000
277.461304	146.400000
277.554321	145.700000
277.647369	145.300000
277.740417	145.380000
277.833466	145.280000
277.926514	145.260000
278.019562	146.300000
278.112610	145.640000
278.205688	145.980000
278.298706	146.300000
278.391785	146.060000
278.484833	145.180000
278.577881	145.420000
278.670929	145.720000
278.763977	145.920000
278.857025	146.320000
278.950073	146.620000
279.043121	146.480000
279.136169	146.160000
279.229248	145.340000
279.322296	145.540000
279.415344	145.300000
279.508392	144.900000
279.601440	145.000000
279.694519	145.120000
279.787567	144.700000
279.880615	144.480000
279.973694	144.840000
280.066742	144.760000
280.159790	145.140000
280.252869	145.020000
280.345917	145.260000
280.438995	145.180000
280.532074	145.100000
280.625122	145.340000
280.718201	146.240000
280.811279	146.460000
280.904327	146.820000
280.997406	146.940000
281.090454	146.640000
281.183533	145.920000
281.276581	145.700000
281.369659	145.160000
281.462738	145.440000
281.555786	145.560000
281.648865	145.520000
281.741943	145.800000
281.835022	146.820000
281.928070	146.500000
282.021149	146.140000
282.114227	146.140000
282.207306	146.000000
282.300385	146.080000
282.393433	146.140000
282.486511	146.220000
282.579590	146.580000
282.672668	147.080000
282.765747	146.180000
282.858856	146.000000
282.951904	146.440000
283.045013	146.360000
283.138062	146.220000
283.231171	146.500000
283.324249	146.820000
283.417328	146.740000
283.510406	146.320000
283.603485	146.020000
283.696564	145.960000
283.789642	146.040000
283.882751	145.780000
283.975830	146.260000
284.068909	145.980000
284.161987	146.360000
284.255066	146.100000
284.348175	146.220000
284.441254	146.000000
284.534332	146.880000
284.627441	146.480000
284.720520	145.780000
284.813599	145.960000
284.906708	146.040000
284.999786	145.040000
285.092896	144.840000
285.185974	146.160000
285.279053	145.440000
285.372192	145.480000
285.465240	146.240000
285.558380	146.180000
285.651459	145.440000
285.744568	146.400000
285.837677	145.900000
285.930756	145.560000
286.023865	145.740000
286.116943	145.620000
286.210052	145.420000
286.303162	145.720000
286.396240	145.580000
286.489349	145.540000
286.582458	145.880000
286.675568	145.480000
286.768646	145.380000
286.861755	145.700000
286.954865	146.260000
287.047974	145.480000
287.141083	145.440000
287.234161	145.220000
287.327271	144.980000
287.420380	145.180000
287.513519	145.660000
287.606598	145.860000
287.699738	146.240000
287.792816	146.200000
287.885956	145.760000
287.979034	145.680000
288.072174	145.500000
288.165283	145.600000
288.258392	146.120000
288.351501	145.740000
288.444611	146.160000
288.537720	146.820000
288.630859	146.620000
288.723969	146.280000
288.817078	146.520000
288.910187	146.100000
289.003296	145.340000
289.096436	145.060000
289.189545	144.940000
289.282654	144.620000
289.375763	145.040000
289.468903	145.240000
289.562012	145.860000
289.655121	145.840000
289.748260	146.120000
289.841400	146.220000
289.934509	146.300000
290.027649	145.880000
290.120728	145.860000
290.213898	145.900000
290.306976	145.380000
290.400146	145.220000
290.493256	145.100000
290.586395	145.040000
290.679535	145.120000
290.772644	145.200000
290.865784	144.680000
290.958893	144.940000
291.052032	144.960000
291.145172	145.020000
291.238281	144.880000
291.331421	145.360000
291.424561	146.000000
291.517670	145.720000
291.610809	145.860000
291.703949	145.620000
291.797089	145.740000
291.890228	144.620000
291.983337	144.980000
292.076477	144.700000
292.169617	144.880000
292.262756	144.900000
292.355927	145.280000
292.449036	145.240000
292.542206	145.340000
292.635315	145.720000
292.728485	145.880000
292.821625	145.560000
292.914764	146.340000
293.007904	146.220000
293.101044	146.100000
293.194183	146.220000
293.287323	146.640000
293.380463	146.020000
293.473602	145.820000
293.566742	146.060000
293.659882	146.380000
293.753021	146.480000
293.846191	146.540000
293.939331	146.180000
294.032471	146.120000
294.125610	145.740000
294.218781	145.980000
294.311920	146.220000
294.405060	146.880000
294.498230	146.780000
294.591370	146.540000
294.684540	145.640000
294.777679	145.240000
294.870850	145.520000
294.963959	145.200000
295.057159	145.040000
295.150299	145.580000
295.243469	145.620000
295.336609	144.920000
295.429779	145.300000
295.522919	145.720000
295.616089	145.680000
295.709229	145.940000
295.802399	146.260000
295.895569	145.760000
295.988708	145.400000
296.081879	145.500000
296.175018	145.140000
296.268188	145.240000
296.361359	146.020000
296.454529	146.160000
296.547668	146.100000
296.640839	146.480000
296.734009	146.160000
296.827179	146.140000
296.920319	146.260000
297.013519	145.860000
297.106659	145.840000
297.199860	146.000000
297.292999	145.880000
297.386200	145.500000
297.479309	145.760000
297.572510	145.460000
297.665680	145.100000
297.758850	144.760000
297.852020	144.760000
297.945190	144.280000
298.038361	143.860000
298.131531	144.880000
298.224701	145.000000
298.317871	145.140000
298.411072	145.000000
298.504242	145.220000
298.597412	144.640000
298.690582	144.540000
298.783752	144.260000
298.876923	144.880000
298.970093	144.800000
299.063293	144.980000
299.156464	145.140000
299.249634	145.520000
299.342834	145.500000
299.436005	146.020000
299.529205	145.920000
299.622345	146.120000
299.715576	145.600000
299.808716	145.440000
299.901917	145.320000
299.995117	145.620000
300.088287	145.460000
300.181488	145.340000
300.274658	145.580000
300.367828	145.500000
300.461029	145.220000
300.554199	145.540000
300.647400	146.040000
300.740601	146.360000
300.833771	146.140000
300.926971	146.080000
301.020142	145.360000
301.113342	145.280000
301.206512	145.140000
301.299713	145.380000
301.392914	145.480000
301.486084	145.900000
301.579285	145.980000
301.672516	146.380000
301.765686	146.100000
301.858887	146.180000
301.952057	146.100000
302.045288	146.080000
302.138458	145.420000
302.231659	145.240000
302.324860	145.040000
302.418060	144.760000
302.511261	144.660000
302.604462	144.880000
302.697662	145.100000
302.790863	145.080000
302.884064	144.980000
302.977264	145.100000
303.070465	145.260000
303.163666	145.780000
303.256866	145.960000
303.350067	146.180000
303.443268	146.080000
303.536469	146.020000
303.629669	145.500000
303.722870	145.460000
303.816071	145.320000
303.909271	145.460000
304.002472	144.860000
304.095673	144.920000
304.188934	144.180000
304.282104	145.000000
304.375336	144.780000
304.468506	145.000000
304.561768	144.860000
304.654968	145.740000
304.748169	145.100000
304.841370	145.020000
304.934601	145.400000
305.027802	145.520000
305.121002	145.060000
305.214233	145.180000
305.307434	145.240000
305.400665	145.540000
305.493866	145.140000
305.587097	145.620000
305.680298	145.260000
305.773499	145.840000
305.866730	145.480000
305.959930	146.420000
306.053162	146.460000
306.146393	146.520000
306.239594	145.500000
306.332825	145.400000
306.426025	145.200000
306.519287	144.560000
306.612488	144.920000
306.705719	145.540000
306.798920	145.560000
306.892181	144.800000
306.985352	145.020000
307.078613	144.440000
307.171844	144.720000
307.265045	144.320000
307.358276	144.260000
307.451508	144.560000
307.544739	145.180000
307.637970	144.720000
307.731201	144.740000
307.824402	145.440000
307.917633	145.220000
308.010864	145.440000
308.104095	145.780000
308.197327	146.100000
308.290558	146.040000
308.383789	145.820000
308.477020	145.400000
308.570251	144.860000
308.663483	144.460000
308.756714	144.380000
308.849976	144.700000
308.943176	145.060000
309.036438	145.100000
309.129639	145.040000
309.222900	145.120000
309.316101	144.920000
309.409393	144.320000
309.502625	144.220000
309.595856	144.680000
309.689087	144.580000
309.782318	144.540000
309.875580	144.740000
309.968811	144.900000
310.062042	144.640000
310.155273	144.480000
310.248535	145.060000
310.341766	145.060000
310.434998	144.820000
310.528259	144.800000
310.621490	145.300000
310.714722	144.540000
310.807983	144.680000
310.901215	144.960000
310.994476	145.140000
311.087708	144.760000
311.181000	145.240000
311.274200	144.820000
311.367462	145.060000
311.460693	144.620000
311.553986	145.120000
311.647186	145.260000
311.740479	146.140000
311.833710	145.880000
311.926971	146.300000
312.020203	145.600000
312.113464	145.080000
312.206726	144.360000
312.299957	144.560000
312.393219	144.760000
312.486481	145.040000
312.579712	145.140000
312.672974	145.200000
312.766235	145.040000
312.859497	144.880000
312.952759	144.800000
313.045990	145.720000
313.139252	145.160000
313.232513	145.320000
313.325775	145.400000
313.419037	145.500000
313.512299	144.540000
313.605530	145.280000
313.698822	145.440000
313.792053	145.460000
313.885345	144.980000
313.978577	145.000000
314.071869	144.600000
314.165131	144.500000
314.258392	144.700000
314.351654	145.240000
314.444916	144.720000
314.538177	145.440000
314.631439	145.620000
314.724701	145.460000
314.817993	145.260000
314.911255	145.780000
315.004517	145.080000
315.097778	145.140000
315.191040	145.380000
315.284302	145.660000
315.377594	145.600000
315.470856	145.940000
315.564117	145.180000
315.657379	144.580000
315.750671	143.960000
315.843933	144.260000
315.937195	143.760000
316.030518	143.980000
316.123749	144.160000
316.217041	145.000000
316.310303	144.860000
316.403595	145.240000
316.496857	145.800000
316.590149	145.780000
316.683411	145.100000
316.776703	144.800000
316.869965	144.660000
316.963257	144.060000
317.056519	143.860000
317.149811	144.060000
317.243073	144.180000
317.336365	144.320000
317.429626	144.900000
317.522919	145.320000
317.616180	145.280000
317.709473	145.340000
317.802765	145.260000
317.896027	144.760000
317.989319	144.880000
318.082611	145.020000
318.175873	144.820000
318.269165	144.980000
318.362488	145.340000
318.455750	145.140000
318.549042	145.160000
318.642303	145.800000
318.735626	145.520000
318.828888	145.320000
318.922211	144.860000
319.015472	145.280000
319.108765	144.580000
319.202057	144.520000
319.295349	144.840000
319.388641	145.100000
319.481934	144.660000
319.575226	144.700000
319.668518	144.960000
319.761810	144.900000
319.855103	144.980000
319.948395	145.260000
320.041687	145.720000
320.134979	145.920000
320.228271	145.720000
320.321564	145.500000
320.414856	145.220000
320.508148	144.840000
320.601440	144.600000
320.694763	144.560000
320.788025	145.660000
320.881348	145.840000
320.974640	145.960000
321.067963	145.580000
321.161224	145.760000
321.254547	144.620000
321.347839	145.140000
321.441162	144.840000
321.534454	145.200000
321.627747	144.760000
321.721069	145.460000
321.814362	145.200000
321.907654	145.120000
322.000946	145.060000
322.094269	145.820000
322.187561	145.180000
322.280884	145.620000
322.374176	146.000000
322.467468	146.680000
322.560791	146.560000
322.654083	147.280000
322.747406	146.800000
322.840698	146.920000
322.934021	146.500000
323.027344	146.540000
323.120636	146.000000
323.213959	145.900000
323.307251	145.600000
323.400574	145.340000
323.493866	144.900000
323.587219	145.180000
323.680511	145.540000
323.773834	145.520000
323.867157	145.680000
323.960449	145.660000
324.053772	145.460000
324.147095	145.140000
324.240387	145.800000
324.333710	146.060000
324.427032	146.360000
324.520355	146.420000
324.613647	145.980000
324.706970	145.660000
324.800293	145.460000
324.893616	145.500000
324.986938	145.540000
325.080231	145.500000
325.173553	145.760000
325.266876	145.880000
325.360199	145.660000
325.453522	145.380000
325.546875	145.060000
325.640167	145.460000
325.733521	145.660000
325.826813	146.080000
325.920166	146.180000
326.013489	146.500000
326.106812	145.120000
326.200134	144.980000
326.293457	144.360000
326.386780	144.420000
326.480103	144.460000
326.573425	144.900000
326.666748	144.660000
326.760071	145.080000
326.853424	145.280000
326.946747	145.240000
327.040070	146.140000
327.133392	145.940000
327.226715	145.220000
327.320068	144.940000
327.413391	145.540000
327.506714	144.600000
327.600037	144.840000
327.693390	145.380000
327.786713	145.240000
327.880066	144.780000
327.973358	145.000000
328.066742	145.380000
328.160034	145.180000
328.253418	145.660000
328.346710	145.480000
328.440063	145.540000
328.533417	145.080000
328.626740	145.640000
328.720093	145.420000
328.813416	145.460000
328.906769	145.240000
329.000092	145.500000
329.093445	145.220000
329.186768	145.100000
329.280121	145.800000
329.373444	146.480000
329.466797	146.440000
329.560120	146.640000
329.653473	146.860000
329.746796	146.040000
329.840149	145.180000
329.933502	145.120000
330.026825	144.680000
330.120178	144.240000
330.213562	144.660000
330.306854	145.200000
330.400238	144.980000
330.493561	145.140000
330.586945	146.080000
330.680237	146.040000
330.773621	145.800000
330.866974	145.780000
330.960327	145.940000
331.053680	145.140000
331.147003	145.060000
331.240356	145.240000
331.333710	145.360000
331.427063	144.760000
331.520416	144.980000
331.613770	145.140000
331.707123	145.220000
331.800476	145.380000
331.893829	146.640000
331.987152	146.680000
332.080505	146.540000
332.173859	146.240000
332.267212	145.960000
332.360565	145.060000
332.453918	144.540000
332.547333	144.400000
332.640656	144.500000
332.734039	144.800000
332.827362	145.040000
332.920746	145.760000
333.014069	146.280000
333.107452	146.860000
333.200806	146.840000
333.294159	146.960000
333.387543	146.500000
333.480896	145.800000
333.574249	145.500000
333.667603	145.140000
333.760956	145.020000
333.854340	145.220000
333.947693	145.360000
334.041046	145.320000
334.134430	145.820000
334.227783	145.360000
334.321136	145.220000
334.414520	145.020000
334.507874	145.260000
334.601227	145.060000
334.694611	145.320000
334.787964	145.180000
334.881348	145.600000
334.974701	144.980000
335.068085	144.540000
335.161438	144.740000
335.254822	145.040000
335.348175	144.920000
335.441559	144.780000
335.534943	145.800000
335.628296	145.380000
335.721680	145.320000
335.815033	145.740000
335.908417	146.200000
336.001770	145.740000
336.095154	145.860000
336.188538	145.560000
336.281891	144.900000
336.375275	144.360000
336.468658	144.180000
336.562012	144.300000
336.655396	144.820000
336.748779	145.280000
336.842133	145.760000
336.935516	145.800000
337.028900	145.720000
337.122284	145.480000
337.215637	145.500000
337.309021	145.260000
337.402435	144.880000
337.495789	144.620000
337.589203	144.400000
337.682526	144.220000
337.775940	144.280000
337.869324	144.660000
337.962708	144.900000
338.056091	145.680000
338.149475	145.400000
338.242859	145.880000
338.336243	145.720000
338.429626	145.900000
338.523010	145.400000
338.616394	145.180000
338.709778	144.900000
338.803162	145.260000
338.896545	145.160000
338.989929	144.720000
339.083313	145.480000
339.176697	145.100000
339.270081	144.760000
339.363464	144.980000
339.456848	145.600000
339.550232	144.800000
339.643616	144.840000
339.737030	145.020000
339.830383	144.780000
339.923828	144.700000
340.017181	144.960000
340.110596	145.340000
340.203949	145.180000
340.297363	144.940000
340.390778	144.860000
340.484161	145.040000
340.577545	145.000000
340.670959	144.960000
340.764343	145.220000
340.857727	145.180000
340.951111	144.520000
341.044525	144.700000
341.137909	144.400000
341.231293	144.180000
341.324707	143.900000
341.418091	145.140000
341.511505	144.720000
341.604889	145.500000
341.698303	145.920000
341.791687	146.240000
341.885071	145.580000
341.978485	145.480000
342.071899	145.340000
342.165283	145.100000
342.258698	145.100000
342.352081	145.360000
342.445496	146.020000
342.538879	145.740000
342.632324	145.560000
342.725708	145.400000
342.819122	145.000000
342.912506	144.640000
343.005920	144.640000
343.099335	145.600000
343.192719	145.740000
343.286133	146.160000
343.379547	146.120000
343.472931	146.020000
343.566345	145.420000
343.659760	145.640000
343.753143	145.240000
343.846558	145.220000
343.939972	145.340000
344.033386	145.580000
344.126770	145.040000
344.220184	145.000000
344.313599	145.120000
344.407043	145.160000
344.500427	144.540000
344.593872	145.420000
344.687225	145.280000
344.780670	144.920000
344.874054	144.980000
344.967499	145.700000
345.060913	145.580000
345.154327	145.720000
345.247742	145.740000
345.341156	145.460000
345.434570	144.960000
345.527985	144.680000
345.621399	144.960000
345.714813	145.120000
345.808228	145.520000
345.901642	145.520000
345.995056	145.200000
346.088470	145.340000
346.181885	145.320000
346.275299	145.040000
346.368713	144.940000
346.462128	145.000000
346.555573	144.860000
346.648987	144.940000
346.742401	144.940000
346.835815	145.080000
346.929260	144.720000
347.022644	144.960000
347.116119	145.300000
347.209503	145.460000
347.302948	146.500000
347.396362	147.140000
347.489807	147.020000
347.583221	147.400000
347.676636	146.980000
347.770050	145.500000
347.863495	144.960000
347.956909	144.700000
348.050323	144.100000
348.143768	144.320000
348.237183	144.760000
348.330597	145.460000
348.424042	145.920000
348.517456	146.400000
348.610901	146.680000
348.704315	146.500000
348.797760	145.860000
348.891174	144.920000
348.984619	144.020000
349.078033	144.380000
349.171448	144.960000
349.264923	144.940000
349.358337	145.260000
349.451782	145.320000
349.545197	144.380000
349.638641	143.620000
349.732086	143.340000
349.825500	144.000000
349.918945	143.700000
350.012390	144.540000
350.105804	145.060000
350.199249	145.380000
350.292664	145.400000
350.386108	145.800000
350.479553	145.820000
350.572968	145.560000
350.666412	145.880000
350.759857	145.400000
350.853302	145.920000
350.946716	145.340000
351.040161	145.360000
351.133606	145.280000
351.227081	145.060000
351.320465	145.480000
351.413940	145.820000
351.507355	146.000000
351.600830	145.840000
351.694244	145.880000
351.787720	145.240000
351.881104	144.960000
351.974579	144.840000
352.067993	145.800000
352.161469	145.960000
352.254883	145.620000
352.348358	145.760000
352.441803	145.980000
352.535248	145.440000
352.628693	145.980000
352.722137	145.980000
352.815582	146.120000
352.909027	146.020000
353.002472	145.660000
353.095917	145.440000
353.189362	145.780000
353.282806	145.680000
353.376251	145.500000
353.469696	145.340000
353.563141	145.800000
353.656586	145.700000
353.750061	145.240000
353.843475	145.280000
353.936981	145.900000
354.030396	145.040000
354.123871	144.780000
354.217285	145.820000
354.310760	146.080000
354.404175	145.620000
354.497681	145.640000
354.591095	145.960000
354.684570	144.980000
354.777985	144.660000
354.871490	144.680000
354.964935	144.960000
355.058380	144.740000
355.151855	144.580000
355.245300	145.080000
355.338745	145.140000
355.432220	145.200000
355.525665	145.000000
355.619110	145.520000
355.712585	145.160000
355.806030	145.020000
355.899475	144.440000
355.992950	145.000000
356.086426	145.320000
356.179871	145.340000
356.273346	145.740000
356.366791	146.040000
356.460266	146.200000
356.553711	145.720000
356.647186	145.840000
356.740631	145.340000
356.834106	145.340000
356.927551	145.180000
357.021027	145.200000
357.114471	145.320000
357.207947	145.500000
357.301422	145.660000
357.394867	145.800000
357.488342	146.080000
357.581818	145.820000
357.675262	145.980000
357.768738	145.720000
357.862213	144.840000
357.955658	144.580000
358.049133	144.480000
358.142609	144.760000
358.236053	144.800000
358.329529	145.140000
358.423035	145.680000
358.516449	145.400000
358.609955	145.700000
358.703400	146.340000
358.796906	146.780000
358.890350	145.880000
358.983826	146.040000
359.077271	145.000000
359.170776	144.380000
359.264221	144.060000
359.357727	144.740000
359.451172	145.340000
359.544647	145.780000
359.638123	145.760000
359.731598	145.980000
359.825073	146.160000
359.918549	146.000000
360.012024	146.140000
360.105499	145.880000
360.198975	145.780000
360.292450	145.540000
360.385925	145.340000
360.479401	144.840000
360.572876	145.320000
360.666351	145.400000
360.759857	145.320000
360.853302	145.240000
360.946808	144.860000
361.040253	144.680000
361.133759	144.100000
361.227203	144.360000
361.320709	144.120000
361.414154	144.960000
361.507660	145.420000
361.601105	146.240000
361.694641	146.220000
361.788086	146.240000
361.881592	146.480000
361.975067	145.840000
362.068542	146.200000
362.162018	146.100000
362.255524	145.620000
362.348999	145.500000
362.442474	146.020000
362.535950	145.020000
362.629456	144.820000
362.722931	145.200000
362.816406	145.340000
362.909882	145.340000
363.003387	145.280000
363.096863	145.740000
363.190338	145.940000
363.283875	145.500000
363.377319	145.380000
363.470825	145.860000
363.564301	144.920000
363.657806	145.100000
363.751282	145.060000
363.844788	145.800000
363.938232	145.540000
364.031769	146.420000
364.125214	146.720000
364.218750	147.340000
364.312225	146.140000
364.405731	146.480000
364.499207	146.000000
364.592712	145.360000
364.686188	144.880000
364.779694	145.140000
364.873169	144.900000
364.966675	145.060000
365.060150	145.000000
365.153656	145.380000
365.247131	145.400000
365.340637	145.520000
365.434143	145.820000
365.527618	146.300000
365.621155	145.360000
365.714600	145.360000
365.808136	145.420000
365.901611	144.500000
365.995117	144.200000
366.088593	144.300000
366.182129	144.160000
366.275604	144.060000
366.369110	144.360000
366.462585	144.320000
366.556122	145.080000
366.649567	145.380000
366.743103	145.740000
366.836609	145.580000
366.930115	146.100000
367.023590	145.940000
367.117096	145.620000
367.210602	145.220000
367.304108	145.940000
367.397614	146.080000
367.491119	146.180000
367.584595	146.580000
367.678101	146.960000
367.771606	146.640000
367.865112	146.260000
367.958649	145.720000
368.052124	145.460000
368.145660	145.060000
368.239136	145.380000
368.332672	145.200000
368.426147	145.640000
368.519684	145.580000
368.613159	145.860000
368.706696	145.500000
368.800171	145.520000
368.893707	145.080000
368.987183	145.300000
369.080719	145.460000
369.174225	145.260000
369.267731	145.540000
369.361237	145.840000
369.454742	145.700000
369.548248	145.760000
369.641754	145.800000
369.735260	145.840000
369.828766	145.120000
369.922272	145.900000
370.015808	145.540000
370.109314	145.400000
370.202820	144.900000
370.296356	146.100000
370.389832	145.220000
370.483368	144.940000
370.576874	144.960000
370.670410	145.220000
370.763885	143.900000
370.857422	143.880000
370.950928	144.020000
371.044464	144.940000
371.137939	145.100000
371.231476	145.900000
371.324982	146.480000
371.418518	146.380000
371.512024	145.860000
371.605560	145.360000
371.699066	145.320000
371.792572	144.820000
371.886108	145.400000
371.979614	145.320000
372.073120	146.120000
372.166656	146.220000
372.260162	146.660000
372.353668	146.140000
372.447205	146.000000
372.540710	145.600000
372.634277	145.200000
372.727753	144.980000
372.821320	145.080000
372.914795	145.120000
373.008362	144.860000
373.101837	145.100000
373.195404	144.860000
373.288879	144.860000
373.382446	145.400000
373.475922	145.480000
373.569489	146.280000
373.662964	146.800000
373.756531	146.700000
373.850037	146.660000
373.943573	146.880000
374.037109	145.700000
374.130615	145.820000
374.224152	146.040000
374.317657	145.520000
374.411194	146.160000
374.504730	146.360000
374.598236	145.660000
374.691772	145.340000
374.785309	145.500000
374.878815	144.200000
374.972351	144.480000
375.065887	144.360000
375.159454	145.020000
375.252930	144.800000
375.346497	145.540000
375.440002	145.880000
375.533569	146.080000
375.627045	145.320000
375.720612	145.640000
375.814117	146.020000
375.907684	145.600000
376.001160	145.520000
376.094727	145.480000
376.188232	145.820000
376.281799	145.240000
376.375336	145.340000
376.468872	146.220000
376.562408	146.360000
376.655914	145.900000
376.749451	146.220000
376.842987	146.300000
376.936523	145.860000
377.030060	146.200000
377.123596	146.260000
377.217133	145.720000
377.310669	145.700000
377.404205	145.820000
377.497772	145.840000
377.591278	145.720000
377.684845	146.540000
377.778351	146.580000
377.871918	146.460000
377.965424	145.900000
378.058990	145.920000
378.152496	145.460000
378.246063	145.540000
378.339569	145.660000
378.433136	145.760000
378.526642	145.960000
378.620209	146.000000
378.713745	145.620000
378.807312	145.840000
378.900848	146.000000
378.994385	146.120000
379.087921	145.580000
379.181458	145.900000
379.274994	145.300000
379.368530	145.200000
379.462097	145.160000
379.555634	145.500000
379.649170	144.920000
379.742706	144.960000
379.836273	145.320000
379.929810	144.960000
380.023376	144.760000
380.116882	145.120000
380.210449	144.840000
380.303986	144.520000
380.397552	144.360000
380.491058	144.620000
380.584656	144.500000
380.678162	144.900000
380.771729	145.120000
380.865265	145.840000
380.958832	146.220000
381.052368	146.620000
381.145935	146.880000
381.239471	147.200000
381.333008	146.780000
381.426575	146.220000
381.520111	146.380000
381.613647	146.480000
381.707214	146.000000
381.800751	145.540000
381.894318	145.820000
381.987854	145.280000
382.081421	144.860000
382.174988	145.060000
382.268524	145.260000
382.362091	145.460000
382.455627	146.240000
382.549194	146.200000
382.642731	145.460000
382.736298	145.180000
382.829834	144.880000
382.923401	145.040000
383.016937	145.240000
383.110504	146.120000
383.204041	146.740000
383.297607	147.060000
383.391174	146.120000
383.484741	146.640000
383.578278	146.020000
383.671844	145.600000
383.765411	145.000000
383.858948	145.220000
383.952515	144.740000
384.046051	145.360000
384.139618	145.680000
384.233185	145.940000
384.326721	145.980000
384.420288	146.300000
384.513855	145.860000
384.607422	146.080000
384.700989	146.320000
384.794525	146.140000
384.888123	145.980000
384.981659	146.160000
385.075226	145.620000
385.168762	145.200000
385.262360	145.200000
385.355896	144.180000
385.449463	144.080000
385.542999	144.060000
385.636597	144.860000
385.730164	145.160000
385.823730	145.700000
385.917267	145.420000
386.010834	145.660000
386.104401	145.440000
386.197968	145.480000
386.291534	145.840000
386.385101	146.160000
386.478668	146.600000
386.572235	146.460000
386.665802	145.940000
386.759338	145.440000
386.852905	145.100000
386.946472	144.540000
387.040070	144.660000
387.133606	144.720000
387.227203	144.560000
387.320740	145.200000
387.414337	145.100000
387.507874	144.660000
387.601471	144.900000
387.695007	144.820000
387.788605	144.400000
387.882141	144.520000
387.975739	144.620000
388.069275	144.380000
388.162872	144.840000
388.256439	144.880000
388.350037	144.860000
388.443604	145.060000
388.537170	145.380000
388.630737	145.660000
388.724304	145.780000
388.817871	145.680000
388.911438	145.420000
389.005005	145.560000
389.098602	145.940000
389.192169	145.420000
389.285736	146.020000
389.379333	146.160000
389.472870	145.540000
389.566467	145.240000
389.660034	145.300000
389.753632	144.200000
389.847168	144.220000
389.940765	144.880000
390.034332	144.900000
390.127930	144.760000
390.221466	145.120000
390.315063	144.860000
390.408630	143.800000
390.502228	143.080000
390.595795	143.300000
390.689362	143.640000
390.782959	143.780000
390.876526	144.440000
390.970093	144.720000
391.063690	145.400000
391.157257	145.420000
391.250824	145.840000
391.344421	145.740000
391.437988	146.020000
391.531555	145.960000
391.625153	146.020000
391.718750	145.920000
391.812317	145.800000
391.905914	145.400000
391.999481	145.320000
392.093079	145.300000
392.186615	145.740000
392.280243	145.980000
392.373779	146.080000
392.467407	146.560000
392.560944	146.300000
392.654572	145.640000
392.748108	145.780000
392.841736	145.900000
392.935303	145.240000
393.028900	145.300000
393.122467	145.340000
393.216064	144.940000
393.309631	144.380000
393.403229	144.140000
393.496796	144.180000
393.590393	143.580000
393.683990	144.100000
393.777557	145.080000
393.871155	145.580000
393.964722	145.980000
394.058350	146.580000
394.151917	146.420000
394.245514	145.780000
394.339081	145.920000
394.432678	146.120000
394.526245	145.900000
394.619873	145.300000
394.713409	145.700000
394.807037	145.240000
394.900604	145.340000
394.994202	145.680000
395.087769	146.280000
395.181396	145.860000
395.274994	147.000000
395.368561	146.160000
395.462158	146.040000
395.555756	145.640000
395.649353	146.080000
395.742920	144.980000
395.836517	145.980000
395.930115	145.520000
396.023712	146.120000
396.117279	146.360000
396.210876	146.060000
396.304474	145.540000
396.398071	146.120000
396.491669	145.960000
396.585266	145.540000
396.678833	145.640000
396.772461	145.720000
396.866028	145.520000
396.959656	145.720000
397.053223	146.040000
397.146851	146.020000
397.240417	146.500000
397.334015	147.740000
397.427582	148.120000
397.521210	149.180000
397.614807	151.080000
397.708405	152.780000
397.802002	154.460000
397.895599	158.360000
397.989197	162.180000
398.082794	167.060000
398.176392	173.020000
398.269989	180.600000
398.363586	188.580000
398.457184	198.640000
398.550781	210.500000
398.644379	222.020000
398.737976	235.040000
398.831573	249.220000
398.925201	263.480000
399.018768	278.360000
399.112396	295.340000
399.205963	313.280000
399.299591	332.480000
399.393158	353.240000
399.486786	376.060000
399.580353	399.300000
399.673981	421.840000
399.767578	444.560000
399.861206	466.060000
399.954773	483.500000
400.048401	494.800000
400.141998	501.040000
400.235596	500.700000
400.329193	494.560000
400.422791	483.860000
400.516418	472.980000
400.610016	460.960000
400.703613	447.800000
400.797211	432.040000
400.890808	415.420000
400.984436	397.180000
401.078033	376.000000
401.171631	354.000000
401.265259	331.960000
401.358826	310.560000
401.452484	288.480000
401.546051	267.660000
401.639679	247.100000
401.733246	229.660000
401.826904	212.260000
401.920471	197.820000
402.014099	186.260000
402.107697	177.380000
402.201324	169.840000
402.294891	164.840000
402.388550	160.440000
402.482147	156.860000
402.575745	153.660000
402.669373	150.880000
402.762970	148.940000
402.856567	147.860000
402.950195	147.340000
403.043793	146.980000
403.137390	147.520000
403.231018	146.540000
403.324615	146.560000
403.418243	145.700000
403.511841	146.100000
403.605469	145.620000
403.699066	146.380000
403.792694	146.120000
403.886292	146.600000
403.979919	146.200000
404.073517	145.900000
404.167145	146.080000
404.260712	146.440000
404.354370	146.220000
404.447937	146.420000
404.541595	146.900000
404.635162	146.920000
404.728821	146.900000
404.822418	146.400000
404.916046	146.100000
405.009644	146.000000
405.103271	146.040000
405.196899	145.740000
405.290497	146.200000
405.384125	146.420000
405.477722	145.760000
405.571350	145.140000
405.664948	145.300000
405.758575	145.000000
405.852203	144.740000
405.945801	145.160000
406.039429	145.360000
406.133057	145.260000
406.226654	145.320000
406.320312	145.340000
406.413879	145.440000
406.507538	145.880000
406.601135	145.320000
406.694763	145.860000
406.788361	145.680000
406.882019	145.420000
406.975586	145.640000
407.069244	146.480000
407.162872	146.420000
407.256470	146.600000
407.350098	146.700000
407.443726	146.020000
407.537323	145.560000
407.630951	145.640000
407.724579	145.120000
407.818207	145.600000
407.911804	145.640000
408.005432	145.400000
408.099060	145.600000
408.192688	146.240000
408.286285	145.620000
408.379913	145.420000
408.473572	145.680000
408.567169	144.700000
408.660828	144.400000
408.754395	144.480000
408.848053	144.440000
408.941650	144.560000
409.035309	144.600000
409.128906	144.560000
409.222565	144.680000
409.316132	145.180000
409.409790	144.840000
409.503387	145.220000
409.597046	145.720000
409.690674	145.540000
409.784302	145.240000
409.877930	145.140000
409.971558	145.220000
410.065186	144.520000
410.158783	144.600000
410.252411	144.520000
410.346039	145.120000
410.439667	145.040000
410.533295	145.380000
410.626923	145.760000
410.720551	145.760000
410.814209	145.840000
410.907806	145.860000
411.001465	145.420000
411.095062	145.360000
411.188721	145.380000
411.282318	144.920000
411.375977	144.680000
411.469574	145.080000
411.563232	144.740000
411.656830	144.680000
411.750488	144.800000
411.844086	144.960000
411.937744	144.940000
412.031372	144.940000
412.125000	144.980000
412.218628	144.880000
412.312256	145.520000
412.405884	146.080000
412.499512	146.120000
412.593170	146.320000
412.686798	146.440000
412.780426	145.400000
412.874054	145.440000
412.967682	145.360000
413.061310	145.760000
413.154968	145.920000
413.248566	146.440000
413.342224	146.200000
413.435852	146.240000
413.529510	145.580000
413.623108	144.940000
413.716766	145.120000
413.810364	145.160000
413.904022	144.860000
413.997650	144.620000
414.091309	145.360000
414.184906	144.820000
414.278564	144.440000
414.372192	145.140000
414.465851	145.620000
414.559479	145.400000
414.653107	146.740000
414.746735	146.600000
414.840393	146.480000
414.934021	146.600000
415.027649	146.360000
415.121277	145.780000
415.214935	146.380000
415.308563	146.220000
415.402191	145.640000
415.495850	145.540000
415.589478	144.900000
415.683136	144.440000
415.776733	144.740000
415.870422	145.440000
415.964020	145.220000
416.057678	145.460000
416.151306	145.420000
416.244965	145.040000
416.338562	144.940000
416.432251	145.540000
416.525848	146.320000
416.619507	146.620000
416.713165	146.820000
416.806793	146.580000
416.900421	146.480000
416.994080	145.340000
417.087708	145.160000
417.181366	144.760000
417.274994	144.500000
417.368622	144.980000
417.462280	145.820000
417.555908	145.860000
417.649567	145.860000
417.743195	146.400000
417.836853	145.920000
417.930481	145.900000
418.024170	145.880000
418.117767	146.540000
418.211426	146.500000
418.305054	146.720000
418.398712	146.000000
418.492340	145.980000
418.585999	146.220000
418.679626	146.100000
418.773285	146.160000
418.866913	146.880000
418.960571	147.400000
419.054230	147.060000
419.147858	147.000000
419.241516	147.020000
419.335144	146.640000
419.428802	146.380000
419.522461	146.060000
419.616089	145.700000
419.709747	145.620000
419.803375	145.720000
419.897034	145.440000
419.990662	145.800000
420.084320	146.180000
420.177979	146.260000
420.271606	146.380000
420.365295	146.940000
420.458893	146.780000
420.552582	147.180000
420.646210	146.940000
420.739868	146.580000
420.833496	146.120000
420.927155	145.660000
421.020782	145.220000
421.114471	145.020000
421.208069	145.160000
421.301758	145.520000
421.395386	145.580000
421.489044	145.260000
421.582703	145.280000
421.676361	145.780000
421.769989	145.020000
421.863647	145.800000
421.957306	146.100000
422.050934	146.320000
422.144592	145.920000
422.238251	145.880000
422.331909	145.240000
422.425537	145.180000
422.519196	145.420000
422.612854	145.160000
422.706543	145.120000
422.800140	145.480000
422.893829	145.100000
422.987457	144.520000
423.081146	144.500000
423.174744	145.380000
423.268433	144.940000
423.362061	145.220000
423.455750	145.160000
423.549347	145.260000
423.643036	144.500000
423.736664	144.920000
423.830353	145.200000
423.924011	145.840000
424.017639	145.300000
424.111298	145.260000
424.204956	145.180000
424.298615	144.840000
424.392273	144.500000
424.485931	145.000000
424.579559	145.120000
424.673218	144.660000
424.766876	145.000000
424.860535	144.540000
424.954193	144.400000
425.047882	144.760000
425.141510	145.140000
425.235199	144.940000
425.328796	145.160000
425.422485	145.260000
425.516113	144.560000
425.609802	144.440000
425.703430	144.560000
425.797119	144.640000
425.890747	144.620000
425.984436	145.000000
426.078064	144.980000
426.171753	144.960000
426.265411	144.820000
426.359070	145.080000
426.452728	144.880000
426.546356	144.880000
426.640015	144.740000
426.733673	144.880000
426.827332	144.440000
426.920990	145.520000
427.014648	145.140000
427.108307	145.460000
427.201965	145.800000
427.295624	146.160000
427.389282	145.100000
427.482941	145.580000
427.576630	145.440000
427.670258	144.900000
427.763947	144.520000
427.857574	144.700000
427.951263	144.740000
428.044922	144.360000
428.138611	144.340000
428.232239	145.040000
428.325928	145.240000
428.419556	145.660000
428.513245	145.580000
428.606903	146.100000
428.700562	145.240000
428.794220	144.800000
428.887878	143.800000
428.981537	144.100000
429.075195	143.700000
429.168854	144.140000
429.262512	144.240000
429.356201	144.500000
429.449860	144.100000
429.543518	144.560000
429.637177	145.000000
429.730835	145.140000
429.824493	145.180000
429.918182	145.780000
430.011810	144.900000
430.105530	144.060000
430.199158	144.020000
430.292847	143.920000
430.386475	143.480000
430.480164	143.700000
430.573792	143.660000
430.667511	143.800000
430.761139	144.020000
430.854828	144.520000
430.948456	144.560000
431.042145	145.280000
431.135834	145.220000
431.229492	145.480000
431.323151	145.380000
431.416809	145.700000
431.510468	145.700000
431.604156	145.880000
431.697815	145.820000
431.791473	145.500000
431.885132	144.840000
431.978821	145.140000
432.072479	145.080000
432.166138	145.340000
432.259827	145.480000
432.353485	146.180000
432.447174	145.980000
432.540802	145.960000
432.634491	145.800000
432.728149	146.200000
432.821838	146.520000
432.915466	145.780000
433.009186	145.880000
433.102814	145.360000
433.196503	145.020000
433.290131	144.860000
433.383850	145.280000
433.477509	145.200000
433.571167	146.000000
433.664856	146.420000
433.758514	146.620000
433.852173	146.560000
433.945862	146.520000
434.039520	146.220000
434.133179	145.400000
434.226868	144.960000
434.320526	144.240000
434.414185	144.740000
434.507874	144.440000
434.601562	145.040000
434.695221	145.160000
434.788910	146.020000
434.882538	145.640000
434.976257	145.380000
435.069885	145.080000
435.163574	145.060000
435.257233	144.580000
435.350922	144.740000
435.444580	144.960000
435.538269	144.840000
435.631897	145.000000
435.725616	145.960000
435.819275	146.020000
435.912964	146.460000
436.006622	146.880000
436.100311	146.840000
436.193970	145.960000
436.287628	145.700000
436.381317	145.300000
436.474976	144.820000
436.568665	144.180000
436.662323	144.200000
436.756012	144.240000
436.849670	144.420000
436.943390	144.580000
437.037018	144.980000
437.130737	145.220000
437.224365	145.060000
437.318085	144.920000
437.411713	145.100000
437.505432	145.420000
437.599060	145.660000
437.692780	146.560000
437.786407	146.440000
437.880127	146.400000
437.973755	146.040000
438.067474	145.600000
438.161133	145.040000
438.254822	145.560000
438.348480	145.440000
438.442169	146.060000
438.535828	146.500000
438.629517	146.120000
438.723175	145.280000
438.816864	145.680000
438.910553	145.160000
439.004211	144.800000
439.097900	144.540000
439.191559	145.060000
439.285248	144.480000
439.378906	144.820000
439.472626	144.800000
439.566284	144.980000
439.659973	145.060000
439.753632	145.120000
439.847321	145.120000
439.940979	145.280000
440.034698	145.540000
440.128326	145.220000
440.222046	145.220000
440.315674	144.320000
440.409393	144.440000
440.503082	144.180000
440.596741	144.540000
440.690430	144.860000
440.784088	145.220000
440.877777	144.560000
440.971466	144.540000
441.065125	144.220000
441.158813	143.680000
441.252502	143.620000
441.346161	144.140000
441.439850	144.660000
441.533539	144.700000
441.627197	145.420000
441.720886	145.420000
441.814606	145.600000
441.908234	145.660000
442.001953	145.340000
442.095612	145.140000
442.189301	145.500000
442.282959	145.300000
442.376678	144.680000
442.470306	145.600000
442.564026	145.240000
442.657684	145.180000
442.751404	145.260000
442.845032	146.040000
442.938751	145.360000
443.032440	145.760000
443.126099	145.360000
443.219788	145.700000
443.313477	145.480000
443.407166	145.940000
443.500824	145.640000
443.594513	146.200000
443.688202	145.900000
443.781891	145.380000
443.875549	144.900000
443.969238	144.980000
444.062927	144.960000
444.156647	144.940000
444.250275	145.500000
444.343994	145.780000
444.437653	146.080000
444.531372	145.940000
444.625031	145.480000
444.718719	144.880000
444.812378	144.640000
444.906097	144.100000
444.999756	143.840000
445.093445	144.120000
445.187103	144.600000
445.280823	145.180000
445.374512	145.020000
445.468201	145.140000
445.561859	145.080000
445.655548	144.980000
445.749237	144.540000
445.842926	144.820000
445.936615	145.340000
446.030304	145.220000
446.123962	145.580000
446.217651	145.420000
446.311340	145.840000
446.405029	145.200000
446.498749	145.140000
446.592407	144.560000
446.686096	144.740000
446.779755	144.460000
446.873474	145.000000
446.967133	145.460000
447.060852	145.300000
447.154510	145.200000
447.248230	145.080000
447.341858	144.800000
447.435577	144.420000
447.529236	144.260000
447.622955	143.860000
447.716644	144.060000
447.810333	144.060000
447.904022	144.580000
447.997711	144.800000
448.091400	145.540000
448.185059	145.640000
448.278748	146.040000
448.372437	145.740000
448.466125	146.080000
448.559814	145.800000
448.653503	146.020000
448.747192	145.940000
448.840912	146.400000
448.934570	146.520000
449.028290	146.760000
449.121948	146.360000
449.215637	146.100000
449.309296	145.280000
449.403015	145.140000
449.496674	144.960000
449.590393	145.160000
449.684052	145.080000
449.777771	146.220000
449.871429	145.560000
449.965149	145.500000
450.058838	145.740000
450.152527	146.100000
450.246216	145.580000
450.339905	145.880000
450.433594	145.500000
450.527283	145.700000
450.620972	145.260000
450.714661	145.100000
450.808350	145.640000
450.902039	146.240000
450.995728	145.640000
451.089417	145.580000
451.183105	145.360000
451.276794	145.740000
451.370514	145.200000
451.464172	144.680000
451.557892	144.640000
451.651550	145.040000
451.745270	144.220000
451.838928	143.840000
451.932648	144.420000
452.026306	145.140000
452.120026	145.000000
452.213684	145.360000
452.307404	145.740000
452.401062	145.820000
452.494781	145.540000
452.588470	145.120000
452.682159	144.520000
452.775848	144.720000
452.869537	144.300000
452.963226	143.760000
453.056915	144.000000
453.150604	144.540000
453.244293	144.700000
453.337982	145.500000
453.431671	146.200000
453.525360	146.960000
453.619049	146.580000
453.712769	146.480000
453.806427	145.720000
453.900146	145.100000
453.993805	144.500000
454.087555	145.100000
454.181213	145.120000
454.274933	145.080000
454.368591	145.080000
454.462311	144.820000
454.555969	144.460000
454.649689	145.180000
454.743347	145.260000
454.837067	145.860000
454.930756	146.580000
455.024445	146.480000
455.118134	145.980000
455.211853	146.240000
455.305542	145.620000
455.399231	145.380000
455.492920	145.360000
455.586609	145.280000
455.680298	145.400000
455.773987	145.220000
455.867676	145.020000
455.961365	145.280000
456.055084	145.060000
456.148773	144.660000
456.242493	145.000000
456.336151	144.980000
456.429871	144.980000
456.523529	145.640000
456.617249	145.520000
456.710907	146.100000
456.804626	145.920000
456.898315	145.520000
456.992035	145.040000
457.085693	145.100000
457.179413	144.160000
457.273102	144.980000
457.366791	145.080000
457.460480	145.300000
457.554199	146.120000
457.647888	146.440000
457.741577	145.820000
457.835266	146.060000
457.928955	146.040000
458.022644	145.600000
458.116364	146.060000
458.210052	146.040000
458.303741	146.040000
458.397461	145.500000
458.491119	145.140000
458.584839	144.700000
458.678528	144.720000
458.772247	144.420000
458.865906	144.780000
458.959625	145.700000
459.053284	145.900000
459.147003	145.600000
459.240692	146.400000
459.334412	146.740000
459.428070	146.200000
459.521790	145.980000
459.615479	145.940000
459.709198	145.860000
459.802887	145.360000
459.896576	145.200000
459.990265	145.540000
460.083954	145.760000
460.177673	145.180000
460.271362	145.180000
460.365051	145.100000
460.458740	144.720000
460.552429	144.540000
460.646149	144.380000
460.739838	144.080000
460.833527	144.120000
460.927246	143.940000
461.020905	143.960000
461.114655	144.260000
461.208313	144.860000
461.302032	144.380000
461.395691	144.940000
461.489441	145.220000
461.583099	145.360000
461.676819	144.980000
461.770477	145.960000
461.864197	145.580000
461.957916	145.320000
462.051605	144.600000
462.145294	145.420000
462.238983	144.500000
462.332703	145.040000
462.426392	145.780000
462.520081	146.040000
462.613770	145.380000
462.707489	146.000000
462.801178	145.760000
462.894867	145.260000
462.988556	145.560000
463.082275	145.720000
463.175964	145.140000
463.269684	145.440000
463.363342	145.580000
463.457092	144.820000
463.550751	145.200000
463.644470	145.520000
463.738129	145.040000
463.831879	145.000000
463.925537	145.960000
464.019257	145.920000
464.112946	146.120000
464.206665	145.900000
464.300323	145.860000
464.394043	145.680000
464.487762	145.360000
464.581451	145.580000
464.675140	145.720000
464.768829	145.660000
464.862549	145.660000
464.956238	145.920000
465.049927	145.920000
465.143646	146.300000
465.237335	146.100000
465.331024	146.520000
465.424713	146.500000
465.518433	146.240000
465.612152	145.720000
465.705811	145.800000
465.799561	145.320000
465.893219	144.900000
465.986938	144.900000
466.080597	144.860000
466.174347	145.180000
466.268005	145.480000
466.361725	145.260000
466.455414	145.080000
466.549133	145.220000
466.642792	145.460000
466.736542	144.840000
466.830231	145.300000
466.923920	145.400000
467.017609	145.500000
467.111328	144.860000
467.205017	144.980000
467.298706	144.640000
467.392426	144.860000
467.486115	145.060000
467.579803	144.720000
467.673523	145.220000
467.767212	145.640000
467.860901	145.560000
467.954651	145.680000
468.048309	146.600000
468.142029	146.040000
468.235718	145.980000
468.329437	145.760000
468.423096	145.660000
468.516846	144.960000
468.610504	145.240000
468.704224	144.920000
468.797913	145.020000
468.891632	144.960000
468.985291	145.060000
469.079010	145.080000
469.172729	144.700000
469.266418	145.000000
469.360107	144.920000
469.453827	144.880000
469.547516	144.640000
469.641205	145.140000
469.734924	145.160000
469.828613	145.580000
469.922302	145.920000
470.016022	146.020000
470.109711	145.940000
470.203430	145.360000
470.297150	144.440000
470.390808	144.440000
470.484558	144.280000
470.578217	144.780000
470.671936	145.420000
470.765625	146.300000
470.859344	146.060000
470.953003	146.340000
471.046753	145.740000
471.140411	144.920000
471.234131	144.900000
471.327820	145.500000
471.421539	145.720000
471.515228	145.760000
471.608948	146.480000
471.702637	145.920000
471.796326	145.340000
471.890045	145.420000
471.983734	145.460000
472.077423	144.840000
472.171143	144.980000
472.264832	145.180000
472.358521	144.660000
472.452240	144.600000
472.545929	145.380000
472.639648	145.720000
472.733337	146.040000
472.827057	146.460000
472.920746	146.580000
473.014465	146.680000
473.108124	146.680000
473.201874	146.420000
473.295532	145.920000
473.389252	146.100000
473.482941	145.700000
473.576660	145.340000
473.670319	145.020000
473.764069	145.520000
473.857727	145.540000
473.951477	145.940000
474.045166	146.660000
474.138855	146.480000
474.232574	146.080000
474.326263	145.860000
474.419952	145.920000
474.513672	145.120000
474.607361	145.560000
474.701050	145.980000
474.794769	146.600000
474.888458	146.280000
474.982178	146.840000
475.075867	146.700000
475.169586	146.680000
475.263275	146.120000
475.356995	146.020000
475.450653	145.320000
475.544403	145.020000
475.638062	145.420000
475.731812	145.120000
475.825470	144.960000
475.919189	145.360000
476.012878	145.720000
476.106598	144.760000
476.200256	145.440000
476.294006	145.240000
476.387695	145.180000
476.481384	145.260000
476.575104	145.160000
476.668793	144.560000
476.762512	144.400000
476.856201	144.720000
476.949890	144.320000
477.043610	144.280000
477.137299	144.480000
477.230988	145.080000
477.324707	144.700000
477.418396	145.260000
477.512146	145.580000
477.605804	145.380000
477.699524	145.320000
477.793213	145.240000
477.886932	145.040000
477.980591	144.800000
478.074341	144.600000
478.167999	144.040000
478.261749	144.020000
478.355408	143.500000
478.449127	143.880000
478.542816	144.920000
478.636536	145.740000
478.730225	146.040000
478.823944	146.780000
478.917633	146.940000
479.011322	146.560000
479.105042	146.440000
479.198730	146.540000
479.292450	146.400000
479.386139	146.400000
479.479828	146.500000
479.573547	146.680000
479.667267	146.460000
479.760925	146.360000
479.854675	146.620000
479.948334	146.340000
480.042084	145.880000
480.135742	146.340000
480.229462	146.160000
480.323151	145.760000
480.416870	145.340000
480.510529	145.260000
480.604279	144.460000
480.697937	144.740000
480.791656	144.460000
480.885345	144.500000
480.979065	144.540000
481.072754	145.180000
481.166473	145.460000
481.260132	145.640000
481.353882	145.740000
481.447540	145.640000
481.541260	145.280000
481.635010	144.480000
481.728668	144.540000
481.822388	144.820000
481.916077	144.840000
482.009796	144.700000
482.103485	145.400000
482.197205	145.400000
482.290863	145.300000
482.384613	145.220000
482.478271	145.100000
482.571991	144.760000
482.665680	144.840000
482.759399	145.500000
482.853058	146.080000
482.946808	146.280000
483.040466	146.240000
483.134216	146.040000
483.227875	145.560000
483.321594	145.780000
483.415283	145.980000
483.509003	145.800000
483.602661	145.480000
483.696411	145.620000
483.790070	145.140000
483.883789	144.920000
483.977478	145.560000
484.071198	146.160000
484.164917	145.580000
484.258606	145.400000
484.352325	145.940000
484.445984	145.620000
484.539734	145.460000
484.633392	145.360000
484.727142	145.640000
484.820801	145.220000
484.914520	145.200000
485.008209	145.320000
485.101929	146.040000
485.195587	146.020000
485.289337	146.060000
485.382996	145.980000
485.476715	145.960000
485.570404	145.880000
485.664124	145.540000
485.757782	146.080000
485.851532	145.800000
485.945190	145.720000
486.038910	146.000000
486.132599	146.520000
486.226318	145.620000
486.319977	145.700000
486.413727	146.120000
486.507446	145.340000
486.601105	145.000000
486.694855	144.960000
486.788513	144.560000
486.882233	144.040000
486.975922	144.140000
487.069641	143.860000
487.163300	143.960000
487.257050	145.220000
487.350708	145.020000
487.444427	145.060000
487.538116	145.280000
487.631836	145.540000
487.725494	144.980000
487.819214	145.360000
487.912903	145.180000
488.006622	145.520000
488.100281	145.660000
488.194031	145.640000
488.287689	146.060000
488.381409	147.060000
488.475098	146.820000
488.568817	146.600000
488.662476	146.240000
488.756226	145.620000
488.849945	144.340000
488.943604	144.560000
489.037354	144.780000
489.131012	145.240000
489.224731	145.100000
489.318390	145.560000
489.412140	145.540000
489.505798	145.420000
489.599518	144.840000
489.693207	145.140000
489.786926	144.820000
489.880585	144.500000
489.974335	144.720000
490.067993	145.840000
490.161713	146.100000
490.255371	146.800000
490.349121	146.960000
490.442780	146.560000
490.536499	145.180000
490.630188	144.820000
490.723907	144.540000
490.817566	144.760000
490.911285	144.940000
491.004974	145.400000
491.098694	145.080000
491.192413	145.480000
491.286102	145.020000
491.379822	145.260000
491.473480	145.500000
491.567200	145.900000
491.660889	145.100000
491.754608	145.080000
491.848267	144.960000
491.941986	144.980000
492.035675	144.800000
492.129395	145.440000
492.223053	145.520000
492.316772	145.420000
492.410461	145.340000
492.504181	145.480000
492.597839	144.860000
492.691559	145.260000
492.785248	145.180000
492.878967	145.380000
492.972626	145.140000
493.066345	145.400000
493.160034	144.620000
493.253754	144.640000
493.347412	144.400000
493.441132	144.500000
493.534882	145.160000
493.628540	145.860000
493.722260	145.960000
493.815918	145.900000
493.909668	146.440000
494.003326	146.320000
494.097046	145.800000
494.190704	145.800000
494.284454	145.880000
494.378113	145.800000
494.471832	145.560000
494.565491	145.620000
494.659210	145.360000
494.752899	145.120000
494.846619	144.560000
494.940277	144.700000
495.033997	144.660000
495.127686	144.480000
495.221405	144.640000
495.315063	144.720000
495.408783	144.580000
495.502441	144.700000
495.596191	145.160000
495.689850	145.140000
495.783569	145.500000
495.877228	145.400000
495.970947	145.240000
496.064697	144.760000
496.158356	145.620000
496.252075	145.500000
496.345734	145.240000
496.439453	146.220000
496.533142	146.520000
496.626862	146.220000
496.720520	146.080000
496.814240	146.380000
496.907898	145.660000
497.001617	145.960000
497.095306	145.020000
497.189026	145.020000
497.282684	145.280000
497.376404	145.540000
497.470062	145.200000
497.563782	145.660000
497.657471	145.740000
497.751190	145.220000
497.844849	144.920000
497.938568	145.280000
498.032227	145.280000
498.125946	145.220000
498.219635	145.260000
498.313354	145.280000
498.407074	144.780000
498.500732	145.000000
498.594452	145.260000
498.688110	144.960000
498.781830	144.660000
498.875519	144.660000
498.969238	144.220000
499.062897	143.720000
499.156616	144.340000
499.250275	144.740000
499.343994	144.380000
499.437653	144.600000
499.531372	144.880000
499.625061	145.400000
499.718781	145.500000
499.812439	146.240000
499.906158	146.080000
499.999817	145.980000
500.093536	145.100000
500.187195	145.020000
500.280914	144.880000
500.374573	145.360000
500.468323	145.000000
500.561981	145.260000
500.655701	144.940000
500.749420	144.780000
500.843079	144.740000
500.936798	145.340000
501.030457	145.660000
501.124176	146.000000
501.217834	146.000000
501.311554	145.300000
501.405212	144.840000
501.498962	144.200000
501.592621	144.060000
501.686340	144.480000
501.779999	145.000000
501.873718	145.080000
501.967377	145.400000
502.061096	145.760000
502.154755	145.120000
502.248474	144.900000
502.342133	145.220000
502.435852	145.120000
502.529510	145.420000
502.623230	146.240000
502.716888	145.980000
502.810608	145.860000
502.904266	146.320000
502.997986	145.680000
503.091705	145.040000
503.185364	145.360000
503.279083	145.440000
503.372772	145.120000
503.466492	144.920000
503.560150	145.060000
503.653870	145.440000
503.747528	145.240000
503.841248	145.060000
503.934906	145.500000
504.028625	145.420000
504.122284	145.340000
504.216003	146.020000
504.309662	145.860000
504.403381	145.600000
504.497040	145.560000
504.590759	144.980000
504.684418	144.980000
504.778137	145.520000
504.871796	146.060000
504.965515	145.820000
505.059174	146.540000
505.152893	145.940000
505.246521	145.320000
505.340240	144.860000
505.433899	145.300000
505.527618	145.180000
505.621338	145.580000
505.714996	145.560000
505.808716	145.540000
505.902374	145.720000
505.996094	145.940000
506.089752	145.380000
506.183472	145.460000
506.277130	145.600000
506.370850	145.380000
506.464508	144.840000
506.558228	145.200000
506.651886	145.100000
506.745605	145.060000
506.839264	145.120000
506.932983	145.300000
507.026611	145.200000
507.120331	145.840000
507.213989	145.420000
507.307709	145.480000
507.401367	145.880000
507.495087	146.620000
507.588745	145.960000
507.682465	146.820000
507.776123	146.740000
507.869843	146.320000
507.963531	145.780000
508.057190	146.400000
508.150909	145.620000
508.244568	145.680000
508.338287	145.360000
508.431946	144.860000
508.525665	144.600000
508.619324	144.560000
508.713013	144.640000
508.806671	145.140000
508.900391	146.180000
508.994049	146.380000
509.087769	146.320000
509.181427	146.400000
509.275146	145.900000
509.368774	144.720000
509.462494	144.560000
509.556152	144.900000
509.649872	145.160000
509.743530	145.580000
509.837250	146.320000
509.930878	146.300000
510.024597	146.040000
510.118256	145.580000
510.211975	145.480000
510.305695	144.920000
510.399353	145.200000
510.493042	146.080000
510.586700	146.260000
510.680420	146.600000
510.774078	146.880000
510.867798	146.840000
510.961426	145.780000
511.055145	145.300000
511.148804	144.980000
511.242523	145.360000
511.336151	145.000000
511.429871	145.560000
511.523529	145.580000
511.617249	144.960000
511.710876	144.560000
511.804596	144.280000
511.898254	144.140000
511.991974	144.820000
512.085632	145.440000
512.179321	145.500000
512.272949	146.220000
512.366699	146.660000
512.460327	146.220000
512.554077	146.920000
512.647766	146.900000
512.741394	146.720000
512.835144	147.060000
512.928772	146.740000
513.022461	146.220000
513.116150	146.060000
513.209839	146.580000
513.303467	145.860000
513.397217	145.780000
513.490845	145.580000
513.584595	145.500000
513.678223	144.680000
513.771912	144.180000
513.865601	144.580000
513.959290	144.380000
514.052917	144.340000
514.146667	145.280000
514.240295	145.860000
514.333984	146.080000
514.427673	146.100000
514.521362	146.740000
514.614990	145.840000
514.708740	145.840000
514.802368	145.840000
514.896057	145.900000
514.989746	146.180000
515.083435	146.180000
515.177124	146.520000
515.270752	146.320000
515.364502	146.120000
515.458130	145.780000
515.551819	145.900000
515.645508	145.240000
515.739197	145.380000
515.832825	145.680000
515.926575	145.500000
516.020203	145.660000
516.113892	146.300000
516.207520	145.880000
516.301270	145.860000
516.394897	146.060000
516.488586	146.480000
516.582275	145.880000
516.675964	145.500000
516.769592	145.340000
516.863281	145.600000
516.956970	145.520000
517.050659	145.700000
517.144287	146.320000
517.238037	146.660000
517.331665	145.760000
517.425354	145.360000
517.519043	145.160000
517.612732	145.380000
517.706421	145.140000
517.800049	145.140000
517.893738	144.960000
517.987427	145.060000
518.081116	144.780000
518.174744	144.400000
518.268433	145.140000
518.362122	145.560000
518.455811	145.540000
518.549438	146.180000
518.643127	147.320000
518.736816	146.780000
518.830505	146.240000
518.924133	146.440000
519.017822	146.080000
519.111511	145.560000
519.205200	146.060000
519.298828	146.400000
519.392517	145.900000
519.486206	146.200000
519.579895	146.320000
519.673523	146.080000
519.767212	146.020000
519.860901	146.840000
519.954590	146.400000
520.048279	145.600000
520.141907	145.400000
520.235596	146.300000
520.329224	146.380000
520.422974	146.320000
520.516602	146.660000
520.610291	146.780000
520.703918	145.960000
520.797607	145.180000
520.891296	145.220000
520.984985	145.560000
521.078613	146.040000
521.172302	145.760000
521.265930	147.060000
521.359680	147.500000
521.453308	147.300000
521.546997	146.960000
521.640625	147.020000
521.734314	146.060000
521.827942	145.920000
521.921692	146.000000
522.015320	145.980000
522.109009	145.800000
522.202698	145.780000
522.296326	145.700000
522.390015	145.860000
522.483704	145.880000
522.577393	145.980000
522.671021	145.640000
522.764709	145.260000
522.858337	145.740000
522.952026	145.580000
523.045654	146.320000
523.139404	147.020000
523.233032	147.500000
523.326721	146.980000
523.420349	146.900000
523.514038	146.340000
523.607666	146.400000
523.701355	145.820000
523.795044	145.680000
523.888733	146.180000
523.982361	146.380000
524.076050	145.700000
524.169678	146.240000
524.263367	145.860000
524.356995	144.920000
524.450684	144.540000
524.544373	145.060000
524.638062	144.940000
524.731750	145.440000
524.825378	146.060000
524.919067	145.820000
525.012695	145.580000
525.106384	145.020000
525.200012	145.060000
525.293701	145.060000
525.387329	145.740000
525.481018	145.860000
525.574646	146.580000
525.668396	146.560000
525.762024	146.720000
525.855713	146.700000
525.949341	146.140000
526.043030	145.920000
526.136658	145.360000
526.230347	145.040000
526.323975	144.680000
526.417664	144.860000
526.511292	144.660000
526.604980	145.100000
526.698608	145.200000
526.792297	145.240000
526.885925	145.500000
526.979614	145.860000
527.073303	145.900000
527.166931	145.860000
527.260620	146.140000
527.354309	146.720000
527.447998	146.500000
527.541626	146.200000
527.635315	146.440000
527.728943	146.840000
527.822632	146.820000
527.916260	147.100000
528.009949	147.380000
528.103577	147.120000
528.197266	146.320000
528.290894	145.860000
528.384583	145.660000
528.478210	145.680000
528.571899	145.900000
528.665527	146.420000
528.759216	146.500000
528.852844	147.040000
528.946533	146.980000
529.040161	146.700000
529.133850	146.240000
529.227478	146.460000
529.321167	146.200000
529.414856	146.720000
529.508484	147.300000
529.602173	147.100000
529.695801	146.800000
529.789490	146.400000
529.883057	145.940000
529.976746	145.940000
530.070374	146.820000
530.164062	147.040000
530.257690	147.440000
530.351379	147.520000
530.445007	147.100000
530.538696	146.060000
530.632324	146.160000
530.726013	146.100000
530.819641	145.920000
530.913330	145.860000
531.006958	146.140000
531.100647	145.800000
531.194275	145.440000
531.287964	145.340000
531.381592	145.080000
531.475220	145.460000
531.568848	145.460000
531.662537	145.380000
531.756226	146.000000
531.849854	146.240000
531.943542	146.180000
532.037170	145.640000
532.130859	146.340000
532.224487	145.840000
532.318176	145.620000
532.411804	146.000000
532.505432	146.600000
532.599060	145.900000
532.692749	145.840000
532.786377	146.480000
532.880066	145.500000
532.973694	145.100000
533.067383	145.180000
533.161011	145.320000
533.254639	145.160000
533.348267	145.260000
533.441956	145.840000
533.535583	145.960000
533.629272	146.000000
533.722900	145.440000
533.816589	145.900000
533.910156	146.240000
534.003845	145.640000
534.097534	145.820000
534.191162	146.360000
534.284851	146.460000
534.378479	146.040000
534.472107	146.480000
534.565735	146.040000
534.659424	146.180000
534.753052	146.000000
534.846741	145.600000
534.940369	146.180000
535.033997	146.220000
535.127625	146.120000
535.221313	146.580000
535.314941	146.500000
535.408630	145.620000
535.502197	146.060000
535.595886	145.740000
535.689514	145.420000
535.783203	146.000000
535.876831	146.740000
535.970459	146.680000
536.064087	146.480000
536.157776	146.180000
536.251404	145.760000
536.345093	145.320000
536.438721	145.140000
536.532349	145.380000
536.626038	145.440000
536.719666	145.900000
536.813293	145.960000
536.906921	145.880000
537.000610	146.080000
537.094238	146.180000
537.187866	145.800000
537.281494	145.640000
537.375183	145.800000
537.468811	145.880000
537.562439	146.020000
537.656067	146.160000
537.749756	146.380000
537.843384	146.660000
537.937012	146.480000
538.030640	146.100000
538.124329	146.080000
538.217896	146.260000
538.311584	146.180000
538.405212	146.000000
538.498901	146.200000
538.592468	146.780000
538.686157	146.240000
538.779785	145.480000
538.873413	145.660000
538.967102	145.620000
539.060730	144.800000
539.154358	145.260000
539.247986	145.780000
539.341675	145.920000
539.435242	145.860000
539.528931	146.140000
539.622559	145.920000
539.716187	146.480000
539.809814	146.180000
539.903503	146.460000
539.997070	146.220000
540.090759	146.220000
540.184387	145.960000
540.278015	146.420000
540.371643	146.380000
540.465332	146.540000
540.558899	146.500000
540.652588	146.200000
540.746216	145.560000
540.839844	145.880000
540.933472	145.700000
541.027100	145.500000
541.120728	145.480000
541.214417	145.840000
541.308044	145.580000
541.401672	145.780000
541.495300	145.760000
541.588928	145.860000
541.682617	145.880000
541.776184	145.380000
541.869873	145.400000
541.963440	145.700000
542.057129	145.940000
542.150757	145.880000
542.244385	146.040000
542.338013	145.700000
542.431641	145.420000
542.525269	145.060000
542.618958	145.360000
542.712524	145.720000
542.806213	145.860000
542.899780	146.520000
542.993469	146.200000
543.087036	145.800000
543.180725	145.360000
543.274292	145.720000
543.367981	145.580000
543.461548	146.320000
543.555237	146.400000
543.648926	147.040000
543.742493	147.420000
543.836182	147.360000
543.929749	147.200000
544.023437	147.140000
544.117004	146.940000
544.210693	146.620000
544.304260	146.600000
544.397949	146.440000
544.491516	146.940000
544.585205	147.180000
544.678772	146.860000
544.772461	147.100000
544.866028	146.880000
544.959717	146.800000
545.053284	146.140000
545.146973	146.180000
545.240540	146.340000
545.334229	146.760000
545.427795	146.880000
545.521423	147.100000
545.615051	147.460000
545.708679	147.380000
545.802307	147.240000
545.895935	147.380000
545.989624	148.160000
546.083191	147.820000
546.176880	147.800000
546.270447	147.580000
546.364136	147.660000
546.457703	146.980000
546.551331	147.080000
546.644958	147.100000
546.738586	147.580000
546.832214	147.180000
546.925842	147.280000
547.019409	147.740000
547.113098	147.100000
547.206665	146.300000
547.300354	146.040000
547.393921	146.220000
547.487549	146.080000
547.581177	146.120000
547.674805	146.280000
547.768433	145.600000
547.862061	145.460000
547.955627	144.740000
548.049316	145.300000
548.142883	145.740000
548.236572	146.580000
548.330139	146.780000
548.423767	146.760000
548.517456	146.340000
548.611023	146.500000
548.704651	145.740000
548.798279	145.400000
548.891907	145.980000
548.985474	145.880000
549.079163	145.700000
549.172729	146.020000
549.266357	145.820000
549.359985	145.660000
549.453613	145.360000
549.547180	145.100000
549.640869	145.380000
549.734436	145.240000
549.828064	145.840000
549.921631	146.140000
550.015320	146.020000
550.108887	146.420000
550.202515	146.520000
550.296143	145.700000
550.389771	145.780000
550.483337	145.940000
550.576965	145.720000
550.670593	146.200000
550.764221	146.360000
550.857849	146.320000
550.951477	146.020000
551.045105	145.660000
551.138672	145.380000
551.232300	145.160000
551.325928	145.480000
551.419556	145.720000
551.513123	145.500000
551.606750	145.280000
551.700378	145.320000
551.794006	145.280000
551.887573	144.980000
551.981201	145.400000
552.074768	145.180000
552.168457	144.840000
552.262024	145.360000
552.355652	145.640000
552.449219	146.100000
552.542847	146.240000
552.636475	146.320000
552.730103	145.280000
552.823669	145.140000
552.917297	144.300000
553.010864	144.480000
553.104553	144.720000
553.198181	144.780000
553.291748	144.800000
553.385376	145.140000
553.478943	145.220000
553.572571	145.400000
553.666199	145.720000
553.759827	145.800000
553.853394	145.620000
553.947021	145.600000
554.040588	145.460000
554.134216	145.200000
554.227783	146.000000
554.321411	146.700000
554.415039	145.960000
554.508667	146.060000
554.602234	146.660000
554.695862	145.940000
554.789429	145.760000
554.883057	146.600000
554.976624	146.480000
555.070251	146.100000
555.163818	145.700000
555.257507	145.520000
555.351074	145.380000
555.444702	146.640000
555.538330	146.020000
555.631897	146.560000
555.725525	146.680000
555.819092	146.320000
555.912720	144.780000
556.006287	145.800000
556.099915	145.420000
556.193481	145.180000
556.287109	145.660000
556.380676	145.900000
556.474304	145.560000
556.567871	145.900000
556.661499	145.440000
556.755066	145.540000
556.848694	145.700000
556.942261	145.440000
557.035889	145.720000
557.129517	146.160000
557.223145	146.400000
557.316711	146.480000
557.410339	146.480000
557.503906	145.720000
557.597473	145.740000
557.691040	145.080000
557.784668	144.980000
557.878296	145.520000
557.971863	146.040000
558.065491	146.120000
558.159058	146.160000
558.252686	147.020000
558.346252	147.240000
558.439880	146.760000
558.533447	146.360000
558.627075	146.160000
558.720642	145.180000
558.814270	144.860000
558.907837	144.820000
559.001465	144.640000
559.095032	145.400000
559.188660	145.680000
559.282227	144.780000
559.375854	145.680000
559.469360	145.680000
559.562988	145.880000
559.656555	145.900000
559.750183	146.600000
559.843750	146.200000
559.937378	146.560000
560.030945	146.040000
560.124573	0.000000
560.218140	0.000000
560.311707	0.000000
560.405334	0.000000
560.498901	0.000000
560.592529	0.000000
560.686096	0.000000
560.779724	0.000000
560.873291	0.000000
560.966858	0.000000
561.060425	0.000000
561.154053	0.000000
561.247620	0.000000
561.341248	0.000000
561.434814	0.000000
561.528381	0.000000
561.621948	0.000000
561.715576	0.000000
561.809143	0.000000
561.902771	0.000000
561.996277	0.000000
562.089905	0.000000
562.183472	0.000000
562.277100	0.000000
