Model Number: SPM-001-M   
Serial Number: 10090201
Firmware Version: 004.17.6
Exposure Time: 300000.000000us
Data Taken on: 11-02-2021 10:33:06.435
Wavelength	Amplitude
733.770752	0.000000
733.808716	0.000000
733.846619	0.000000
733.884583	0.000000
733.922546	0.000000
733.960449	0.000000
733.998413	0.000000
734.036377	0.000000
734.074219	0.000000
734.112183	0.000000
734.150085	0.000000
734.188049	0.000000
734.226013	0.000000
734.263916	0.000000
734.301819	0.000000
734.339783	0.000000
734.377686	0.000000
734.415588	0.000000
734.453552	0.000000
734.491455	0.000000
734.529419	0.000000
734.567322	0.000000
734.605225	0.000000
734.643127	0.000000
734.681091	0.000000
734.718994	0.000000
734.756897	0.000000
734.794800	0.000000
734.832703	0.000000
734.870667	0.000000
734.908508	0.000000
734.946472	0.000000
734.984375	0.000000
735.022278	0.000000
735.060181	0.000000
735.098083	0.000000
735.135986	0.000000
735.173889	0.000000
735.211792	0.000000
735.249695	0.000000
735.287598	0.000000
735.325439	0.000000
735.363403	0.000000
735.401306	0.000000
735.439148	0.000000
735.477051	0.000000
735.515015	0.000000
735.552856	0.000000
735.590759	0.000000
735.628662	0.000000
735.666504	0.000000
735.704407	0.000000
735.742310	0.000000
735.780212	0.000000
735.818115	0.000000
735.856018	0.000000
735.893860	0.000000
735.931763	0.000000
735.969604	0.000000
736.007507	0.000000
736.045410	0.000000
736.083252	0.000000
736.121094	0.000000
736.158997	0.000000
736.196838	0.000000
736.234741	0.000000
736.272644	0.000000
736.310486	0.000000
736.348389	0.000000
736.386230	0.000000
736.424072	0.000000
736.461975	0.000000
736.499878	0.000000
736.537720	0.000000
736.575562	0.000000
736.613403	0.000000
736.651306	0.000000
736.689148	0.000000
736.726990	0.000000
736.764893	0.000000
736.802734	0.000000
736.840576	0.000000
736.878418	0.000000
736.916321	0.000000
736.954102	0.000000
736.992004	0.000000
737.029846	0.000000
737.067688	0.000000
737.105530	0.000000
737.143372	0.000000
737.181213	0.000000
737.219116	0.000000
737.256897	0.000000
737.294739	0.000000
737.332642	0.000000
737.370422	0.000000
737.408325	0.000000
737.446167	0.000000
737.483948	0.000000
737.521790	0.000000
737.559692	0.000000
737.597473	0.000000
737.635315	0.000000
737.673157	0.000000
737.710999	0.000000
737.748840	0.000000
737.786621	0.000000
737.824463	0.000000
737.862305	0.000000
737.900085	0.000000
737.937927	0.000000
737.975769	0.000000
738.013550	0.000000
738.051392	0.000000
738.089233	0.000000
738.127014	0.000000
738.164856	0.000000
738.202698	0.000000
738.240479	0.000000
738.278320	0.000000
738.316162	0.000000
738.353943	0.000000
738.391785	0.000000
738.429565	0.000000
738.467407	0.000000
738.505188	0.000000
738.542969	0.000000
738.580811	0.000000
738.618652	0.000000
738.656372	0.000000
738.694214	0.000000
738.732056	0.000000
738.769836	0.000000
738.807617	0.000000
738.845459	0.000000
738.883240	0.000000
738.921021	0.000000
738.958862	0.000000
738.996582	0.000000
739.034424	0.000000
739.072205	0.000000
739.109985	0.000000
739.147827	0.000000
739.185547	0.000000
739.223389	0.000000
739.261169	0.000000
739.298889	0.000000
739.336731	0.000000
739.374512	0.000000
739.412292	0.000000
739.450073	0.000000
739.487854	0.000000
739.525635	0.000000
739.563416	0.000000
739.601135	0.000000
739.638977	0.000000
739.676758	0.000000
739.714478	0.000000
739.752258	0.000000
739.790100	0.000000
739.827820	0.000000
739.865601	0.000000
739.903381	0.000000
739.941101	0.000000
739.978882	199.300000
740.016724	194.200000
740.054443	199.000000
740.092224	194.400000
740.130005	192.900000
740.167725	192.800000
740.205505	194.000000
740.243225	199.800000
740.281006	195.300000
740.318787	190.400000
740.356506	200.700000
740.394287	198.500000
740.432068	191.900000
740.469727	190.800000
740.507507	198.700000
740.545288	195.900000
740.583008	196.600000
740.620789	195.100000
740.658569	189.900000
740.696228	195.000000
740.734009	197.500000
740.771790	187.400000
740.809509	199.000000
740.847229	192.500000
740.884949	194.200000
740.922729	188.600000
740.960449	194.700000
740.998169	191.200000
741.035950	193.300000
741.073669	195.100000
741.111389	197.300000
741.149170	202.400000
741.186890	202.900000
741.224609	198.800000
741.262329	196.000000
741.300110	203.400000
741.337769	192.900000
741.375549	190.400000
741.413208	195.300000
741.450989	193.700000
741.488708	192.800000
741.526367	192.100000
741.564148	199.100000
741.601868	198.800000
741.639526	193.900000
741.677307	196.100000
741.715027	198.100000
741.752686	193.100000
741.790466	200.100000
741.828186	198.300000
741.865845	192.500000
741.903564	189.600000
741.941345	194.000000
741.979004	191.600000
742.016724	198.200000
742.054382	195.300000
742.092102	198.800000
742.129822	191.100000
742.167480	193.500000
742.205200	193.400000
742.242920	196.300000
742.280640	198.400000
742.318359	192.300000
742.356079	195.100000
742.393738	198.500000
742.431396	194.000000
742.469116	199.400000
742.506775	188.500000
742.544495	197.700000
742.582214	199.400000
742.619873	194.600000
742.657593	201.000000
742.695251	200.000000
742.732971	195.600000
742.770630	196.800000
742.808289	197.700000
742.846008	195.500000
742.883728	196.000000
742.921326	196.900000
742.959045	193.600000
742.996765	194.900000
743.034424	195.900000
743.072083	193.600000
743.109802	194.800000
743.147400	191.300000
743.185120	194.800000
743.222839	195.200000
743.260437	200.300000
743.298157	195.900000
743.335754	188.200000
743.373474	194.500000
743.411133	189.000000
743.448792	194.400000
743.486450	195.700000
743.524170	190.200000
743.561768	195.000000
743.599487	199.900000
743.637146	202.500000
743.674744	194.200000
743.712463	192.900000
743.750122	196.300000
743.787720	196.000000
743.825439	194.900000
743.863037	193.400000
743.900696	195.700000
743.938416	221.900000
743.976013	196.100000
744.013672	201.500000
744.051331	198.700000
744.088928	202.100000
744.126587	199.700000
744.164307	197.000000
744.201904	192.700000
744.239563	198.200000
744.277222	198.100000
744.314819	195.500000
744.352478	200.800000
744.390137	197.000000
744.427734	196.900000
744.465393	193.700000
744.502991	191.900000
744.540649	197.900000
744.578308	195.000000
744.615906	191.900000
744.653564	187.600000
744.691223	197.000000
744.728821	190.500000
744.766418	194.300000
744.804077	195.900000
744.841675	194.100000
744.879333	190.800000
744.916992	194.800000
744.954529	193.200000
744.992187	200.800000
745.029785	193.800000
745.067444	194.700000
745.105042	195.500000
745.142639	197.500000
745.180298	203.400000
745.217896	194.300000
745.255493	194.400000
745.293152	198.000000
745.330750	200.500000
745.368347	201.800000
745.405945	199.700000
745.443604	196.100000
745.481140	197.900000
745.518799	196.900000
745.556396	198.100000
745.593994	197.700000
745.631592	197.200000
745.669189	193.100000
745.706787	197.500000
745.744385	193.600000
745.781982	199.500000
745.819580	191.200000
745.857178	195.700000
745.894775	194.500000
745.932373	196.900000
745.969971	196.600000
746.007568	189.800000
746.045166	202.600000
746.082764	199.800000
746.120300	197.500000
746.157898	197.200000
746.195557	194.600000
746.233093	191.000000
746.270691	198.700000
746.308228	197.300000
746.345825	198.900000
746.383423	198.100000
746.420959	193.300000
746.458557	195.400000
746.496155	193.600000
746.533691	196.800000
746.571289	191.800000
746.608887	195.500000
746.646423	196.400000
746.684021	197.200000
746.721619	192.600000
746.759155	198.900000
746.796753	190.100000
746.834351	191.200000
746.871826	193.600000
746.909424	200.500000
746.946960	196.700000
746.984558	195.100000
747.022156	194.200000
747.059631	201.800000
747.097229	196.600000
747.134827	195.500000
747.172363	201.600000
747.209900	199.800000
747.247498	192.800000
747.285034	199.400000
747.322571	201.300000
747.360168	194.500000
747.397644	189.500000
747.435242	199.100000
747.472778	199.600000
747.510315	193.300000
747.547913	194.500000
747.585388	200.800000
747.622925	194.500000
747.660522	188.500000
747.697998	193.900000
747.735596	195.600000
747.773132	194.600000
747.810669	195.700000
747.848206	199.600000
747.885742	192.000000
747.923279	191.400000
747.960815	196.700000
747.998352	197.700000
748.035889	198.200000
748.073425	198.900000
748.110901	194.500000
748.148437	192.300000
748.185974	195.600000
748.223511	203.300000
748.261047	196.700000
748.298584	197.100000
748.336060	195.900000
748.373596	197.100000
748.411133	220.500000
748.448608	193.600000
748.486145	197.400000
748.523682	201.100000
748.561218	202.800000
748.598755	196.800000
748.636292	197.800000
748.673706	194.300000
748.711243	201.600000
748.748718	196.600000
748.786255	196.400000
748.823792	194.700000
748.861267	192.400000
748.898804	197.600000
748.936340	197.800000
748.973816	192.900000
749.011292	201.800000
749.048828	196.900000
749.086304	198.500000
749.123840	205.100000
749.161316	193.300000
749.198792	204.100000
749.236328	200.900000
749.273743	196.100000
749.311279	195.400000
749.348816	198.000000
749.386230	196.700000
749.423767	186.400000
749.461304	198.900000
749.498718	195.900000
749.536255	200.600000
749.573730	203.900000
749.611206	202.600000
749.648682	195.100000
749.686218	195.700000
749.723633	198.300000
749.761169	195.700000
749.798645	192.500000
749.836060	194.600000
749.873596	193.300000
749.911011	198.400000
749.948547	201.000000
749.986023	196.000000
750.023437	196.200000
750.060913	190.800000
750.098450	191.600000
750.135864	196.200000
750.173340	196.600000
750.210815	200.300000
750.248291	192.100000
750.285767	195.900000
750.323242	199.700000
750.360657	199.000000
750.398132	193.000000
750.435608	198.800000
750.473022	194.600000
750.510498	192.900000
750.547974	192.700000
750.585449	194.300000
750.622925	188.200000
750.660339	205.000000
750.697815	195.600000
750.735291	195.500000
750.772644	199.200000
750.810120	197.500000
750.847595	197.300000
750.885010	191.500000
750.922485	203.200000
750.959961	193.100000
750.997375	201.400000
751.034851	199.700000
751.072266	199.000000
751.109680	190.400000
751.147156	200.800000
751.184570	197.500000
751.221985	195.600000
751.259460	189.100000
751.296875	195.100000
751.334290	195.300000
751.371765	198.900000
751.409180	199.300000
751.446594	201.400000
751.484070	198.400000
751.521423	197.400000
751.558899	195.700000
751.596375	202.900000
751.633728	201.600000
751.671204	204.800000
751.708618	193.300000
751.746033	196.800000
751.783447	192.200000
751.820801	193.900000
751.858276	199.600000
751.895691	194.800000
751.933105	195.000000
751.970520	191.600000
752.007935	193.400000
752.045349	199.900000
752.082764	195.600000
752.120178	193.500000
752.157532	193.400000
752.195007	193.800000
752.232422	197.600000
752.269775	199.800000
752.307190	199.500000
752.344543	191.900000
752.382019	196.700000
752.419434	194.000000
752.456787	199.200000
752.494202	199.100000
752.531616	198.300000
752.568970	198.600000
752.606384	197.800000
752.643799	197.800000
752.681152	202.100000
752.718567	199.100000
752.755981	191.200000
752.793335	198.100000
752.830750	190.800000
752.868164	200.200000
752.905518	192.100000
752.942932	199.700000
752.980225	193.000000
753.017639	197.900000
753.055054	196.200000
753.092407	197.600000
753.129822	200.500000
753.167175	205.000000
753.204529	196.400000
753.241943	194.300000
753.279358	193.400000
753.316650	198.800000
753.354065	197.700000
753.391479	199.900000
753.428772	202.200000
753.466187	198.500000
753.503479	192.200000
753.540894	194.800000
753.578308	190.300000
753.615601	191.500000
753.653015	196.000000
753.690369	194.700000
753.727722	193.400000
753.765076	190.600000
753.802490	192.100000
753.839783	191.500000
753.877136	193.700000
753.914551	206.100000
753.951843	192.700000
753.989258	200.400000
754.026611	196.600000
754.063904	199.200000
754.101257	192.600000
754.138611	190.200000
754.175964	196.300000
754.213318	204.100000
754.250610	190.200000
754.288025	193.800000
754.325378	190.100000
754.362671	200.000000
754.400024	195.700000
754.437378	205.300000
754.474670	203.000000
754.512085	193.200000
754.549438	196.700000
754.586731	194.300000
754.624084	196.500000
754.661438	192.900000
754.698730	202.600000
754.736084	195.200000
754.773376	196.700000
754.810730	198.200000
754.848083	195.900000
754.885315	201.000000
754.922668	191.400000
754.960022	194.000000
754.997314	201.600000
755.034668	196.200000
755.072021	197.400000
755.109253	194.600000
755.146606	202.400000
755.183960	195.300000
755.221252	203.700000
755.258545	200.200000
755.295898	201.800000
755.333191	200.200000
755.370544	199.400000
755.407776	197.400000
755.445129	198.600000
755.482422	199.700000
755.519714	195.300000
755.557068	192.700000
755.594360	192.400000
755.631653	200.800000
755.668945	204.300000
755.706299	198.400000
755.743530	207.300000
755.780884	204.200000
755.818176	201.100000
755.855408	201.800000
755.892761	199.500000
755.930054	199.600000
755.967346	200.900000
756.004639	201.200000
756.041870	197.400000
756.079224	203.200000
756.116516	194.700000
756.153748	201.000000
756.191040	206.300000
756.228394	200.200000
756.265625	194.100000
756.302917	198.900000
756.340210	195.600000
756.377441	202.200000
756.414795	204.300000
756.452087	197.900000
756.489319	192.400000
756.526611	202.300000
756.563843	199.300000
756.601135	205.800000
756.638428	206.700000
756.675659	198.300000
756.712952	201.500000
756.750244	202.400000
756.787476	198.600000
756.824768	203.400000
756.862061	197.300000
756.899292	247.200000
756.936584	202.000000
756.973816	208.700000
757.011047	208.500000
757.048340	201.000000
757.085632	201.200000
757.122864	213.800000
757.160156	197.500000
757.197327	202.600000
757.234619	204.200000
757.271912	199.700000
757.309082	204.400000
757.346375	197.700000
757.383667	204.900000
757.420837	202.000000
757.458130	202.200000
757.495422	199.500000
757.532593	204.500000
757.569885	196.300000
757.607117	198.800000
757.644348	202.900000
757.681580	213.900000
757.718811	192.900000
757.756042	201.900000
757.793335	199.200000
757.830505	203.600000
757.867798	199.600000
757.905029	200.800000
757.942200	203.400000
757.979492	199.800000
758.016724	201.800000
758.053894	200.800000
758.091187	216.100000
758.128418	202.300000
758.165588	201.200000
758.202820	212.100000
758.240112	200.700000
758.277283	211.100000
758.314514	205.300000
758.351685	201.600000
758.388916	209.200000
758.426147	208.100000
758.463379	210.000000
758.500610	207.000000
758.537842	205.300000
758.575012	210.400000
758.612244	200.100000
758.649475	216.600000
758.686646	199.100000
758.723877	210.200000
758.761108	211.600000
758.798279	206.400000
758.835510	206.800000
758.872742	211.200000
758.909851	208.200000
758.947083	208.800000
758.984253	208.100000
759.021484	211.500000
759.058716	209.500000
759.095886	211.500000
759.133057	208.300000
759.170288	209.200000
759.207458	207.100000
759.244690	215.100000
759.281860	213.000000
759.319031	209.000000
759.356262	205.500000
759.393433	204.900000
759.430603	208.900000
759.467773	206.100000
759.505005	213.500000
759.542175	211.800000
759.579346	207.700000
759.616516	208.800000
759.653687	212.900000
759.690918	206.200000
759.728027	210.000000
759.765259	209.800000
759.802429	212.200000
759.839539	210.300000
759.876770	215.200000
759.913940	217.000000
759.951111	211.600000
759.988281	211.900000
760.025452	208.500000
760.062561	206.800000
760.099792	220.500000
760.136963	213.700000
760.174072	211.100000
760.211243	206.600000
760.248413	209.200000
760.285583	208.900000
760.322754	220.300000
760.359863	216.700000
760.397034	216.900000
760.434204	212.200000
760.471375	213.000000
760.508545	210.900000
760.545715	213.100000
760.582825	208.700000
760.619995	215.600000
760.657166	209.400000
760.694275	217.700000
760.731445	214.200000
760.768555	216.200000
760.805664	218.100000
760.842834	214.600000
760.879944	216.700000
760.917114	213.900000
760.954285	212.500000
760.991394	209.900000
761.028564	219.200000
761.065674	215.700000
761.102783	213.300000
761.139954	219.300000
761.177124	219.300000
761.214172	219.900000
761.251343	214.300000
761.288452	215.400000
761.325562	219.500000
761.362732	214.000000
761.399841	216.600000
761.436951	217.200000
761.474121	214.300000
761.511169	217.400000
761.548340	221.600000
761.585449	219.900000
761.622559	222.400000
761.659668	219.300000
761.696838	225.400000
761.733887	219.400000
761.771057	216.800000
761.808167	218.100000
761.845276	223.200000
761.882385	230.300000
761.919434	220.900000
761.956604	234.600000
761.993713	216.200000
762.030762	224.700000
762.067871	219.500000
762.105042	220.800000
762.142090	227.900000
762.179199	223.300000
762.216309	226.100000
762.253418	233.700000
762.290527	228.700000
762.327637	227.300000
762.364685	219.000000
762.401794	225.900000
762.438904	225.700000
762.475952	221.600000
762.513062	221.500000
762.550110	223.000000
762.587219	232.000000
762.624329	229.800000
762.661377	227.000000
762.698486	225.300000
762.735596	225.300000
762.772644	222.200000
762.809753	220.300000
762.846863	226.600000
762.883911	228.800000
762.921021	229.700000
762.958069	228.300000
762.995117	231.700000
763.032227	232.300000
763.069336	224.200000
763.106323	222.200000
763.143433	221.400000
763.180481	229.800000
763.217590	229.700000
763.254639	227.700000
763.291687	227.900000
763.328735	235.400000
763.365845	228.600000
763.402893	226.600000
763.439941	231.000000
763.477051	232.400000
763.514038	232.000000
763.551147	227.000000
763.588196	229.100000
763.625244	228.900000
763.662292	237.700000
763.699402	240.200000
763.736389	233.700000
763.773499	242.900000
763.810486	234.700000
763.847534	233.100000
763.884644	235.000000
763.921631	230.800000
763.958679	238.200000
763.995728	234.500000
764.032776	240.100000
764.069824	231.200000
764.106873	240.500000
764.143860	244.900000
764.180969	237.100000
764.218018	242.500000
764.255005	235.000000
764.292053	238.300000
764.329102	244.200000
764.366089	244.400000
764.403137	241.600000
764.440125	235.300000
764.477173	240.000000
764.514221	242.400000
764.551208	244.100000
764.588257	240.900000
764.625305	247.400000
764.662292	251.700000
764.699341	252.100000
764.736389	245.500000
764.773376	258.700000
764.810425	247.500000
764.847473	251.700000
764.884399	247.600000
764.921448	254.900000
764.958435	253.600000
764.995483	247.900000
765.032532	262.500000
765.069458	252.400000
765.106506	252.900000
765.143555	251.000000
765.180481	253.800000
765.217529	260.900000
765.254578	248.400000
765.291504	256.200000
765.328552	254.000000
765.365540	250.800000
765.402527	262.600000
765.439575	253.300000
765.476501	250.100000
765.513550	252.500000
765.550537	256.300000
765.587463	265.100000
765.624512	256.400000
765.661499	252.200000
765.698486	261.400000
765.735474	254.400000
765.772461	258.600000
765.809448	265.600000
765.846436	263.200000
765.883423	265.400000
765.920410	260.900000
765.957397	257.000000
765.994385	264.200000
766.031311	272.300000
766.068359	264.900000
766.105286	266.300000
766.142273	270.600000
766.179260	265.200000
766.216187	261.300000
766.253174	260.100000
766.290161	265.800000
766.327148	267.600000
766.364136	268.800000
766.401123	278.700000
766.438049	263.700000
766.475037	274.800000
766.512024	272.700000
766.548950	283.500000
766.585937	279.200000
766.622864	274.000000
766.659790	275.200000
766.696777	266.900000
766.733704	277.900000
766.770691	269.600000
766.807678	279.800000
766.844604	274.100000
766.881531	276.200000
766.918518	279.500000
766.955444	281.500000
766.992432	274.500000
767.029358	276.500000
767.066284	279.200000
767.103271	279.400000
767.140198	310.700000
767.177124	291.600000
767.214050	281.800000
767.251038	282.300000
767.287964	281.500000
767.324890	280.100000
767.361816	283.000000
767.398743	287.300000
767.435730	281.400000
767.472595	285.100000
767.509583	288.800000
767.546509	279.000000
767.583374	286.400000
767.620361	280.300000
767.657288	283.100000
767.694214	282.300000
767.731140	284.000000
767.768066	286.200000
767.804993	289.800000
767.841919	280.100000
767.878845	288.800000
767.915710	293.200000
767.952698	288.300000
767.989563	289.100000
768.026489	293.100000
768.063416	286.800000
768.100281	285.400000
768.137207	295.200000
768.174133	291.700000
768.211060	293.000000
768.247986	293.000000
768.284912	291.300000
768.321777	295.000000
768.358704	285.400000
768.395630	289.900000
768.432495	287.200000
768.469421	293.900000
768.506348	297.300000
768.543152	301.400000
768.580078	294.000000
768.616943	296.700000
768.653870	299.800000
768.690796	301.500000
768.727661	300.700000
768.764587	300.500000
768.801453	294.100000
768.838318	301.100000
768.875244	301.400000
768.912109	306.500000
768.948975	298.700000
768.985901	302.400000
769.022766	299.600000
769.059631	305.300000
769.096558	304.900000
769.133362	302.600000
769.170288	303.600000
769.207214	305.600000
769.244019	307.100000
769.280945	304.200000
769.317810	311.300000
769.354675	307.100000
769.391541	316.900000
769.428406	314.100000
769.465271	321.600000
769.502136	312.700000
769.539062	317.400000
769.575867	314.200000
769.612732	317.000000
769.649597	322.000000
769.686462	322.700000
769.723328	317.000000
769.760193	317.100000
769.797058	319.300000
769.833923	327.800000
769.870728	322.900000
769.907593	327.400000
769.944519	325.800000
769.981323	329.300000
770.018188	327.400000
770.055054	328.200000
770.091858	327.900000
770.128723	337.700000
770.165588	337.700000
770.202393	329.900000
770.239258	337.600000
770.276062	334.900000
770.312927	336.900000
770.349792	343.700000
770.386597	340.600000
770.423462	349.400000
770.460327	353.800000
770.497131	342.300000
770.533997	340.500000
770.570862	351.300000
770.607605	350.700000
770.644470	349.200000
770.681335	351.500000
770.718140	347.900000
770.754944	346.800000
770.791809	348.500000
770.828613	348.900000
770.865479	350.300000
770.902222	358.800000
770.939087	351.800000
770.975952	345.700000
771.012695	350.300000
771.049561	364.700000
771.086365	356.100000
771.123169	352.500000
771.159973	351.100000
771.196838	355.900000
771.233582	358.500000
771.270447	357.600000
771.307251	361.300000
771.344055	358.200000
771.380859	362.500000
771.417664	361.200000
771.454468	370.000000
771.491272	365.500000
771.528076	367.000000
771.564880	367.000000
771.601685	369.800000
771.638428	360.400000
771.675293	371.500000
771.712097	366.100000
771.748840	378.100000
771.785645	369.900000
771.822449	370.600000
771.859253	373.700000
771.896057	374.300000
771.932861	386.100000
771.969604	379.200000
772.006409	374.800000
772.043213	381.600000
772.079956	374.800000
772.116760	374.300000
772.153503	375.300000
772.190308	387.400000
772.227112	380.900000
772.263855	376.800000
772.300659	378.800000
772.337463	386.000000
772.374207	377.700000
772.411011	376.500000
772.447754	383.800000
772.484497	393.300000
772.521301	382.800000
772.558105	383.000000
772.594849	382.600000
772.631592	390.100000
772.668396	391.500000
772.705139	396.500000
772.741882	389.300000
772.778625	394.600000
772.815430	398.900000
772.852173	396.900000
772.888916	403.100000
772.925720	407.800000
772.962463	408.800000
772.999207	403.200000
773.035950	405.700000
773.072754	407.900000
773.109436	401.500000
773.146240	411.600000
773.182922	405.000000
773.219727	410.300000
773.256470	407.200000
773.293152	401.500000
773.329956	404.800000
773.366699	412.400000
773.403381	408.600000
773.440186	411.900000
773.476929	413.800000
773.513611	409.400000
773.550354	406.800000
773.587158	413.100000
773.623840	410.200000
773.660583	413.900000
773.697327	416.900000
773.734009	409.100000
773.770813	409.800000
773.807495	412.500000
773.844238	418.500000
773.880981	424.500000
773.917664	414.900000
773.954407	421.000000
773.991150	417.400000
774.027832	423.400000
774.064575	422.700000
774.101318	423.500000
774.138000	425.400000
774.174744	418.000000
774.211487	420.900000
774.248108	415.300000
774.284851	421.600000
774.321594	429.100000
774.358276	425.400000
774.395020	431.400000
774.431702	430.500000
774.468384	426.300000
774.505127	426.900000
774.541809	434.200000
774.578491	436.200000
774.615234	433.400000
774.651917	425.500000
774.688599	434.100000
774.725342	442.200000
774.762024	440.800000
774.798706	442.400000
774.835449	439.100000
774.872070	440.200000
774.908813	439.600000
774.945496	443.800000
774.982178	452.200000
775.018860	451.000000
775.055542	447.700000
775.092224	444.400000
775.128967	452.100000
775.165588	454.300000
775.202271	452.800000
775.239014	456.100000
775.275635	451.100000
775.312317	439.300000
775.349060	446.500000
775.385681	453.100000
775.422363	456.300000
775.459045	460.600000
775.495667	459.400000
775.532410	457.400000
775.569092	457.300000
775.605713	458.900000
775.642395	463.000000
775.679016	467.700000
775.715698	469.000000
775.752380	465.800000
775.789001	464.300000
775.825684	462.500000
775.862366	465.700000
775.898987	481.000000
775.935669	475.800000
775.972351	490.500000
776.008972	482.100000
776.045654	477.600000
776.082336	475.300000
776.118958	487.700000
776.155640	491.900000
776.192322	493.300000
776.228882	490.200000
776.265564	484.900000
776.302185	481.400000
776.338867	494.200000
776.375488	490.500000
776.412109	494.500000
776.448792	495.400000
776.485413	502.000000
776.522034	491.200000
776.558716	492.900000
776.595337	500.300000
776.631958	503.600000
776.668579	501.500000
776.705261	506.200000
776.741882	497.600000
776.778503	503.000000
776.815186	503.700000
776.851746	509.300000
776.888367	505.600000
776.924988	518.200000
776.961609	508.500000
776.998291	509.900000
777.034851	507.000000
777.071472	518.100000
777.108154	517.100000
777.144714	523.300000
777.181335	516.600000
777.218018	511.000000
777.254578	520.700000
777.291199	524.900000
777.327759	530.600000
777.364380	534.500000
777.401062	541.800000
777.437622	546.700000
777.474243	537.800000
777.510864	542.000000
777.547424	536.300000
777.584045	546.400000
777.620667	542.800000
777.657227	542.600000
777.693848	544.100000
777.730469	556.300000
777.767029	548.400000
777.803650	552.000000
777.840271	547.000000
777.876831	541.500000
777.913452	544.000000
777.950012	532.100000
777.986633	536.200000
778.023193	534.000000
778.059753	534.700000
778.096375	541.300000
778.132996	547.700000
778.169556	538.000000
778.206116	541.400000
778.242737	544.400000
778.279297	551.200000
778.315857	542.500000
778.352478	549.200000
778.389038	554.600000
778.425598	562.800000
778.462219	569.600000
778.498718	565.100000
778.535339	570.400000
778.571838	572.100000
778.608459	574.300000
778.645020	567.100000
778.681580	571.700000
778.718140	564.200000
778.754761	560.400000
778.791260	572.700000
778.827881	576.100000
778.864441	577.100000
778.900940	582.400000
778.937561	579.200000
778.974121	576.000000
779.010620	571.400000
779.047241	574.600000
779.083801	576.700000
779.120300	579.900000
779.156860	577.700000
779.193359	574.500000
779.229980	583.800000
779.266541	592.800000
779.303040	591.500000
779.339600	583.000000
779.376160	575.400000
779.412659	573.700000
779.449219	578.100000
779.485779	589.400000
779.522278	588.400000
779.558838	589.300000
779.595398	584.000000
779.631897	581.900000
779.668457	576.200000
779.705017	587.600000
779.741516	576.700000
779.778076	570.700000
779.814575	577.300000
779.851074	574.100000
779.887634	574.700000
779.924133	590.200000
779.960693	580.500000
779.997253	587.100000
780.033691	585.900000
780.070251	584.600000
780.106812	590.400000
780.143250	593.000000
780.179810	593.100000
780.216370	599.900000
780.252808	603.900000
780.289368	604.400000
780.325867	600.300000
780.362366	594.400000
780.398865	610.900000
780.435364	607.000000
780.471863	609.900000
780.508423	604.800000
780.544861	606.600000
780.581421	599.800000
780.617920	597.200000
780.654419	597.700000
780.690918	605.000000
780.727417	607.600000
780.763916	603.600000
780.800415	605.400000
780.836914	591.500000
780.873352	606.500000
780.909912	605.000000
780.946411	609.400000
780.982849	614.900000
781.019348	618.200000
781.055786	614.700000
781.092346	612.800000
781.128845	630.400000
781.165283	628.600000
781.201782	630.100000
781.238281	625.600000
781.274719	625.800000
781.311218	620.200000
781.347717	631.600000
781.384155	624.900000
781.420654	629.500000
781.457092	632.900000
781.493591	628.100000
781.530090	621.700000
781.566528	627.600000
781.602966	631.700000
781.639465	632.300000
781.675903	628.900000
781.712402	632.200000
781.748901	628.300000
781.785278	627.900000
781.821777	640.100000
781.858276	642.200000
781.894714	652.600000
781.931152	644.600000
781.967651	648.500000
782.004089	641.600000
782.040527	647.600000
782.076965	649.100000
782.113403	650.300000
782.149902	653.700000
782.186340	651.200000
782.222778	658.800000
782.259277	654.200000
782.295654	656.600000
782.332092	659.300000
782.368591	659.300000
782.404968	657.600000
782.441467	663.500000
782.477905	666.700000
782.514282	668.800000
782.550781	678.000000
782.587219	682.100000
782.623596	689.800000
782.660095	689.900000
782.696472	690.200000
782.732910	696.600000
782.769348	699.500000
782.805786	711.200000
782.842224	712.800000
782.878662	702.300000
782.915039	700.500000
782.951477	705.700000
782.987915	706.200000
783.024292	704.300000
783.060730	704.000000
783.097168	697.500000
783.133545	692.600000
783.169983	684.400000
783.206421	676.400000
783.242798	678.100000
783.279236	668.200000
783.315613	668.400000
783.352051	665.300000
783.388489	662.100000
783.424866	661.200000
783.461304	676.100000
783.497681	677.000000
783.534058	673.500000
783.570496	684.100000
783.606934	674.300000
783.643250	674.400000
783.679687	690.500000
783.716125	682.100000
783.752441	689.100000
783.788879	705.500000
783.825317	709.800000
783.861633	715.900000
783.898071	721.500000
783.934448	730.300000
783.970825	741.500000
784.007263	738.100000
784.043579	745.600000
784.080017	748.200000
784.116394	741.000000
784.152710	740.200000
784.189148	741.400000
784.225525	734.900000
784.261902	730.500000
784.298279	726.400000
784.334656	727.000000
784.371033	717.700000
784.407410	716.400000
784.443787	700.500000
784.480164	686.400000
784.516541	685.200000
784.552856	694.200000
784.589233	690.300000
784.625610	686.200000
784.661987	698.900000
784.698364	691.600000
784.734741	685.900000
784.771057	696.600000
784.807434	708.900000
784.843811	720.700000
784.880127	708.500000
784.916504	726.200000
784.952881	726.900000
784.989197	725.500000
785.025574	735.900000
785.061951	742.900000
785.098267	759.200000
785.134644	750.500000
785.170959	740.900000
785.207275	740.000000
785.243652	749.600000
785.279968	746.400000
785.316345	743.200000
785.352722	729.600000
785.388977	715.100000
785.425354	701.500000
785.461731	700.900000
785.498047	702.500000
785.534363	694.200000
785.570679	693.600000
785.606995	683.800000
785.643372	687.500000
785.679687	689.700000
785.716003	687.200000
785.752380	690.300000
785.788635	691.200000
785.825012	703.000000
785.861328	705.700000
785.897644	697.000000
785.933960	716.700000
785.970337	732.700000
786.006592	752.500000
786.042908	756.400000
786.079285	758.900000
786.115540	760.200000
786.151855	763.800000
786.188171	763.700000
786.224487	769.400000
786.260803	766.800000
786.297119	765.300000
786.333435	753.100000
786.369751	741.800000
786.406006	740.300000
786.442322	736.900000
786.478638	728.100000
786.514954	734.600000
786.551270	721.200000
786.587585	720.200000
786.623840	711.900000
786.660156	705.800000
786.696472	705.400000
786.732727	712.500000
786.769043	717.300000
786.805298	704.200000
786.841614	702.300000
786.877930	712.400000
786.914124	713.500000
786.950439	735.200000
786.986755	742.000000
787.023010	746.300000
787.059326	736.000000
787.095642	748.400000
787.131836	762.800000
787.168152	756.800000
787.204468	768.800000
787.240723	775.400000
787.276978	775.800000
787.313293	770.700000
787.349548	762.800000
787.385803	776.700000
787.422058	773.200000
787.458313	774.900000
787.494629	766.500000
787.530823	761.000000
787.567139	749.600000
787.603455	746.200000
787.639648	737.600000
787.675903	747.000000
787.712219	736.800000
787.748413	734.000000
787.784729	740.700000
787.820984	732.800000
787.857178	730.100000
787.893494	730.900000
787.929749	735.400000
787.965942	746.800000
788.002258	751.200000
788.038452	753.700000
788.074707	754.700000
788.110962	758.500000
788.147217	757.400000
788.183472	771.800000
788.219727	770.500000
788.255920	783.300000
788.292175	779.600000
788.328430	772.300000
788.364624	773.300000
788.400879	777.600000
788.437134	786.400000
788.473328	775.500000
788.509583	779.400000
788.545837	778.800000
788.582031	778.000000
788.618286	775.900000
788.654480	782.500000
788.690735	793.000000
788.726990	800.700000
788.763184	790.800000
788.799377	801.400000
788.835632	796.200000
788.871826	814.100000
788.908081	804.000000
788.944336	793.200000
788.980469	797.900000
789.016724	787.300000
789.052979	789.800000
789.089111	781.800000
789.125366	792.200000
789.161621	778.500000
789.197754	787.700000
789.234009	784.200000
789.270142	771.900000
789.306396	759.400000
789.342590	768.800000
789.378784	763.400000
789.414978	762.500000
789.451233	772.500000
789.487366	775.700000
789.523621	777.800000
789.559814	770.300000
789.595947	778.100000
789.632202	796.900000
789.668335	800.400000
789.704529	813.600000
789.740784	816.700000
789.776917	810.600000
789.813110	808.600000
789.849304	820.800000
789.885498	825.600000
789.921692	840.100000
789.957886	829.800000
789.994019	825.600000
790.030212	806.600000
790.066406	822.000000
790.102539	833.500000
790.138733	840.600000
790.174927	824.600000
790.211060	821.400000
790.247253	814.500000
790.283386	819.500000
790.319580	811.500000
790.355774	804.100000
790.391907	810.400000
790.428101	831.500000
790.464294	821.800000
790.500427	816.200000
790.536621	807.200000
790.572754	796.600000
790.608887	798.500000
790.645081	809.500000
790.681274	815.300000
790.717346	797.400000
790.753540	785.300000
790.789734	780.100000
790.825867	771.100000
790.862000	777.100000
790.898132	794.500000
790.934265	781.800000
790.970459	787.700000
791.006592	782.900000
791.042725	789.200000
791.078918	786.200000
791.114990	789.000000
791.151184	790.600000
791.187317	797.600000
791.223389	805.000000
791.259583	795.500000
791.295715	788.300000
791.331848	798.700000
791.367981	804.300000
791.404114	803.500000
791.440247	791.600000
791.476379	790.900000
791.512451	776.300000
791.548584	790.700000
791.584778	787.500000
791.620850	801.300000
791.656982	798.200000
791.693115	793.400000
791.729187	788.600000
791.765381	789.900000
791.801514	795.000000
791.837585	800.900000
791.873718	803.600000
791.909851	797.600000
791.945923	799.100000
791.982056	770.100000
792.018188	765.300000
792.054260	778.700000
792.090393	792.300000
792.126465	781.500000
792.162598	779.600000
792.198669	765.500000
792.234741	768.900000
792.270874	769.400000
792.307007	761.200000
792.343079	761.600000
792.379150	759.700000
792.415283	743.600000
792.451355	742.100000
792.487488	734.100000
792.523560	743.700000
792.559631	744.200000
792.595764	727.700000
792.631836	702.400000
792.667908	671.300000
792.703979	660.000000
792.740051	688.200000
792.776184	735.200000
792.812256	766.400000
792.848328	779.300000
792.884399	787.100000
792.920471	776.200000
792.956543	772.000000
792.992615	771.100000
793.028748	777.400000
793.064758	790.500000
793.100830	808.300000
793.136963	806.900000
793.172974	800.300000
793.209045	794.200000
793.245178	810.100000
793.281189	806.500000
793.317261	812.100000
793.353271	809.700000
793.389404	804.400000
793.425476	797.300000
793.461487	787.800000
793.497559	789.500000
793.533630	799.200000
793.569641	793.300000
793.605713	794.500000
793.641785	794.700000
793.677795	797.500000
793.713867	791.600000
793.749878	803.300000
793.785950	818.600000
793.822021	818.400000
793.858032	800.700000
793.894104	801.100000
793.930176	796.900000
793.966187	800.100000
794.002258	792.000000
794.038269	806.800000
794.074280	796.800000
794.110352	813.200000
794.146423	786.600000
794.182373	782.400000
794.218445	782.300000
794.254517	785.700000
794.290466	778.400000
794.326538	781.200000
794.362549	777.100000
794.398560	775.200000
794.434631	776.100000
794.470581	763.500000
794.506653	776.200000
794.542664	784.300000
794.578674	786.300000
794.614685	776.300000
794.650757	770.400000
794.686707	773.300000
794.722778	766.400000
794.758789	783.500000
794.794739	788.200000
794.830811	802.200000
794.866821	812.000000
794.902771	799.900000
794.938843	791.000000
794.974792	805.700000
795.010803	812.900000
795.046814	805.300000
795.082825	788.500000
795.118835	800.800000
795.154846	781.300000
795.190796	787.000000
795.226807	782.100000
795.262817	793.700000
795.298767	785.500000
795.334778	790.400000
795.370850	779.900000
795.406799	772.900000
795.442810	767.600000
795.478821	780.500000
795.514709	781.700000
795.550720	803.800000
795.586670	780.300000
795.622681	780.000000
795.658691	765.300000
795.694641	780.800000
795.730652	784.400000
795.766663	792.500000
795.802551	790.400000
795.838562	796.400000
795.874573	776.300000
795.910522	776.600000
795.946472	775.800000
795.982483	797.400000
796.018433	804.100000
796.054382	814.100000
796.090393	798.300000
796.126282	781.200000
796.162292	766.700000
796.198242	774.100000
796.234192	779.100000
796.270203	774.500000
796.306091	785.000000
796.342041	796.400000
796.378052	779.400000
796.413940	781.800000
796.449951	790.200000
796.485901	791.100000
796.521790	785.800000
796.557800	798.500000
796.593689	785.200000
796.629639	777.700000
796.665649	773.100000
796.701599	777.500000
796.737488	787.900000
796.773437	791.000000
796.809387	793.700000
796.845337	790.400000
796.881287	780.100000
796.917175	775.200000
796.953125	782.400000
796.989075	786.700000
797.024963	787.400000
797.060913	782.700000
797.096863	772.400000
797.132751	774.500000
797.168701	777.000000
797.204590	789.000000
797.240540	783.200000
797.276489	772.300000
797.312439	763.000000
797.348328	758.600000
797.384277	757.900000
797.420166	761.400000
797.456055	769.700000
797.492004	768.600000
797.527893	759.400000
797.563843	762.400000
797.599731	751.500000
797.635620	740.600000
797.671570	751.200000
797.707520	759.500000
797.743347	757.700000
797.779297	755.800000
797.815125	739.800000
797.851074	733.600000
797.887024	738.100000
797.922913	741.300000
797.958801	747.500000
797.994690	733.700000
798.030579	734.200000
798.066467	733.000000
798.102356	722.900000
798.138245	725.700000
798.174133	732.100000
798.210083	739.800000
798.245911	742.200000
798.281799	730.500000
798.317749	720.200000
798.353577	721.900000
798.389465	727.600000
798.425293	722.700000
798.461243	721.000000
798.497131	720.200000
798.532959	716.500000
798.568848	717.400000
798.604736	710.800000
798.640564	710.300000
798.676453	715.900000
798.712402	716.000000
798.748230	712.900000
798.784119	706.200000
798.820007	705.300000
798.855835	705.200000
798.891724	703.700000
798.927551	705.600000
798.963379	711.700000
798.999268	702.700000
799.035095	686.400000
799.070984	684.000000
799.106873	685.100000
799.142700	696.300000
799.178528	692.700000
799.214417	697.000000
799.250244	698.300000
799.286133	683.200000
799.321960	685.000000
799.357788	690.200000
799.393677	687.100000
799.429504	684.600000
799.465332	684.300000
799.501221	691.100000
799.537048	692.900000
799.572876	685.800000
799.608704	696.300000
799.644531	705.200000
799.680359	697.300000
799.716248	694.200000
799.752014	695.800000
799.787903	684.800000
799.823730	687.200000
799.859558	691.400000
799.895386	692.800000
799.931213	688.400000
799.967041	678.000000
800.002869	673.800000
800.038696	686.800000
800.074463	679.400000
800.110352	693.900000
800.146179	684.000000
800.181946	682.300000
800.217773	681.800000
800.253540	679.200000
800.289429	676.800000
800.325256	678.800000
800.361023	676.100000
800.396851	682.100000
800.432678	675.700000
800.468445	668.400000
800.504272	662.200000
800.540100	649.000000
800.575867	661.200000
800.611694	672.100000
800.647461	664.700000
800.683289	661.800000
800.719116	661.600000
800.754883	659.700000
800.790649	647.000000
800.826477	646.500000
800.862244	667.300000
800.898071	649.000000
800.933838	645.400000
800.969604	644.300000
801.005432	642.300000
801.041199	637.400000
801.076965	636.700000
801.112793	631.200000
801.148560	631.800000
801.184326	630.100000
801.220154	627.500000
801.255859	620.400000
801.291687	621.800000
801.327454	619.300000
801.363281	626.300000
801.398987	619.600000
801.434814	619.600000
801.470520	624.900000
801.506287	612.700000
801.542114	609.700000
801.577820	614.300000
801.613647	612.100000
801.649414	611.800000
801.685120	609.400000
801.720886	611.300000
801.756714	602.400000
801.792419	599.500000
801.828186	599.000000
801.863892	606.500000
801.899719	600.400000
801.935486	598.400000
801.971252	609.700000
802.006958	603.100000
802.042725	601.300000
802.078430	595.100000
802.114197	596.400000
802.149963	602.500000
802.185669	590.500000
802.221436	594.200000
802.257202	599.900000
802.292908	595.000000
802.328674	598.600000
802.364441	602.700000
802.400146	599.100000
802.435913	593.500000
802.471558	590.700000
802.507324	589.100000
802.543091	587.400000
802.578796	599.900000
802.614502	592.500000
802.650269	591.600000
802.685974	582.700000
802.721741	586.900000
802.757446	597.000000
802.793152	598.500000
802.828918	605.100000
802.864624	595.200000
802.900330	586.700000
802.936035	590.000000
802.971802	591.100000
803.007446	583.900000
803.043213	579.600000
803.078857	589.800000
803.114624	574.800000
803.150330	576.400000
803.185974	571.000000
803.221741	573.400000
803.257446	582.400000
803.293152	585.900000
803.328857	578.600000
803.364563	566.900000
803.400208	560.200000
803.435974	572.200000
803.471680	563.100000
803.507324	564.800000
803.543030	570.000000
803.578735	568.600000
803.614441	560.000000
803.650146	565.600000
803.685791	552.200000
803.721497	561.700000
803.757202	553.100000
803.792847	557.300000
803.828552	549.600000
803.864258	547.500000
803.899902	542.400000
803.935608	533.400000
803.971313	538.300000
804.006958	542.800000
804.042664	541.700000
804.078308	542.600000
804.113953	531.000000
804.149658	540.600000
804.185364	529.400000
804.221008	549.300000
804.256714	534.300000
804.292297	531.400000
804.328003	522.400000
804.363708	519.600000
804.399292	522.300000
804.434998	522.100000
804.470703	521.400000
804.506287	535.100000
804.541992	524.300000
804.577637	523.300000
804.613281	509.500000
804.648926	511.600000
804.684570	516.300000
804.720215	512.200000
804.755920	513.200000
804.791565	510.100000
804.827209	508.200000
804.862854	504.100000
804.898437	505.600000
804.934143	507.300000
804.969788	508.200000
805.005371	504.300000
805.041077	502.600000
805.076721	497.400000
805.112305	495.700000
805.147949	498.800000
805.183655	495.600000
805.219238	500.300000
805.254883	495.600000
805.290466	497.400000
805.326111	492.200000
805.361755	486.200000
805.397400	488.800000
805.432983	493.000000
805.468628	493.600000
805.504211	493.600000
805.539856	494.700000
805.575500	494.000000
805.611084	487.500000
805.646729	476.500000
805.682373	484.300000
805.717957	490.400000
805.753601	491.900000
805.789246	477.200000
805.824768	488.400000
805.860413	488.600000
805.895996	481.700000
805.931641	482.800000
805.967224	489.500000
806.002869	483.600000
806.038452	487.100000
806.074036	484.700000
806.109619	470.700000
806.145264	468.900000
806.180847	472.400000
806.216431	470.500000
806.252014	474.900000
806.287659	472.700000
806.323181	475.000000
806.358826	473.300000
806.394409	461.000000
806.429993	465.200000
806.465576	473.800000
806.501160	462.100000
806.536743	451.800000
806.572327	460.700000
806.607910	456.500000
806.643494	458.100000
806.679077	450.700000
806.714661	454.000000
806.750244	451.600000
806.785828	446.900000
806.821350	447.100000
806.856934	452.700000
806.892517	446.900000
806.928101	443.300000
806.963684	440.800000
806.999268	446.300000
807.034790	431.600000
807.070374	438.500000
807.105896	432.900000
807.141479	432.000000
807.177063	435.700000
807.212585	430.700000
807.248169	429.200000
807.283752	435.100000
807.319275	425.800000
807.354858	431.200000
807.390381	428.500000
807.425903	426.700000
807.461487	422.700000
807.497070	414.300000
807.532593	418.600000
807.568115	416.200000
807.603699	413.600000
807.639221	410.700000
807.674744	414.800000
807.710266	416.000000
807.745850	417.700000
807.781372	413.100000
807.816895	407.400000
807.852417	412.300000
807.888000	410.100000
807.923523	404.900000
807.959045	406.900000
807.994629	400.600000
808.030090	399.500000
808.065613	401.500000
808.101135	406.100000
808.136658	402.300000
808.172241	400.900000
808.207764	399.100000
808.243225	392.500000
808.278809	391.200000
808.314270	396.900000
808.349792	386.800000
808.385315	391.100000
808.420837	395.300000
808.456360	398.700000
808.491882	401.500000
808.527344	394.600000
808.562866	398.600000
808.598389	390.500000
808.633850	392.400000
808.669434	388.200000
808.704895	394.800000
808.740417	397.200000
808.775940	387.200000
808.811462	383.400000
808.846924	382.600000
808.882385	382.000000
808.917847	379.200000
808.953369	381.100000
808.988892	374.100000
809.024353	381.100000
809.059875	380.900000
809.095398	376.800000
809.130798	373.700000
809.166321	374.600000
809.201843	372.200000
809.237305	372.500000
809.272766	378.900000
809.308228	366.000000
809.343750	367.100000
809.379211	368.300000
809.414734	369.200000
809.450134	375.000000
809.485657	364.100000
809.521118	369.900000
809.556580	367.700000
809.592102	363.500000
809.627502	360.600000
809.663025	359.800000
809.698486	357.200000
809.733887	353.200000
809.769409	356.800000
809.804871	349.000000
809.840271	352.200000
809.875793	353.700000
809.911194	356.600000
809.946655	348.500000
809.982178	348.100000
810.017639	350.200000
810.053040	352.000000
810.088501	346.900000
810.123901	344.100000
810.159424	341.300000
810.194885	338.100000
810.230286	342.000000
810.265747	337.700000
810.301208	337.000000
810.336609	340.500000
810.372070	331.500000
810.407532	331.600000
810.442932	336.800000
810.478394	339.200000
810.513794	332.600000
810.549255	333.100000
810.584717	331.700000
810.620117	326.200000
810.655518	329.600000
810.690979	326.900000
810.726379	326.900000
810.761841	320.200000
810.797302	320.500000
810.832642	317.600000
810.868103	325.600000
810.903564	314.000000
810.938904	321.100000
810.974365	310.500000
811.009827	316.300000
811.045166	311.800000
811.080627	308.300000
811.115967	311.800000
811.151428	315.600000
811.186829	310.000000
811.222229	310.400000
811.257629	303.300000
811.293091	310.900000
811.328430	315.700000
811.363892	311.900000
811.399292	313.400000
811.434631	306.400000
811.470093	308.200000
811.505493	303.900000
811.540833	302.500000
811.576294	306.300000
811.611694	304.000000
811.647034	298.000000
811.682434	300.400000
811.717773	300.100000
811.753235	305.400000
811.788635	297.200000
811.823975	298.700000
811.859375	303.400000
811.894775	294.200000
811.930115	295.200000
811.965515	294.400000
812.000916	296.500000
812.036255	292.600000
812.071655	296.400000
812.106995	287.600000
812.142395	288.000000
812.177795	296.700000
812.213196	289.600000
812.248474	291.600000
812.283875	284.200000
812.319214	285.800000
812.354614	288.000000
812.390015	283.800000
812.425293	282.400000
812.460693	282.300000
812.496094	279.300000
812.531433	277.200000
812.566772	276.100000
812.602173	279.300000
812.637451	279.600000
812.672852	278.200000
812.708191	277.700000
812.743530	274.300000
812.778931	268.300000
812.814270	272.200000
812.849609	277.400000
812.884949	272.800000
812.920227	266.300000
812.955627	276.800000
812.990967	270.400000
813.026306	266.700000
813.061646	258.900000
813.096985	258.800000
813.132324	255.500000
813.167664	259.400000
813.203003	262.800000
813.238281	253.100000
813.273682	254.600000
813.308960	251.400000
813.344299	254.700000
813.379639	260.100000
813.414978	254.200000
813.450256	254.800000
813.485596	257.100000
813.520874	250.300000
813.556213	252.200000
813.591614	255.200000
813.626831	248.700000
813.662170	251.400000
813.697510	259.300000
813.732788	246.300000
813.768127	250.300000
813.803467	249.100000
813.838745	248.200000
813.874084	248.700000
813.909363	248.800000
813.944641	248.400000
813.979980	241.300000
814.015320	244.500000
814.050598	245.200000
814.085876	247.300000
814.121155	244.400000
814.156494	240.100000
814.191772	243.300000
814.227051	238.300000
814.262390	241.400000
814.297668	241.600000
814.332947	244.300000
814.368225	236.500000
814.403564	241.000000
814.438782	237.000000
814.474121	239.800000
814.509338	234.800000
814.544617	241.600000
814.579956	235.000000
814.615173	244.000000
814.650513	238.800000
814.685791	233.900000
814.721008	236.100000
814.756348	236.100000
814.791626	232.100000
814.826843	233.100000
814.862122	232.500000
814.897400	232.500000
814.932678	234.100000
814.967957	231.700000
815.003235	232.200000
815.038452	226.800000
815.073730	225.000000
815.108948	234.700000
815.144226	231.900000
815.179504	235.800000
815.214722	224.500000
815.250000	222.000000
815.285278	229.700000
815.320496	225.000000
815.355774	226.200000
815.391052	226.700000
815.426270	226.000000
815.461487	224.900000
815.496765	222.100000
815.531982	218.600000
815.567261	224.000000
815.602539	229.500000
815.637695	227.100000
815.672974	226.100000
815.708191	227.900000
815.743408	230.300000
815.778687	223.300000
815.813904	231.400000
815.849121	219.700000
815.884399	219.100000
815.919556	217.800000
815.954834	220.300000
815.990051	225.100000
816.025269	226.800000
816.060486	219.300000
816.095703	218.500000
816.130920	222.500000
816.166199	219.900000
816.201416	223.100000
816.236572	224.600000
816.271851	219.600000
816.307007	225.200000
816.342224	215.200000
816.377441	221.300000
816.412659	214.200000
816.447876	223.200000
816.483093	219.000000
816.518250	217.900000
816.553467	217.000000
816.588745	224.400000
816.623901	214.400000
816.659119	210.500000
816.694275	217.300000
816.729492	214.700000
816.764709	244.000000
816.799927	213.100000
816.835083	216.500000
816.870300	211.900000
816.905457	215.400000
816.940674	217.700000
816.975830	213.800000
817.010986	212.300000
817.046204	212.900000
817.081421	213.300000
817.116577	213.700000
817.151733	220.800000
817.186951	219.000000
817.222107	216.100000
817.257324	218.800000
817.292419	216.600000
817.327637	211.500000
817.362854	214.300000
817.398010	209.500000
817.433167	213.300000
817.468323	212.800000
817.503479	213.300000
817.538635	221.900000
817.573853	215.800000
817.608948	214.400000
817.644165	211.200000
817.679321	210.100000
817.714478	211.000000
817.749634	212.100000
817.784790	222.200000
817.819946	219.000000
817.855103	206.400000
817.890198	212.800000
817.925415	205.100000
817.960571	214.700000
817.995667	214.300000
818.030823	215.100000
818.066040	209.700000
818.101135	213.000000
818.136292	211.300000
818.171448	208.200000
818.206543	211.100000
818.241699	215.300000
818.276855	213.400000
818.311951	212.200000
818.347107	208.200000
818.382263	216.200000
818.417358	216.500000
818.452515	218.800000
818.487610	218.300000
818.522766	211.000000
818.557922	218.900000
818.593018	217.500000
818.628113	212.500000
818.663269	210.000000
818.698364	212.900000
818.733521	210.200000
818.768677	215.600000
818.803711	209.100000
818.838867	210.000000
818.874023	211.100000
818.909058	209.500000
818.944214	208.900000
818.979370	214.300000
819.014404	213.200000
819.049561	210.300000
819.084595	213.900000
819.119751	208.300000
819.154846	212.700000
819.189941	208.800000
819.225037	207.400000
819.260193	203.800000
819.295227	205.300000
819.330322	202.500000
819.365479	203.600000
819.400513	238.500000
819.435608	202.200000
819.470764	203.500000
819.505798	202.200000
819.540894	208.200000
819.575989	204.700000
819.611084	213.100000
819.646179	213.900000
819.681213	210.100000
819.716309	207.700000
819.751404	206.700000
819.786438	211.500000
819.821533	204.100000
819.856628	208.800000
819.891663	212.200000
819.926758	219.200000
819.961853	213.900000
819.996887	206.500000
820.031982	210.400000
820.067017	207.800000
820.102112	240.600000
820.137207	207.400000
820.172302	219.300000
820.207275	206.300000
820.242371	204.900000
820.277405	206.700000
820.312500	206.400000
820.347534	209.700000
820.382568	213.500000
820.417664	205.800000
820.452759	204.200000
820.487732	205.500000
820.522827	205.800000
820.557861	203.800000
820.592896	205.900000
820.627930	208.400000
820.662964	203.600000
820.698059	208.900000
820.733093	206.500000
820.768127	209.100000
820.803162	206.200000
820.838196	205.500000
820.873230	207.600000
820.908264	207.900000
820.943298	203.800000
820.978333	210.400000
821.013367	205.800000
821.048401	211.600000
821.083435	210.300000
821.118469	201.700000
821.153503	210.100000
821.188477	209.100000
821.223511	202.100000
821.258484	207.600000
821.293579	208.000000
821.328613	203.400000
821.363647	205.900000
821.398621	202.400000
821.433655	205.200000
821.468628	217.400000
821.503662	206.900000
821.538696	208.600000
821.573669	203.200000
821.608704	207.800000
821.643677	205.000000
821.678650	207.500000
821.713684	211.700000
821.748718	206.400000
821.783691	206.700000
821.818726	206.200000
821.853638	209.100000
821.888672	204.900000
821.923706	206.600000
821.958618	204.200000
821.993652	205.000000
822.028687	208.600000
822.063599	214.300000
822.098633	206.500000
822.133667	202.700000
822.168579	205.900000
822.203613	207.800000
822.238586	203.300000
822.273560	209.200000
822.308533	202.800000
822.343567	204.700000
822.378479	206.100000
822.413452	205.900000
822.448425	201.500000
822.483398	211.100000
822.518372	208.600000
822.553345	203.900000
822.588318	213.000000
822.623291	204.600000
822.658203	203.800000
822.693237	206.400000
822.728210	202.100000
822.763123	206.900000
822.798096	201.600000
822.833069	205.300000
822.867981	206.100000
822.902954	208.400000
822.937927	206.600000
822.972900	213.200000
823.007874	199.000000
823.042725	208.700000
823.077698	214.000000
823.112671	203.400000
823.147583	205.900000
823.182556	205.800000
823.217529	209.600000
823.252441	203.500000
823.287415	213.600000
823.322388	206.800000
823.357239	204.600000
823.392212	210.100000
823.427185	210.800000
823.462097	202.500000
823.497009	205.800000
823.531982	202.100000
823.566895	204.100000
823.601807	201.400000
823.636719	203.900000
823.671631	205.100000
823.706604	202.700000
823.741455	205.300000
823.776428	200.000000
823.811340	207.000000
823.846252	211.100000
823.881165	209.700000
823.916138	206.700000
823.950989	212.200000
823.985901	204.100000
824.020813	205.300000
824.055725	204.300000
824.090637	201.000000
824.125610	207.100000
824.160461	206.800000
824.195374	206.000000
824.230225	208.800000
824.265198	200.100000
824.300110	203.000000
824.334961	211.400000
824.369873	197.800000
824.404785	206.500000
824.439636	208.900000
824.474548	199.100000
824.509460	197.100000
824.544312	209.100000
824.579224	207.300000
824.614075	206.100000
824.648987	202.000000
824.683899	203.300000
824.718811	203.100000
824.753662	209.200000
824.788574	208.900000
824.823364	205.400000
824.858276	201.400000
824.893188	206.100000
824.928040	208.300000
824.962952	205.000000
824.997803	207.500000
825.032654	203.900000
825.067566	206.600000
825.102417	201.600000
825.137268	203.300000
825.172119	202.100000
825.206970	202.500000
825.241882	203.000000
825.276733	199.900000
825.311646	200.200000
825.346436	198.300000
825.381348	199.200000
825.416138	203.500000
825.450989	200.700000
825.485901	195.100000
825.520691	197.300000
825.555542	197.900000
825.590454	201.300000
825.625244	195.600000
825.660095	206.600000
825.695007	205.800000
825.729797	201.500000
825.764648	198.700000
825.799438	200.900000
825.834290	202.400000
825.869202	196.100000
825.903992	201.600000
825.938843	199.700000
825.973694	196.500000
826.008484	210.000000
826.043335	196.100000
826.078186	193.100000
826.112976	203.900000
826.147827	204.000000
826.182678	206.200000
826.217468	193.600000
826.252319	205.600000
826.287109	195.900000
826.321899	203.400000
826.356750	199.000000
826.391541	194.000000
826.426392	201.800000
826.461182	199.000000
826.495972	195.300000
826.530823	191.800000
826.565613	199.200000
826.600403	194.700000
826.635254	200.100000
826.670044	190.300000
826.704834	192.600000
826.739685	193.800000
826.774475	200.500000
826.809265	196.200000
826.844055	195.200000
826.878906	202.300000
826.913635	198.200000
826.948425	200.000000
826.983215	200.400000
827.018005	200.400000
827.052856	194.600000
827.087585	200.700000
827.122375	190.700000
827.157227	195.200000
827.191956	207.700000
827.226746	192.300000
827.261536	199.000000
827.296265	191.100000
827.331116	193.300000
827.365906	197.800000
827.400635	192.100000
827.435425	189.200000
827.470215	199.700000
827.504944	194.100000
827.539734	198.900000
827.574463	194.300000
827.609253	202.200000
827.644043	195.500000
827.678772	199.500000
827.713562	193.600000
827.748352	193.400000
827.783081	192.900000
827.817871	195.300000
827.852600	192.600000
827.887329	195.000000
827.922119	189.500000
827.956848	196.200000
827.991638	206.500000
828.026367	198.200000
828.061157	197.000000
828.095886	195.900000
828.130615	208.100000
828.165344	188.800000
828.200073	195.300000
828.234863	193.000000
828.269592	195.900000
828.304321	199.400000
828.339111	196.800000
828.373779	192.600000
828.408569	198.200000
828.443298	199.600000
828.477966	194.200000
828.512756	195.400000
828.547424	192.600000
828.582214	194.100000
828.616943	193.900000
828.651672	195.200000
828.686340	198.000000
828.721130	192.100000
828.755798	195.700000
828.790527	194.800000
828.825256	195.900000
828.859924	195.600000
828.894714	199.100000
828.929443	202.900000
828.964111	193.000000
828.998840	198.400000
829.033569	191.900000
829.068237	195.300000
829.102966	192.000000
829.137634	196.900000
829.172363	197.000000
829.207092	195.700000
829.241821	190.700000
829.276489	190.700000
829.311157	195.100000
829.345825	194.200000
829.380554	199.300000
829.415283	192.700000
829.449951	190.200000
829.484619	203.000000
829.519348	201.500000
829.554016	195.100000
829.588745	196.400000
829.623413	190.400000
829.658081	205.300000
829.692749	190.400000
829.727417	199.900000
829.762146	196.700000
829.796814	193.100000
829.831482	194.500000
829.866150	195.700000
829.900879	193.000000
829.935486	196.000000
829.970154	192.700000
830.004883	205.700000
830.039490	194.400000
830.074219	191.000000
830.108887	195.900000
830.143494	195.800000
830.178223	188.500000
830.212891	194.300000
830.247498	193.700000
830.282166	201.800000
830.316772	199.300000
830.351501	192.600000
830.386169	194.200000
830.420776	195.000000
830.455444	194.700000
830.490112	192.400000
830.524719	188.600000
830.559387	198.400000
830.594055	196.300000
830.628662	195.900000
830.663330	194.200000
830.697998	201.600000
830.732605	195.100000
830.767273	197.600000
830.801941	194.000000
830.836487	204.100000
830.871155	196.600000
830.905762	197.600000
830.940430	189.300000
830.975098	194.100000
831.009644	196.000000
831.044312	202.700000
831.078979	199.000000
831.113525	188.400000
831.148193	196.000000
831.182861	195.500000
831.217407	198.900000
831.252075	206.600000
831.286621	193.300000
831.321289	191.800000
831.355896	195.400000
831.390564	200.600000
831.425110	196.700000
831.459778	201.400000
831.494324	205.700000
831.528931	195.200000
831.563599	200.000000
831.598145	189.900000
831.632751	194.700000
831.667419	193.800000
831.701965	198.700000
831.736572	196.400000
831.771179	191.400000
831.805786	190.900000
831.840393	200.400000
831.874939	188.200000
831.909546	198.300000
831.944153	188.900000
831.978760	196.000000
832.013306	190.700000
832.047913	200.500000
832.082458	202.100000
832.117065	193.000000
832.151672	202.600000
832.186218	196.500000
832.220825	198.200000
832.255432	189.500000
832.289978	193.800000
832.324585	197.700000
832.359192	198.300000
832.393677	195.800000
832.428284	196.700000
832.462830	192.800000
832.497437	195.000000
832.531982	197.900000
832.566589	194.600000
832.601135	197.500000
832.635681	190.000000
832.670227	194.300000
832.704773	202.700000
832.739380	195.500000
832.773926	196.200000
832.808472	192.800000
832.843079	195.700000
832.877563	195.900000
832.912170	194.300000
832.946716	189.800000
832.981201	198.500000
833.015808	197.100000
833.050293	195.000000
833.084839	191.300000
833.119446	195.000000
833.153992	197.200000
833.188477	195.300000
833.223022	192.800000
833.257568	196.100000
833.292114	199.300000
833.326660	205.800000
833.361145	193.100000
833.395691	189.500000
833.430237	195.500000
833.464783	198.400000
833.499329	192.800000
833.533875	193.200000
833.568359	196.800000
833.602905	199.200000
833.637390	200.500000
833.671875	194.900000
833.706421	193.700000
833.740906	192.600000
833.775452	188.500000
833.809998	193.200000
833.844482	201.800000
833.879028	193.400000
833.913513	192.700000
833.947998	196.600000
833.982544	193.200000
834.017090	191.900000
834.051514	187.000000
834.086060	197.400000
834.120544	194.000000
834.155029	194.900000
834.189575	193.300000
834.223999	195.800000
834.258545	196.300000
834.293030	195.200000
834.327515	194.400000
834.362000	192.700000
834.396545	199.500000
834.430969	193.500000
834.465454	198.900000
834.500000	188.900000
834.534424	197.600000
834.568970	188.600000
834.603455	189.100000
834.637878	192.200000
834.672363	197.300000
834.706909	194.900000
834.741333	195.400000
834.775818	188.500000
834.810242	192.600000
834.844727	194.200000
834.879211	193.600000
834.913635	195.100000
834.948181	195.000000
834.982666	194.900000
835.017090	194.100000
835.051575	196.400000
835.086060	193.300000
835.120483	197.500000
835.154907	197.500000
835.189331	194.600000
835.223816	198.600000
835.258301	190.200000
835.292786	192.600000
835.327209	199.200000
835.361694	191.900000
835.396057	193.400000
835.430542	195.900000
835.465027	194.800000
835.499390	191.900000
835.533875	220.300000
835.568359	193.000000
835.602722	190.000000
835.637207	194.900000
835.671692	190.700000
835.706055	212.000000
835.740540	196.600000
835.774902	196.600000
835.809387	196.500000
835.843811	188.700000
835.878235	200.400000
835.912659	191.300000
835.947083	192.700000
835.981506	194.200000
836.015930	190.500000
836.050354	198.000000
836.084778	201.800000
836.119202	198.900000
836.153625	208.700000
836.187988	192.100000
836.222473	192.700000
836.256897	197.200000
836.291260	194.600000
836.325684	198.500000
836.360046	192.900000
836.394470	195.700000
836.428894	201.400000
836.463318	192.600000
836.497681	197.300000
836.532104	200.600000
836.566467	195.900000
836.600891	194.400000
836.635315	201.600000
836.669678	199.000000
836.704102	198.700000
836.738525	198.600000
836.772888	189.100000
836.807251	192.500000
836.841675	197.200000
836.876038	190.900000
836.910461	192.100000
836.944763	198.100000
836.979187	190.900000
837.013611	199.300000
837.047974	189.300000
837.082336	204.600000
837.116699	197.300000
837.151062	195.200000
837.185486	190.400000
837.219849	193.600000
837.254211	198.800000
837.288574	194.900000
837.322937	190.000000
837.357300	187.000000
837.391663	205.600000
837.426086	198.800000
837.460388	195.400000
837.494751	200.000000
837.529114	193.500000
837.563477	201.800000
837.597839	196.000000
837.632141	196.300000
837.666565	193.900000
837.700928	198.500000
837.735229	198.000000
837.769592	197.200000
837.803955	198.800000
837.838257	193.300000
837.872620	193.500000
837.906982	201.400000
837.941284	195.900000
837.975647	198.200000
838.010010	201.800000
838.044312	192.800000
838.078674	193.200000
838.112976	195.900000
838.147339	197.900000
838.181702	195.000000
838.216003	202.100000
838.250366	195.000000
838.284668	198.000000
838.318970	189.000000
838.353333	195.200000
838.387634	194.500000
838.421936	195.800000
838.456299	195.100000
838.490601	202.600000
838.524902	198.100000
838.559265	198.400000
838.593567	197.700000
838.627869	191.700000
838.662170	196.400000
838.696472	190.000000
838.730774	192.400000
838.765137	198.500000
838.799377	186.300000
838.833740	197.400000
838.868042	201.200000
838.902283	190.700000
838.936646	201.200000
838.970947	196.600000
839.005188	202.000000
839.039551	189.500000
839.073792	200.600000
839.108093	194.000000
839.142395	204.000000
839.176697	190.600000
839.210937	196.300000
839.245300	203.000000
839.279541	190.900000
839.313843	194.500000
839.348145	198.300000
839.382385	198.900000
839.416687	200.100000
839.450989	196.900000
839.485229	193.700000
839.519531	191.800000
839.553833	201.100000
839.588013	195.200000
839.622314	197.300000
839.656555	196.600000
839.690857	195.600000
839.725159	191.400000
839.759460	194.500000
839.793640	192.700000
839.827942	196.300000
839.862183	190.700000
839.896423	196.400000
839.930725	205.300000
839.964966	202.300000
839.999207	198.700000
840.033508	202.000000
840.067688	192.600000
840.101990	202.600000
840.136230	194.800000
840.170471	202.200000
840.204712	192.500000
840.238953	193.000000
840.273193	196.500000
840.307434	198.600000
840.341736	193.100000
840.375916	192.400000
840.410217	191.500000
840.444397	201.600000
840.478638	198.000000
840.512878	199.700000
840.547119	196.000000
840.581360	197.900000
840.615601	203.800000
840.649780	205.700000
840.684021	195.400000
840.718262	202.300000
840.752441	203.000000
840.786682	196.600000
840.820862	197.200000
840.855103	201.700000
840.889343	196.700000
840.923584	198.800000
840.957764	197.800000
840.992004	196.400000
841.026184	206.700000
841.060425	194.200000
841.094666	193.800000
841.128845	198.200000
841.163025	197.600000
841.197266	197.100000
841.231445	195.400000
841.265686	196.700000
841.299866	192.400000
841.334045	202.600000
841.368286	196.900000
841.402405	202.100000
841.436646	198.900000
841.470825	192.300000
841.505005	194.400000
841.539185	192.500000
841.573425	194.500000
841.607544	194.500000
841.641785	195.900000
841.675964	192.400000
841.710144	197.300000
841.744324	194.000000
841.778503	194.800000
841.812683	193.600000
841.846863	201.400000
841.881042	201.500000
841.915222	192.900000
841.949402	207.100000
841.983521	190.000000
842.017700	194.900000
842.051880	194.800000
842.086060	197.800000
842.120239	196.400000
842.154419	194.400000
842.188538	195.600000
842.222717	193.600000
842.256897	203.400000
842.291016	195.400000
842.325195	197.400000
842.359375	204.300000
842.393494	202.700000
842.427673	196.000000
842.461853	196.200000
842.495911	204.900000
842.530090	197.400000
842.564209	193.900000
842.598389	198.100000
842.632568	196.000000
842.666626	199.400000
842.700806	193.700000
842.734985	193.900000
842.769043	198.900000
842.803223	193.700000
842.837402	195.000000
842.871460	194.800000
842.905640	206.000000
842.939697	191.400000
842.973877	197.000000
843.007996	201.300000
843.042175	206.000000
843.076233	193.400000
843.110413	198.600000
843.144470	202.200000
843.178589	200.900000
843.212769	194.900000
843.246826	200.700000
843.280945	193.300000
843.315125	195.600000
843.349182	192.600000
843.383301	200.600000
843.417419	206.600000
843.451538	195.900000
843.485657	194.300000
843.519714	196.300000
843.553833	197.500000
843.587952	193.400000
843.622070	193.100000
843.656128	197.900000
843.690247	193.900000
843.724304	194.700000
843.758423	197.200000
843.792542	193.100000
843.826599	195.900000
843.860718	194.200000
843.894836	190.900000
843.928894	196.500000
843.963013	196.800000
843.997070	192.600000
844.031128	192.700000
844.065247	198.100000
844.099304	200.900000
844.133362	198.300000
844.167480	199.000000
844.201599	201.000000
844.235596	198.600000
844.269714	197.200000
844.303711	198.100000
844.337830	190.900000
844.371948	199.400000
844.405945	197.000000
844.440063	193.800000
844.474121	208.800000
844.508118	195.400000
844.542236	196.800000
844.576294	195.600000
844.610352	193.000000
844.644409	196.400000
844.678406	188.900000
844.712524	200.200000
844.746582	202.200000
844.780640	195.600000
844.814636	196.600000
844.848755	206.100000
844.882751	195.200000
844.916809	198.200000
844.950867	198.800000
844.984863	202.500000
845.018921	194.000000
845.052979	191.900000
845.086975	196.800000
845.121033	191.100000
845.155090	193.900000
845.189087	200.100000
845.223145	196.100000
845.257141	196.900000
845.291199	199.900000
845.325256	201.600000
845.359253	197.700000
845.393250	207.300000
845.427307	196.800000
845.461304	196.300000
845.495361	197.400000
845.529358	204.700000
845.563354	195.800000
845.597412	192.600000
845.631409	204.500000
845.665405	202.500000
845.699463	200.700000
845.733459	194.700000
845.767456	206.200000
845.801453	195.600000
845.835449	200.800000
845.869446	200.900000
845.903503	201.500000
845.937439	193.800000
845.971497	203.400000
846.005493	193.200000
846.039429	201.400000
846.073486	206.200000
846.107483	194.500000
846.141418	194.600000
846.175476	197.200000
846.209473	202.400000
846.243408	192.900000
846.277405	197.500000
846.311401	192.000000
846.345337	194.500000
846.379395	201.200000
846.413330	192.900000
846.447327	204.100000
846.481323	192.300000
846.515259	193.200000
846.549255	195.900000
846.583252	198.600000
846.617187	194.200000
846.651184	196.400000
846.685120	196.800000
846.719055	203.200000
846.753052	199.800000
846.786987	198.600000
846.820984	190.300000
846.854980	202.200000
846.888916	193.200000
846.922852	196.400000
846.956848	202.800000
846.990723	194.700000
847.024719	197.700000
847.058716	194.800000
847.092590	202.600000
847.126587	198.500000
847.160522	194.900000
847.194458	200.900000
847.228455	193.700000
847.262390	192.900000
847.296265	195.200000
847.330261	200.800000
847.364136	193.500000
847.398132	196.200000
847.432068	196.200000
847.466003	195.500000
847.499939	196.100000
847.533875	198.600000
847.567749	193.400000
847.601746	196.000000
847.635681	199.300000
847.669556	190.300000
847.703491	202.100000
847.737427	206.200000
847.771301	191.300000
847.805237	198.500000
847.839233	197.300000
847.873108	194.700000
847.907043	194.700000
847.940918	202.500000
847.974854	197.500000
848.008789	201.700000
848.042664	193.600000
848.076538	199.300000
848.110474	197.000000
848.144348	197.900000
848.178284	190.300000
848.212219	199.700000
848.246094	194.000000
848.279968	197.600000
848.313904	199.600000
848.347778	196.800000
848.381653	195.200000
848.415588	195.100000
848.449463	193.700000
848.483337	199.600000
848.517212	202.800000
848.551086	198.300000
848.585022	193.900000
848.618835	206.600000
848.652771	195.600000
848.686646	193.400000
848.720520	203.400000
848.754395	195.900000
848.788330	199.400000
848.822144	200.500000
848.856018	195.100000
848.889954	204.100000
848.923767	194.400000
848.957642	194.300000
848.991577	198.600000
849.025391	196.600000
849.059265	196.500000
849.093079	193.300000
849.126953	192.400000
849.160828	200.100000
849.194641	198.300000
849.228577	194.000000
849.262451	195.800000
849.296265	194.700000
849.330139	193.700000
849.364014	196.700000
849.397827	198.400000
849.431702	196.700000
849.465515	201.700000
849.499329	189.500000
849.533203	193.900000
849.567078	186.600000
849.600891	199.800000
849.634766	196.300000
849.668518	201.200000
849.702393	197.600000
849.736267	192.400000
849.770020	204.900000
849.803894	199.100000
849.837769	198.400000
849.871521	195.800000
849.905396	201.200000
849.939270	193.500000
849.973022	195.300000
850.006897	199.000000
850.040710	200.400000
850.074524	200.500000
850.108337	196.300000
850.142151	201.400000
850.175964	201.900000
850.209778	194.600000
850.243530	188.300000
850.277405	200.400000
850.311218	195.500000
850.344971	195.000000
850.378845	202.900000
850.412659	192.900000
850.446411	199.100000
850.480225	195.500000
850.514038	201.600000
850.547791	198.400000
850.581665	196.500000
850.615417	193.900000
850.649231	198.100000
850.683044	194.300000
850.716858	195.900000
850.750610	197.200000
850.784424	199.800000
850.818176	192.900000
850.851929	195.000000
850.885742	193.700000
850.919495	196.400000
850.953308	204.000000
850.987122	204.200000
851.020874	192.200000
851.054626	192.000000
851.088440	199.400000
851.122192	200.000000
851.156006	198.200000
851.189697	196.900000
851.223511	193.200000
851.257263	201.100000
851.291077	198.400000
851.324829	195.400000
851.358582	195.200000
851.392334	195.500000
851.426086	195.300000
851.459900	204.600000
851.493591	197.900000
851.527344	195.100000
851.561157	195.900000
851.594849	197.600000
851.628662	196.200000
851.662415	204.800000
851.696106	198.500000
851.729858	199.700000
851.763611	193.100000
851.797363	197.500000
851.831116	193.900000
851.864868	199.000000
851.898560	200.900000
851.932312	193.200000
851.966064	198.500000
851.999817	195.200000
852.033569	196.100000
852.067261	201.800000
852.101013	194.200000
852.134766	195.700000
852.168457	190.000000
852.202209	200.700000
852.235901	194.900000
852.269592	198.400000
852.303345	203.900000
852.337036	200.600000
852.370789	197.400000
852.404541	200.800000
852.438171	193.000000
852.471924	197.200000
852.505676	192.600000
852.539307	199.400000
852.573059	194.600000
852.606812	196.900000
852.640442	194.400000
852.674194	202.200000
852.707886	207.000000
852.741577	202.200000
852.775269	193.500000
852.809021	196.100000
852.842651	197.000000
852.876404	202.100000
852.910034	197.600000
852.943787	201.100000
852.977478	199.800000
853.011108	194.100000
853.044861	193.700000
853.078552	201.300000
853.112183	197.500000
853.145874	197.500000
853.179626	189.300000
853.213257	198.100000
853.246948	193.700000
853.280640	204.700000
853.314270	195.500000
853.347961	203.100000
853.381653	198.800000
853.415283	202.200000
853.448975	193.900000
853.482605	198.400000
853.516296	196.900000
853.549988	192.700000
853.583618	197.200000
853.617310	198.500000
853.651001	196.800000
853.684631	194.900000
853.718323	193.800000
853.751953	201.800000
853.785583	190.900000
853.819275	200.900000
853.852966	197.400000
853.886536	191.500000
853.920227	192.700000
853.953918	199.500000
853.987488	195.200000
854.021179	199.200000
854.054749	204.600000
854.088440	199.700000
854.122131	192.700000
854.155701	198.300000
854.189331	194.600000
854.223022	198.400000
854.256592	198.600000
854.290283	194.400000
854.323914	197.800000
854.357483	196.200000
854.391174	198.900000
854.424744	202.000000
854.458374	196.500000
854.492065	206.300000
854.525696	199.500000
854.559265	202.400000
854.592896	208.300000
854.626465	196.200000
854.660095	196.600000
854.693787	197.500000
854.727356	196.100000
854.760986	200.400000
854.794617	198.400000
854.828186	194.500000
854.861816	200.600000
854.895447	198.400000
854.929016	198.000000
854.962585	198.300000
854.996155	205.300000
855.029785	198.100000
855.063416	198.100000
855.097046	201.600000
855.130615	193.800000
855.164185	201.200000
855.197754	197.400000
855.231384	199.600000
855.264954	195.500000
855.298523	200.500000
855.332153	196.900000
855.365723	203.300000
855.399292	193.600000
855.432922	197.200000
855.466492	199.000000
855.500061	194.200000
855.533630	192.700000
855.567200	200.400000
855.600769	200.800000
855.634338	201.400000
855.667969	196.900000
855.701477	194.400000
855.735046	192.500000
855.768616	190.400000
855.802185	196.800000
855.835754	207.800000
855.869324	189.100000
855.902893	197.200000
855.936401	201.000000
855.969971	196.000000
856.003540	192.400000
856.037109	199.400000
856.070618	194.700000
856.104187	192.100000
856.137695	193.800000
856.171265	189.900000
856.204834	197.300000
856.238403	201.400000
856.271912	196.000000
856.305481	199.400000
856.338989	191.600000
856.372559	200.700000
856.406128	198.700000
856.439636	200.900000
856.473145	196.400000
856.506653	204.400000
856.540222	196.100000
856.573792	200.800000
856.607300	200.300000
856.640808	192.500000
856.674377	197.200000
856.707825	230.000000
856.741394	202.400000
856.774902	192.500000
856.808472	191.200000
856.841980	198.100000
856.875488	201.700000
856.908936	191.900000
856.942505	195.200000
856.976013	195.100000
857.009521	194.400000
857.043030	197.200000
857.076477	194.600000
857.110046	201.100000
857.143555	197.200000
857.177063	198.700000
857.210571	196.100000
857.244080	190.700000
857.277527	199.700000
857.311035	196.300000
857.344543	202.000000
857.378052	195.500000
857.411499	203.300000
857.445068	202.600000
857.478516	197.700000
857.512024	193.800000
857.545532	196.900000
857.578979	198.000000
857.612427	200.000000
857.645874	193.400000
857.679382	199.600000
857.712891	201.200000
857.746399	197.200000
857.779846	200.800000
857.813354	202.900000
857.846741	196.900000
857.880249	194.300000
857.913757	197.900000
857.947266	197.500000
857.980652	199.700000
858.014160	196.400000
858.047546	195.200000
858.081055	195.300000
858.114563	207.400000
858.147949	191.600000
858.181458	197.600000
858.214844	196.400000
858.248352	190.800000
858.281799	199.700000
858.315308	207.300000
858.348694	198.600000
858.382141	203.700000
858.415588	199.600000
858.449036	200.300000
858.482483	197.900000
858.515930	196.300000
858.549377	195.200000
858.582825	202.200000
858.616211	198.500000
858.649658	199.700000
858.683105	192.600000
858.716553	195.900000
858.750000	192.100000
858.783386	195.800000
858.816833	190.000000
858.850281	197.600000
858.883728	198.600000
858.917114	198.100000
858.950562	203.200000
858.983948	204.100000
859.017395	202.000000
859.050781	196.100000
859.084167	193.800000
859.117615	194.100000
859.151062	199.700000
859.184448	194.600000
859.217834	195.500000
859.251282	195.300000
859.284668	192.500000
859.318054	191.100000
859.351440	196.200000
859.384888	200.700000
859.418274	190.700000
859.451721	190.400000
859.485046	198.900000
859.518494	198.000000
859.551819	193.300000
859.585266	199.500000
859.618652	202.400000
859.652039	191.400000
859.685425	193.100000
859.718811	191.900000
859.752197	189.100000
859.785583	200.200000
859.819031	203.100000
859.852356	197.900000
859.885742	193.600000
859.919067	195.600000
859.952454	195.300000
859.985901	201.200000
860.019287	195.600000
860.052612	0.000000
860.085999	0.000000
860.119324	0.000000
860.152710	0.000000
860.186096	0.000000
860.219421	0.000000
860.252808	0.000000
860.286133	0.000000
860.319519	0.000000
860.352905	0.000000
860.386292	0.000000
860.419617	0.000000
860.452942	0.000000
860.486267	0.000000
860.519653	0.000000
860.553040	0.000000
860.586365	0.000000
860.619690	0.000000
860.653076	0.000000
860.686340	0.000000
860.719727	0.000000
860.753113	0.000000
860.786377	0.000000
860.819763	0.000000
860.853027	0.000000
860.886414	0.000000
860.919739	0.000000
860.953125	0.000000
860.986389	0.000000
861.019714	0.000000
861.053040	0.000000
861.086365	0.000000
861.119690	0.000000
861.153076	0.000000
861.186340	0.000000
861.219666	0.000000
861.252930	0.000000
861.286316	0.000000
861.319641	0.000000
861.352905	0.000000
861.386230	0.000000
861.419495	0.000000
861.452820	0.000000
861.486145	0.000000
861.519470	0.000000
861.552734	0.000000
861.586060	0.000000
861.619324	0.000000
861.652649	0.000000
861.685974	0.000000
861.719238	0.000000
861.752563	0.000000
861.785828	0.000000
861.819092	0.000000
861.852417	0.000000
861.885742	0.000000
861.918945	0.000000
861.952271	0.000000
861.985535	0.000000
862.018799	0.000000
862.052124	0.000000
862.085449	0.000000
862.118652	0.000000
862.151978	0.000000
862.185181	0.000000
862.218506	0.000000
862.251770	0.000000
862.285034	0.000000
862.318298	0.000000
862.351562	0.000000
862.384827	0.000000
862.418091	0.000000
862.451355	0.000000
862.484619	0.000000
862.517883	0.000000
862.551086	0.000000
862.584351	0.000000
862.617676	0.000000
862.650940	0.000000
862.684143	0.000000
862.717407	0.000000
862.750610	0.000000
862.783875	0.000000
862.817139	0.000000
862.850342	0.000000
862.883606	0.000000
862.916870	0.000000
862.950073	0.000000
862.983337	0.000000
863.016602	0.000000
863.049805	0.000000
863.083069	0.000000
863.116211	0.000000
863.149475	0.000000
863.182739	0.000000
863.216003	0.000000
863.249146	0.000000
863.282410	0.000000
863.315613	0.000000
863.348816	0.000000
863.382080	0.000000
863.415222	0.000000
863.448486	0.000000
863.481689	0.000000
863.514893	0.000000
863.548157	0.000000
863.581360	0.000000
863.614502	0.000000
863.647766	0.000000
863.680908	0.000000
863.714172	0.000000
863.747375	0.000000
863.780579	0.000000
863.813721	0.000000
863.846985	0.000000
863.880127	0.000000
863.913330	0.000000
863.946533	0.000000
863.979675	0.000000
864.012939	0.000000
