Model Number: SPM-001-M   
Serial Number: 10090201
Firmware Version: 004.17.6
Exposure Time: 300000.000000us
Data Taken on: 11-02-2021 10:52:21.422
Wavelength	Amplitude
733.770752	0.000000
733.808716	0.000000
733.846619	0.000000
733.884583	0.000000
733.922546	0.000000
733.960449	0.000000
733.998413	0.000000
734.036377	0.000000
734.074219	0.000000
734.112183	0.000000
734.150085	0.000000
734.188049	0.000000
734.226013	0.000000
734.263916	0.000000
734.301819	0.000000
734.339783	0.000000
734.377686	0.000000
734.415588	0.000000
734.453552	0.000000
734.491455	0.000000
734.529419	0.000000
734.567322	0.000000
734.605225	0.000000
734.643127	0.000000
734.681091	0.000000
734.718994	0.000000
734.756897	0.000000
734.794800	0.000000
734.832703	0.000000
734.870667	0.000000
734.908508	0.000000
734.946472	0.000000
734.984375	0.000000
735.022278	0.000000
735.060181	0.000000
735.098083	0.000000
735.135986	0.000000
735.173889	0.000000
735.211792	0.000000
735.249695	0.000000
735.287598	0.000000
735.325439	0.000000
735.363403	0.000000
735.401306	0.000000
735.439148	0.000000
735.477051	0.000000
735.515015	0.000000
735.552856	0.000000
735.590759	0.000000
735.628662	0.000000
735.666504	0.000000
735.704407	0.000000
735.742310	0.000000
735.780212	0.000000
735.818115	0.000000
735.856018	0.000000
735.893860	0.000000
735.931763	0.000000
735.969604	0.000000
736.007507	0.000000
736.045410	0.000000
736.083252	0.000000
736.121094	0.000000
736.158997	0.000000
736.196838	0.000000
736.234741	0.000000
736.272644	0.000000
736.310486	0.000000
736.348389	0.000000
736.386230	0.000000
736.424072	0.000000
736.461975	0.000000
736.499878	0.000000
736.537720	0.000000
736.575562	0.000000
736.613403	0.000000
736.651306	0.000000
736.689148	0.000000
736.726990	0.000000
736.764893	0.000000
736.802734	0.000000
736.840576	0.000000
736.878418	0.000000
736.916321	0.000000
736.954102	0.000000
736.992004	0.000000
737.029846	0.000000
737.067688	0.000000
737.105530	0.000000
737.143372	0.000000
737.181213	0.000000
737.219116	0.000000
737.256897	0.000000
737.294739	0.000000
737.332642	0.000000
737.370422	0.000000
737.408325	0.000000
737.446167	0.000000
737.483948	0.000000
737.521790	0.000000
737.559692	0.000000
737.597473	0.000000
737.635315	0.000000
737.673157	0.000000
737.710999	0.000000
737.748840	0.000000
737.786621	0.000000
737.824463	0.000000
737.862305	0.000000
737.900085	0.000000
737.937927	0.000000
737.975769	0.000000
738.013550	0.000000
738.051392	0.000000
738.089233	0.000000
738.127014	0.000000
738.164856	0.000000
738.202698	0.000000
738.240479	0.000000
738.278320	0.000000
738.316162	0.000000
738.353943	0.000000
738.391785	0.000000
738.429565	0.000000
738.467407	0.000000
738.505188	0.000000
738.542969	0.000000
738.580811	0.000000
738.618652	0.000000
738.656372	0.000000
738.694214	0.000000
738.732056	0.000000
738.769836	0.000000
738.807617	0.000000
738.845459	0.000000
738.883240	0.000000
738.921021	0.000000
738.958862	0.000000
738.996582	0.000000
739.034424	0.000000
739.072205	0.000000
739.109985	0.000000
739.147827	0.000000
739.185547	0.000000
739.223389	0.000000
739.261169	0.000000
739.298889	0.000000
739.336731	0.000000
739.374512	0.000000
739.412292	0.000000
739.450073	0.000000
739.487854	0.000000
739.525635	0.000000
739.563416	0.000000
739.601135	0.000000
739.638977	0.000000
739.676758	0.000000
739.714478	0.000000
739.752258	0.000000
739.790100	0.000000
739.827820	0.000000
739.865601	0.000000
739.903381	0.000000
739.941101	0.000000
739.978882	199.400000
740.016724	195.900000
740.054443	198.200000
740.092224	193.000000
740.130005	193.500000
740.167725	193.500000
740.205505	193.700000
740.243225	200.800000
740.281006	196.100000
740.318787	192.200000
740.356506	200.400000
740.394287	198.400000
740.432068	193.100000
740.469727	192.100000
740.507507	198.900000
740.545288	196.000000
740.583008	196.400000
740.620789	195.500000
740.658569	190.000000
740.696228	195.400000
740.734009	200.700000
740.771790	187.100000
740.809509	198.500000
740.847229	192.400000
740.884949	193.600000
740.922729	191.700000
740.960449	194.100000
740.998169	192.700000
741.035950	193.500000
741.073669	196.600000
741.111389	196.700000
741.149170	204.100000
741.186890	204.000000
741.224609	199.000000
741.262329	195.800000
741.300110	202.200000
741.337769	192.400000
741.375549	192.100000
741.413208	196.600000
741.450989	191.900000
741.488708	194.100000
741.526367	193.000000
741.564148	198.700000
741.601868	197.900000
741.639526	194.100000
741.677307	197.300000
741.715027	197.700000
741.752686	191.900000
741.790466	201.400000
741.828186	197.900000
741.865845	192.700000
741.903564	190.700000
741.941345	195.600000
741.979004	193.000000
742.016724	199.000000
742.054382	196.100000
742.092102	198.300000
742.129822	191.200000
742.167480	195.100000
742.205200	194.000000
742.242920	198.500000
742.280640	199.200000
742.318359	191.900000
742.356079	194.500000
742.393738	198.600000
742.431396	193.200000
742.469116	199.400000
742.506775	189.100000
742.544495	197.900000
742.582214	199.700000
742.619873	194.200000
742.657593	199.800000
742.695251	199.400000
742.732971	194.500000
742.770630	196.800000
742.808289	197.300000
742.846008	194.900000
742.883728	197.900000
742.921326	195.000000
742.959045	194.400000
742.996765	193.900000
743.034424	194.900000
743.072083	193.700000
743.109802	194.500000
743.147400	190.600000
743.185120	196.500000
743.222839	195.200000
743.260437	200.700000
743.298157	197.700000
743.335754	189.500000
743.373474	194.900000
743.411133	191.100000
743.448792	196.700000
743.486450	195.300000
743.524170	189.800000
743.561768	196.500000
743.599487	200.400000
743.637146	204.500000
743.674744	194.900000
743.712463	194.600000
743.750122	196.200000
743.787720	197.200000
743.825439	193.500000
743.863037	195.100000
743.900696	195.100000
743.938416	222.100000
743.976013	194.800000
744.013672	202.900000
744.051331	199.400000
744.088928	202.600000
744.126587	199.400000
744.164307	197.800000
744.201904	193.200000
744.239563	197.800000
744.277222	198.600000
744.314819	196.300000
744.352478	200.600000
744.390137	198.000000
744.427734	197.700000
744.465393	194.500000
744.502991	192.500000
744.540649	197.900000
744.578308	195.900000
744.615906	191.900000
744.653564	187.500000
744.691223	198.200000
744.728821	191.700000
744.766418	196.700000
744.804077	198.600000
744.841675	194.100000
744.879333	191.000000
744.916992	195.100000
744.954529	193.500000
744.992187	200.100000
745.029785	193.900000
745.067444	192.200000
745.105042	197.500000
745.142639	197.900000
745.180298	203.700000
745.217896	195.500000
745.255493	195.500000
745.293152	200.200000
745.330750	200.100000
745.368347	201.400000
745.405945	198.800000
745.443604	196.500000
745.481140	199.800000
745.518799	196.000000
745.556396	196.900000
745.593994	198.100000
745.631592	197.200000
745.669189	191.600000
745.706787	196.900000
745.744385	191.500000
745.781982	198.500000
745.819580	193.400000
745.857178	195.500000
745.894775	194.500000
745.932373	197.000000
745.969971	197.100000
746.007568	189.300000
746.045166	202.800000
746.082764	200.800000
746.120300	198.700000
746.157898	197.500000
746.195557	194.900000
746.233093	191.100000
746.270691	197.500000
746.308228	196.200000
746.345825	200.100000
746.383423	199.200000
746.420959	192.600000
746.458557	193.500000
746.496155	192.600000
746.533691	196.600000
746.571289	192.100000
746.608887	195.400000
746.646423	197.000000
746.684021	197.100000
746.721619	193.800000
746.759155	197.900000
746.796753	190.600000
746.834351	191.200000
746.871826	194.400000
746.909424	200.500000
746.946960	196.700000
746.984558	194.800000
747.022156	193.400000
747.059631	202.700000
747.097229	197.400000
747.134827	194.100000
747.172363	201.700000
747.209900	199.500000
747.247498	192.200000
747.285034	200.500000
747.322571	201.000000
747.360168	193.400000
747.397644	190.400000
747.435242	198.000000
747.472778	200.800000
747.510315	194.200000
747.547913	193.700000
747.585388	201.100000
747.622925	194.700000
747.660522	190.300000
747.697998	193.500000
747.735596	195.000000
747.773132	193.900000
747.810669	196.500000
747.848206	199.900000
747.885742	191.800000
747.923279	192.400000
747.960815	198.300000
747.998352	197.500000
748.035889	199.600000
748.073425	198.900000
748.110901	194.100000
748.148437	192.500000
748.185974	196.500000
748.223511	204.400000
748.261047	198.600000
748.298584	196.500000
748.336060	195.400000
748.373596	198.100000
748.411133	219.400000
748.448608	193.700000
748.486145	198.100000
748.523682	200.900000
748.561218	203.000000
748.598755	196.900000
748.636292	197.900000
748.673706	195.100000
748.711243	201.500000
748.748718	195.600000
748.786255	195.700000
748.823792	196.000000
748.861267	192.300000
748.898804	198.200000
748.936340	196.300000
748.973816	193.900000
749.011292	201.800000
749.048828	196.800000
749.086304	197.600000
749.123840	204.100000
749.161316	193.000000
749.198792	203.500000
749.236328	200.000000
749.273743	195.500000
749.311279	195.000000
749.348816	198.200000
749.386230	197.600000
749.423767	186.900000
749.461304	197.500000
749.498718	197.500000
749.536255	201.500000
749.573730	205.100000
749.611206	201.600000
749.648682	195.800000
749.686218	196.800000
749.723633	199.800000
749.761169	194.600000
749.798645	192.700000
749.836060	194.300000
749.873596	192.900000
749.911011	197.600000
749.948547	201.300000
749.986023	195.000000
750.023437	194.300000
750.060913	190.900000
750.098450	192.300000
750.135864	195.200000
750.173340	194.800000
750.210815	199.700000
750.248291	193.800000
750.285767	195.700000
750.323242	199.100000
750.360657	198.100000
750.398132	191.500000
750.435608	198.500000
750.473022	192.500000
750.510498	192.400000
750.547974	192.200000
750.585449	194.800000
750.622925	187.400000
750.660339	206.600000
750.697815	196.700000
750.735291	195.100000
750.772644	199.500000
750.810120	197.900000
750.847595	197.900000
750.885010	191.000000
750.922485	202.800000
750.959961	196.100000
750.997375	202.100000
751.034851	198.400000
751.072266	199.200000
751.109680	190.800000
751.147156	201.300000
751.184570	197.600000
751.221985	195.200000
751.259460	189.300000
751.296875	196.700000
751.334290	196.400000
751.371765	199.700000
751.409180	199.500000
751.446594	201.700000
751.484070	197.200000
751.521423	197.600000
751.558899	197.000000
751.596375	203.300000
751.633728	202.000000
751.671204	205.300000
751.708618	194.300000
751.746033	196.900000
751.783447	191.200000
751.820801	193.500000
751.858276	198.800000
751.895691	196.500000
751.933105	194.300000
751.970520	190.500000
752.007935	194.400000
752.045349	199.500000
752.082764	197.000000
752.120178	193.800000
752.157532	193.900000
752.195007	194.300000
752.232422	199.300000
752.269775	199.100000
752.307190	198.400000
752.344543	193.700000
752.382019	196.000000
752.419434	195.300000
752.456787	198.700000
752.494202	200.700000
752.531616	197.300000
752.568970	198.400000
752.606384	197.200000
752.643799	198.200000
752.681152	202.000000
752.718567	198.200000
752.755981	191.100000
752.793335	198.600000
752.830750	190.200000
752.868164	199.900000
752.905518	191.700000
752.942932	198.400000
752.980225	192.400000
753.017639	198.400000
753.055054	196.700000
753.092407	197.900000
753.129822	200.100000
753.167175	203.400000
753.204529	195.700000
753.241943	193.600000
753.279358	191.900000
753.316650	198.000000
753.354065	196.700000
753.391479	199.500000
753.428772	201.900000
753.466187	198.500000
753.503479	191.900000
753.540894	195.700000
753.578308	191.200000
753.615601	192.500000
753.653015	195.200000
753.690369	194.700000
753.727722	191.600000
753.765076	191.200000
753.802490	192.200000
753.839783	190.600000
753.877136	193.900000
753.914551	206.900000
753.951843	193.100000
753.989258	198.800000
754.026611	197.400000
754.063904	198.600000
754.101257	193.200000
754.138611	189.900000
754.175964	197.300000
754.213318	204.700000
754.250610	190.500000
754.288025	194.100000
754.325378	193.000000
754.362671	199.400000
754.400024	196.900000
754.437378	204.700000
754.474670	203.400000
754.512085	193.300000
754.549438	197.300000
754.586731	194.100000
754.624084	196.200000
754.661438	192.000000
754.698730	202.900000
754.736084	195.900000
754.773376	194.500000
754.810730	197.800000
754.848083	195.900000
754.885315	202.000000
754.922668	191.600000
754.960022	192.800000
754.997314	200.100000
755.034668	198.200000
755.072021	197.500000
755.109253	195.400000
755.146606	202.300000
755.183960	194.600000
755.221252	203.900000
755.258545	199.600000
755.295898	201.400000
755.333191	201.500000
755.370544	199.500000
755.407776	197.200000
755.445129	198.200000
755.482422	201.700000
755.519714	194.500000
755.557068	193.200000
755.594360	191.200000
755.631653	200.200000
755.668945	204.200000
755.706299	200.600000
755.743530	206.900000
755.780884	204.900000
755.818176	202.100000
755.855408	202.500000
755.892761	200.300000
755.930054	197.800000
755.967346	200.900000
756.004639	200.300000
756.041870	198.900000
756.079224	203.900000
756.116516	196.100000
756.153748	203.300000
756.191040	205.400000
756.228394	200.900000
756.265625	195.900000
756.302917	200.700000
756.340210	197.100000
756.377441	201.600000
756.414795	203.600000
756.452087	198.900000
756.489319	195.700000
756.526611	203.800000
756.563843	200.500000
756.601135	206.400000
756.638428	207.300000
756.675659	198.700000
756.712952	203.000000
756.750244	202.400000
756.787476	201.000000
756.824768	205.200000
756.862061	200.100000
756.899292	247.200000
756.936584	204.200000
756.973816	209.800000
757.011047	209.800000
757.048340	201.100000
757.085632	200.200000
757.122864	214.500000
757.160156	199.900000
757.197327	203.300000
757.234619	205.200000
757.271912	199.300000
757.309082	205.400000
757.346375	198.200000
757.383667	207.200000
757.420837	202.800000
757.458130	203.900000
757.495422	200.900000
757.532593	204.800000
757.569885	197.600000
757.607117	198.400000
757.644348	204.100000
757.681580	213.100000
757.718811	193.500000
757.756042	203.200000
757.793335	200.000000
757.830505	208.800000
757.867798	201.900000
757.905029	200.100000
757.942200	202.700000
757.979492	198.900000
758.016724	201.700000
758.053894	201.000000
758.091187	217.000000
758.128418	203.900000
758.165588	202.500000
758.202820	212.500000
758.240112	203.000000
758.277283	212.500000
758.314514	204.600000
758.351685	201.400000
758.388916	210.600000
758.426147	210.500000
758.463379	212.500000
758.500610	206.400000
758.537842	206.200000
758.575012	211.300000
758.612244	202.900000
758.649475	216.100000
758.686646	201.100000
758.723877	211.800000
758.761108	212.700000
758.798279	205.900000
758.835510	208.100000
758.872742	213.000000
758.909851	209.200000
758.947083	210.200000
758.984253	210.000000
759.021484	210.800000
759.058716	212.000000
759.095886	211.800000
759.133057	207.500000
759.170288	210.100000
759.207458	207.100000
759.244690	217.100000
759.281860	216.200000
759.319031	209.500000
759.356262	206.900000
759.393433	207.400000
759.430603	209.500000
759.467773	208.700000
759.505005	213.100000
759.542175	213.900000
759.579346	208.600000
759.616516	210.000000
759.653687	213.000000
759.690918	208.700000
759.728027	211.500000
759.765259	212.200000
759.802429	213.700000
759.839539	212.800000
759.876770	215.600000
759.913940	219.700000
759.951111	212.300000
759.988281	212.700000
760.025452	210.100000
760.062561	208.300000
760.099792	220.000000
760.136963	215.600000
760.174072	211.900000
760.211243	208.600000
760.248413	208.800000
760.285583	208.800000
760.322754	221.900000
760.359863	219.700000
760.397034	219.000000
760.434204	214.800000
760.471375	213.500000
760.508545	211.400000
760.545715	214.200000
760.582825	209.900000
760.619995	216.900000
760.657166	210.100000
760.694275	219.900000
760.731445	217.200000
760.768555	217.500000
760.805664	218.200000
760.842834	215.700000
760.879944	219.000000
760.917114	217.300000
760.954285	215.800000
760.991394	212.000000
761.028564	222.100000
761.065674	218.100000
761.102783	214.700000
761.139954	220.600000
761.177124	220.500000
761.214172	221.800000
761.251343	218.400000
761.288452	217.700000
761.325562	220.200000
761.362732	214.700000
761.399841	219.200000
761.436951	219.600000
761.474121	215.800000
761.511169	218.400000
761.548340	223.800000
761.585449	223.100000
761.622559	224.500000
761.659668	220.400000
761.696838	225.500000
761.733887	222.700000
761.771057	220.300000
761.808167	220.600000
761.845276	225.200000
761.882385	231.500000
761.919434	222.700000
761.956604	236.600000
761.993713	219.500000
762.030762	227.400000
762.067871	222.600000
762.105042	224.200000
762.142090	230.600000
762.179199	224.500000
762.216309	228.800000
762.253418	235.300000
762.290527	231.200000
762.327637	229.000000
762.364685	222.100000
762.401794	228.000000
762.438904	226.900000
762.475952	223.900000
762.513062	223.200000
762.550110	224.500000
762.587219	235.700000
762.624329	234.300000
762.661377	228.600000
762.698486	228.300000
762.735596	227.200000
762.772644	225.500000
762.809753	222.700000
762.846863	226.800000
762.883911	232.900000
762.921021	232.100000
762.958069	230.700000
762.995117	235.100000
763.032227	235.400000
763.069336	227.000000
763.106323	225.000000
763.143433	224.400000
763.180481	229.700000
763.217590	232.400000
763.254639	229.200000
763.291687	231.300000
763.328735	237.500000
763.365845	230.900000
763.402893	230.100000
763.439941	232.700000
763.477051	233.300000
763.514038	233.000000
763.551147	229.100000
763.588196	233.600000
763.625244	233.200000
763.662292	240.000000
763.699402	243.400000
763.736389	238.300000
763.773499	243.800000
763.810486	238.500000
763.847534	236.100000
763.884644	237.700000
763.921631	233.900000
763.958679	242.200000
763.995728	236.000000
764.032776	242.900000
764.069824	233.800000
764.106873	243.200000
764.143860	248.000000
764.180969	240.300000
764.218018	246.200000
764.255005	238.500000
764.292053	240.100000
764.329102	247.800000
764.366089	247.700000
764.403137	246.000000
764.440125	239.900000
764.477173	244.000000
764.514221	246.000000
764.551208	247.500000
764.588257	244.400000
764.625305	250.900000
764.662292	253.500000
764.699341	256.700000
764.736389	250.000000
764.773376	262.000000
764.810425	252.400000
764.847473	256.900000
764.884399	252.100000
764.921448	259.300000
764.958435	258.100000
764.995483	251.500000
765.032532	265.800000
765.069458	253.900000
765.106506	257.600000
765.143555	255.900000
765.180481	257.400000
765.217529	265.400000
765.254578	252.400000
765.291504	261.400000
765.328552	258.100000
765.365540	256.100000
765.402527	265.600000
765.439575	256.700000
765.476501	254.900000
765.513550	256.300000
765.550537	261.600000
765.587463	266.900000
765.624512	261.200000
765.661499	255.300000
765.698486	268.200000
765.735474	257.400000
765.772461	261.100000
765.809448	267.400000
765.846436	267.400000
765.883423	271.800000
765.920410	265.900000
765.957397	262.200000
765.994385	268.800000
766.031311	274.200000
766.068359	268.500000
766.105286	269.000000
766.142273	274.700000
766.179260	269.400000
766.216187	266.400000
766.253174	263.400000
766.290161	271.400000
766.327148	272.900000
766.364136	273.700000
766.401123	282.300000
766.438049	268.600000
766.475037	280.000000
766.512024	276.000000
766.548950	288.100000
766.585937	283.000000
766.622864	279.400000
766.659790	280.600000
766.696777	271.700000
766.733704	283.500000
766.770691	275.300000
766.807678	286.100000
766.844604	280.300000
766.881531	282.100000
766.918518	286.000000
766.955444	285.400000
766.992432	279.400000
767.029358	283.300000
767.066284	286.500000
767.103271	282.800000
767.140198	316.500000
767.177124	297.800000
767.214050	287.900000
767.251038	289.100000
767.287964	285.500000
767.324890	285.800000
767.361816	289.500000
767.398743	293.200000
767.435730	287.100000
767.472595	290.100000
767.509583	293.800000
767.546509	285.700000
767.583374	291.800000
767.620361	285.500000
767.657288	291.100000
767.694214	291.100000
767.731140	290.200000
767.768066	292.300000
767.804993	295.900000
767.841919	288.800000
767.878845	294.600000
767.915710	299.200000
767.952698	291.900000
767.989563	295.600000
768.026489	297.700000
768.063416	294.200000
768.100281	294.300000
768.137207	299.700000
768.174133	299.300000
768.211060	298.600000
768.247986	298.200000
768.284912	300.000000
768.321777	299.000000
768.358704	296.600000
768.395630	296.900000
768.432495	295.200000
768.469421	300.500000
768.506348	302.800000
768.543152	308.000000
768.580078	304.500000
768.616943	305.000000
768.653870	305.300000
768.690796	306.300000
768.727661	307.600000
768.764587	307.700000
768.801453	301.600000
768.838318	311.000000
768.875244	310.200000
768.912109	315.900000
768.948975	307.500000
768.985901	310.600000
769.022766	308.800000
769.059631	312.300000
769.096558	309.500000
769.133362	309.100000
769.170288	311.400000
769.207214	313.400000
769.244019	315.400000
769.280945	312.100000
769.317810	318.900000
769.354675	315.200000
769.391541	324.000000
769.428406	322.300000
769.465271	329.200000
769.502136	321.700000
769.539062	322.900000
769.575867	323.500000
769.612732	324.700000
769.649597	330.000000
769.686462	332.500000
769.723328	325.400000
769.760193	324.600000
769.797058	324.100000
769.833923	335.400000
769.870728	333.500000
769.907593	335.700000
769.944519	332.700000
769.981323	336.800000
770.018188	337.300000
770.055054	334.700000
770.091858	336.700000
770.128723	343.400000
770.165588	348.100000
770.202393	336.200000
770.239258	347.400000
770.276062	343.500000
770.312927	345.700000
770.349792	350.500000
770.386597	352.000000
770.423462	360.100000
770.460327	362.400000
770.497131	351.000000
770.533997	350.200000
770.570862	360.300000
770.607605	363.000000
770.644470	359.900000
770.681335	358.800000
770.718140	360.200000
770.754944	354.600000
770.791809	355.300000
770.828613	357.400000
770.865479	359.200000
770.902222	364.300000
770.939087	362.200000
770.975952	358.000000
771.012695	362.100000
771.049561	375.500000
771.086365	367.000000
771.123169	362.200000
771.159973	364.900000
771.196838	365.000000
771.233582	372.000000
771.270447	371.400000
771.307251	374.700000
771.344055	372.000000
771.380859	373.300000
771.417664	369.400000
771.454468	376.700000
771.491272	375.500000
771.528076	377.600000
771.564880	375.300000
771.601685	379.800000
771.638428	373.600000
771.675293	383.700000
771.712097	375.300000
771.748840	391.300000
771.785645	381.700000
771.822449	382.900000
771.859253	385.700000
771.896057	385.500000
771.932861	395.200000
771.969604	388.200000
772.006409	382.500000
772.043213	393.700000
772.079956	387.500000
772.116760	385.100000
772.153503	386.500000
772.190308	398.800000
772.227112	391.100000
772.263855	389.100000
772.300659	386.900000
772.337463	393.700000
772.374207	388.600000
772.411011	389.400000
772.447754	395.200000
772.484497	408.800000
772.521301	397.700000
772.558105	395.300000
772.594849	396.000000
772.631592	401.900000
772.668396	405.400000
772.705139	409.200000
772.741882	403.600000
772.778625	408.700000
772.815430	411.000000
772.852173	409.600000
772.888916	416.400000
772.925720	418.700000
772.962463	422.500000
772.999207	411.800000
773.035950	416.900000
773.072754	419.000000
773.109436	415.100000
773.146240	421.600000
773.182922	421.400000
773.219727	423.200000
773.256470	417.900000
773.293152	411.400000
773.329956	416.500000
773.366699	428.000000
773.403381	421.700000
773.440186	422.100000
773.476929	422.500000
773.513611	417.000000
773.550354	419.600000
773.587158	426.200000
773.623840	423.800000
773.660583	425.400000
773.697327	431.400000
773.734009	422.400000
773.770813	422.300000
773.807495	425.000000
773.844238	428.800000
773.880981	439.900000
773.917664	430.300000
773.954407	433.900000
773.991150	431.700000
774.027832	440.000000
774.064575	435.600000
774.101318	437.100000
774.138000	435.600000
774.174744	433.300000
774.211487	437.600000
774.248108	428.100000
774.284851	433.700000
774.321594	441.900000
774.358276	441.800000
774.395020	448.800000
774.431702	444.300000
774.468384	438.400000
774.505127	442.000000
774.541809	452.200000
774.578491	453.500000
774.615234	450.300000
774.651917	437.300000
774.688599	445.400000
774.725342	456.500000
774.762024	460.500000
774.798706	457.300000
774.835449	455.800000
774.872070	458.200000
774.908813	456.600000
774.945496	459.300000
774.982178	463.500000
775.018860	463.800000
775.055542	463.300000
775.092224	457.000000
775.128967	465.500000
775.165588	467.800000
775.202271	467.000000
775.239014	475.700000
775.275635	471.000000
775.312317	465.400000
775.349060	466.000000
775.385681	471.800000
775.422363	470.200000
775.459045	480.300000
775.495667	479.300000
775.532410	476.700000
775.569092	475.600000
775.605713	473.400000
775.642395	476.900000
775.679016	486.400000
775.715698	484.700000
775.752380	484.900000
775.789001	478.000000
775.825684	474.400000
775.862366	487.500000
775.898987	502.700000
775.935669	493.600000
775.972351	503.800000
776.008972	495.400000
776.045654	495.700000
776.082336	498.000000
776.118958	507.600000
776.155640	509.700000
776.192322	511.900000
776.228882	508.300000
776.265564	506.000000
776.302185	501.000000
776.338867	512.100000
776.375488	511.200000
776.412109	512.900000
776.448792	514.000000
776.485413	519.600000
776.522034	508.300000
776.558716	511.500000
776.595337	516.200000
776.631958	522.000000
776.668579	523.400000
776.705261	524.000000
776.741882	518.400000
776.778503	518.400000
776.815186	522.600000
776.851746	533.700000
776.888367	528.700000
776.924988	536.000000
776.961609	526.200000
776.998291	526.400000
777.034851	523.000000
777.071472	537.000000
777.108154	529.600000
777.144714	541.800000
777.181335	538.500000
777.218018	529.800000
777.254578	542.600000
777.291199	545.300000
777.327759	550.600000
777.364380	557.800000
777.401062	562.200000
777.437622	566.700000
777.474243	560.300000
777.510864	564.200000
777.547424	560.700000
777.584045	566.500000
777.620667	565.300000
777.657227	568.200000
777.693848	568.700000
777.730469	575.800000
777.767029	570.000000
777.803650	573.700000
777.840271	567.000000
777.876831	564.300000
777.913452	567.200000
777.950012	551.900000
777.986633	557.000000
778.023193	558.500000
778.059753	557.300000
778.096375	561.200000
778.132996	568.100000
778.169556	560.800000
778.206116	563.100000
778.242737	561.200000
778.279297	573.900000
778.315857	567.000000
778.352478	570.800000
778.389038	581.700000
778.425598	585.200000
778.462219	594.200000
778.498718	588.900000
778.535339	591.400000
778.571838	598.300000
778.608459	596.100000
778.645020	586.500000
778.681580	590.500000
778.718140	591.600000
778.754761	587.500000
778.791260	595.900000
778.827881	599.800000
778.864441	597.000000
778.900940	600.800000
778.937561	595.400000
778.974121	597.600000
779.010620	594.000000
779.047241	592.100000
779.083801	598.600000
779.120300	601.400000
779.156860	601.600000
779.193359	605.200000
779.229980	610.100000
779.266541	616.100000
779.303040	612.700000
779.339600	606.800000
779.376160	597.400000
779.412659	601.100000
779.449219	601.300000
779.485779	611.800000
779.522278	606.400000
779.558838	611.200000
779.595398	607.700000
779.631897	599.300000
779.668457	598.100000
779.705017	605.300000
779.741516	602.200000
779.778076	594.700000
779.814575	594.800000
779.851074	596.900000
779.887634	596.900000
779.924133	606.900000
779.960693	600.900000
779.997253	611.100000
780.033691	613.300000
780.070251	609.600000
780.106812	616.100000
780.143250	616.100000
780.179810	617.900000
780.216370	620.300000
780.252808	623.700000
780.289368	626.500000
780.325867	621.900000
780.362366	622.100000
780.398865	636.100000
780.435364	633.200000
780.471863	636.700000
780.508423	623.200000
780.544861	624.100000
780.581421	621.000000
780.617920	618.100000
780.654419	626.600000
780.690918	629.200000
780.727417	631.900000
780.763916	630.600000
780.800415	626.400000
780.836914	615.600000
780.873352	633.500000
780.909912	632.800000
780.946411	636.400000
780.982849	639.700000
781.019348	645.400000
781.055786	636.400000
781.092346	641.900000
781.128845	652.300000
781.165283	652.500000
781.201782	656.200000
781.238281	652.000000
781.274719	647.600000
781.311218	646.300000
781.347717	663.100000
781.384155	650.600000
781.420654	656.800000
781.457092	659.000000
781.493591	652.500000
781.530090	645.000000
781.566528	656.500000
781.602966	659.900000
781.639465	663.400000
781.675903	658.800000
781.712402	659.400000
781.748901	660.800000
781.785278	655.100000
781.821777	662.200000
781.858276	660.800000
781.894714	678.900000
781.931152	671.400000
781.967651	671.500000
782.004089	665.100000
782.040527	674.700000
782.076965	675.100000
782.113403	676.000000
782.149902	678.400000
782.186340	675.700000
782.222778	688.500000
782.259277	683.700000
782.295654	685.800000
782.332092	693.600000
782.368591	682.300000
782.404968	680.200000
782.441467	690.600000
782.477905	697.200000
782.514282	697.300000
782.550781	707.300000
782.587219	704.700000
782.623596	715.100000
782.660095	718.100000
782.696472	720.500000
782.732910	724.000000
782.769348	728.800000
782.805786	735.900000
782.842224	734.100000
782.878662	727.000000
782.915039	726.000000
782.951477	731.200000
782.987915	727.600000
783.024292	727.700000
783.060730	726.600000
783.097168	717.000000
783.133545	705.900000
783.169983	705.200000
783.206421	702.200000
783.242798	698.600000
783.279236	688.000000
783.315613	685.900000
783.352051	681.800000
783.388489	680.000000
783.424866	672.100000
783.461304	684.600000
783.497681	690.300000
783.534058	682.800000
783.570496	680.000000
783.606934	676.600000
783.643250	682.500000
783.679687	693.200000
783.716125	677.900000
783.752441	646.900000
783.788879	590.600000
783.825317	501.600000
783.861633	400.400000
783.898071	318.600000
783.934448	270.100000
783.970825	246.100000
784.007263	234.600000
784.043579	234.300000
784.080017	232.600000
784.116394	220.200000
784.152710	220.400000
784.189148	221.300000
784.225525	222.400000
784.261902	222.500000
784.298279	228.200000
784.334656	230.300000
784.371033	227.200000
784.407410	231.400000
784.443787	227.200000
784.480164	230.900000
784.516541	231.500000
784.552856	249.400000
784.589233	260.800000
784.625610	292.800000
784.661987	382.000000
784.698364	469.800000
784.734741	568.200000
784.771057	648.600000
784.807434	696.200000
784.843811	726.100000
784.880127	721.600000
784.916504	737.800000
784.952881	736.800000
784.989197	744.100000
785.025574	757.400000
785.061951	760.200000
785.098267	779.000000
785.134644	765.900000
785.170959	761.800000
785.207275	767.900000
785.243652	773.500000
785.279968	765.600000
785.316345	764.000000
785.352722	755.600000
785.388977	745.100000
785.425354	731.500000
785.461731	722.900000
785.498047	724.800000
785.534363	726.900000
785.570679	723.600000
785.606995	716.000000
785.643372	714.700000
785.679687	718.500000
785.716003	720.500000
785.752380	726.000000
785.788635	732.400000
785.825012	738.800000
785.861328	740.100000
785.897644	731.400000
785.933960	747.600000
785.970337	762.800000
786.006592	781.000000
786.042908	785.600000
786.079285	784.500000
786.115540	793.100000
786.151855	789.500000
786.188171	788.600000
786.224487	799.200000
786.260803	792.400000
786.297119	794.300000
786.333435	781.700000
786.369751	773.400000
786.406006	774.400000
786.442322	771.600000
786.478638	766.600000
786.514954	769.000000
786.551270	754.900000
786.587585	755.600000
786.623840	745.200000
786.660156	741.600000
786.696472	739.800000
786.732727	744.600000
786.769043	745.800000
786.805298	737.600000
786.841614	735.300000
786.877930	749.300000
786.914124	746.900000
786.950439	757.800000
786.986755	771.300000
787.023010	773.200000
787.059326	778.700000
787.095642	782.200000
787.131836	796.700000
787.168152	793.900000
787.204468	805.300000
787.240723	811.800000
787.276978	805.400000
787.313293	808.000000
787.349548	808.700000
787.385803	810.700000
787.422058	809.200000
787.458313	810.800000
787.494629	803.800000
787.530823	797.900000
787.567139	784.700000
787.603455	776.400000
787.639648	775.400000
787.675903	785.700000
787.712219	778.700000
787.748413	776.500000
787.784729	781.700000
787.820984	769.800000
787.857178	766.000000
787.893494	770.500000
787.929749	773.400000
787.965942	780.400000
788.002258	790.300000
788.038452	790.500000
788.074707	779.000000
788.110962	790.400000
788.147217	798.000000
788.183472	811.600000
788.219727	811.300000
788.255920	818.200000
788.292175	821.200000
788.328430	818.000000
788.364624	811.600000
788.400879	818.000000
788.437134	825.300000
788.473328	822.700000
788.509583	818.500000
788.545837	814.200000
788.582031	812.600000
788.618286	822.600000
788.654480	825.400000
788.690735	831.600000
788.726990	846.400000
788.763184	838.800000
788.799377	842.100000
788.835632	834.600000
788.871826	849.100000
788.908081	845.300000
788.944336	830.100000
788.980469	837.200000
789.016724	828.400000
789.052979	827.300000
789.089111	815.700000
789.125366	825.300000
789.161621	812.700000
789.197754	815.900000
789.234009	810.600000
789.270142	807.800000
789.306396	796.100000
789.342590	803.800000
789.378784	795.300000
789.414978	794.700000
789.451233	810.800000
789.487366	810.900000
789.523621	811.200000
789.559814	813.500000
789.595947	815.000000
789.632202	822.700000
789.668335	837.300000
789.704529	851.700000
789.740784	859.100000
789.776917	852.300000
789.813110	846.700000
789.849304	866.100000
789.885498	866.700000
789.921692	880.000000
789.957886	876.200000
789.994019	865.700000
790.030212	859.600000
790.066406	867.300000
790.102539	872.800000
790.138733	883.200000
790.174927	874.200000
790.211060	875.100000
790.247253	855.000000
790.283386	853.300000
790.319580	853.200000
790.355774	852.300000
790.391907	857.700000
790.428101	870.700000
790.464294	855.400000
790.500427	849.700000
790.536621	843.000000
790.572754	834.800000
790.608887	840.800000
790.645081	845.500000
790.681274	847.200000
790.717346	836.300000
790.753540	819.600000
790.789734	815.200000
790.825867	808.300000
790.862000	821.600000
790.898132	834.600000
790.934265	822.100000
790.970459	818.400000
791.006592	817.500000
791.042725	820.000000
791.078918	825.000000
791.114990	826.300000
791.151184	828.600000
791.187317	836.600000
791.223389	825.500000
791.259583	820.500000
791.295715	832.300000
791.331848	838.500000
791.367981	847.200000
791.404114	844.600000
791.440247	835.800000
791.476379	832.000000
791.512451	817.200000
791.548584	827.300000
791.584778	832.200000
791.620850	846.900000
791.656982	841.100000
791.693115	824.300000
791.729187	821.900000
791.765381	826.300000
791.801514	829.900000
791.837585	837.900000
791.873718	838.700000
791.909851	833.200000
791.945923	831.900000
791.982056	810.900000
792.018188	810.300000
792.054260	814.700000
792.090393	826.100000
792.126465	809.600000
792.162598	808.500000
792.198669	798.500000
792.234741	794.000000
792.270874	797.600000
792.307007	803.300000
792.343079	797.300000
792.379150	796.300000
792.415283	781.400000
792.451355	780.000000
792.487488	761.200000
792.523560	776.100000
792.559631	781.800000
792.595764	762.000000
792.631836	716.500000
792.667908	666.800000
792.703979	612.500000
792.740051	616.600000
792.776184	670.900000
792.812256	746.900000
792.848328	796.100000
792.884399	834.300000
792.920471	849.300000
792.956543	860.200000
792.992615	865.000000
793.028748	875.300000
793.064758	882.300000
793.100830	893.000000
793.136963	899.800000
793.172974	890.800000
793.209045	887.000000
793.245178	901.800000
793.281189	902.600000
793.317261	909.500000
793.353271	904.900000
793.389404	910.200000
793.425476	898.400000
793.461487	884.000000
793.497559	889.900000
793.533630	902.500000
793.569641	899.500000
793.605713	896.000000
793.641785	896.000000
793.677795	899.500000
793.713867	896.000000
793.749878	901.000000
793.785950	922.000000
793.822021	927.000000
793.858032	904.100000
793.894104	903.100000
793.930176	886.900000
793.966187	893.200000
794.002258	894.100000
794.038269	911.200000
794.074280	900.300000
794.110352	911.900000
794.146423	884.100000
794.182373	881.300000
794.218445	871.800000
794.254517	875.500000
794.290466	876.700000
794.326538	882.500000
794.362549	882.600000
794.398560	879.400000
794.434631	873.200000
794.470581	857.600000
794.506653	863.800000
794.542664	873.700000
794.578674	869.600000
794.614685	865.400000
794.650757	853.800000
794.686707	861.400000
794.722778	861.000000
794.758789	880.300000
794.794739	892.200000
794.830811	905.300000
794.866821	916.500000
794.902771	909.200000
794.938843	898.200000
794.974792	902.000000
795.010803	916.200000
795.046814	914.200000
795.082825	900.200000
795.118835	907.200000
795.154846	880.200000
795.190796	878.900000
795.226807	869.600000
795.262817	885.000000
795.298767	888.800000
795.334778	893.200000
795.370850	875.100000
795.406799	867.900000
795.442810	860.000000
795.478821	869.700000
795.514709	872.800000
795.550720	902.500000
795.586670	876.900000
795.622681	876.900000
795.658691	872.700000
795.694641	874.800000
795.730652	875.400000
795.766663	890.000000
795.802551	889.100000
795.838562	898.900000
795.874573	879.900000
795.910522	878.800000
795.946472	875.200000
795.982483	894.500000
796.018433	901.500000
796.054382	902.100000
796.090393	884.600000
796.126282	871.800000
796.162292	864.900000
796.198242	872.900000
796.234192	877.000000
796.270203	875.500000
796.306091	884.900000
796.342041	885.600000
796.378052	873.800000
796.413940	879.600000
796.449951	884.700000
796.485901	896.200000
796.521790	901.100000
796.557800	899.900000
796.593689	889.200000
796.629639	875.400000
796.665649	876.300000
796.701599	889.500000
796.737488	888.600000
796.773437	893.200000
796.809387	887.400000
796.845337	883.500000
796.881287	880.000000
796.917175	872.200000
796.953125	878.200000
796.989075	887.800000
797.024963	883.300000
797.060913	876.100000
797.096863	865.900000
797.132751	866.600000
797.168701	871.300000
797.204590	882.300000
797.240540	878.900000
797.276489	873.900000
797.312439	868.100000
797.348328	852.800000
797.384277	847.400000
797.420166	851.100000
797.456055	854.400000
797.492004	856.200000
797.527893	860.000000
797.563843	853.000000
797.599731	836.400000
797.635620	829.000000
797.671570	846.200000
797.707520	854.900000
797.743347	850.400000
797.779297	846.400000
797.815125	829.700000
797.851074	825.300000
797.887024	820.300000
797.922913	828.400000
797.958801	843.600000
797.994690	833.600000
798.030579	833.800000
798.066467	824.800000
798.102356	818.400000
798.138245	820.000000
798.174133	817.700000
798.210083	826.800000
798.245911	837.000000
798.281799	823.700000
798.317749	811.600000
798.353577	810.500000
798.389465	811.000000
798.425293	815.300000
798.461243	815.100000
798.497131	812.900000
798.532959	807.700000
798.568848	809.000000
798.604736	794.700000
798.640564	791.900000
798.676453	798.700000
798.712402	799.500000
798.748230	794.600000
798.784119	790.900000
798.820007	787.900000
798.855835	792.700000
798.891724	789.900000
798.927551	791.600000
798.963379	794.800000
798.999268	789.600000
799.035095	773.100000
799.070984	770.600000
799.106873	773.600000
799.142700	786.400000
799.178528	774.500000
799.214417	780.700000
799.250244	779.900000
799.286133	768.100000
799.321960	777.600000
799.357788	777.300000
799.393677	773.500000
799.429504	772.300000
799.465332	766.700000
799.501221	765.200000
799.537048	763.000000
799.572876	770.000000
799.608704	776.700000
799.644531	782.000000
799.680359	783.300000
799.716248	782.800000
799.752014	780.000000
799.787903	768.000000
799.823730	772.500000
799.859558	771.400000
799.895386	773.300000
799.931213	771.100000
799.967041	761.100000
800.002869	752.800000
800.038696	767.100000
800.074463	761.800000
800.110352	765.800000
800.146179	756.400000
800.181946	761.600000
800.217773	757.900000
800.253540	749.300000
800.289429	751.100000
800.325256	753.700000
800.361023	751.600000
800.396851	749.400000
800.432678	752.900000
800.468445	743.800000
800.504272	743.300000
800.540100	732.000000
800.575867	738.100000
800.611694	745.900000
800.647461	737.200000
800.683289	736.100000
800.719116	735.900000
800.754883	736.500000
800.790649	721.600000
800.826477	722.500000
800.862244	742.700000
800.898071	730.000000
800.933838	724.100000
800.969604	719.600000
801.005432	716.100000
801.041199	718.800000
801.076965	714.500000
801.112793	709.000000
801.148560	704.400000
801.184326	707.300000
801.220154	700.700000
801.255859	692.400000
801.291687	697.100000
801.327454	694.100000
801.363281	696.500000
801.398987	691.800000
801.434814	685.100000
801.470520	690.100000
801.506287	689.300000
801.542114	687.900000
801.577820	689.800000
801.613647	684.200000
801.649414	677.600000
801.685120	676.200000
801.720886	678.400000
801.756714	672.200000
801.792419	671.200000
801.828186	669.000000
801.863892	669.300000
801.899719	663.500000
801.935486	660.500000
801.971252	672.400000
802.006958	666.800000
802.042725	665.800000
802.078430	662.000000
802.114197	658.100000
802.149963	669.600000
802.185669	660.100000
802.221436	660.300000
802.257202	663.400000
802.292908	660.200000
802.328674	666.800000
802.364441	666.400000
802.400146	663.700000
802.435913	657.300000
802.471558	653.700000
802.507324	655.300000
802.543091	649.300000
802.578796	659.500000
802.614502	655.800000
802.650269	659.600000
802.685974	645.300000
802.721741	651.500000
802.757446	657.900000
802.793152	661.000000
802.828918	665.600000
802.864624	658.100000
802.900330	651.900000
802.936035	650.000000
802.971802	654.300000
803.007446	650.800000
803.043213	647.100000
803.078857	650.600000
803.114624	635.800000
803.150330	637.700000
803.185974	636.300000
803.221741	637.800000
803.257446	643.500000
803.293152	649.200000
803.328857	639.200000
803.364563	627.200000
803.400208	618.800000
803.435974	624.800000
803.471680	622.000000
803.507324	624.900000
803.543030	632.000000
803.578735	630.400000
803.614441	623.800000
803.650146	627.600000
803.685791	609.000000
803.721497	609.800000
803.757202	606.400000
803.792847	614.400000
803.828552	604.100000
803.864258	605.800000
803.899902	601.000000
803.935608	591.100000
803.971313	598.900000
804.006958	599.300000
804.042664	600.000000
804.078308	601.500000
804.113953	590.800000
804.149658	592.200000
804.185364	586.100000
804.221008	602.200000
804.256714	588.500000
804.292297	585.200000
804.328003	581.500000
804.363708	578.800000
804.399292	580.100000
804.434998	580.900000
804.470703	576.300000
804.506287	580.400000
804.541992	572.900000
804.577637	572.400000
804.613281	563.300000
804.648926	560.700000
804.684570	567.300000
804.720215	564.100000
804.755920	560.500000
804.791565	559.900000
804.827209	564.600000
804.862854	559.000000
804.898437	553.200000
804.934143	561.600000
804.969788	556.000000
805.005371	554.800000
805.041077	555.500000
805.076721	548.600000
805.112305	544.400000
805.147949	547.400000
805.183655	540.100000
805.219238	548.200000
805.254883	546.600000
805.290466	546.700000
805.326111	538.500000
805.361755	534.300000
805.397400	539.800000
805.432983	542.700000
805.468628	542.000000
805.504211	547.900000
805.539856	542.400000
805.575500	543.200000
805.611084	537.800000
805.646729	529.200000
805.682373	533.800000
805.717957	542.100000
805.753601	542.200000
805.789246	523.100000
805.824768	533.500000
805.860413	532.800000
805.895996	526.700000
805.931641	528.100000
805.967224	535.300000
806.002869	529.400000
806.038452	528.800000
806.074036	530.100000
806.109619	520.200000
806.145264	514.600000
806.180847	519.500000
806.216431	517.600000
806.252014	521.500000
806.287659	518.000000
806.323181	520.500000
806.358826	514.800000
806.394409	506.200000
806.429993	508.000000
806.465576	521.300000
806.501160	506.900000
806.536743	498.200000
806.572327	503.400000
806.607910	501.100000
806.643494	499.900000
806.679077	493.800000
806.714661	496.100000
806.750244	496.400000
806.785828	488.000000
806.821350	487.200000
806.856934	490.100000
806.892517	487.100000
806.928101	483.600000
806.963684	485.200000
806.999268	488.300000
807.034790	473.700000
807.070374	480.600000
807.105896	472.500000
807.141479	471.700000
807.177063	477.600000
807.212585	469.600000
807.248169	466.200000
807.283752	473.000000
807.319275	464.200000
807.354858	469.100000
807.390381	465.500000
807.425903	459.700000
807.461487	457.000000
807.497070	454.700000
807.532593	455.700000
807.568115	453.800000
807.603699	451.500000
807.639221	444.500000
807.674744	448.600000
807.710266	451.300000
807.745850	451.300000
807.781372	443.000000
807.816895	441.400000
807.852417	444.300000
807.888000	445.500000
807.923523	439.600000
807.959045	444.600000
807.994629	432.900000
808.030090	430.800000
808.065613	433.900000
808.101135	440.100000
808.136658	435.700000
808.172241	429.800000
808.207764	430.500000
808.243225	425.400000
808.278809	423.800000
808.314270	432.200000
808.349792	423.100000
808.385315	421.600000
808.420837	425.200000
808.456360	432.500000
808.491882	431.100000
808.527344	426.000000
808.562866	430.800000
808.598389	423.400000
808.633850	422.800000
808.669434	419.100000
808.704895	423.800000
808.740417	427.500000
808.775940	420.300000
808.811462	415.900000
808.846924	411.200000
808.882385	409.700000
808.917847	410.700000
808.953369	413.200000
808.988892	407.400000
809.024353	410.800000
809.059875	415.100000
809.095398	407.900000
809.130798	402.100000
809.166321	404.100000
809.201843	402.500000
809.237305	403.000000
809.272766	407.500000
809.308228	398.500000
809.343750	400.600000
809.379211	402.000000
809.414734	397.300000
809.450134	401.400000
809.485657	388.600000
809.521118	396.300000
809.556580	392.700000
809.592102	391.900000
809.627502	389.600000
809.663025	387.600000
809.698486	384.000000
809.733887	378.200000
809.769409	384.100000
809.804871	374.100000
809.840271	376.300000
809.875793	375.200000
809.911194	382.800000
809.946655	373.300000
809.982178	370.900000
810.017639	375.000000
810.053040	372.000000
810.088501	369.900000
810.123901	368.400000
810.159424	365.700000
810.194885	364.100000
810.230286	365.600000
810.265747	360.900000
810.301208	357.100000
810.336609	361.700000
810.372070	355.900000
810.407532	355.700000
810.442932	358.700000
810.478394	361.100000
810.513794	357.200000
810.549255	355.100000
810.584717	349.700000
810.620117	344.900000
810.655518	352.900000
810.690979	347.700000
810.726379	345.300000
810.761841	338.600000
810.797302	338.100000
810.832642	337.000000
810.868103	345.900000
810.903564	337.500000
810.938904	344.600000
810.974365	332.600000
811.009827	335.100000
811.045166	330.700000
811.080627	325.100000
811.115967	330.000000
811.151428	333.800000
811.186829	328.100000
811.222229	328.300000
811.257629	322.000000
811.293091	327.800000
811.328430	334.000000
811.363892	329.000000
811.399292	327.500000
811.434631	322.300000
811.470093	325.800000
811.505493	320.700000
811.540833	320.400000
811.576294	324.200000
811.611694	320.500000
811.647034	314.800000
811.682434	317.000000
811.717773	318.700000
811.753235	322.100000
811.788635	313.600000
811.823975	315.400000
811.859375	321.300000
811.894775	310.400000
811.930115	312.800000
811.965515	310.200000
812.000916	311.200000
812.036255	309.000000
812.071655	312.000000
812.106995	304.400000
812.142395	304.300000
812.177795	308.900000
812.213196	303.200000
812.248474	305.000000
812.283875	299.100000
812.319214	301.200000
812.354614	301.200000
812.390015	296.700000
812.425293	297.800000
812.460693	296.600000
812.496094	294.500000
812.531433	287.800000
812.566772	291.000000
812.602173	293.700000
812.637451	291.200000
812.672852	288.200000
812.708191	288.600000
812.743530	284.000000
812.778931	280.300000
812.814270	283.300000
812.849609	289.500000
812.884949	285.200000
812.920227	277.500000
812.955627	289.500000
812.990967	280.700000
813.026306	279.000000
813.061646	272.900000
813.096985	268.200000
813.132324	267.700000
813.167664	270.900000
813.203003	273.600000
813.238281	263.500000
813.273682	265.500000
813.308960	263.600000
813.344299	262.500000
813.379639	269.300000
813.414978	264.400000
813.450256	262.000000
813.485596	265.300000
813.520874	258.900000
813.556213	261.700000
813.591614	265.300000
813.626831	259.300000
813.662170	260.200000
813.697510	266.900000
813.732788	254.100000
813.768127	260.400000
813.803467	258.400000
813.838745	255.800000
813.874084	259.000000
813.909363	256.500000
813.944641	256.700000
813.979980	247.900000
814.015320	251.900000
814.050598	249.500000
814.085876	253.700000
814.121155	252.800000
814.156494	250.200000
814.191772	251.100000
814.227051	246.300000
814.262390	247.600000
814.297668	248.700000
814.332947	250.400000
814.368225	244.300000
814.403564	243.400000
814.438782	244.700000
814.474121	245.100000
814.509338	241.800000
814.544617	248.100000
814.579956	241.200000
814.615173	250.200000
814.650513	246.400000
814.685791	241.100000
814.721008	242.400000
814.756348	242.400000
814.791626	239.600000
814.826843	238.700000
814.862122	238.900000
814.897400	236.600000
814.932678	239.000000
814.967957	237.100000
815.003235	238.200000
815.038452	233.600000
815.073730	231.500000
815.108948	239.600000
815.144226	238.500000
815.179504	241.900000
815.214722	229.300000
815.250000	229.500000
815.285278	234.900000
815.320496	230.700000
815.355774	233.100000
815.391052	233.000000
815.426270	232.700000
815.461487	231.300000
815.496765	227.600000
815.531982	225.400000
815.567261	228.200000
815.602539	235.400000
815.637695	230.400000
815.672974	231.400000
815.708191	232.600000
815.743408	235.000000
815.778687	226.700000
815.813904	235.000000
815.849121	221.900000
815.884399	224.100000
815.919556	224.800000
815.954834	224.700000
815.990051	228.000000
816.025269	231.400000
816.060486	223.100000
816.095703	223.400000
816.130920	227.800000
816.166199	224.000000
816.201416	225.700000
816.236572	230.100000
816.271851	224.300000
816.307007	228.600000
816.342224	220.800000
816.377441	222.500000
816.412659	217.500000
816.447876	226.800000
816.483093	222.200000
816.518250	222.300000
816.553467	222.500000
816.588745	224.700000
816.623901	218.700000
816.659119	214.700000
816.694275	219.000000
816.729492	217.400000
816.764709	247.500000
816.799927	215.300000
816.835083	221.100000
816.870300	216.000000
816.905457	218.000000
816.940674	221.500000
816.975830	216.500000
817.010986	216.100000
817.046204	218.300000
817.081421	214.600000
817.116577	215.900000
817.151733	222.200000
817.186951	220.300000
817.222107	218.900000
817.257324	222.100000
817.292419	219.900000
817.327637	215.000000
817.362854	216.500000
817.398010	214.200000
817.433167	216.600000
817.468323	215.300000
817.503479	216.600000
817.538635	225.700000
817.573853	217.500000
817.608948	217.200000
817.644165	214.200000
817.679321	213.900000
817.714478	215.200000
817.749634	217.900000
817.784790	225.300000
817.819946	222.200000
817.855103	209.300000
817.890198	214.500000
817.925415	209.300000
817.960571	218.300000
817.995667	216.700000
818.030823	216.800000
818.066040	214.600000
818.101135	216.400000
818.136292	215.700000
818.171448	211.300000
818.206543	215.100000
818.241699	218.000000
818.276855	215.700000
818.311951	216.100000
818.347107	211.900000
818.382263	217.000000
818.417358	220.000000
818.452515	219.900000
818.487610	221.300000
818.522766	213.400000
818.557922	221.900000
818.593018	217.600000
818.628113	216.200000
818.663269	212.600000
818.698364	215.400000
818.733521	214.000000
818.768677	216.900000
818.803711	212.300000
818.838867	212.900000
818.874023	214.100000
818.909058	212.100000
818.944214	211.200000
818.979370	216.400000
819.014404	215.600000
819.049561	212.600000
819.084595	217.500000
819.119751	209.900000
819.154846	217.300000
819.189941	212.500000
819.225037	212.800000
819.260193	207.000000
819.295227	208.400000
819.330322	205.300000
819.365479	207.000000
819.400513	241.900000
819.435608	204.900000
819.470764	203.500000
819.505798	206.800000
819.540894	210.400000
819.575989	207.800000
819.611084	214.700000
819.646179	215.600000
819.681213	210.700000
819.716309	209.500000
819.751404	209.300000
819.786438	215.700000
819.821533	206.500000
819.856628	210.900000
819.891663	212.200000
819.926758	219.400000
819.961853	216.000000
819.996887	208.600000
820.031982	212.900000
820.067017	210.300000
820.102112	243.000000
820.137207	210.400000
820.172302	221.200000
820.207275	208.500000
820.242371	207.500000
820.277405	208.500000
820.312500	210.600000
820.347534	212.000000
820.382568	215.700000
820.417664	209.100000
820.452759	207.700000
820.487732	208.100000
820.522827	208.400000
820.557861	206.500000
820.592896	209.900000
820.627930	209.900000
820.662964	206.500000
820.698059	211.800000
820.733093	209.000000
820.768127	211.600000
820.803162	208.900000
820.838196	207.800000
820.873230	208.900000
820.908264	210.700000
820.943298	207.500000
820.978333	213.200000
821.013367	209.600000
821.048401	214.200000
821.083435	213.300000
821.118469	205.400000
821.153503	214.400000
821.188477	211.200000
821.223511	206.500000
821.258484	209.900000
821.293579	209.800000
821.328613	204.700000
821.363647	209.000000
821.398621	205.300000
821.433655	208.200000
821.468628	219.900000
821.503662	208.900000
821.538696	210.700000
821.573669	206.200000
821.608704	211.900000
821.643677	209.500000
821.678650	211.600000
821.713684	214.800000
821.748718	210.100000
821.783691	208.300000
821.818726	207.900000
821.853638	209.900000
821.888672	208.200000
821.923706	208.300000
821.958618	206.600000
821.993652	207.600000
822.028687	213.200000
822.063599	215.500000
822.098633	210.500000
822.133667	204.800000
822.168579	207.700000
822.203613	210.100000
822.238586	204.700000
822.273560	210.700000
822.308533	206.200000
822.343567	204.900000
822.378479	206.500000
822.413452	206.300000
822.448425	204.100000
822.483398	210.900000
822.518372	211.700000
822.553345	205.800000
822.588318	215.000000
822.623291	207.200000
822.658203	205.200000
822.693237	207.100000
822.728210	203.800000
822.763123	207.700000
822.798096	204.900000
822.833069	207.600000
822.867981	206.500000
822.902954	209.400000
822.937927	209.800000
822.972900	215.100000
823.007874	202.600000
823.042725	211.600000
823.077698	216.900000
823.112671	203.600000
823.147583	206.300000
823.182556	208.900000
823.217529	211.100000
823.252441	205.600000
823.287415	215.900000
823.322388	210.600000
823.357239	206.500000
823.392212	214.500000
823.427185	212.500000
823.462097	204.200000
823.497009	207.800000
823.531982	204.200000
823.566895	208.100000
823.601807	202.600000
823.636719	205.000000
823.671631	209.900000
823.706604	204.400000
823.741455	207.200000
823.776428	200.000000
823.811340	209.500000
823.846252	212.300000
823.881165	211.700000
823.916138	207.900000
823.950989	213.000000
823.985901	203.700000
824.020813	207.600000
824.055725	204.300000
824.090637	201.800000
824.125610	208.600000
824.160461	209.800000
824.195374	207.700000
824.230225	211.200000
824.265198	201.100000
824.300110	204.900000
824.334961	214.200000
824.369873	200.400000
824.404785	209.700000
824.439636	211.600000
824.474548	201.100000
824.509460	198.600000
824.544312	211.600000
824.579224	207.900000
824.614075	208.600000
824.648987	205.500000
824.683899	205.400000
824.718811	203.700000
824.753662	210.800000
824.788574	210.200000
824.823364	207.300000
824.858276	202.900000
824.893188	210.000000
824.928040	209.300000
824.962952	207.500000
824.997803	209.400000
825.032654	206.300000
825.067566	207.400000
825.102417	203.600000
825.137268	204.000000
825.172119	204.800000
825.206970	202.600000
825.241882	205.200000
825.276733	201.700000
825.311646	202.200000
825.346436	200.300000
825.381348	200.300000
825.416138	205.000000
825.450989	201.700000
825.485901	197.100000
825.520691	198.300000
825.555542	198.500000
825.590454	202.700000
825.625244	197.900000
825.660095	208.400000
825.695007	206.300000
825.729797	203.200000
825.764648	199.800000
825.799438	202.500000
825.834290	204.700000
825.869202	196.200000
825.903992	203.100000
825.938843	201.200000
825.973694	198.200000
826.008484	210.400000
826.043335	200.000000
826.078186	195.100000
826.112976	205.400000
826.147827	205.200000
826.182678	208.800000
826.217468	195.500000
826.252319	206.900000
826.287109	197.200000
826.321899	204.300000
826.356750	198.800000
826.391541	196.800000
826.426392	203.900000
826.461182	199.600000
826.495972	196.000000
826.530823	191.300000
826.565613	199.500000
826.600403	195.400000
826.635254	201.200000
826.670044	193.600000
826.704834	192.100000
826.739685	193.900000
826.774475	200.500000
826.809265	197.900000
826.844055	196.700000
826.878906	201.700000
826.913635	198.700000
826.948425	199.900000
826.983215	199.400000
827.018005	201.300000
827.052856	196.100000
827.087585	201.000000
827.122375	192.000000
827.157227	197.400000
827.191956	208.300000
827.226746	192.200000
827.261536	199.100000
827.296265	191.600000
827.331116	196.000000
827.365906	198.200000
827.400635	193.600000
827.435425	189.100000
827.470215	201.900000
827.504944	195.900000
827.539734	202.000000
827.574463	194.300000
827.609253	202.700000
827.644043	196.100000
827.678772	199.100000
827.713562	194.300000
827.748352	195.300000
827.783081	193.500000
827.817871	197.100000
827.852600	192.200000
827.887329	196.100000
827.922119	188.600000
827.956848	198.200000
827.991638	207.100000
828.026367	197.200000
828.061157	196.500000
828.095886	196.300000
828.130615	209.100000
828.165344	187.500000
828.200073	195.100000
828.234863	194.400000
828.269592	195.300000
828.304321	198.100000
828.339111	196.800000
828.373779	192.900000
828.408569	199.100000
828.443298	200.500000
828.477966	193.600000
828.512756	195.700000
828.547424	192.200000
828.582214	194.200000
828.616943	194.600000
828.651672	194.600000
828.686340	199.300000
828.721130	192.800000
828.755798	195.900000
828.790527	195.000000
828.825256	196.600000
828.859924	196.400000
828.894714	200.400000
828.929443	202.500000
828.964111	193.300000
828.998840	197.900000
829.033569	193.000000
829.068237	195.200000
829.102966	193.800000
829.137634	196.400000
829.172363	196.500000
829.207092	195.800000
829.241821	191.700000
829.276489	189.400000
829.311157	196.900000
829.345825	193.800000
829.380554	197.600000
829.415283	193.600000
829.449951	190.300000
829.484619	202.600000
829.519348	201.700000
829.554016	195.600000
829.588745	195.900000
829.623413	190.000000
829.658081	205.100000
829.692749	191.200000
829.727417	199.300000
829.762146	197.300000
829.796814	194.200000
829.831482	193.400000
829.866150	197.000000
829.900879	193.100000
829.935486	196.700000
829.970154	194.500000
830.004883	206.600000
830.039490	196.300000
830.074219	192.100000
830.108887	196.700000
830.143494	194.600000
830.178223	191.400000
830.212891	193.800000
830.247498	194.800000
830.282166	202.500000
830.316772	201.500000
830.351501	192.700000
830.386169	194.800000
830.420776	193.900000
830.455444	195.900000
830.490112	192.300000
830.524719	189.000000
830.559387	196.900000
830.594055	197.100000
830.628662	195.600000
830.663330	195.200000
830.697998	201.600000
830.732605	193.700000
830.767273	196.900000
830.801941	195.700000
830.836487	204.000000
830.871155	196.300000
830.905762	197.500000
830.940430	190.000000
830.975098	192.600000
831.009644	195.800000
831.044312	202.800000
831.078979	199.100000
831.113525	189.800000
831.148193	196.500000
831.182861	194.600000
831.217407	198.800000
831.252075	207.300000
831.286621	194.000000
831.321289	191.500000
831.355896	195.400000
831.390564	201.600000
831.425110	197.000000
831.459778	201.700000
831.494324	206.100000
831.528931	197.000000
831.563599	200.300000
831.598145	190.300000
831.632751	194.800000
831.667419	195.200000
831.701965	196.800000
831.736572	196.500000
831.771179	190.800000
831.805786	193.500000
831.840393	199.600000
831.874939	188.800000
831.909546	199.100000
831.944153	188.900000
831.978760	195.600000
832.013306	191.500000
832.047913	200.700000
832.082458	201.400000
832.117065	193.300000
832.151672	202.600000
832.186218	196.700000
832.220825	197.800000
832.255432	189.000000
832.289978	192.200000
832.324585	196.000000
832.359192	197.900000
832.393677	194.000000
832.428284	195.800000
832.462830	193.100000
832.497437	194.800000
832.531982	197.700000
832.566589	194.100000
832.601135	196.800000
832.635681	189.000000
832.670227	195.100000
832.704773	201.500000
832.739380	196.000000
832.773926	197.400000
832.808472	193.300000
832.843079	195.300000
832.877563	197.600000
832.912170	194.500000
832.946716	188.900000
832.981201	199.500000
833.015808	197.800000
833.050293	195.600000
833.084839	192.900000
833.119446	193.400000
833.153992	199.500000
833.188477	194.900000
833.223022	192.500000
833.257568	197.500000
833.292114	199.600000
833.326660	206.000000
833.361145	193.500000
833.395691	189.600000
833.430237	195.700000
833.464783	198.700000
833.499329	192.200000
833.533875	191.800000
833.568359	199.100000
833.602905	200.800000
833.637390	199.500000
833.671875	192.900000
833.706421	193.900000
833.740906	193.100000
833.775452	188.600000
833.809998	193.300000
833.844482	201.800000
833.879028	194.800000
833.913513	195.000000
833.947998	196.800000
833.982544	191.100000
834.017090	193.100000
834.051514	188.800000
834.086060	197.800000
834.120544	195.900000
834.155029	197.200000
834.189575	194.600000
834.223999	197.500000
834.258545	196.900000
834.293030	196.100000
834.327515	195.200000
834.362000	192.800000
834.396545	197.500000
834.430969	194.200000
834.465454	198.600000
834.500000	187.700000
834.534424	197.200000
834.568970	188.000000
834.603455	188.100000
834.637878	192.800000
834.672363	195.400000
834.706909	195.500000
834.741333	195.200000
834.775818	190.100000
834.810242	192.200000
834.844727	195.100000
834.879211	194.400000
834.913635	197.300000
834.948181	196.000000
834.982666	195.700000
835.017090	193.800000
835.051575	197.300000
835.086060	193.400000
835.120483	197.600000
835.154907	196.800000
835.189331	194.900000
835.223816	198.100000
835.258301	190.700000
835.292786	193.000000
835.327209	198.600000
835.361694	191.700000
835.396057	194.300000
835.430542	199.500000
835.465027	196.900000
835.499390	192.800000
835.533875	219.800000
835.568359	192.900000
835.602722	190.000000
835.637207	197.000000
835.671692	190.800000
835.706055	211.500000
835.740540	196.900000
835.774902	196.500000
835.809387	195.500000
835.843811	191.000000
835.878235	200.700000
835.912659	191.100000
835.947083	193.400000
835.981506	195.400000
836.015930	190.200000
836.050354	199.000000
836.084778	200.800000
836.119202	200.100000
836.153625	209.000000
836.187988	190.900000
836.222473	192.900000
836.256897	196.700000
836.291260	194.300000
836.325684	198.500000
836.360046	194.400000
836.394470	194.300000
836.428894	200.800000
836.463318	192.700000
836.497681	199.200000
836.532104	201.000000
836.566467	195.700000
836.600891	195.000000
836.635315	200.100000
836.669678	197.200000
836.704102	199.800000
836.738525	198.200000
836.772888	189.500000
836.807251	192.800000
836.841675	198.500000
836.876038	191.200000
836.910461	192.600000
836.944763	198.200000
836.979187	193.100000
837.013611	199.900000
837.047974	190.700000
837.082336	204.200000
837.116699	198.100000
837.151062	195.500000
837.185486	191.300000
837.219849	193.600000
837.254211	199.600000
837.288574	194.800000
837.322937	190.700000
837.357300	186.500000
837.391663	205.400000
837.426086	198.900000
837.460388	195.700000
837.494751	199.000000
837.529114	193.100000
837.563477	201.900000
837.597839	196.000000
837.632141	195.600000
837.666565	192.700000
837.700928	200.300000
837.735229	196.500000
837.769592	197.900000
837.803955	199.800000
837.838257	195.000000
837.872620	193.100000
837.906982	201.200000
837.941284	195.900000
837.975647	196.100000
838.010010	202.300000
838.044312	193.400000
838.078674	194.100000
838.112976	195.300000
838.147339	199.600000
838.181702	195.900000
838.216003	203.700000
838.250366	196.900000
838.284668	198.100000
838.318970	190.100000
838.353333	194.100000
838.387634	194.900000
838.421936	195.500000
838.456299	197.200000
838.490601	201.200000
838.524902	199.400000
838.559265	199.800000
838.593567	198.200000
838.627869	190.800000
838.662170	196.900000
838.696472	190.500000
838.730774	193.300000
838.765137	197.500000
838.799377	184.600000
838.833740	196.300000
838.868042	200.200000
838.902283	189.600000
838.936646	201.300000
838.970947	196.000000
839.005188	200.100000
839.039551	190.100000
839.073792	201.500000
839.108093	194.100000
839.142395	203.500000
839.176697	191.600000
839.210937	196.600000
839.245300	203.400000
839.279541	190.800000
839.313843	194.100000
839.348145	198.700000
839.382385	199.200000
839.416687	199.700000
839.450989	198.300000
839.485229	194.100000
839.519531	192.700000
839.553833	199.800000
839.588013	195.100000
839.622314	197.500000
839.656555	198.200000
839.690857	194.600000
839.725159	190.800000
839.759460	193.800000
839.793640	192.400000
839.827942	195.200000
839.862183	191.900000
839.896423	196.700000
839.930725	206.600000
839.964966	202.800000
839.999207	200.200000
840.033508	201.000000
840.067688	192.800000
840.101990	201.800000
840.136230	194.400000
840.170471	201.500000
840.204712	191.300000
840.238953	192.900000
840.273193	197.300000
840.307434	199.700000
840.341736	192.500000
840.375916	191.100000
840.410217	193.400000
840.444397	200.300000
840.478638	198.400000
840.512878	200.900000
840.547119	196.600000
840.581360	198.300000
840.615601	204.000000
840.649780	205.300000
840.684021	195.600000
840.718262	202.900000
840.752441	202.700000
840.786682	196.500000
840.820862	196.400000
840.855103	202.100000
840.889343	195.800000
840.923584	199.900000
840.957764	197.300000
840.992004	197.900000
841.026184	207.100000
841.060425	195.600000
841.094666	194.200000
841.128845	199.000000
841.163025	197.400000
841.197266	198.600000
841.231445	197.000000
841.265686	197.800000
841.299866	192.900000
841.334045	202.000000
841.368286	195.100000
841.402405	201.800000
841.436646	197.400000
841.470825	192.900000
841.505005	194.800000
841.539185	192.100000
841.573425	193.300000
841.607544	196.000000
841.641785	195.100000
841.675964	192.000000
841.710144	196.700000
841.744324	193.900000
841.778503	196.100000
841.812683	193.900000
841.846863	202.400000
841.881042	202.000000
841.915222	192.500000
841.949402	208.000000
841.983521	189.200000
842.017700	194.700000
842.051880	197.100000
842.086060	198.600000
842.120239	196.800000
842.154419	194.700000
842.188538	197.000000
842.222717	193.400000
842.256897	203.000000
842.291016	196.700000
842.325195	198.500000
842.359375	204.700000
842.393494	203.000000
842.427673	197.400000
842.461853	198.600000
842.495911	204.400000
842.530090	198.100000
842.564209	195.400000
842.598389	198.900000
842.632568	196.200000
842.666626	198.200000
842.700806	193.100000
842.734985	194.200000
842.769043	198.700000
842.803223	195.900000
842.837402	195.100000
842.871460	193.000000
842.905640	204.600000
842.939697	192.700000
842.973877	197.000000
843.007996	200.600000
843.042175	205.700000
843.076233	193.600000
843.110413	198.200000
843.144470	202.600000
843.178589	199.100000
843.212769	194.600000
843.246826	199.800000
843.280945	194.000000
843.315125	196.300000
843.349182	192.200000
843.383301	201.200000
843.417419	206.600000
843.451538	194.900000
843.485657	194.600000
843.519714	196.100000
843.553833	197.400000
843.587952	193.200000
843.622070	193.800000
843.656128	199.200000
843.690247	194.100000
843.724304	195.900000
843.758423	198.100000
843.792542	195.100000
843.826599	197.300000
843.860718	194.600000
843.894836	191.100000
843.928894	197.500000
843.963013	198.200000
843.997070	192.200000
844.031128	191.800000
844.065247	200.900000
844.099304	200.300000
844.133362	198.200000
844.167480	198.800000
844.201599	200.900000
844.235596	197.200000
844.269714	199.000000
844.303711	196.900000
844.337830	190.600000
844.371948	197.800000
844.405945	196.600000
844.440063	191.700000
844.474121	206.900000
844.508118	194.400000
844.542236	196.500000
844.576294	194.600000
844.610352	192.600000
844.644409	195.100000
844.678406	189.900000
844.712524	200.800000
844.746582	202.700000
844.780640	195.800000
844.814636	196.600000
844.848755	207.400000
844.882751	193.900000
844.916809	199.600000
844.950867	197.800000
844.984863	203.600000
845.018921	194.900000
845.052979	193.100000
845.086975	196.700000
845.121033	191.500000
845.155090	193.100000
845.189087	201.900000
845.223145	194.700000
845.257141	197.800000
845.291199	199.000000
845.325256	202.000000
845.359253	197.900000
845.393250	209.000000
845.427307	196.100000
845.461304	197.200000
845.495361	196.500000
845.529358	203.800000
845.563354	194.600000
845.597412	194.500000
845.631409	203.500000
845.665405	202.200000
845.699463	198.900000
845.733459	194.300000
845.767456	205.300000
845.801453	194.700000
845.835449	200.500000
845.869446	200.200000
845.903503	200.500000
845.937439	193.600000
845.971497	202.300000
846.005493	192.200000
846.039429	200.500000
846.073486	205.900000
846.107483	194.500000
846.141418	195.900000
846.175476	197.900000
846.209473	202.800000
846.243408	194.000000
846.277405	199.400000
846.311401	194.100000
846.345337	196.900000
846.379395	201.600000
846.413330	193.600000
846.447327	204.800000
846.481323	193.300000
846.515259	194.800000
846.549255	196.100000
846.583252	198.800000
846.617187	193.300000
846.651184	197.500000
846.685120	195.200000
846.719055	203.800000
846.753052	198.800000
846.786987	200.800000
846.820984	192.100000
846.854980	202.000000
846.888916	193.100000
846.922852	199.400000
846.956848	201.300000
846.990723	194.500000
847.024719	198.500000
847.058716	196.700000
847.092590	202.200000
847.126587	198.800000
847.160522	194.900000
847.194458	200.600000
847.228455	193.900000
847.262390	192.900000
847.296265	195.100000
847.330261	201.000000
847.364136	195.600000
847.398132	195.800000
847.432068	197.900000
847.466003	195.800000
847.499939	196.500000
847.533875	199.200000
847.567749	196.500000
847.601746	196.600000
847.635681	199.000000
847.669556	190.700000
847.703491	201.800000
847.737427	208.200000
847.771301	192.200000
847.805237	199.600000
847.839233	198.200000
847.873108	196.400000
847.907043	195.700000
847.940918	201.700000
847.974854	197.600000
848.008789	200.000000
848.042664	197.900000
848.076538	199.100000
848.110474	197.200000
848.144348	197.900000
848.178284	190.500000
848.212219	199.200000
848.246094	194.800000
848.279968	198.300000
848.313904	199.700000
848.347778	197.200000
848.381653	195.400000
848.415588	193.900000
848.449463	194.800000
848.483337	197.500000
848.517212	201.900000
848.551086	197.200000
848.585022	193.400000
848.618835	206.600000
848.652771	194.800000
848.686646	192.400000
848.720520	204.100000
848.754395	196.600000
848.788330	200.300000
848.822144	201.500000
848.856018	197.000000
848.889954	205.200000
848.923767	193.200000
848.957642	194.500000
848.991577	198.900000
849.025391	196.600000
849.059265	195.600000
849.093079	195.000000
849.126953	193.800000
849.160828	200.200000
849.194641	197.800000
849.228577	197.300000
849.262451	194.600000
849.296265	195.500000
849.330139	194.300000
849.364014	197.500000
849.397827	197.300000
849.431702	196.800000
849.465515	200.400000
849.499329	189.500000
849.533203	193.100000
849.567078	189.700000
849.600891	197.800000
849.634766	196.400000
849.668518	199.800000
849.702393	196.900000
849.736267	192.100000
849.770020	206.700000
849.803894	200.300000
849.837769	197.500000
849.871521	198.000000
849.905396	200.700000
849.939270	193.800000
849.973022	196.600000
850.006897	199.600000
850.040710	199.700000
850.074524	200.400000
850.108337	196.200000
850.142151	202.000000
850.175964	202.000000
850.209778	197.000000
850.243530	189.500000
850.277405	200.900000
850.311218	196.900000
850.344971	192.900000
850.378845	204.000000
850.412659	196.300000
850.446411	199.600000
850.480225	196.800000
850.514038	201.200000
850.547791	200.400000
850.581665	197.100000
850.615417	194.000000
850.649231	198.200000
850.683044	194.900000
850.716858	195.900000
850.750610	197.800000
850.784424	199.600000
850.818176	193.400000
850.851929	195.200000
850.885742	194.500000
850.919495	196.700000
850.953308	203.000000
850.987122	203.400000
851.020874	192.700000
851.054626	193.600000
851.088440	199.900000
851.122192	200.700000
851.156006	198.100000
851.189697	197.000000
851.223511	193.300000
851.257263	200.300000
851.291077	199.700000
851.324829	196.200000
851.358582	196.500000
851.392334	196.000000
851.426086	195.400000
851.459900	204.200000
851.493591	198.300000
851.527344	196.700000
851.561157	197.000000
851.594849	198.800000
851.628662	197.800000
851.662415	204.300000
851.696106	199.000000
851.729858	201.600000
851.763611	192.800000
851.797363	197.900000
851.831116	193.800000
851.864868	199.500000
851.898560	200.900000
851.932312	194.600000
851.966064	197.500000
851.999817	197.000000
852.033569	196.000000
852.067261	200.800000
852.101013	195.000000
852.134766	195.600000
852.168457	188.800000
852.202209	200.900000
852.235901	193.500000
852.269592	199.700000
852.303345	204.100000
852.337036	199.200000
852.370789	196.700000
852.404541	200.200000
852.438171	193.500000
852.471924	197.500000
852.505676	192.700000
852.539307	199.400000
852.573059	194.600000
852.606812	197.000000
852.640442	196.600000
852.674194	201.900000
852.707886	206.900000
852.741577	202.100000
852.775269	194.000000
852.809021	197.600000
852.842651	199.900000
852.876404	203.200000
852.910034	197.800000
852.943787	201.300000
852.977478	199.700000
853.011108	195.000000
853.044861	193.000000
853.078552	202.600000
853.112183	198.900000
853.145874	199.300000
853.179626	189.700000
853.213257	198.300000
853.246948	194.300000
853.280640	205.100000
853.314270	197.100000
853.347961	201.800000
853.381653	198.600000
853.415283	201.500000
853.448975	193.700000
853.482605	198.800000
853.516296	197.200000
853.549988	193.200000
853.583618	199.500000
853.617310	200.100000
853.651001	197.600000
853.684631	194.500000
853.718323	195.000000
853.751953	202.400000
853.785583	191.800000
853.819275	200.700000
853.852966	199.600000
853.886536	189.800000
853.920227	194.300000
853.953918	200.600000
853.987488	196.400000
854.021179	200.400000
854.054749	203.800000
854.088440	199.100000
854.122131	193.500000
854.155701	198.100000
854.189331	195.400000
854.223022	199.800000
854.256592	199.000000
854.290283	194.400000
854.323914	198.900000
854.357483	197.700000
854.391174	199.300000
854.424744	204.000000
854.458374	199.100000
854.492065	207.800000
854.525696	197.100000
854.559265	202.000000
854.592896	207.100000
854.626465	196.600000
854.660095	195.600000
854.693787	199.900000
854.727356	195.800000
854.760986	199.100000
854.794617	198.500000
854.828186	195.700000
854.861816	198.300000
854.895447	198.200000
854.929016	197.700000
854.962585	199.300000
854.996155	205.400000
855.029785	198.600000
855.063416	199.500000
855.097046	201.600000
855.130615	193.300000
855.164185	201.800000
855.197754	196.400000
855.231384	199.700000
855.264954	195.700000
855.298523	201.000000
855.332153	199.700000
855.365723	203.300000
855.399292	194.200000
855.432922	196.000000
855.466492	199.700000
855.500061	195.300000
855.533630	193.500000
855.567200	199.200000
855.600769	200.800000
855.634338	201.900000
855.667969	198.300000
855.701477	194.100000
855.735046	194.100000
855.768616	190.100000
855.802185	197.300000
855.835754	209.700000
855.869324	190.400000
855.902893	197.500000
855.936401	203.000000
855.969971	198.800000
856.003540	191.900000
856.037109	199.500000
856.070618	197.200000
856.104187	193.400000
856.137695	195.700000
856.171265	189.200000
856.204834	197.600000
856.238403	200.100000
856.271912	194.800000
856.305481	198.600000
856.338989	192.700000
856.372559	200.500000
856.406128	199.700000
856.439636	200.100000
856.473145	194.700000
856.506653	203.900000
856.540222	197.000000
856.573792	202.600000
856.607300	200.400000
856.640808	193.700000
856.674377	199.900000
856.707825	230.200000
856.741394	202.300000
856.774902	193.200000
856.808472	192.100000
856.841980	201.200000
856.875488	204.400000
856.908936	192.800000
856.942505	197.300000
856.976013	195.300000
857.009521	194.800000
857.043030	197.200000
857.076477	195.800000
857.110046	204.300000
857.143555	197.500000
857.177063	201.000000
857.210571	196.500000
857.244080	193.800000
857.277527	200.400000
857.311035	194.900000
857.344543	202.100000
857.378052	195.300000
857.411499	203.100000
857.445068	204.300000
857.478516	196.000000
857.512024	192.000000
857.545532	195.200000
857.578979	198.500000
857.612427	198.100000
857.645874	195.000000
857.679382	197.600000
857.712891	200.800000
857.746399	196.700000
857.779846	201.600000
857.813354	200.400000
857.846741	198.300000
857.880249	193.600000
857.913757	198.800000
857.947266	198.000000
857.980652	200.100000
858.014160	196.200000
858.047546	196.100000
858.081055	197.200000
858.114563	207.500000
858.147949	192.700000
858.181458	200.000000
858.214844	196.200000
858.248352	190.700000
858.281799	199.900000
858.315308	207.100000
858.348694	200.300000
858.382141	204.000000
858.415588	200.400000
858.449036	199.300000
858.482483	199.300000
858.515930	194.600000
858.549377	197.700000
858.582825	202.400000
858.616211	198.500000
858.649658	198.500000
858.683105	193.600000
858.716553	194.900000
858.750000	192.900000
858.783386	195.300000
858.816833	193.100000
858.850281	198.100000
858.883728	198.100000
858.917114	199.700000
858.950562	204.500000
858.983948	203.700000
859.017395	201.400000
859.050781	196.100000
859.084167	194.800000
859.117615	192.800000
859.151062	201.200000
859.184448	195.000000
859.217834	196.400000
859.251282	194.700000
859.284668	192.000000
859.318054	190.400000
859.351440	195.800000
859.384888	204.600000
859.418274	192.100000
859.451721	191.900000
859.485046	199.000000
859.518494	198.900000
859.551819	194.800000
859.585266	199.000000
859.618652	201.500000
859.652039	194.500000
859.685425	193.100000
859.718811	193.200000
859.752197	188.300000
859.785583	200.300000
859.819031	204.000000
859.852356	198.600000
859.885742	194.200000
859.919067	197.400000
859.952454	196.100000
859.985901	200.900000
860.019287	194.300000
860.052612	0.000000
860.085999	0.000000
860.119324	0.000000
860.152710	0.000000
860.186096	0.000000
860.219421	0.000000
860.252808	0.000000
860.286133	0.000000
860.319519	0.000000
860.352905	0.000000
860.386292	0.000000
860.419617	0.000000
860.452942	0.000000
860.486267	0.000000
860.519653	0.000000
860.553040	0.000000
860.586365	0.000000
860.619690	0.000000
860.653076	0.000000
860.686340	0.000000
860.719727	0.000000
860.753113	0.000000
860.786377	0.000000
860.819763	0.000000
860.853027	0.000000
860.886414	0.000000
860.919739	0.000000
860.953125	0.000000
860.986389	0.000000
861.019714	0.000000
861.053040	0.000000
861.086365	0.000000
861.119690	0.000000
861.153076	0.000000
861.186340	0.000000
861.219666	0.000000
861.252930	0.000000
861.286316	0.000000
861.319641	0.000000
861.352905	0.000000
861.386230	0.000000
861.419495	0.000000
861.452820	0.000000
861.486145	0.000000
861.519470	0.000000
861.552734	0.000000
861.586060	0.000000
861.619324	0.000000
861.652649	0.000000
861.685974	0.000000
861.719238	0.000000
861.752563	0.000000
861.785828	0.000000
861.819092	0.000000
861.852417	0.000000
861.885742	0.000000
861.918945	0.000000
861.952271	0.000000
861.985535	0.000000
862.018799	0.000000
862.052124	0.000000
862.085449	0.000000
862.118652	0.000000
862.151978	0.000000
862.185181	0.000000
862.218506	0.000000
862.251770	0.000000
862.285034	0.000000
862.318298	0.000000
862.351562	0.000000
862.384827	0.000000
862.418091	0.000000
862.451355	0.000000
862.484619	0.000000
862.517883	0.000000
862.551086	0.000000
862.584351	0.000000
862.617676	0.000000
862.650940	0.000000
862.684143	0.000000
862.717407	0.000000
862.750610	0.000000
862.783875	0.000000
862.817139	0.000000
862.850342	0.000000
862.883606	0.000000
862.916870	0.000000
862.950073	0.000000
862.983337	0.000000
863.016602	0.000000
863.049805	0.000000
863.083069	0.000000
863.116211	0.000000
863.149475	0.000000
863.182739	0.000000
863.216003	0.000000
863.249146	0.000000
863.282410	0.000000
863.315613	0.000000
863.348816	0.000000
863.382080	0.000000
863.415222	0.000000
863.448486	0.000000
863.481689	0.000000
863.514893	0.000000
863.548157	0.000000
863.581360	0.000000
863.614502	0.000000
863.647766	0.000000
863.680908	0.000000
863.714172	0.000000
863.747375	0.000000
863.780579	0.000000
863.813721	0.000000
863.846985	0.000000
863.880127	0.000000
863.913330	0.000000
863.946533	0.000000
863.979675	0.000000
864.012939	0.000000
