Model Number: SPM-001-M   
Serial Number: 10090201
Firmware Version: 004.17.6
Exposure Time: 300000.000000us
Data Taken on: 11-02-2021 11:18:58.306
Wavelength	Amplitude
733.770752	0.000000
733.808716	0.000000
733.846619	0.000000
733.884583	0.000000
733.922546	0.000000
733.960449	0.000000
733.998413	0.000000
734.036377	0.000000
734.074219	0.000000
734.112183	0.000000
734.150085	0.000000
734.188049	0.000000
734.226013	0.000000
734.263916	0.000000
734.301819	0.000000
734.339783	0.000000
734.377686	0.000000
734.415588	0.000000
734.453552	0.000000
734.491455	0.000000
734.529419	0.000000
734.567322	0.000000
734.605225	0.000000
734.643127	0.000000
734.681091	0.000000
734.718994	0.000000
734.756897	0.000000
734.794800	0.000000
734.832703	0.000000
734.870667	0.000000
734.908508	0.000000
734.946472	0.000000
734.984375	0.000000
735.022278	0.000000
735.060181	0.000000
735.098083	0.000000
735.135986	0.000000
735.173889	0.000000
735.211792	0.000000
735.249695	0.000000
735.287598	0.000000
735.325439	0.000000
735.363403	0.000000
735.401306	0.000000
735.439148	0.000000
735.477051	0.000000
735.515015	0.000000
735.552856	0.000000
735.590759	0.000000
735.628662	0.000000
735.666504	0.000000
735.704407	0.000000
735.742310	0.000000
735.780212	0.000000
735.818115	0.000000
735.856018	0.000000
735.893860	0.000000
735.931763	0.000000
735.969604	0.000000
736.007507	0.000000
736.045410	0.000000
736.083252	0.000000
736.121094	0.000000
736.158997	0.000000
736.196838	0.000000
736.234741	0.000000
736.272644	0.000000
736.310486	0.000000
736.348389	0.000000
736.386230	0.000000
736.424072	0.000000
736.461975	0.000000
736.499878	0.000000
736.537720	0.000000
736.575562	0.000000
736.613403	0.000000
736.651306	0.000000
736.689148	0.000000
736.726990	0.000000
736.764893	0.000000
736.802734	0.000000
736.840576	0.000000
736.878418	0.000000
736.916321	0.000000
736.954102	0.000000
736.992004	0.000000
737.029846	0.000000
737.067688	0.000000
737.105530	0.000000
737.143372	0.000000
737.181213	0.000000
737.219116	0.000000
737.256897	0.000000
737.294739	0.000000
737.332642	0.000000
737.370422	0.000000
737.408325	0.000000
737.446167	0.000000
737.483948	0.000000
737.521790	0.000000
737.559692	0.000000
737.597473	0.000000
737.635315	0.000000
737.673157	0.000000
737.710999	0.000000
737.748840	0.000000
737.786621	0.000000
737.824463	0.000000
737.862305	0.000000
737.900085	0.000000
737.937927	0.000000
737.975769	0.000000
738.013550	0.000000
738.051392	0.000000
738.089233	0.000000
738.127014	0.000000
738.164856	0.000000
738.202698	0.000000
738.240479	0.000000
738.278320	0.000000
738.316162	0.000000
738.353943	0.000000
738.391785	0.000000
738.429565	0.000000
738.467407	0.000000
738.505188	0.000000
738.542969	0.000000
738.580811	0.000000
738.618652	0.000000
738.656372	0.000000
738.694214	0.000000
738.732056	0.000000
738.769836	0.000000
738.807617	0.000000
738.845459	0.000000
738.883240	0.000000
738.921021	0.000000
738.958862	0.000000
738.996582	0.000000
739.034424	0.000000
739.072205	0.000000
739.109985	0.000000
739.147827	0.000000
739.185547	0.000000
739.223389	0.000000
739.261169	0.000000
739.298889	0.000000
739.336731	0.000000
739.374512	0.000000
739.412292	0.000000
739.450073	0.000000
739.487854	0.000000
739.525635	0.000000
739.563416	0.000000
739.601135	0.000000
739.638977	0.000000
739.676758	0.000000
739.714478	0.000000
739.752258	0.000000
739.790100	0.000000
739.827820	0.000000
739.865601	0.000000
739.903381	0.000000
739.941101	0.000000
739.978882	197.900000
740.016724	192.800000
740.054443	198.300000
740.092224	191.800000
740.130005	192.400000
740.167725	191.200000
740.205505	194.000000
740.243225	200.200000
740.281006	195.400000
740.318787	189.800000
740.356506	201.000000
740.394287	197.600000
740.432068	192.700000
740.469727	188.800000
740.507507	197.500000
740.545288	194.800000
740.583008	196.700000
740.620789	192.800000
740.658569	189.700000
740.696228	194.000000
740.734009	198.300000
740.771790	185.300000
740.809509	198.400000
740.847229	190.300000
740.884949	192.900000
740.922729	188.700000
740.960449	192.600000
740.998169	191.100000
741.035950	191.800000
741.073669	194.600000
741.111389	194.100000
741.149170	202.200000
741.186890	202.700000
741.224609	197.400000
741.262329	195.400000
741.300110	200.400000
741.337769	191.200000
741.375549	191.200000
741.413208	195.600000
741.450989	192.000000
741.488708	193.300000
741.526367	191.700000
741.564148	197.200000
741.601868	197.700000
741.639526	194.300000
741.677307	198.100000
741.715027	196.700000
741.752686	190.700000
741.790466	200.100000
741.828186	197.100000
741.865845	190.800000
741.903564	190.300000
741.941345	193.400000
741.979004	192.300000
742.016724	198.300000
742.054382	194.600000
742.092102	196.200000
742.129822	190.400000
742.167480	193.300000
742.205200	193.400000
742.242920	196.500000
742.280640	197.700000
742.318359	191.100000
742.356079	194.400000
742.393738	196.900000
742.431396	192.800000
742.469116	198.400000
742.506775	188.100000
742.544495	194.800000
742.582214	198.600000
742.619873	194.200000
742.657593	201.200000
742.695251	197.900000
742.732971	194.400000
742.770630	195.400000
742.808289	196.200000
742.846008	193.700000
742.883728	195.900000
742.921326	195.100000
742.959045	193.200000
742.996765	193.600000
743.034424	194.700000
743.072083	192.600000
743.109802	193.600000
743.147400	190.000000
743.185120	194.700000
743.222839	195.500000
743.260437	198.800000
743.298157	195.500000
743.335754	187.900000
743.373474	194.900000
743.411133	189.300000
743.448792	194.000000
743.486450	193.700000
743.524170	188.800000
743.561768	192.800000
743.599487	201.100000
743.637146	202.100000
743.674744	193.500000
743.712463	192.200000
743.750122	194.500000
743.787720	194.000000
743.825439	192.700000
743.863037	191.400000
743.900696	193.700000
743.938416	219.300000
743.976013	193.700000
744.013672	200.200000
744.051331	198.000000
744.088928	200.400000
744.126587	198.200000
744.164307	196.600000
744.201904	192.300000
744.239563	195.600000
744.277222	198.600000
744.314819	194.500000
744.352478	200.200000
744.390137	198.000000
744.427734	196.400000
744.465393	193.500000
744.502991	191.500000
744.540649	197.100000
744.578308	194.400000
744.615906	191.800000
744.653564	186.700000
744.691223	196.900000
744.728821	190.100000
744.766418	194.300000
744.804077	195.600000
744.841675	194.300000
744.879333	190.400000
744.916992	194.500000
744.954529	192.700000
744.992187	198.900000
745.029785	192.600000
745.067444	192.200000
745.105042	193.600000
745.142639	195.800000
745.180298	200.300000
745.217896	193.500000
745.255493	191.600000
745.293152	197.900000
745.330750	198.000000
745.368347	200.600000
745.405945	197.600000
745.443604	194.200000
745.481140	198.000000
745.518799	194.400000
745.556396	198.000000
745.593994	197.200000
745.631592	194.800000
745.669189	189.400000
745.706787	195.400000
745.744385	191.600000
745.781982	197.800000
745.819580	191.600000
745.857178	194.300000
745.894775	195.200000
745.932373	194.700000
745.969971	195.600000
746.007568	189.500000
746.045166	199.600000
746.082764	201.400000
746.120300	197.500000
746.157898	197.600000
746.195557	194.100000
746.233093	191.600000
746.270691	197.900000
746.308228	196.900000
746.345825	198.000000
746.383423	196.000000
746.420959	191.100000
746.458557	194.600000
746.496155	191.200000
746.533691	195.300000
746.571289	190.800000
746.608887	195.600000
746.646423	195.000000
746.684021	195.100000
746.721619	191.400000
746.759155	197.200000
746.796753	188.700000
746.834351	189.300000
746.871826	193.000000
746.909424	200.400000
746.946960	194.300000
746.984558	193.500000
747.022156	191.900000
747.059631	201.900000
747.097229	195.900000
747.134827	192.200000
747.172363	198.900000
747.209900	198.400000
747.247498	191.700000
747.285034	199.500000
747.322571	200.500000
747.360168	193.700000
747.397644	188.800000
747.435242	197.500000
747.472778	199.100000
747.510315	193.500000
747.547913	194.900000
747.585388	199.000000
747.622925	193.200000
747.660522	189.100000
747.697998	194.300000
747.735596	192.900000
747.773132	194.300000
747.810669	195.000000
747.848206	196.800000
747.885742	190.600000
747.923279	191.400000
747.960815	195.500000
747.998352	197.200000
748.035889	197.400000
748.073425	197.200000
748.110901	190.800000
748.148437	191.300000
748.185974	193.600000
748.223511	202.100000
748.261047	196.000000
748.298584	194.400000
748.336060	193.300000
748.373596	195.800000
748.411133	218.400000
748.448608	193.600000
748.486145	197.000000
748.523682	198.400000
748.561218	201.100000
748.598755	197.100000
748.636292	196.000000
748.673706	191.900000
748.711243	199.800000
748.748718	195.100000
748.786255	194.800000
748.823792	194.600000
748.861267	191.500000
748.898804	196.500000
748.936340	197.200000
748.973816	193.100000
749.011292	199.800000
749.048828	194.800000
749.086304	197.300000
749.123840	202.200000
749.161316	193.400000
749.198792	201.400000
749.236328	200.600000
749.273743	194.500000
749.311279	195.600000
749.348816	197.900000
749.386230	197.000000
749.423767	185.400000
749.461304	198.400000
749.498718	194.800000
749.536255	200.300000
749.573730	203.000000
749.611206	201.300000
749.648682	194.300000
749.686218	196.800000
749.723633	195.900000
749.761169	194.400000
749.798645	190.700000
749.836060	193.600000
749.873596	190.300000
749.911011	196.700000
749.948547	198.100000
749.986023	194.400000
750.023437	193.400000
750.060913	190.600000
750.098450	189.600000
750.135864	195.300000
750.173340	194.600000
750.210815	199.600000
750.248291	191.500000
750.285767	194.200000
750.323242	199.200000
750.360657	196.700000
750.398132	192.400000
750.435608	197.200000
750.473022	193.000000
750.510498	191.300000
750.547974	191.200000
750.585449	194.900000
750.622925	187.200000
750.660339	204.700000
750.697815	196.500000
750.735291	194.600000
750.772644	198.900000
750.810120	196.600000
750.847595	196.800000
750.885010	190.200000
750.922485	201.000000
750.959961	194.000000
750.997375	200.400000
751.034851	197.600000
751.072266	199.100000
751.109680	189.100000
751.147156	200.400000
751.184570	195.700000
751.221985	194.700000
751.259460	188.100000
751.296875	195.600000
751.334290	193.500000
751.371765	199.300000
751.409180	198.400000
751.446594	200.200000
751.484070	195.900000
751.521423	196.100000
751.558899	194.000000
751.596375	203.100000
751.633728	199.600000
751.671204	203.900000
751.708618	191.900000
751.746033	196.000000
751.783447	189.600000
751.820801	192.400000
751.858276	197.700000
751.895691	195.700000
751.933105	194.300000
751.970520	190.200000
752.007935	194.200000
752.045349	198.900000
752.082764	196.500000
752.120178	191.600000
752.157532	194.500000
752.195007	192.800000
752.232422	196.700000
752.269775	197.900000
752.307190	198.600000
752.344543	190.300000
752.382019	195.200000
752.419434	193.000000
752.456787	198.900000
752.494202	198.100000
752.531616	196.500000
752.568970	195.900000
752.606384	197.200000
752.643799	195.200000
752.681152	201.500000
752.718567	196.400000
752.755981	190.200000
752.793335	196.400000
752.830750	189.600000
752.868164	197.900000
752.905518	191.700000
752.942932	197.500000
752.980225	191.100000
753.017639	195.700000
753.055054	193.600000
753.092407	196.800000
753.129822	199.200000
753.167175	202.200000
753.204529	194.300000
753.241943	192.400000
753.279358	191.900000
753.316650	196.700000
753.354065	196.900000
753.391479	198.100000
753.428772	200.700000
753.466187	197.100000
753.503479	191.900000
753.540894	195.300000
753.578308	189.400000
753.615601	191.100000
753.653015	194.100000
753.690369	193.400000
753.727722	192.400000
753.765076	189.700000
753.802490	188.700000
753.839783	189.300000
753.877136	194.100000
753.914551	205.100000
753.951843	192.000000
753.989258	200.000000
754.026611	195.100000
754.063904	198.200000
754.101257	191.200000
754.138611	189.500000
754.175964	194.500000
754.213318	203.900000
754.250610	188.500000
754.288025	194.200000
754.325378	190.200000
754.362671	198.100000
754.400024	194.200000
754.437378	203.600000
754.474670	200.300000
754.512085	192.400000
754.549438	196.200000
754.586731	192.100000
754.624084	194.700000
754.661438	191.600000
754.698730	201.500000
754.736084	194.500000
754.773376	194.000000
754.810730	195.200000
754.848083	195.300000
754.885315	199.100000
754.922668	189.000000
754.960022	192.300000
754.997314	200.200000
755.034668	196.000000
755.072021	198.500000
755.109253	194.300000
755.146606	200.900000
755.183960	194.100000
755.221252	202.300000
755.258545	198.300000
755.295898	201.400000
755.333191	199.600000
755.370544	197.100000
755.407776	196.000000
755.445129	197.100000
755.482422	197.400000
755.519714	194.900000
755.557068	191.200000
755.594360	189.000000
755.631653	198.600000
755.668945	202.500000
755.706299	195.200000
755.743530	206.100000
755.780884	201.800000
755.818176	200.500000
755.855408	198.800000
755.892761	198.300000
755.930054	196.600000
755.967346	198.200000
756.004639	198.100000
756.041870	197.200000
756.079224	200.600000
756.116516	194.300000
756.153748	198.800000
756.191040	205.300000
756.228394	197.800000
756.265625	194.000000
756.302917	198.700000
756.340210	195.700000
756.377441	200.600000
756.414795	202.200000
756.452087	198.600000
756.489319	191.200000
756.526611	201.400000
756.563843	198.500000
756.601135	206.100000
756.638428	205.700000
756.675659	196.900000
756.712952	198.800000
756.750244	202.100000
756.787476	199.000000
756.824768	204.200000
756.862061	196.800000
756.899292	246.300000
756.936584	200.100000
756.973816	206.500000
757.011047	207.100000
757.048340	199.600000
757.085632	198.500000
757.122864	213.200000
757.160156	196.600000
757.197327	199.900000
757.234619	201.600000
757.271912	197.200000
757.309082	203.400000
757.346375	197.000000
757.383667	202.600000
757.420837	200.300000
757.458130	199.800000
757.495422	197.800000
757.532593	202.400000
757.569885	194.300000
757.607117	196.600000
757.644348	200.700000
757.681580	209.600000
757.718811	191.000000
757.756042	199.600000
757.793335	198.200000
757.830505	201.500000
757.867798	198.200000
757.905029	198.400000
757.942200	200.500000
757.979492	199.000000
758.016724	199.800000
758.053894	198.700000
758.091187	214.000000
758.128418	201.900000
758.165588	199.100000
758.202820	209.400000
758.240112	198.400000
758.277283	211.400000
758.314514	202.600000
758.351685	199.900000
758.388916	207.300000
758.426147	207.700000
758.463379	207.200000
758.500610	203.300000
758.537842	200.600000
758.575012	209.000000
758.612244	197.700000
758.649475	212.600000
758.686646	197.800000
758.723877	207.800000
758.761108	208.000000
758.798279	202.800000
758.835510	203.600000
758.872742	208.600000
758.909851	205.200000
758.947083	206.200000
758.984253	204.700000
759.021484	207.900000
759.058716	206.200000
759.095886	207.900000
759.133057	204.100000
759.170288	207.800000
759.207458	203.600000
759.244690	212.700000
759.281860	211.600000
759.319031	206.300000
759.356262	204.300000
759.393433	204.600000
759.430603	204.900000
759.467773	205.000000
759.505005	210.100000
759.542175	211.000000
759.579346	206.800000
759.616516	206.800000
759.653687	211.500000
759.690918	204.400000
759.728027	207.500000
759.765259	209.500000
759.802429	211.600000
759.839539	208.500000
759.876770	214.000000
759.913940	215.200000
759.951111	209.200000
759.988281	207.900000
760.025452	207.600000
760.062561	203.800000
760.099792	216.400000
760.136963	210.400000
760.174072	207.400000
760.211243	203.700000
760.248413	206.400000
760.285583	205.700000
760.322754	218.000000
760.359863	213.700000
760.397034	216.000000
760.434204	207.000000
760.471375	210.700000
760.508545	207.900000
760.545715	210.600000
760.582825	205.800000
760.619995	213.900000
760.657166	206.500000
760.694275	216.400000
760.731445	211.500000
760.768555	213.700000
760.805664	215.700000
760.842834	213.100000
760.879944	215.200000
760.917114	213.500000
760.954285	210.500000
760.991394	207.800000
761.028564	216.800000
761.065674	214.100000
761.102783	211.100000
761.139954	215.400000
761.177124	215.700000
761.214172	218.300000
761.251343	213.000000
761.288452	213.100000
761.325562	217.600000
761.362732	209.800000
761.399841	214.800000
761.436951	216.000000
761.474121	211.500000
761.511169	213.000000
761.548340	218.800000
761.585449	215.100000
761.622559	218.700000
761.659668	216.100000
761.696838	221.000000
761.733887	216.500000
761.771057	214.500000
761.808167	218.700000
761.845276	219.800000
761.882385	226.600000
761.919434	216.300000
761.956604	231.200000
761.993713	214.200000
762.030762	220.500000
762.067871	216.000000
762.105042	217.700000
762.142090	223.800000
762.179199	218.300000
762.216309	222.200000
762.253418	230.300000
762.290527	225.700000
762.327637	224.400000
762.364685	215.300000
762.401794	222.300000
762.438904	221.700000
762.475952	218.200000
762.513062	217.300000
762.550110	218.800000
762.587219	230.100000
762.624329	227.800000
762.661377	221.000000
762.698486	223.100000
762.735596	220.300000
762.772644	218.100000
762.809753	215.500000
762.846863	221.600000
762.883911	227.600000
762.921021	225.500000
762.958069	221.900000
762.995117	229.800000
763.032227	228.400000
763.069336	220.400000
763.106323	216.000000
763.143433	218.100000
763.180481	223.400000
763.217590	226.200000
763.254639	223.500000
763.291687	225.400000
763.328735	230.000000
763.365845	224.600000
763.402893	222.200000
763.439941	225.600000
763.477051	227.900000
763.514038	227.300000
763.551147	222.700000
763.588196	225.800000
763.625244	225.000000
763.662292	232.500000
763.699402	235.100000
763.736389	230.900000
763.773499	237.900000
763.810486	231.000000
763.847534	227.800000
763.884644	229.400000
763.921631	227.600000
763.958679	235.200000
763.995728	229.400000
764.032776	234.900000
764.069824	228.100000
764.106873	234.900000
764.143860	240.500000
764.180969	230.000000
764.218018	236.300000
764.255005	229.100000
764.292053	232.000000
764.329102	238.400000
764.366089	240.500000
764.403137	236.700000
764.440125	232.800000
764.477173	234.700000
764.514221	238.700000
764.551208	236.600000
764.588257	233.200000
764.625305	240.900000
764.662292	244.300000
764.699341	246.300000
764.736389	239.200000
764.773376	250.600000
764.810425	241.400000
764.847473	244.600000
764.884399	242.900000
764.921448	247.400000
764.958435	247.700000
764.995483	241.400000
765.032532	254.600000
765.069458	245.700000
765.106506	246.400000
765.143555	243.200000
765.180481	248.600000
765.217529	254.100000
765.254578	242.400000
765.291504	250.000000
765.328552	246.300000
765.365540	245.700000
765.402527	256.200000
765.439575	248.500000
765.476501	244.700000
765.513550	245.900000
765.550537	247.100000
765.587463	256.300000
765.624512	247.200000
765.661499	244.800000
765.698486	255.000000
765.735474	247.800000
765.772461	251.000000
765.809448	259.300000
765.846436	254.600000
765.883423	257.800000
765.920410	252.400000
765.957397	250.300000
765.994385	254.200000
766.031311	263.100000
766.068359	256.500000
766.105286	258.600000
766.142273	261.800000
766.179260	258.100000
766.216187	252.600000
766.253174	250.800000
766.290161	256.100000
766.327148	260.200000
766.364136	259.200000
766.401123	268.400000
766.438049	253.800000
766.475037	267.500000
766.512024	261.800000
766.548950	276.500000
766.585937	268.400000
766.622864	267.300000
766.659790	265.300000
766.696777	258.000000
766.733704	270.300000
766.770691	263.700000
766.807678	271.900000
766.844604	265.500000
766.881531	268.100000
766.918518	271.100000
766.955444	271.800000
766.992432	264.900000
767.029358	269.500000
767.066284	270.900000
767.103271	269.800000
767.140198	302.000000
767.177124	283.800000
767.214050	271.900000
767.251038	273.800000
767.287964	269.500000
767.324890	270.000000
767.361816	273.600000
767.398743	277.800000
767.435730	271.300000
767.472595	276.800000
767.509583	279.000000
767.546509	271.800000
767.583374	274.200000
767.620361	270.700000
767.657288	273.900000
767.694214	275.000000
767.731140	273.600000
767.768066	275.600000
767.804993	278.900000
767.841919	272.600000
767.878845	276.200000
767.915710	282.000000
767.952698	275.000000
767.989563	279.500000
768.026489	279.400000
768.063416	276.100000
768.100281	275.800000
768.137207	283.700000
768.174133	281.600000
768.211060	281.400000
768.247986	280.500000
768.284912	281.900000
768.321777	282.000000
768.358704	275.200000
768.395630	280.600000
768.432495	275.200000
768.469421	282.300000
768.506348	287.200000
768.543152	290.700000
768.580078	285.200000
768.616943	286.600000
768.653870	289.000000
768.690796	290.000000
768.727661	285.800000
768.764587	288.600000
768.801453	284.000000
768.838318	291.600000
768.875244	287.400000
768.912109	297.900000
768.948975	287.700000
768.985901	291.800000
769.022766	288.700000
769.059631	292.100000
769.096558	287.500000
769.133362	289.700000
769.170288	290.100000
769.207214	292.200000
769.244019	297.700000
769.280945	295.700000
769.317810	299.200000
769.354675	296.000000
769.391541	303.300000
769.428406	302.400000
769.465271	306.800000
769.502136	301.200000
769.539062	304.100000
769.575867	300.300000
769.612732	305.000000
769.649597	309.500000
769.686462	310.900000
769.723328	303.600000
769.760193	303.400000
769.797058	304.600000
769.833923	314.600000
769.870728	311.000000
769.907593	312.300000
769.944519	311.900000
769.981323	313.000000
770.018188	312.900000
770.055054	312.100000
770.091858	312.000000
770.128723	319.300000
770.165588	323.700000
770.202393	313.000000
770.239258	321.300000
770.276062	321.400000
770.312927	321.500000
770.349792	327.700000
770.386597	325.700000
770.423462	330.800000
770.460327	336.000000
770.497131	326.300000
770.533997	323.400000
770.570862	334.300000
770.607605	334.000000
770.644470	331.700000
770.681335	332.400000
770.718140	332.500000
770.754944	327.200000
770.791809	328.900000
770.828613	329.300000
770.865479	335.000000
770.902222	341.500000
770.939087	336.400000
770.975952	331.300000
771.012695	335.900000
771.049561	346.000000
771.086365	339.300000
771.123169	337.200000
771.159973	338.300000
771.196838	342.000000
771.233582	343.300000
771.270447	344.100000
771.307251	343.000000
771.344055	341.800000
771.380859	343.400000
771.417664	343.000000
771.454468	348.900000
771.491272	346.100000
771.528076	349.900000
771.564880	347.900000
771.601685	354.400000
771.638428	347.400000
771.675293	355.900000
771.712097	346.000000
771.748840	359.900000
771.785645	354.800000
771.822449	353.900000
771.859253	356.900000
771.896057	354.900000
771.932861	364.100000
771.969604	357.900000
772.006409	354.700000
772.043213	360.600000
772.079956	355.600000
772.116760	353.200000
772.153503	356.900000
772.190308	368.700000
772.227112	360.600000
772.263855	352.900000
772.300659	357.600000
772.337463	362.700000
772.374207	357.300000
772.411011	355.200000
772.447754	363.500000
772.484497	374.900000
772.521301	362.800000
772.558105	361.600000
772.594849	363.500000
772.631592	369.900000
772.668396	368.800000
772.705139	376.300000
772.741882	370.800000
772.778625	377.600000
772.815430	378.800000
772.852173	380.100000
772.888916	386.600000
772.925720	387.100000
772.962463	388.100000
772.999207	378.100000
773.035950	381.700000
773.072754	386.000000
773.109436	382.500000
773.146240	387.600000
773.182922	383.400000
773.219727	386.700000
773.256470	383.100000
773.293152	379.100000
773.329956	383.600000
773.366699	391.900000
773.403381	385.900000
773.440186	389.200000
773.476929	387.100000
773.513611	385.800000
773.550354	385.300000
773.587158	386.800000
773.623840	385.200000
773.660583	390.900000
773.697327	395.600000
773.734009	387.900000
773.770813	385.900000
773.807495	387.900000
773.844238	392.400000
773.880981	400.700000
773.917664	393.200000
773.954407	399.000000
773.991150	394.600000
774.027832	402.500000
774.064575	397.700000
774.101318	400.500000
774.138000	398.200000
774.174744	393.700000
774.211487	398.900000
774.248108	392.800000
774.284851	399.700000
774.321594	402.000000
774.358276	402.400000
774.395020	409.400000
774.431702	406.000000
774.468384	400.700000
774.505127	401.600000
774.541809	409.000000
774.578491	413.000000
774.615234	406.800000
774.651917	402.400000
774.688599	408.200000
774.725342	420.600000
774.762024	420.000000
774.798706	419.100000
774.835449	415.300000
774.872070	418.200000
774.908813	415.200000
774.945496	415.900000
774.982178	422.800000
775.018860	422.800000
775.055542	416.200000
775.092224	417.100000
775.128967	423.800000
775.165588	426.800000
775.202271	422.900000
775.239014	431.100000
775.275635	425.300000
775.312317	424.200000
775.349060	426.300000
775.385681	431.400000
775.422363	429.100000
775.459045	435.600000
775.495667	436.200000
775.532410	431.600000
775.569092	430.300000
775.605713	433.300000
775.642395	433.400000
775.679016	440.000000
775.715698	442.400000
775.752380	439.100000
775.789001	431.400000
775.825684	434.800000
775.862366	444.300000
775.898987	459.200000
775.935669	450.000000
775.972351	459.300000
776.008972	455.400000
776.045654	451.300000
776.082336	449.600000
776.118958	458.600000
776.155640	459.500000
776.192322	459.500000
776.228882	458.200000
776.265564	455.000000
776.302185	455.000000
776.338867	464.100000
776.375488	460.300000
776.412109	466.600000
776.448792	465.400000
776.485413	467.100000
776.522034	461.500000
776.558716	466.400000
776.595337	471.900000
776.631958	473.900000
776.668579	471.400000
776.705261	473.600000
776.741882	468.000000
776.778503	472.100000
776.815186	476.000000
776.851746	481.700000
776.888367	477.900000
776.924988	487.500000
776.961609	477.000000
776.998291	476.500000
777.034851	475.400000
777.071472	484.700000
777.108154	478.800000
777.144714	487.800000
777.181335	484.500000
777.218018	480.000000
777.254578	491.600000
777.291199	490.600000
777.327759	495.200000
777.364380	499.900000
777.401062	507.000000
777.437622	512.500000
777.474243	502.000000
777.510864	509.700000
777.547424	504.100000
777.584045	509.600000
777.620667	506.500000
777.657227	510.600000
777.693848	505.700000
777.730469	520.300000
777.767029	509.200000
777.803650	513.700000
777.840271	509.600000
777.876831	505.400000
777.913452	506.800000
777.950012	499.600000
777.986633	502.800000
778.023193	498.900000
778.059753	502.300000
778.096375	506.300000
778.132996	518.500000
778.169556	507.800000
778.206116	512.400000
778.242737	512.300000
778.279297	513.500000
778.315857	509.900000
778.352478	514.300000
778.389038	521.600000
778.425598	526.000000
778.462219	535.000000
778.498718	529.400000
778.535339	534.500000
778.571838	537.900000
778.608459	534.000000
778.645020	523.400000
778.681580	529.600000
778.718140	529.700000
778.754761	529.800000
778.791260	537.800000
778.827881	539.000000
778.864441	534.500000
778.900940	545.000000
778.937561	537.100000
778.974121	530.000000
779.010620	531.100000
779.047241	535.500000
779.083801	539.700000
779.120300	535.800000
779.156860	539.400000
779.193359	536.900000
779.229980	544.900000
779.266541	550.000000
779.303040	547.700000
779.339600	537.600000
779.376160	534.800000
779.412659	538.700000
779.449219	542.400000
779.485779	541.400000
779.522278	541.200000
779.558838	544.800000
779.595398	546.200000
779.631897	540.000000
779.668457	534.500000
779.705017	541.300000
779.741516	542.000000
779.778076	534.500000
779.814575	532.400000
779.851074	534.900000
779.887634	531.800000
779.924133	544.400000
779.960693	541.100000
779.997253	550.500000
780.033691	546.800000
780.070251	543.900000
780.106812	553.600000
780.143250	550.100000
780.179810	552.300000
780.216370	552.300000
780.252808	552.700000
780.289368	560.100000
780.325867	552.200000
780.362366	556.800000
780.398865	570.100000
780.435364	566.300000
780.471863	569.400000
780.508423	559.200000
780.544861	555.900000
780.581421	557.600000
780.617920	548.200000
780.654419	552.600000
780.690918	559.800000
780.727417	565.500000
780.763916	558.400000
780.800415	562.200000
780.836914	550.900000
780.873352	563.800000
780.909912	557.500000
780.946411	565.000000
780.982849	569.300000
781.019348	573.400000
781.055786	568.500000
781.092346	569.800000
781.128845	581.900000
781.165283	585.100000
781.201782	590.400000
781.238281	583.300000
781.274719	581.500000
781.311218	575.300000
781.347717	588.500000
781.384155	582.600000
781.420654	586.500000
781.457092	593.600000
781.493591	593.900000
781.530090	584.900000
781.566528	588.200000
781.602966	588.100000
781.639465	588.800000
781.675903	587.400000
781.712402	593.200000
781.748901	590.800000
781.785278	588.500000
781.821777	594.000000
781.858276	594.900000
781.894714	609.500000
781.931152	598.700000
781.967651	606.000000
782.004089	599.200000
782.040527	600.900000
782.076965	605.100000
782.113403	598.800000
782.149902	604.100000
782.186340	603.100000
782.222778	616.900000
782.259277	609.000000
782.295654	613.000000
782.332092	618.400000
782.368591	612.700000
782.404968	611.100000
782.441467	614.700000
782.477905	620.400000
782.514282	625.000000
782.550781	629.300000
782.587219	630.200000
782.623596	630.400000
782.660095	630.500000
782.696472	637.800000
782.732910	647.000000
782.769348	646.500000
782.805786	657.200000
782.842224	653.300000
782.878662	651.400000
782.915039	648.100000
782.951477	661.600000
782.987915	652.600000
783.024292	649.900000
783.060730	650.800000
783.097168	643.800000
783.133545	639.800000
783.169983	636.000000
783.206421	633.900000
783.242798	633.900000
783.279236	623.600000
783.315613	619.800000
783.352051	613.800000
783.388489	615.700000
783.424866	610.900000
783.461304	620.900000
783.497681	631.600000
783.534058	629.100000
783.570496	623.200000
783.606934	622.400000
783.643250	632.200000
783.679687	645.600000
783.716125	642.800000
783.752441	642.300000
783.788879	653.100000
783.825317	660.800000
783.861633	666.500000
783.898071	671.000000
783.934448	679.000000
783.970825	676.100000
784.007263	678.000000
784.043579	682.800000
784.080017	681.000000
784.116394	666.300000
784.152710	662.000000
784.189148	653.100000
784.225525	641.400000
784.261902	632.900000
784.298279	631.200000
784.334656	629.300000
784.371033	615.800000
784.407410	614.500000
784.443787	598.300000
784.480164	602.700000
784.516541	606.000000
784.552856	616.300000
784.589233	614.400000
784.625610	620.500000
784.661987	641.600000
784.698364	636.100000
784.734741	634.300000
784.771057	641.600000
784.807434	653.700000
784.843811	663.700000
784.880127	659.700000
784.916504	671.900000
784.952881	672.600000
784.989197	677.600000
785.025574	680.500000
785.061951	688.600000
785.098267	700.100000
785.134644	683.800000
785.170959	675.600000
785.207275	691.600000
785.243652	697.500000
785.279968	686.500000
785.316345	685.600000
785.352722	675.600000
785.388977	657.800000
785.425354	644.900000
785.461731	647.100000
785.498047	650.500000
785.534363	650.800000
785.570679	646.900000
785.606995	634.400000
785.643372	633.200000
785.679687	637.400000
785.716003	645.600000
785.752380	651.300000
785.788635	649.100000
785.825012	651.900000
785.861328	652.600000
785.897644	650.000000
785.933960	666.900000
785.970337	675.400000
786.006592	691.200000
786.042908	694.700000
786.079285	692.600000
786.115540	696.900000
786.151855	704.900000
786.188171	706.300000
786.224487	710.300000
786.260803	709.700000
786.297119	710.800000
786.333435	696.200000
786.369751	686.900000
786.406006	687.000000
786.442322	682.200000
786.478638	685.000000
786.514954	688.300000
786.551270	671.300000
786.587585	670.100000
786.623840	661.500000
786.660156	661.200000
786.696472	660.300000
786.732727	658.200000
786.769043	664.800000
786.805298	651.600000
786.841614	656.100000
786.877930	666.700000
786.914124	661.500000
786.950439	676.800000
786.986755	682.500000
787.023010	690.600000
787.059326	690.800000
787.095642	694.700000
787.131836	706.000000
787.168152	699.000000
787.204468	718.500000
787.240723	726.400000
787.276978	721.300000
787.313293	721.800000
787.349548	717.300000
787.385803	714.000000
787.422058	717.200000
787.458313	716.500000
787.494629	708.700000
787.530823	707.100000
787.567139	694.700000
787.603455	692.800000
787.639648	684.800000
787.675903	693.300000
787.712219	689.000000
787.748413	685.600000
787.784729	690.900000
787.820984	682.200000
787.857178	678.700000
787.893494	682.300000
787.929749	681.100000
787.965942	694.100000
788.002258	696.000000
788.038452	698.500000
788.074707	692.200000
788.110962	700.100000
788.147217	702.200000
788.183472	713.800000
788.219727	716.700000
788.255920	721.400000
788.292175	722.000000
788.328430	719.200000
788.364624	719.600000
788.400879	727.200000
788.437134	730.100000
788.473328	721.200000
788.509583	719.400000
788.545837	715.700000
788.582031	719.800000
788.618286	733.600000
788.654480	733.000000
788.690735	730.900000
788.726990	748.400000
788.763184	742.600000
788.799377	753.200000
788.835632	744.800000
788.871826	751.100000
788.908081	748.700000
788.944336	740.000000
788.980469	742.500000
789.016724	730.200000
789.052979	728.300000
789.089111	717.300000
789.125366	729.900000
789.161621	715.700000
789.197754	727.700000
789.234009	722.200000
789.270142	712.000000
789.306396	711.600000
789.342590	714.900000
789.378784	708.300000
789.414978	706.200000
789.451233	712.500000
789.487366	716.000000
789.523621	718.000000
789.559814	711.400000
789.595947	717.700000
789.632202	732.600000
789.668335	740.300000
789.704529	748.300000
789.740784	758.000000
789.776917	751.600000
789.813110	745.500000
789.849304	759.100000
789.885498	761.100000
789.921692	769.600000
789.957886	763.600000
789.994019	760.900000
790.030212	763.100000
790.066406	763.600000
790.102539	770.000000
790.138733	774.000000
790.174927	768.600000
790.211060	766.400000
790.247253	755.800000
790.283386	748.400000
790.319580	750.100000
790.355774	747.000000
790.391907	753.900000
790.428101	768.400000
790.464294	757.200000
790.500427	756.400000
790.536621	737.800000
790.572754	737.200000
790.608887	739.800000
790.645081	751.000000
790.681274	752.500000
790.717346	732.000000
790.753540	724.100000
790.789734	715.700000
790.825867	710.200000
790.862000	720.400000
790.898132	738.300000
790.934265	732.400000
790.970459	721.300000
791.006592	725.600000
791.042725	731.800000
791.078918	733.400000
791.114990	742.600000
791.151184	740.800000
791.187317	738.000000
791.223389	735.400000
791.259583	726.900000
791.295715	736.800000
791.331848	741.600000
791.367981	750.900000
791.404114	745.400000
791.440247	735.400000
791.476379	736.800000
791.512451	723.800000
791.548584	734.500000
791.584778	733.600000
791.620850	745.000000
791.656982	737.900000
791.693115	727.700000
791.729187	729.900000
791.765381	735.600000
791.801514	740.500000
791.837585	743.000000
791.873718	744.100000
791.909851	734.600000
791.945923	736.000000
791.982056	711.500000
792.018188	721.700000
792.054260	730.800000
792.090393	734.800000
792.126465	723.700000
792.162598	719.100000
792.198669	707.500000
792.234741	706.500000
792.270874	710.000000
792.307007	710.700000
792.343079	711.300000
792.379150	699.200000
792.415283	692.100000
792.451355	697.000000
792.487488	681.900000
792.523560	697.800000
792.559631	706.100000
792.595764	689.300000
792.631836	672.200000
792.667908	666.600000
792.703979	677.000000
792.740051	737.000000
792.776184	807.600000
792.812256	861.000000
792.848328	876.200000
792.884399	878.900000
792.920471	871.600000
792.956543	876.100000
792.992615	882.000000
793.028748	887.700000
793.064758	889.600000
793.100830	904.200000
793.136963	912.600000
793.172974	907.800000
793.209045	896.900000
793.245178	910.600000
793.281189	910.900000
793.317261	919.300000
793.353271	915.600000
793.389404	921.700000
793.425476	907.800000
793.461487	903.300000
793.497559	900.600000
793.533630	911.600000
793.569641	900.800000
793.605713	904.100000
793.641785	899.500000
793.677795	902.500000
793.713867	890.500000
793.749878	912.000000
793.785950	927.900000
793.822021	929.500000
793.858032	912.600000
793.894104	913.800000
793.930176	897.300000
793.966187	897.800000
794.002258	896.400000
794.038269	913.600000
794.074280	916.600000
794.110352	927.900000
794.146423	897.900000
794.182373	887.500000
794.218445	879.300000
794.254517	888.300000
794.290466	882.600000
794.326538	884.500000
794.362549	881.900000
794.398560	884.900000
794.434631	886.900000
794.470581	873.800000
794.506653	874.400000
794.542664	886.600000
794.578674	881.200000
794.614685	871.000000
794.650757	870.100000
794.686707	868.500000
794.722778	866.700000
794.758789	878.200000
794.794739	896.400000
794.830811	917.200000
794.866821	920.600000
794.902771	909.500000
794.938843	902.800000
794.974792	904.000000
795.010803	917.400000
795.046814	920.500000
795.082825	903.200000
795.118835	911.800000
795.154846	888.900000
795.190796	890.800000
795.226807	884.300000
795.262817	895.600000
795.298767	899.000000
795.334778	895.000000
795.370850	879.600000
795.406799	871.400000
795.442810	862.500000
795.478821	872.600000
795.514709	878.300000
795.550720	900.200000
795.586670	877.400000
795.622681	877.800000
795.658691	882.200000
795.694641	888.800000
795.730652	875.900000
795.766663	892.800000
795.802551	896.200000
795.838562	898.400000
795.874573	877.500000
795.910522	887.500000
795.946472	882.300000
795.982483	893.800000
796.018433	902.300000
796.054382	906.900000
796.090393	898.300000
796.126282	884.600000
796.162292	874.400000
796.198242	878.300000
796.234192	887.900000
796.270203	893.800000
796.306091	888.200000
796.342041	892.100000
796.378052	874.300000
796.413940	884.700000
796.449951	893.600000
796.485901	904.100000
796.521790	910.200000
796.557800	907.600000
796.593689	889.300000
796.629639	881.300000
796.665649	884.300000
796.701599	896.100000
796.737488	894.800000
796.773437	899.200000
796.809387	893.800000
796.845337	887.900000
796.881287	872.800000
796.917175	875.200000
796.953125	890.900000
796.989075	901.800000
797.024963	891.800000
797.060913	879.800000
797.096863	871.300000
797.132751	878.500000
797.168701	875.600000
797.204590	891.000000
797.240540	887.400000
797.276489	880.900000
797.312439	875.400000
797.348328	858.700000
797.384277	848.200000
797.420166	858.300000
797.456055	864.600000
797.492004	860.800000
797.527893	868.400000
797.563843	857.500000
797.599731	842.700000
797.635620	834.800000
797.671570	857.000000
797.707520	870.700000
797.743347	866.100000
797.779297	849.700000
797.815125	830.900000
797.851074	825.100000
797.887024	830.000000
797.922913	839.400000
797.958801	845.100000
797.994690	839.500000
798.030579	837.100000
798.066467	832.100000
798.102356	827.600000
798.138245	832.100000
798.174133	825.100000
798.210083	834.500000
798.245911	842.800000
798.281799	834.000000
798.317749	813.400000
798.353577	811.200000
798.389465	818.200000
798.425293	822.400000
798.461243	827.300000
798.497131	819.900000
798.532959	806.600000
798.568848	807.900000
798.604736	791.500000
798.640564	784.000000
798.676453	799.100000
798.712402	805.100000
798.748230	798.400000
798.784119	797.500000
798.820007	797.900000
798.855835	798.600000
798.891724	793.200000
798.927551	783.000000
798.963379	792.500000
798.999268	791.500000
799.035095	778.100000
799.070984	775.400000
799.106873	777.200000
799.142700	785.800000
799.178528	777.700000
799.214417	781.500000
799.250244	786.100000
799.286133	777.900000
799.321960	773.300000
799.357788	766.400000
799.393677	768.800000
799.429504	776.000000
799.465332	770.400000
799.501221	776.500000
799.537048	775.500000
799.572876	778.900000
799.608704	777.700000
799.644531	788.800000
799.680359	779.600000
799.716248	781.400000
799.752014	782.200000
799.787903	779.100000
799.823730	774.400000
799.859558	766.500000
799.895386	769.700000
799.931213	770.900000
799.967041	764.700000
800.002869	757.300000
800.038696	768.900000
800.074463	763.700000
800.110352	769.900000
800.146179	757.800000
800.181946	764.900000
800.217773	763.100000
800.253540	757.400000
800.289429	758.700000
800.325256	761.900000
800.361023	756.500000
800.396851	759.500000
800.432678	750.700000
800.468445	747.700000
800.504272	743.100000
800.540100	738.700000
800.575867	736.000000
800.611694	741.100000
800.647461	731.600000
800.683289	730.900000
800.719116	732.400000
800.754883	731.200000
800.790649	723.900000
800.826477	729.600000
800.862244	745.400000
800.898071	726.600000
800.933838	724.000000
800.969604	724.000000
801.005432	716.100000
801.041199	715.500000
801.076965	712.200000
801.112793	710.400000
801.148560	710.200000
801.184326	709.600000
801.220154	698.100000
801.255859	691.400000
801.291687	696.000000
801.327454	697.300000
801.363281	691.100000
801.398987	689.300000
801.434814	691.600000
801.470520	694.800000
801.506287	689.800000
801.542114	682.400000
801.577820	687.600000
801.613647	689.500000
801.649414	679.000000
801.685120	678.200000
801.720886	678.600000
801.756714	676.400000
801.792419	676.200000
801.828186	669.700000
801.863892	673.200000
801.899719	660.100000
801.935486	662.600000
801.971252	673.400000
802.006958	666.100000
802.042725	663.700000
802.078430	662.500000
802.114197	658.400000
802.149963	676.000000
802.185669	659.900000
802.221436	659.700000
802.257202	666.300000
802.292908	660.800000
802.328674	670.200000
802.364441	672.600000
802.400146	666.500000
802.435913	668.700000
802.471558	661.000000
802.507324	664.000000
802.543091	656.800000
802.578796	665.400000
802.614502	661.900000
802.650269	662.300000
802.685974	650.400000
802.721741	662.200000
802.757446	665.100000
802.793152	667.600000
802.828918	671.400000
802.864624	663.200000
802.900330	655.200000
802.936035	652.500000
802.971802	655.600000
803.007446	652.800000
803.043213	650.100000
803.078857	659.400000
803.114624	639.200000
803.150330	639.100000
803.185974	631.200000
803.221741	636.300000
803.257446	653.400000
803.293152	649.700000
803.328857	632.400000
803.364563	627.200000
803.400208	620.400000
803.435974	627.600000
803.471680	619.000000
803.507324	617.600000
803.543030	626.900000
803.578735	623.500000
803.614441	619.400000
803.650146	627.800000
803.685791	618.200000
803.721497	618.900000
803.757202	610.000000
803.792847	617.500000
803.828552	615.000000
803.864258	610.000000
803.899902	601.600000
803.935608	591.700000
803.971313	600.700000
804.006958	603.400000
804.042664	597.900000
804.078308	602.400000
804.113953	591.000000
804.149658	594.100000
804.185364	586.500000
804.221008	598.600000
804.256714	587.500000
804.292297	586.600000
804.328003	575.500000
804.363708	575.000000
804.399292	577.800000
804.434998	582.900000
804.470703	575.500000
804.506287	581.500000
804.541992	573.300000
804.577637	578.600000
804.613281	565.000000
804.648926	565.300000
804.684570	569.000000
804.720215	562.000000
804.755920	563.200000
804.791565	564.000000
804.827209	563.300000
804.862854	558.300000
804.898437	555.300000
804.934143	565.500000
804.969788	560.500000
805.005371	561.600000
805.041077	552.900000
805.076721	545.700000
805.112305	544.000000
805.147949	552.700000
805.183655	547.800000
805.219238	553.100000
805.254883	548.500000
805.290466	553.500000
805.326111	544.200000
805.361755	533.500000
805.397400	536.300000
805.432983	546.000000
805.468628	543.900000
805.504211	543.100000
805.539856	541.000000
805.575500	542.600000
805.611084	540.100000
805.646729	534.700000
805.682373	534.200000
805.717957	541.900000
805.753601	540.800000
805.789246	527.400000
805.824768	537.300000
805.860413	535.300000
805.895996	529.800000
805.931641	530.200000
805.967224	535.200000
806.002869	530.900000
806.038452	532.900000
806.074036	532.400000
806.109619	516.400000
806.145264	516.700000
806.180847	516.200000
806.216431	516.400000
806.252014	519.500000
806.287659	517.000000
806.323181	525.200000
806.358826	518.500000
806.394409	499.000000
806.429993	505.400000
806.465576	515.100000
806.501160	500.300000
806.536743	491.400000
806.572327	496.600000
806.607910	493.700000
806.643494	497.900000
806.679077	495.100000
806.714661	496.700000
806.750244	494.900000
806.785828	485.300000
806.821350	490.100000
806.856934	493.200000
806.892517	487.200000
806.928101	480.000000
806.963684	478.500000
806.999268	487.600000
807.034790	471.200000
807.070374	477.900000
807.105896	473.700000
807.141479	466.500000
807.177063	472.200000
807.212585	467.600000
807.248169	469.000000
807.283752	473.800000
807.319275	466.000000
807.354858	470.500000
807.390381	465.100000
807.425903	460.400000
807.461487	453.500000
807.497070	449.400000
807.532593	452.200000
807.568115	452.600000
807.603699	448.300000
807.639221	446.500000
807.674744	450.000000
807.710266	451.100000
807.745850	446.900000
807.781372	443.600000
807.816895	438.700000
807.852417	442.800000
807.888000	439.900000
807.923523	437.000000
807.959045	439.600000
807.994629	433.600000
808.030090	429.000000
808.065613	433.700000
808.101135	440.700000
808.136658	437.400000
808.172241	433.300000
808.207764	433.500000
808.243225	426.900000
808.278809	430.100000
808.314270	433.300000
808.349792	423.900000
808.385315	419.200000
808.420837	424.000000
808.456360	429.100000
808.491882	428.200000
808.527344	420.600000
808.562866	430.800000
808.598389	423.600000
808.633850	425.300000
808.669434	418.100000
808.704895	422.300000
808.740417	429.300000
808.775940	420.500000
808.811462	416.800000
808.846924	413.400000
808.882385	410.300000
808.917847	409.400000
808.953369	411.000000
808.988892	405.300000
809.024353	413.200000
809.059875	412.200000
809.095398	409.900000
809.130798	401.000000
809.166321	404.000000
809.201843	400.900000
809.237305	404.300000
809.272766	405.800000
809.308228	397.300000
809.343750	396.400000
809.379211	398.300000
809.414734	394.500000
809.450134	402.500000
809.485657	391.900000
809.521118	395.500000
809.556580	389.800000
809.592102	391.900000
809.627502	389.700000
809.663025	387.200000
809.698486	381.600000
809.733887	380.400000
809.769409	385.000000
809.804871	375.600000
809.840271	376.400000
809.875793	376.800000
809.911194	380.000000
809.946655	370.500000
809.982178	370.100000
810.017639	374.700000
810.053040	373.000000
810.088501	371.400000
810.123901	372.500000
810.159424	366.700000
810.194885	361.900000
810.230286	364.100000
810.265747	357.700000
810.301208	359.400000
810.336609	362.900000
810.372070	354.600000
810.407532	356.500000
810.442932	355.000000
810.478394	359.800000
810.513794	354.100000
810.549255	353.900000
810.584717	350.000000
810.620117	345.100000
810.655518	348.400000
810.690979	349.000000
810.726379	344.400000
810.761841	337.700000
810.797302	338.100000
810.832642	337.000000
810.868103	345.900000
810.903564	335.200000
810.938904	339.900000
810.974365	330.900000
811.009827	332.200000
811.045166	330.600000
811.080627	326.500000
811.115967	330.400000
811.151428	333.700000
811.186829	329.900000
811.222229	328.700000
811.257629	323.600000
811.293091	327.700000
811.328430	334.600000
811.363892	327.800000
811.399292	328.700000
811.434631	320.700000
811.470093	326.800000
811.505493	318.400000
811.540833	318.700000
811.576294	323.600000
811.611694	321.400000
811.647034	315.700000
811.682434	315.500000
811.717773	317.100000
811.753235	321.400000
811.788635	313.600000
811.823975	313.700000
811.859375	321.200000
811.894775	306.600000
811.930115	309.000000
811.965515	307.800000
812.000916	310.800000
812.036255	305.300000
812.071655	310.700000
812.106995	301.100000
812.142395	302.700000
812.177795	308.800000
812.213196	304.000000
812.248474	303.200000
812.283875	296.900000
812.319214	296.600000
812.354614	301.300000
812.390015	294.400000
812.425293	295.700000
812.460693	296.500000
812.496094	291.900000
812.531433	288.400000
812.566772	289.900000
812.602173	290.200000
812.637451	291.900000
812.672852	284.500000
812.708191	287.200000
812.743530	282.800000
812.778931	277.700000
812.814270	282.300000
812.849609	286.300000
812.884949	282.700000
812.920227	275.900000
812.955627	290.100000
812.990967	278.500000
813.026306	276.800000
813.061646	268.800000
813.096985	268.200000
813.132324	265.600000
813.167664	267.900000
813.203003	272.800000
813.238281	263.400000
813.273682	263.400000
813.308960	262.000000
813.344299	262.700000
813.379639	267.100000
813.414978	260.600000
813.450256	260.500000
813.485596	263.800000
813.520874	257.800000
813.556213	260.000000
813.591614	263.500000
813.626831	256.200000
813.662170	260.400000
813.697510	264.600000
813.732788	253.700000
813.768127	255.900000
813.803467	258.300000
813.838745	252.300000
813.874084	257.400000
813.909363	253.300000
813.944641	255.400000
813.979980	246.500000
814.015320	251.600000
814.050598	250.000000
814.085876	253.600000
814.121155	249.400000
814.156494	248.600000
814.191772	248.300000
814.227051	244.900000
814.262390	247.000000
814.297668	247.400000
814.332947	247.500000
814.368225	244.700000
814.403564	245.200000
814.438782	241.200000
814.474121	243.800000
814.509338	242.100000
814.544617	246.100000
814.579956	238.600000
814.615173	250.200000
814.650513	244.800000
814.685791	239.600000
814.721008	240.500000
814.756348	241.100000
814.791626	237.000000
814.826843	236.800000
814.862122	236.000000
814.897400	236.900000
814.932678	236.100000
814.967957	236.200000
815.003235	236.900000
815.038452	231.300000
815.073730	228.700000
815.108948	239.500000
815.144226	236.100000
815.179504	239.300000
815.214722	227.600000
815.250000	227.500000
815.285278	231.800000
815.320496	229.300000
815.355774	230.000000
815.391052	233.500000
815.426270	228.800000
815.461487	228.900000
815.496765	225.400000
815.531982	224.800000
815.567261	228.700000
815.602539	233.900000
815.637695	230.200000
815.672974	230.500000
815.708191	231.500000
815.743408	233.600000
815.778687	225.900000
815.813904	234.000000
815.849121	222.000000
815.884399	222.800000
815.919556	222.900000
815.954834	224.200000
815.990051	228.700000
816.025269	230.000000
816.060486	224.500000
816.095703	221.400000
816.130920	225.800000
816.166199	221.300000
816.201416	226.600000
816.236572	228.300000
816.271851	225.000000
816.307007	228.500000
816.342224	219.800000
816.377441	221.500000
816.412659	217.400000
816.447876	223.100000
816.483093	221.700000
816.518250	220.500000
816.553467	221.200000
816.588745	224.200000
816.623901	217.900000
816.659119	213.400000
816.694275	219.400000
816.729492	217.000000
816.764709	248.500000
816.799927	214.100000
816.835083	218.400000
816.870300	212.500000
816.905457	217.500000
816.940674	219.400000
816.975830	216.100000
817.010986	215.700000
817.046204	216.500000
817.081421	213.300000
817.116577	215.100000
817.151733	221.400000
817.186951	220.000000
817.222107	217.800000
817.257324	220.000000
817.292419	219.400000
817.327637	213.500000
817.362854	216.300000
817.398010	211.400000
817.433167	217.300000
817.468323	214.900000
817.503479	215.100000
817.538635	223.400000
817.573853	218.300000
817.608948	214.800000
817.644165	214.900000
817.679321	211.400000
817.714478	212.500000
817.749634	216.100000
817.784790	224.200000
817.819946	219.900000
817.855103	207.600000
817.890198	213.600000
817.925415	208.700000
817.960571	216.100000
817.995667	215.700000
818.030823	215.200000
818.066040	210.600000
818.101135	214.600000
818.136292	214.800000
818.171448	208.300000
818.206543	212.800000
818.241699	215.500000
818.276855	215.800000
818.311951	212.800000
818.347107	210.600000
818.382263	216.700000
818.417358	220.300000
818.452515	220.400000
818.487610	221.500000
818.522766	211.800000
818.557922	220.800000
818.593018	215.800000
818.628113	215.600000
818.663269	212.900000
818.698364	215.900000
818.733521	214.400000
818.768677	215.500000
818.803711	211.400000
818.838867	212.000000
818.874023	213.700000
818.909058	210.700000
818.944214	211.200000
818.979370	214.700000
819.014404	214.300000
819.049561	210.700000
819.084595	216.300000
819.119751	207.500000
819.154846	216.000000
819.189941	211.100000
819.225037	209.600000
819.260193	203.900000
819.295227	208.300000
819.330322	205.700000
819.365479	206.600000
819.400513	239.300000
819.435608	205.700000
819.470764	203.000000
819.505798	207.200000
819.540894	208.100000
819.575989	207.200000
819.611084	211.800000
819.646179	215.600000
819.681213	209.600000
819.716309	207.500000
819.751404	207.100000
819.786438	213.400000
819.821533	205.300000
819.856628	210.300000
819.891663	212.400000
819.926758	220.400000
819.961853	216.200000
819.996887	207.100000
820.031982	211.400000
820.067017	208.800000
820.102112	243.000000
820.137207	207.000000
820.172302	221.400000
820.207275	206.700000
820.242371	206.200000
820.277405	206.400000
820.312500	210.000000
820.347534	210.600000
820.382568	213.800000
820.417664	206.300000
820.452759	207.800000
820.487732	205.500000
820.522827	209.700000
820.557861	203.700000
820.592896	208.400000
820.627930	207.800000
820.662964	206.600000
820.698059	210.200000
820.733093	206.700000
820.768127	210.700000
820.803162	209.600000
820.838196	205.700000
820.873230	209.100000
820.908264	209.100000
820.943298	206.900000
820.978333	210.900000
821.013367	209.200000
821.048401	210.400000
821.083435	211.800000
821.118469	203.200000
821.153503	210.600000
821.188477	209.400000
821.223511	202.800000
821.258484	207.300000
821.293579	208.900000
821.328613	203.200000
821.363647	207.400000
821.398621	203.400000
821.433655	206.200000
821.468628	218.800000
821.503662	207.500000
821.538696	209.900000
821.573669	203.900000
821.608704	211.700000
821.643677	207.900000
821.678650	210.800000
821.713684	212.800000
821.748718	208.500000
821.783691	207.500000
821.818726	207.600000
821.853638	210.300000
821.888672	208.700000
821.923706	205.100000
821.958618	206.000000
821.993652	203.600000
822.028687	210.900000
822.063599	212.900000
822.098633	209.800000
822.133667	204.000000
822.168579	208.200000
822.203613	208.000000
822.238586	204.600000
822.273560	208.500000
822.308533	205.100000
822.343567	203.700000
822.378479	207.600000
822.413452	204.400000
822.448425	203.300000
822.483398	210.700000
822.518372	209.900000
822.553345	203.700000
822.588318	212.800000
822.623291	204.500000
822.658203	203.300000
822.693237	206.100000
822.728210	204.600000
822.763123	207.000000
822.798096	203.600000
822.833069	206.900000
822.867981	205.600000
822.902954	209.000000
822.937927	208.200000
822.972900	213.100000
823.007874	201.800000
823.042725	210.000000
823.077698	215.400000
823.112671	203.600000
823.147583	205.600000
823.182556	208.500000
823.217529	209.600000
823.252441	205.600000
823.287415	213.700000
823.322388	209.800000
823.357239	206.200000
823.392212	211.300000
823.427185	209.900000
823.462097	203.200000
823.497009	205.700000
823.531982	204.800000
823.566895	204.700000
823.601807	202.100000
823.636719	202.600000
823.671631	208.300000
823.706604	201.600000
823.741455	207.700000
823.776428	199.500000
823.811340	208.000000
823.846252	210.600000
823.881165	210.000000
823.916138	204.100000
823.950989	211.400000
823.985901	202.600000
824.020813	205.000000
824.055725	205.200000
824.090637	201.500000
824.125610	206.300000
824.160461	207.100000
824.195374	205.900000
824.230225	207.900000
824.265198	200.400000
824.300110	202.600000
824.334961	214.700000
824.369873	198.100000
824.404785	209.800000
824.439636	209.700000
824.474548	200.800000
824.509460	196.900000
824.544312	209.900000
824.579224	207.300000
824.614075	206.900000
824.648987	202.700000
824.683899	205.000000
824.718811	201.900000
824.753662	208.700000
824.788574	208.000000
824.823364	206.300000
824.858276	201.900000
824.893188	209.800000
824.928040	207.500000
824.962952	207.100000
824.997803	207.000000
825.032654	205.300000
825.067566	204.300000
825.102417	202.900000
825.137268	201.700000
825.172119	203.500000
825.206970	201.200000
825.241882	202.900000
825.276733	198.700000
825.311646	204.000000
825.346436	199.700000
825.381348	200.400000
825.416138	203.900000
825.450989	200.100000
825.485901	196.600000
825.520691	198.000000
825.555542	197.900000
825.590454	201.900000
825.625244	196.600000
825.660095	208.300000
825.695007	205.300000
825.729797	200.500000
825.764648	199.100000
825.799438	201.500000
825.834290	203.000000
825.869202	195.700000
825.903992	202.400000
825.938843	197.900000
825.973694	197.600000
826.008484	210.000000
826.043335	198.600000
826.078186	193.900000
826.112976	204.600000
826.147827	203.400000
826.182678	208.000000
826.217468	194.000000
826.252319	205.300000
826.287109	194.800000
826.321899	203.200000
826.356750	196.600000
826.391541	195.100000
826.426392	200.400000
826.461182	199.200000
826.495972	193.800000
826.530823	192.000000
826.565613	197.500000
826.600403	193.900000
826.635254	198.700000
826.670044	192.000000
826.704834	190.900000
826.739685	193.500000
826.774475	199.300000
826.809265	196.500000
826.844055	194.600000
826.878906	200.600000
826.913635	197.600000
826.948425	198.100000
826.983215	198.200000
827.018005	200.600000
827.052856	195.900000
827.087585	199.200000
827.122375	191.400000
827.157227	195.200000
827.191956	207.600000
827.226746	191.800000
827.261536	199.900000
827.296265	190.400000
827.331116	194.400000
827.365906	198.000000
827.400635	194.200000
827.435425	188.200000
827.470215	200.800000
827.504944	193.000000
827.539734	199.100000
827.574463	193.800000
827.609253	201.500000
827.644043	193.700000
827.678772	198.300000
827.713562	191.900000
827.748352	194.700000
827.783081	190.000000
827.817871	196.800000
827.852600	189.600000
827.887329	195.500000
827.922119	187.200000
827.956848	196.300000
827.991638	203.400000
828.026367	196.600000
828.061157	194.200000
828.095886	194.700000
828.130615	205.500000
828.165344	187.300000
828.200073	193.700000
828.234863	194.400000
828.269592	194.300000
828.304321	197.300000
828.339111	195.700000
828.373779	192.400000
828.408569	197.000000
828.443298	198.200000
828.477966	192.800000
828.512756	195.200000
828.547424	191.700000
828.582214	193.100000
828.616943	193.800000
828.651672	192.900000
828.686340	197.900000
828.721130	191.300000
828.755798	193.800000
828.790527	193.900000
828.825256	195.300000
828.859924	193.600000
828.894714	200.400000
828.929443	200.100000
828.964111	191.700000
828.998840	195.300000
829.033569	192.100000
829.068237	192.900000
829.102966	192.500000
829.137634	193.800000
829.172363	196.400000
829.207092	193.700000
829.241821	191.200000
829.276489	187.700000
829.311157	194.100000
829.345825	191.600000
829.380554	198.200000
829.415283	191.000000
829.449951	188.900000
829.484619	199.500000
829.519348	199.300000
829.554016	192.800000
829.588745	194.500000
829.623413	189.400000
829.658081	202.700000
829.692749	189.800000
829.727417	198.200000
829.762146	195.100000
829.796814	192.000000
829.831482	193.400000
829.866150	196.700000
829.900879	192.900000
829.935486	195.500000
829.970154	192.800000
830.004883	203.100000
830.039490	195.400000
830.074219	190.500000
830.108887	196.300000
830.143494	193.400000
830.178223	190.100000
830.212891	192.400000
830.247498	194.700000
830.282166	200.400000
830.316772	199.700000
830.351501	190.800000
830.386169	193.700000
830.420776	192.300000
830.455444	195.100000
830.490112	190.700000
830.524719	188.500000
830.559387	193.900000
830.594055	196.500000
830.628662	192.400000
830.663330	195.600000
830.697998	197.900000
830.732605	194.400000
830.767273	195.100000
830.801941	193.100000
830.836487	202.700000
830.871155	195.300000
830.905762	194.300000
830.940430	189.000000
830.975098	192.300000
831.009644	194.500000
831.044312	201.700000
831.078979	197.900000
831.113525	187.900000
831.148193	195.700000
831.182861	192.300000
831.217407	196.600000
831.252075	205.700000
831.286621	192.000000
831.321289	191.300000
831.355896	195.200000
831.390564	201.300000
831.425110	195.700000
831.459778	201.300000
831.494324	205.400000
831.528931	195.800000
831.563599	198.800000
831.598145	190.900000
831.632751	193.200000
831.667419	193.600000
831.701965	196.000000
831.736572	197.400000
831.771179	189.500000
831.805786	192.600000
831.840393	198.300000
831.874939	188.800000
831.909546	196.900000
831.944153	187.200000
831.978760	193.500000
832.013306	191.000000
832.047913	197.200000
832.082458	202.100000
832.117065	190.000000
832.151672	201.400000
832.186218	195.800000
832.220825	196.000000
832.255432	186.900000
832.289978	192.100000
832.324585	196.000000
832.359192	195.900000
832.393677	194.000000
832.428284	195.500000
832.462830	192.000000
832.497437	192.700000
832.531982	197.600000
832.566589	192.300000
832.601135	195.900000
832.635681	188.200000
832.670227	194.200000
832.704773	200.000000
832.739380	196.400000
832.773926	194.700000
832.808472	193.300000
832.843079	194.700000
832.877563	197.300000
832.912170	193.200000
832.946716	189.300000
832.981201	197.500000
833.015808	198.400000
833.050293	193.600000
833.084839	190.500000
833.119446	191.600000
833.153992	198.500000
833.188477	192.400000
833.223022	192.400000
833.257568	194.400000
833.292114	198.300000
833.326660	202.200000
833.361145	192.500000
833.395691	186.200000
833.430237	195.500000
833.464783	195.400000
833.499329	191.300000
833.533875	190.100000
833.568359	196.300000
833.602905	198.200000
833.637390	197.900000
833.671875	191.500000
833.706421	192.500000
833.740906	191.200000
833.775452	186.600000
833.809998	191.800000
833.844482	200.000000
833.879028	192.900000
833.913513	194.000000
833.947998	197.000000
833.982544	191.800000
834.017090	192.900000
834.051514	186.900000
834.086060	197.300000
834.120544	193.100000
834.155029	196.900000
834.189575	193.800000
834.223999	196.300000
834.258545	194.400000
834.293030	195.600000
834.327515	193.400000
834.362000	193.200000
834.396545	196.400000
834.430969	193.000000
834.465454	197.500000
834.500000	189.200000
834.534424	195.300000
834.568970	189.000000
834.603455	186.600000
834.637878	191.400000
834.672363	194.900000
834.706909	195.400000
834.741333	193.000000
834.775818	189.700000
834.810242	189.000000
834.844727	194.900000
834.879211	191.500000
834.913635	193.800000
834.948181	193.900000
834.982666	195.500000
835.017090	192.700000
835.051575	196.100000
835.086060	191.200000
835.120483	196.900000
835.154907	196.600000
835.189331	194.300000
835.223816	196.300000
835.258301	188.900000
835.292786	190.800000
835.327209	196.000000
835.361694	192.100000
835.396057	193.000000
835.430542	197.400000
835.465027	194.100000
835.499390	191.800000
835.533875	220.700000
835.568359	193.200000
835.602722	189.100000
835.637207	197.300000
835.671692	188.900000
835.706055	210.600000
835.740540	195.700000
835.774902	196.300000
835.809387	194.100000
835.843811	189.800000
835.878235	199.000000
835.912659	190.900000
835.947083	191.000000
835.981506	192.600000
836.015930	188.200000
836.050354	197.400000
836.084778	198.500000
836.119202	197.600000
836.153625	206.500000
836.187988	191.700000
836.222473	191.800000
836.256897	196.300000
836.291260	191.700000
836.325684	196.700000
836.360046	192.700000
836.394470	193.700000
836.428894	199.500000
836.463318	192.400000
836.497681	196.500000
836.532104	200.200000
836.566467	195.500000
836.600891	192.600000
836.635315	198.500000
836.669678	194.900000
836.704102	197.800000
836.738525	198.000000
836.772888	190.400000
836.807251	192.400000
836.841675	195.900000
836.876038	190.900000
836.910461	191.800000
836.944763	196.300000
836.979187	191.800000
837.013611	197.400000
837.047974	190.300000
837.082336	203.800000
837.116699	197.600000
837.151062	193.600000
837.185486	191.200000
837.219849	192.200000
837.254211	197.300000
837.288574	193.000000
837.322937	190.500000
837.357300	185.000000
837.391663	205.000000
837.426086	197.200000
837.460388	194.300000
837.494751	196.800000
837.529114	192.100000
837.563477	199.000000
837.597839	194.200000
837.632141	192.000000
837.666565	192.000000
837.700928	196.100000
837.735229	196.900000
837.769592	196.300000
837.803955	197.500000
837.838257	191.200000
837.872620	192.600000
837.906982	200.100000
837.941284	193.700000
837.975647	195.300000
838.010010	199.800000
838.044312	192.800000
838.078674	193.100000
838.112976	195.000000
838.147339	196.200000
838.181702	194.900000
838.216003	202.300000
838.250366	196.300000
838.284668	196.300000
838.318970	188.900000
838.353333	193.300000
838.387634	193.100000
838.421936	194.700000
838.456299	196.400000
838.490601	199.100000
838.524902	197.600000
838.559265	197.400000
838.593567	199.600000
838.627869	189.000000
838.662170	197.400000
838.696472	189.000000
838.730774	191.700000
838.765137	195.800000
838.799377	184.600000
838.833740	195.500000
838.868042	199.000000
838.902283	187.800000
838.936646	199.900000
838.970947	194.500000
839.005188	199.100000
839.039551	186.400000
839.073792	199.900000
839.108093	192.100000
839.142395	202.500000
839.176697	188.500000
839.210937	195.700000
839.245300	201.700000
839.279541	189.100000
839.313843	192.400000
839.348145	197.000000
839.382385	197.400000
839.416687	198.700000
839.450989	195.800000
839.485229	194.400000
839.519531	191.800000
839.553833	197.600000
839.588013	195.100000
839.622314	196.700000
839.656555	195.900000
839.690857	193.200000
839.725159	190.900000
839.759460	193.600000
839.793640	192.200000
839.827942	192.900000
839.862183	192.800000
839.896423	194.700000
839.930725	206.100000
839.964966	201.100000
839.999207	198.800000
840.033508	199.200000
840.067688	192.900000
840.101990	200.200000
840.136230	194.600000
840.170471	201.200000
840.204712	190.000000
840.238953	189.500000
840.273193	194.000000
840.307434	195.600000
840.341736	191.300000
840.375916	188.700000
840.410217	191.900000
840.444397	198.700000
840.478638	196.200000
840.512878	198.400000
840.547119	195.400000
840.581360	196.400000
840.615601	201.300000
840.649780	203.900000
840.684021	193.800000
840.718262	202.700000
840.752441	201.100000
840.786682	195.900000
840.820862	195.700000
840.855103	201.000000
840.889343	194.300000
840.923584	199.700000
840.957764	196.100000
840.992004	196.000000
841.026184	206.100000
841.060425	193.800000
841.094666	191.200000
841.128845	198.600000
841.163025	196.000000
841.197266	197.400000
841.231445	194.000000
841.265686	198.200000
841.299866	189.800000
841.334045	199.800000
841.368286	192.600000
841.402405	201.100000
841.436646	196.700000
841.470825	192.500000
841.505005	193.600000
841.539185	191.300000
841.573425	191.300000
841.607544	194.700000
841.641785	192.800000
841.675964	191.800000
841.710144	194.100000
841.744324	192.800000
841.778503	192.600000
841.812683	192.100000
841.846863	200.200000
841.881042	201.000000
841.915222	191.000000
841.949402	206.000000
841.983521	188.800000
842.017700	194.800000
842.051880	195.500000
842.086060	197.000000
842.120239	196.200000
842.154419	193.300000
842.188538	195.200000
842.222717	193.000000
842.256897	202.600000
842.291016	194.600000
842.325195	198.000000
842.359375	203.500000
842.393494	200.600000
842.427673	194.900000
842.461853	198.700000
842.495911	201.500000
842.530090	196.500000
842.564209	193.700000
842.598389	196.800000
842.632568	194.300000
842.666626	199.100000
842.700806	192.400000
842.734985	193.900000
842.769043	196.500000
842.803223	195.100000
842.837402	193.600000
842.871460	192.100000
842.905640	201.800000
842.939697	191.400000
842.973877	194.900000
843.007996	198.900000
843.042175	202.700000
843.076233	193.500000
843.110413	196.400000
843.144470	201.600000
843.178589	198.000000
843.212769	193.800000
843.246826	197.900000
843.280945	192.700000
843.315125	195.800000
843.349182	192.200000
843.383301	198.900000
843.417419	207.000000
843.451538	195.500000
843.485657	193.700000
843.519714	194.200000
843.553833	196.700000
843.587952	193.800000
843.622070	191.800000
843.656128	198.000000
843.690247	192.200000
843.724304	197.000000
843.758423	195.600000
843.792542	195.000000
843.826599	194.600000
843.860718	195.700000
843.894836	189.300000
843.928894	197.200000
843.963013	195.500000
843.997070	192.400000
844.031128	190.200000
844.065247	199.500000
844.099304	197.900000
844.133362	197.000000
844.167480	196.500000
844.201599	200.100000
844.235596	196.600000
844.269714	197.600000
844.303711	195.200000
844.337830	189.300000
844.371948	196.600000
844.405945	194.300000
844.440063	190.000000
844.474121	206.200000
844.508118	193.800000
844.542236	195.000000
844.576294	194.300000
844.610352	191.700000
844.644409	193.300000
844.678406	189.700000
844.712524	199.400000
844.746582	200.600000
844.780640	194.200000
844.814636	195.300000
844.848755	205.600000
844.882751	193.900000
844.916809	197.800000
844.950867	196.700000
844.984863	202.900000
845.018921	194.000000
845.052979	193.700000
845.086975	196.100000
845.121033	189.700000
845.155090	193.300000
845.189087	201.700000
845.223145	192.200000
845.257141	198.100000
845.291199	197.500000
845.325256	199.900000
845.359253	195.200000
845.393250	207.600000
845.427307	193.400000
845.461304	196.700000
845.495361	193.700000
845.529358	202.800000
845.563354	194.000000
845.597412	192.300000
845.631409	200.100000
845.665405	202.300000
845.699463	197.100000
845.733459	194.600000
845.767456	202.900000
845.801453	194.600000
845.835449	198.500000
845.869446	198.800000
845.903503	198.000000
845.937439	191.300000
845.971497	199.700000
846.005493	190.100000
846.039429	199.100000
846.073486	203.300000
846.107483	192.700000
846.141418	195.000000
846.175476	195.800000
846.209473	200.600000
846.243408	193.600000
846.277405	196.800000
846.311401	193.200000
846.345337	195.500000
846.379395	201.100000
846.413330	192.800000
846.447327	205.000000
846.481323	191.600000
846.515259	194.800000
846.549255	194.400000
846.583252	199.100000
846.617187	192.200000
846.651184	196.600000
846.685120	194.800000
846.719055	203.600000
846.753052	198.300000
846.786987	199.600000
846.820984	190.600000
846.854980	201.800000
846.888916	191.000000
846.922852	197.100000
846.956848	199.800000
846.990723	194.100000
847.024719	196.100000
847.058716	193.600000
847.092590	199.900000
847.126587	198.000000
847.160522	192.300000
847.194458	199.100000
847.228455	191.100000
847.262390	191.900000
847.296265	193.800000
847.330261	199.900000
847.364136	192.400000
847.398132	194.400000
847.432068	195.400000
847.466003	193.700000
847.499939	193.900000
847.533875	197.600000
847.567749	193.900000
847.601746	193.200000
847.635681	197.000000
847.669556	189.700000
847.703491	200.400000
847.737427	205.900000
847.771301	191.200000
847.805237	197.400000
847.839233	196.700000
847.873108	194.400000
847.907043	195.600000
847.940918	202.800000
847.974854	198.200000
848.008789	199.300000
848.042664	197.500000
848.076538	196.800000
848.110474	198.100000
848.144348	195.600000
848.178284	190.200000
848.212219	196.800000
848.246094	196.100000
848.279968	196.000000
848.313904	197.900000
848.347778	196.700000
848.381653	194.000000
848.415588	191.200000
848.449463	193.500000
848.483337	196.200000
848.517212	201.700000
848.551086	194.400000
848.585022	191.100000
848.618835	203.300000
848.652771	194.400000
848.686646	190.000000
848.720520	201.700000
848.754395	194.500000
848.788330	198.600000
848.822144	197.900000
848.856018	194.100000
848.889954	203.600000
848.923767	192.700000
848.957642	193.000000
848.991577	197.400000
849.025391	196.000000
849.059265	195.700000
849.093079	193.200000
849.126953	191.200000
849.160828	201.000000
849.194641	196.600000
849.228577	194.700000
849.262451	193.800000
849.296265	195.200000
849.330139	192.200000
849.364014	195.300000
849.397827	197.000000
849.431702	196.700000
849.465515	200.100000
849.499329	188.400000
849.533203	192.100000
849.567078	188.800000
849.600891	197.000000
849.634766	196.000000
849.668518	198.800000
849.702393	195.100000
849.736267	189.000000
849.770020	204.200000
849.803894	197.000000
849.837769	196.600000
849.871521	195.100000
849.905396	198.800000
849.939270	191.000000
849.973022	194.400000
850.006897	196.400000
850.040710	198.500000
850.074524	197.600000
850.108337	194.800000
850.142151	199.400000
850.175964	201.200000
850.209778	194.400000
850.243530	186.700000
850.277405	200.000000
850.311218	196.300000
850.344971	193.900000
850.378845	203.800000
850.412659	194.500000
850.446411	197.200000
850.480225	196.800000
850.514038	199.100000
850.547791	199.200000
850.581665	196.300000
850.615417	193.500000
850.649231	196.900000
850.683044	195.400000
850.716858	194.500000
850.750610	197.300000
850.784424	197.700000
850.818176	193.800000
850.851929	193.800000
850.885742	194.100000
850.919495	193.200000
850.953308	202.500000
850.987122	201.400000
851.020874	191.400000
851.054626	188.900000
851.088440	197.600000
851.122192	197.700000
851.156006	195.400000
851.189697	194.000000
851.223511	192.500000
851.257263	198.200000
851.291077	197.800000
851.324829	193.700000
851.358582	193.500000
851.392334	194.200000
851.426086	194.000000
851.459900	202.800000
851.493591	197.200000
851.527344	195.200000
851.561157	194.400000
851.594849	198.000000
851.628662	195.800000
851.662415	203.400000
851.696106	197.600000
851.729858	199.700000
851.763611	191.800000
851.797363	196.200000
851.831116	191.500000
851.864868	198.200000
851.898560	200.200000
851.932312	194.500000
851.966064	197.500000
851.999817	195.800000
852.033569	193.700000
852.067261	201.300000
852.101013	192.300000
852.134766	195.400000
852.168457	186.900000
852.202209	200.900000
852.235901	191.100000
852.269592	198.400000
852.303345	202.500000
852.337036	198.600000
852.370789	194.400000
852.404541	199.900000
852.438171	190.000000
852.471924	195.700000
852.505676	190.200000
852.539307	197.500000
852.573059	191.800000
852.606812	194.300000
852.640442	192.000000
852.674194	199.400000
852.707886	203.300000
852.741577	201.500000
852.775269	191.300000
852.809021	197.000000
852.842651	196.700000
852.876404	202.400000
852.910034	198.600000
852.943787	200.100000
852.977478	198.400000
853.011108	193.100000
853.044861	193.400000
853.078552	201.900000
853.112183	198.500000
853.145874	196.900000
853.179626	190.600000
853.213257	195.800000
853.246948	193.700000
853.280640	202.900000
853.314270	194.900000
853.347961	200.400000
853.381653	199.200000
853.415283	201.100000
853.448975	193.100000
853.482605	196.100000
853.516296	196.500000
853.549988	189.600000
853.583618	198.400000
853.617310	196.400000
853.651001	197.500000
853.684631	191.800000
853.718323	194.300000
853.751953	199.600000
853.785583	190.200000
853.819275	198.400000
853.852966	198.300000
853.886536	189.400000
853.920227	191.900000
853.953918	198.900000
853.987488	194.900000
854.021179	198.600000
854.054749	202.400000
854.088440	197.400000
854.122131	192.300000
854.155701	197.600000
854.189331	192.800000
854.223022	198.300000
854.256592	196.700000
854.290283	193.700000
854.323914	198.500000
854.357483	197.900000
854.391174	198.100000
854.424744	202.500000
854.458374	197.300000
854.492065	206.900000
854.525696	195.300000
854.559265	200.800000
854.592896	206.400000
854.626465	197.400000
854.660095	195.600000
854.693787	199.000000
854.727356	194.900000
854.760986	200.400000
854.794617	196.300000
854.828186	195.100000
854.861816	197.700000
854.895447	197.000000
854.929016	196.600000
854.962585	196.700000
854.996155	203.000000
855.029785	198.700000
855.063416	196.900000
855.097046	200.500000
855.130615	190.500000
855.164185	200.900000
855.197754	195.000000
855.231384	199.400000
855.264954	193.000000
855.298523	198.900000
855.332153	195.600000
855.365723	201.900000
855.399292	191.900000
855.432922	194.300000
855.466492	197.000000
855.500061	192.200000
855.533630	192.800000
855.567200	199.100000
855.600769	198.300000
855.634338	201.300000
855.667969	196.300000
855.701477	192.900000
855.735046	192.900000
855.768616	190.000000
855.802185	198.500000
855.835754	207.700000
855.869324	189.600000
855.902893	194.100000
855.936401	200.800000
855.969971	197.000000
856.003540	192.300000
856.037109	196.700000
856.070618	194.200000
856.104187	190.400000
856.137695	195.300000
856.171265	189.000000
856.204834	198.200000
856.238403	199.700000
856.271912	193.900000
856.305481	197.300000
856.338989	191.400000
856.372559	196.200000
856.406128	198.300000
856.439636	199.500000
856.473145	193.400000
856.506653	201.200000
856.540222	195.700000
856.573792	198.800000
856.607300	199.600000
856.640808	189.800000
856.674377	196.700000
856.707825	227.700000
856.741394	199.900000
856.774902	190.900000
856.808472	189.300000
856.841980	198.200000
856.875488	200.500000
856.908936	190.600000
856.942505	194.500000
856.976013	193.700000
857.009521	193.100000
857.043030	196.000000
857.076477	195.200000
857.110046	202.500000
857.143555	196.600000
857.177063	199.300000
857.210571	193.700000
857.244080	193.300000
857.277527	196.600000
857.311035	196.400000
857.344543	201.100000
857.378052	196.700000
857.411499	200.700000
857.445068	202.600000
857.478516	194.600000
857.512024	192.800000
857.545532	193.900000
857.578979	198.100000
857.612427	196.500000
857.645874	193.400000
857.679382	196.500000
857.712891	201.300000
857.746399	195.700000
857.779846	200.100000
857.813354	200.400000
857.846741	196.700000
857.880249	191.600000
857.913757	197.500000
857.947266	194.900000
857.980652	199.200000
858.014160	193.600000
858.047546	195.200000
858.081055	193.700000
858.114563	205.000000
858.147949	189.500000
858.181458	197.900000
858.214844	193.900000
858.248352	189.400000
858.281799	199.500000
858.315308	204.400000
858.348694	200.200000
858.382141	202.200000
858.415588	198.800000
858.449036	198.700000
858.482483	197.200000
858.515930	195.100000
858.549377	197.500000
858.582825	201.100000
858.616211	199.000000
858.649658	199.400000
858.683105	192.400000
858.716553	194.400000
858.750000	192.700000
858.783386	193.300000
858.816833	190.400000
858.850281	196.100000
858.883728	197.100000
858.917114	196.700000
858.950562	202.700000
858.983948	202.600000
859.017395	200.400000
859.050781	192.700000
859.084167	193.000000
859.117615	191.000000
859.151062	198.800000
859.184448	192.100000
859.217834	195.700000
859.251282	193.000000
859.284668	192.900000
859.318054	188.700000
859.351440	193.700000
859.384888	200.900000
859.418274	190.400000
859.451721	188.400000
859.485046	198.300000
859.518494	196.500000
859.551819	191.900000
859.585266	197.000000
859.618652	200.900000
859.652039	191.200000
859.685425	191.800000
859.718811	191.400000
859.752197	185.800000
859.785583	200.300000
859.819031	201.500000
859.852356	198.600000
859.885742	192.900000
859.919067	196.400000
859.952454	195.000000
859.985901	199.600000
860.019287	195.500000
860.052612	0.000000
860.085999	0.000000
860.119324	0.000000
860.152710	0.000000
860.186096	0.000000
860.219421	0.000000
860.252808	0.000000
860.286133	0.000000
860.319519	0.000000
860.352905	0.000000
860.386292	0.000000
860.419617	0.000000
860.452942	0.000000
860.486267	0.000000
860.519653	0.000000
860.553040	0.000000
860.586365	0.000000
860.619690	0.000000
860.653076	0.000000
860.686340	0.000000
860.719727	0.000000
860.753113	0.000000
860.786377	0.000000
860.819763	0.000000
860.853027	0.000000
860.886414	0.000000
860.919739	0.000000
860.953125	0.000000
860.986389	0.000000
861.019714	0.000000
861.053040	0.000000
861.086365	0.000000
861.119690	0.000000
861.153076	0.000000
861.186340	0.000000
861.219666	0.000000
861.252930	0.000000
861.286316	0.000000
861.319641	0.000000
861.352905	0.000000
861.386230	0.000000
861.419495	0.000000
861.452820	0.000000
861.486145	0.000000
861.519470	0.000000
861.552734	0.000000
861.586060	0.000000
861.619324	0.000000
861.652649	0.000000
861.685974	0.000000
861.719238	0.000000
861.752563	0.000000
861.785828	0.000000
861.819092	0.000000
861.852417	0.000000
861.885742	0.000000
861.918945	0.000000
861.952271	0.000000
861.985535	0.000000
862.018799	0.000000
862.052124	0.000000
862.085449	0.000000
862.118652	0.000000
862.151978	0.000000
862.185181	0.000000
862.218506	0.000000
862.251770	0.000000
862.285034	0.000000
862.318298	0.000000
862.351562	0.000000
862.384827	0.000000
862.418091	0.000000
862.451355	0.000000
862.484619	0.000000
862.517883	0.000000
862.551086	0.000000
862.584351	0.000000
862.617676	0.000000
862.650940	0.000000
862.684143	0.000000
862.717407	0.000000
862.750610	0.000000
862.783875	0.000000
862.817139	0.000000
862.850342	0.000000
862.883606	0.000000
862.916870	0.000000
862.950073	0.000000
862.983337	0.000000
863.016602	0.000000
863.049805	0.000000
863.083069	0.000000
863.116211	0.000000
863.149475	0.000000
863.182739	0.000000
863.216003	0.000000
863.249146	0.000000
863.282410	0.000000
863.315613	0.000000
863.348816	0.000000
863.382080	0.000000
863.415222	0.000000
863.448486	0.000000
863.481689	0.000000
863.514893	0.000000
863.548157	0.000000
863.581360	0.000000
863.614502	0.000000
863.647766	0.000000
863.680908	0.000000
863.714172	0.000000
863.747375	0.000000
863.780579	0.000000
863.813721	0.000000
863.846985	0.000000
863.880127	0.000000
863.913330	0.000000
863.946533	0.000000
863.979675	0.000000
864.012939	0.000000
