Model Number: SPM-001-M   
Serial Number: 10090201
Firmware Version: 004.17.6
Exposure Time: 300000.000000us
Data Taken on: 11-02-2021 11:13:52.606
Wavelength	Amplitude
733.770752	0.000000
733.808716	0.000000
733.846619	0.000000
733.884583	0.000000
733.922546	0.000000
733.960449	0.000000
733.998413	0.000000
734.036377	0.000000
734.074219	0.000000
734.112183	0.000000
734.150085	0.000000
734.188049	0.000000
734.226013	0.000000
734.263916	0.000000
734.301819	0.000000
734.339783	0.000000
734.377686	0.000000
734.415588	0.000000
734.453552	0.000000
734.491455	0.000000
734.529419	0.000000
734.567322	0.000000
734.605225	0.000000
734.643127	0.000000
734.681091	0.000000
734.718994	0.000000
734.756897	0.000000
734.794800	0.000000
734.832703	0.000000
734.870667	0.000000
734.908508	0.000000
734.946472	0.000000
734.984375	0.000000
735.022278	0.000000
735.060181	0.000000
735.098083	0.000000
735.135986	0.000000
735.173889	0.000000
735.211792	0.000000
735.249695	0.000000
735.287598	0.000000
735.325439	0.000000
735.363403	0.000000
735.401306	0.000000
735.439148	0.000000
735.477051	0.000000
735.515015	0.000000
735.552856	0.000000
735.590759	0.000000
735.628662	0.000000
735.666504	0.000000
735.704407	0.000000
735.742310	0.000000
735.780212	0.000000
735.818115	0.000000
735.856018	0.000000
735.893860	0.000000
735.931763	0.000000
735.969604	0.000000
736.007507	0.000000
736.045410	0.000000
736.083252	0.000000
736.121094	0.000000
736.158997	0.000000
736.196838	0.000000
736.234741	0.000000
736.272644	0.000000
736.310486	0.000000
736.348389	0.000000
736.386230	0.000000
736.424072	0.000000
736.461975	0.000000
736.499878	0.000000
736.537720	0.000000
736.575562	0.000000
736.613403	0.000000
736.651306	0.000000
736.689148	0.000000
736.726990	0.000000
736.764893	0.000000
736.802734	0.000000
736.840576	0.000000
736.878418	0.000000
736.916321	0.000000
736.954102	0.000000
736.992004	0.000000
737.029846	0.000000
737.067688	0.000000
737.105530	0.000000
737.143372	0.000000
737.181213	0.000000
737.219116	0.000000
737.256897	0.000000
737.294739	0.000000
737.332642	0.000000
737.370422	0.000000
737.408325	0.000000
737.446167	0.000000
737.483948	0.000000
737.521790	0.000000
737.559692	0.000000
737.597473	0.000000
737.635315	0.000000
737.673157	0.000000
737.710999	0.000000
737.748840	0.000000
737.786621	0.000000
737.824463	0.000000
737.862305	0.000000
737.900085	0.000000
737.937927	0.000000
737.975769	0.000000
738.013550	0.000000
738.051392	0.000000
738.089233	0.000000
738.127014	0.000000
738.164856	0.000000
738.202698	0.000000
738.240479	0.000000
738.278320	0.000000
738.316162	0.000000
738.353943	0.000000
738.391785	0.000000
738.429565	0.000000
738.467407	0.000000
738.505188	0.000000
738.542969	0.000000
738.580811	0.000000
738.618652	0.000000
738.656372	0.000000
738.694214	0.000000
738.732056	0.000000
738.769836	0.000000
738.807617	0.000000
738.845459	0.000000
738.883240	0.000000
738.921021	0.000000
738.958862	0.000000
738.996582	0.000000
739.034424	0.000000
739.072205	0.000000
739.109985	0.000000
739.147827	0.000000
739.185547	0.000000
739.223389	0.000000
739.261169	0.000000
739.298889	0.000000
739.336731	0.000000
739.374512	0.000000
739.412292	0.000000
739.450073	0.000000
739.487854	0.000000
739.525635	0.000000
739.563416	0.000000
739.601135	0.000000
739.638977	0.000000
739.676758	0.000000
739.714478	0.000000
739.752258	0.000000
739.790100	0.000000
739.827820	0.000000
739.865601	0.000000
739.903381	0.000000
739.941101	0.000000
739.978882	198.400000
740.016724	193.200000
740.054443	197.900000
740.092224	191.000000
740.130005	192.700000
740.167725	191.200000
740.205505	192.800000
740.243225	198.100000
740.281006	194.800000
740.318787	189.300000
740.356506	200.100000
740.394287	196.700000
740.432068	191.400000
740.469727	189.700000
740.507507	197.100000
740.545288	195.000000
740.583008	197.300000
740.620789	193.700000
740.658569	188.700000
740.696228	195.300000
740.734009	198.100000
740.771790	186.400000
740.809509	197.000000
740.847229	190.500000
740.884949	192.000000
740.922729	189.500000
740.960449	191.500000
740.998169	191.500000
741.035950	191.700000
741.073669	194.900000
741.111389	195.100000
741.149170	202.800000
741.186890	202.000000
741.224609	197.600000
741.262329	196.900000
741.300110	203.000000
741.337769	190.600000
741.375549	191.000000
741.413208	196.000000
741.450989	191.700000
741.488708	191.600000
741.526367	192.700000
741.564148	197.200000
741.601868	198.100000
741.639526	193.800000
741.677307	196.600000
741.715027	196.000000
741.752686	191.800000
741.790466	200.600000
741.828186	196.600000
741.865845	190.900000
741.903564	188.500000
741.941345	193.000000
741.979004	191.100000
742.016724	197.900000
742.054382	195.700000
742.092102	197.900000
742.129822	189.700000
742.167480	194.200000
742.205200	194.200000
742.242920	196.500000
742.280640	198.000000
742.318359	191.700000
742.356079	193.800000
742.393738	198.100000
742.431396	192.700000
742.469116	198.000000
742.506775	187.600000
742.544495	197.100000
742.582214	197.600000
742.619873	194.100000
742.657593	199.700000
742.695251	199.500000
742.732971	193.200000
742.770630	196.200000
742.808289	194.400000
742.846008	195.200000
742.883728	194.800000
742.921326	196.100000
742.959045	192.900000
742.996765	193.400000
743.034424	193.300000
743.072083	192.900000
743.109802	192.700000
743.147400	189.700000
743.185120	195.000000
743.222839	192.800000
743.260437	199.000000
743.298157	196.200000
743.335754	187.500000
743.373474	194.100000
743.411133	187.900000
743.448792	193.900000
743.486450	194.700000
743.524170	188.900000
743.561768	193.100000
743.599487	200.200000
743.637146	201.200000
743.674744	193.700000
743.712463	192.800000
743.750122	194.800000
743.787720	196.600000
743.825439	192.700000
743.863037	193.700000
743.900696	192.900000
743.938416	220.100000
743.976013	193.000000
744.013672	200.900000
744.051331	197.200000
744.088928	201.200000
744.126587	198.500000
744.164307	197.400000
744.201904	190.500000
744.239563	195.400000
744.277222	196.200000
744.314819	194.500000
744.352478	198.200000
744.390137	197.400000
744.427734	195.400000
744.465393	191.600000
744.502991	191.200000
744.540649	196.700000
744.578308	193.800000
744.615906	191.600000
744.653564	188.400000
744.691223	197.700000
744.728821	189.300000
744.766418	195.200000
744.804077	195.800000
744.841675	193.100000
744.879333	189.900000
744.916992	193.400000
744.954529	193.600000
744.992187	199.600000
745.029785	194.200000
745.067444	192.500000
745.105042	194.900000
745.142639	196.000000
745.180298	204.100000
745.217896	193.600000
745.255493	194.200000
745.293152	197.900000
745.330750	198.500000
745.368347	200.900000
745.405945	197.300000
745.443604	194.100000
745.481140	197.100000
745.518799	194.400000
745.556396	197.700000
745.593994	196.300000
745.631592	196.300000
745.669189	190.200000
745.706787	196.000000
745.744385	192.100000
745.781982	199.200000
745.819580	191.600000
745.857178	195.400000
745.894775	194.300000
745.932373	196.100000
745.969971	194.800000
746.007568	188.400000
746.045166	199.600000
746.082764	201.500000
746.120300	196.400000
746.157898	196.700000
746.195557	193.800000
746.233093	190.900000
746.270691	195.800000
746.308228	196.600000
746.345825	198.100000
746.383423	197.300000
746.420959	190.800000
746.458557	192.700000
746.496155	192.900000
746.533691	195.200000
746.571289	190.900000
746.608887	195.800000
746.646423	195.600000
746.684021	196.700000
746.721619	194.000000
746.759155	197.400000
746.796753	189.600000
746.834351	190.700000
746.871826	191.800000
746.909424	199.600000
746.946960	194.800000
746.984558	193.400000
747.022156	193.700000
747.059631	201.000000
747.097229	198.200000
747.134827	193.600000
747.172363	200.400000
747.209900	197.500000
747.247498	192.200000
747.285034	198.500000
747.322571	201.400000
747.360168	193.300000
747.397644	190.900000
747.435242	196.400000
747.472778	200.600000
747.510315	192.900000
747.547913	195.200000
747.585388	198.000000
747.622925	193.700000
747.660522	188.300000
747.697998	193.200000
747.735596	191.900000
747.773132	192.800000
747.810669	193.600000
747.848206	196.900000
747.885742	190.900000
747.923279	191.000000
747.960815	195.700000
747.998352	194.900000
748.035889	198.200000
748.073425	196.500000
748.110901	192.800000
748.148437	191.500000
748.185974	195.100000
748.223511	200.700000
748.261047	197.800000
748.298584	195.000000
748.336060	195.300000
748.373596	196.600000
748.411133	220.100000
748.448608	193.000000
748.486145	198.000000
748.523682	198.500000
748.561218	202.200000
748.598755	195.700000
748.636292	196.200000
748.673706	192.600000
748.711243	203.200000
748.748718	194.500000
748.786255	196.500000
748.823792	194.700000
748.861267	192.000000
748.898804	197.100000
748.936340	197.000000
748.973816	191.300000
749.011292	201.100000
749.048828	194.800000
749.086304	197.200000
749.123840	203.100000
749.161316	191.600000
749.198792	200.400000
749.236328	199.600000
749.273743	194.900000
749.311279	194.900000
749.348816	197.700000
749.386230	196.300000
749.423767	185.500000
749.461304	198.300000
749.498718	194.500000
749.536255	198.600000
749.573730	204.400000
749.611206	201.700000
749.648682	194.300000
749.686218	194.800000
749.723633	196.300000
749.761169	193.700000
749.798645	191.000000
749.836060	193.200000
749.873596	191.600000
749.911011	197.000000
749.948547	200.800000
749.986023	193.500000
750.023437	194.300000
750.060913	189.700000
750.098450	190.900000
750.135864	194.200000
750.173340	195.700000
750.210815	197.400000
750.248291	192.100000
750.285767	193.700000
750.323242	201.100000
750.360657	196.600000
750.398132	191.800000
750.435608	196.400000
750.473022	193.800000
750.510498	190.400000
750.547974	192.000000
750.585449	192.800000
750.622925	188.300000
750.660339	204.300000
750.697815	196.600000
750.735291	192.800000
750.772644	199.500000
750.810120	195.400000
750.847595	197.600000
750.885010	190.700000
750.922485	201.500000
750.959961	195.000000
750.997375	199.300000
751.034851	198.300000
751.072266	198.300000
751.109680	190.500000
751.147156	200.300000
751.184570	195.800000
751.221985	194.800000
751.259460	187.800000
751.296875	194.800000
751.334290	195.300000
751.371765	198.400000
751.409180	198.500000
751.446594	199.100000
751.484070	198.200000
751.521423	195.300000
751.558899	196.800000
751.596375	201.100000
751.633728	200.100000
751.671204	203.200000
751.708618	191.900000
751.746033	196.800000
751.783447	191.100000
751.820801	192.200000
751.858276	197.800000
751.895691	193.100000
751.933105	193.200000
751.970520	190.500000
752.007935	192.900000
752.045349	197.900000
752.082764	195.800000
752.120178	192.300000
752.157532	193.300000
752.195007	192.100000
752.232422	196.800000
752.269775	197.500000
752.307190	196.500000
752.344543	191.700000
752.382019	194.000000
752.419434	193.800000
752.456787	197.300000
752.494202	197.800000
752.531616	195.900000
752.568970	196.800000
752.606384	197.000000
752.643799	198.000000
752.681152	201.000000
752.718567	197.600000
752.755981	190.000000
752.793335	197.300000
752.830750	188.900000
752.868164	199.900000
752.905518	191.800000
752.942932	198.500000
752.980225	189.800000
753.017639	198.600000
753.055054	194.100000
753.092407	196.700000
753.129822	197.800000
753.167175	203.400000
753.204529	193.100000
753.241943	192.500000
753.279358	191.300000
753.316650	198.000000
753.354065	195.000000
753.391479	199.300000
753.428772	199.700000
753.466187	196.800000
753.503479	190.200000
753.540894	194.400000
753.578308	189.400000
753.615601	191.600000
753.653015	193.000000
753.690369	192.400000
753.727722	191.300000
753.765076	190.600000
753.802490	190.900000
753.839783	189.000000
753.877136	192.900000
753.914551	204.100000
753.951843	191.800000
753.989258	199.300000
754.026611	195.300000
754.063904	197.200000
754.101257	190.700000
754.138611	188.400000
754.175964	197.100000
754.213318	202.900000
754.250610	189.800000
754.288025	192.300000
754.325378	191.300000
754.362671	197.500000
754.400024	194.800000
754.437378	202.200000
754.474670	201.500000
754.512085	191.800000
754.549438	195.300000
754.586731	191.800000
754.624084	195.700000
754.661438	192.300000
754.698730	202.100000
754.736084	194.300000
754.773376	195.000000
754.810730	195.200000
754.848083	194.800000
754.885315	198.600000
754.922668	191.500000
754.960022	192.400000
754.997314	200.300000
755.034668	194.400000
755.072021	197.600000
755.109253	193.200000
755.146606	200.900000
755.183960	193.100000
755.221252	201.500000
755.258545	197.800000
755.295898	199.900000
755.333191	198.900000
755.370544	197.900000
755.407776	195.300000
755.445129	197.300000
755.482422	198.300000
755.519714	194.900000
755.557068	190.800000
755.594360	190.200000
755.631653	198.300000
755.668945	202.300000
755.706299	197.400000
755.743530	205.400000
755.780884	202.900000
755.818176	200.700000
755.855408	201.300000
755.892761	198.500000
755.930054	196.900000
755.967346	198.100000
756.004639	198.800000
756.041870	197.000000
756.079224	201.100000
756.116516	194.200000
756.153748	200.400000
756.191040	203.800000
756.228394	198.500000
756.265625	192.700000
756.302917	198.000000
756.340210	194.700000
756.377441	201.300000
756.414795	201.700000
756.452087	197.200000
756.489319	191.900000
756.526611	200.600000
756.563843	197.700000
756.601135	205.000000
756.638428	204.200000
756.675659	198.000000
756.712952	199.800000
756.750244	200.400000
756.787476	198.900000
756.824768	203.300000
756.862061	198.000000
756.899292	247.100000
756.936584	201.500000
756.973816	207.200000
757.011047	207.700000
757.048340	198.600000
757.085632	199.900000
757.122864	213.400000
757.160156	198.300000
757.197327	200.900000
757.234619	204.500000
757.271912	197.300000
757.309082	202.200000
757.346375	196.800000
757.383667	203.900000
757.420837	200.700000
757.458130	201.000000
757.495422	196.700000
757.532593	203.100000
757.569885	195.200000
757.607117	198.500000
757.644348	201.200000
757.681580	212.600000
757.718811	191.000000
757.756042	203.000000
757.793335	197.000000
757.830505	202.700000
757.867798	198.900000
757.905029	198.800000
757.942200	200.200000
757.979492	200.300000
758.016724	199.100000
758.053894	199.400000
758.091187	213.600000
758.128418	201.600000
758.165588	201.100000
758.202820	211.900000
758.240112	199.900000
758.277283	210.600000
758.314514	202.900000
758.351685	201.300000
758.388916	208.500000
758.426147	208.000000
758.463379	209.800000
758.500610	203.500000
758.537842	204.300000
758.575012	206.700000
758.612244	200.600000
758.649475	213.200000
758.686646	199.700000
758.723877	208.600000
758.761108	210.900000
758.798279	203.200000
758.835510	205.800000
758.872742	209.000000
758.909851	207.700000
758.947083	206.300000
758.984253	207.400000
759.021484	209.300000
759.058716	209.900000
759.095886	209.000000
759.133057	205.900000
759.170288	207.300000
759.207458	204.600000
759.244690	213.800000
759.281860	213.500000
759.319031	206.900000
759.356262	204.700000
759.393433	202.800000
759.430603	207.000000
759.467773	205.300000
759.505005	211.800000
759.542175	212.000000
759.579346	206.700000
759.616516	206.400000
759.653687	211.700000
759.690918	205.200000
759.728027	207.600000
759.765259	209.200000
759.802429	212.700000
759.839539	209.100000
759.876770	213.700000
759.913940	216.800000
759.951111	210.300000
759.988281	210.400000
760.025452	208.700000
760.062561	207.500000
760.099792	218.500000
760.136963	212.000000
760.174072	209.400000
760.211243	206.800000
760.248413	205.800000
760.285583	209.200000
760.322754	218.700000
760.359863	217.600000
760.397034	215.800000
760.434204	211.100000
760.471375	210.300000
760.508545	210.100000
760.545715	211.700000
760.582825	208.600000
760.619995	213.700000
760.657166	208.900000
760.694275	217.700000
760.731445	214.000000
760.768555	212.000000
760.805664	217.900000
760.842834	213.700000
760.879944	216.500000
760.917114	214.400000
760.954285	212.500000
760.991394	207.400000
761.028564	220.000000
761.065674	214.600000
761.102783	212.300000
761.139954	217.700000
761.177124	216.900000
761.214172	219.100000
761.251343	214.100000
761.288452	214.300000
761.325562	217.300000
761.362732	212.500000
761.399841	215.100000
761.436951	216.400000
761.474121	212.100000
761.511169	214.300000
761.548340	219.500000
761.585449	219.100000
761.622559	219.000000
761.659668	218.900000
761.696838	222.300000
761.733887	218.900000
761.771057	216.300000
761.808167	217.500000
761.845276	219.900000
761.882385	227.500000
761.919434	219.100000
761.956604	233.600000
761.993713	215.700000
762.030762	224.800000
762.067871	218.800000
762.105042	218.900000
762.142090	227.200000
762.179199	220.500000
762.216309	223.300000
762.253418	233.000000
762.290527	226.800000
762.327637	225.000000
762.364685	216.600000
762.401794	225.400000
762.438904	222.500000
762.475952	220.100000
762.513062	219.200000
762.550110	221.100000
762.587219	230.300000
762.624329	230.000000
762.661377	224.800000
762.698486	224.500000
762.735596	222.100000
762.772644	220.000000
762.809753	218.900000
762.846863	223.500000
762.883911	230.000000
762.921021	228.100000
762.958069	225.600000
762.995117	230.300000
763.032227	230.700000
763.069336	222.400000
763.106323	221.000000
763.143433	220.300000
763.180481	227.700000
763.217590	227.600000
763.254639	225.900000
763.291687	225.700000
763.328735	232.600000
763.365845	225.600000
763.402893	226.000000
763.439941	226.200000
763.477051	229.100000
763.514038	228.500000
763.551147	224.900000
763.588196	228.700000
763.625244	229.900000
763.662292	235.500000
763.699402	237.100000
763.736389	231.700000
763.773499	239.200000
763.810486	231.500000
763.847534	230.700000
763.884644	231.300000
763.921631	229.100000
763.958679	236.400000
763.995728	231.000000
764.032776	236.300000
764.069824	230.400000
764.106873	236.300000
764.143860	242.600000
764.180969	233.200000
764.218018	240.500000
764.255005	233.700000
764.292053	234.200000
764.329102	242.800000
764.366089	242.500000
764.403137	239.900000
764.440125	235.000000
764.477173	238.500000
764.514221	242.100000
764.551208	240.600000
764.588257	239.500000
764.625305	244.900000
764.662292	247.900000
764.699341	250.700000
764.736389	244.300000
764.773376	255.800000
764.810425	246.900000
764.847473	250.800000
764.884399	245.600000
764.921448	252.700000
764.958435	251.200000
764.995483	245.600000
765.032532	258.400000
765.069458	249.800000
765.106506	251.100000
765.143555	249.900000
765.180481	251.000000
765.217529	259.500000
765.254578	246.900000
765.291504	252.500000
765.328552	250.900000
765.365540	248.000000
765.402527	259.100000
765.439575	250.800000
765.476501	247.300000
765.513550	248.600000
765.550537	252.200000
765.587463	260.500000
765.624512	252.900000
765.661499	247.500000
765.698486	259.100000
765.735474	251.900000
765.772461	254.300000
765.809448	262.600000
765.846436	256.800000
765.883423	262.900000
765.920410	258.000000
765.957397	255.100000
765.994385	258.100000
766.031311	266.500000
766.068359	261.400000
766.105286	262.500000
766.142273	266.300000
766.179260	262.900000
766.216187	257.700000
766.253174	256.200000
766.290161	262.900000
766.327148	264.400000
766.364136	266.900000
766.401123	274.100000
766.438049	260.600000
766.475037	271.200000
766.512024	266.900000
766.548950	278.600000
766.585937	276.100000
766.622864	270.300000
766.659790	271.900000
766.696777	262.000000
766.733704	276.300000
766.770691	263.600000
766.807678	276.100000
766.844604	271.100000
766.881531	271.600000
766.918518	278.000000
766.955444	280.700000
766.992432	271.600000
767.029358	275.800000
767.066284	276.200000
767.103271	275.200000
767.140198	307.700000
767.177124	288.000000
767.214050	277.700000
767.251038	281.900000
767.287964	276.500000
767.324890	275.800000
767.361816	279.900000
767.398743	283.700000
767.435730	275.500000
767.472595	281.100000
767.509583	284.000000
767.546509	276.800000
767.583374	280.900000
767.620361	276.300000
767.657288	279.300000
767.694214	279.700000
767.731140	282.900000
767.768066	281.900000
767.804993	284.600000
767.841919	278.400000
767.878845	285.600000
767.915710	288.500000
767.952698	284.800000
767.989563	284.000000
768.026489	287.400000
768.063416	284.200000
768.100281	284.100000
768.137207	288.700000
768.174133	288.200000
768.211060	288.100000
768.247986	287.700000
768.284912	286.800000
768.321777	288.800000
768.358704	283.300000
768.395630	288.900000
768.432495	282.500000
768.469421	288.800000
768.506348	291.900000
768.543152	297.700000
768.580078	292.400000
768.616943	293.500000
768.653870	295.700000
768.690796	296.500000
768.727661	295.800000
768.764587	298.600000
768.801453	291.900000
768.838318	300.100000
768.875244	297.200000
768.912109	303.200000
768.948975	294.900000
768.985901	298.100000
769.022766	297.700000
769.059631	300.700000
769.096558	297.000000
769.133362	298.400000
769.170288	301.100000
769.207214	301.400000
769.244019	304.900000
769.280945	299.900000
769.317810	309.700000
769.354675	304.400000
769.391541	313.100000
769.428406	311.300000
769.465271	318.300000
769.502136	305.900000
769.539062	311.900000
769.575867	310.400000
769.612732	314.400000
769.649597	317.100000
769.686462	318.600000
769.723328	312.400000
769.760193	312.700000
769.797058	315.700000
769.833923	325.400000
769.870728	321.100000
769.907593	322.000000
769.944519	319.600000
769.981323	323.000000
770.018188	322.600000
770.055054	321.100000
770.091858	321.200000
770.128723	330.200000
770.165588	334.200000
770.202393	326.800000
770.239258	333.300000
770.276062	333.200000
770.312927	332.100000
770.349792	339.400000
770.386597	336.000000
770.423462	341.500000
770.460327	347.100000
770.497131	336.000000
770.533997	334.800000
770.570862	345.900000
770.607605	344.000000
770.644470	341.500000
770.681335	344.000000
770.718140	341.700000
770.754944	340.000000
770.791809	341.500000
770.828613	342.800000
770.865479	342.300000
770.902222	352.100000
770.939087	345.400000
770.975952	342.000000
771.012695	345.500000
771.049561	359.200000
771.086365	347.700000
771.123169	344.800000
771.159973	345.500000
771.196838	350.100000
771.233582	355.500000
771.270447	354.500000
771.307251	360.600000
771.344055	356.100000
771.380859	356.400000
771.417664	354.400000
771.454468	362.300000
771.491272	360.000000
771.528076	359.900000
771.564880	360.000000
771.601685	362.900000
771.638428	357.500000
771.675293	366.800000
771.712097	358.300000
771.748840	373.100000
771.785645	366.700000
771.822449	367.200000
771.859253	369.700000
771.896057	369.300000
771.932861	375.100000
771.969604	374.000000
772.006409	366.800000
772.043213	376.000000
772.079956	371.600000
772.116760	366.200000
772.153503	370.100000
772.190308	381.400000
772.227112	374.800000
772.263855	370.200000
772.300659	370.700000
772.337463	377.900000
772.374207	371.600000
772.411011	371.200000
772.447754	375.900000
772.484497	388.200000
772.521301	379.500000
772.558105	379.100000
772.594849	376.400000
772.631592	384.000000
772.668396	385.500000
772.705139	391.500000
772.741882	381.300000
772.778625	390.700000
772.815430	391.000000
772.852173	392.600000
772.888916	399.100000
772.925720	399.600000
772.962463	400.500000
772.999207	392.700000
773.035950	395.800000
773.072754	398.600000
773.109436	395.400000
773.146240	399.700000
773.182922	398.200000
773.219727	403.600000
773.256470	399.100000
773.293152	394.000000
773.329956	399.900000
773.366699	407.800000
773.403381	399.600000
773.440186	403.200000
773.476929	404.000000
773.513611	401.500000
773.550354	404.000000
773.587158	409.500000
773.623840	404.400000
773.660583	405.900000
773.697327	410.600000
773.734009	401.800000
773.770813	402.300000
773.807495	403.000000
773.844238	408.200000
773.880981	417.400000
773.917664	410.600000
773.954407	415.800000
773.991150	408.600000
774.027832	418.700000
774.064575	414.000000
774.101318	412.300000
774.138000	412.100000
774.174744	408.400000
774.211487	413.000000
774.248108	405.800000
774.284851	413.500000
774.321594	418.800000
774.358276	419.600000
774.395020	422.900000
774.431702	422.600000
774.468384	416.400000
774.505127	414.600000
774.541809	426.000000
774.578491	427.700000
774.615234	424.800000
774.651917	417.500000
774.688599	421.800000
774.725342	433.400000
774.762024	432.200000
774.798706	433.700000
774.835449	426.000000
774.872070	433.800000
774.908813	432.700000
774.945496	437.200000
774.982178	439.900000
775.018860	441.200000
775.055542	439.500000
775.092224	437.000000
775.128967	441.400000
775.165588	442.400000
775.202271	441.300000
775.239014	448.600000
775.275635	445.600000
775.312317	435.400000
775.349060	442.000000
775.385681	445.900000
775.422363	446.800000
775.459045	454.300000
775.495667	456.500000
775.532410	449.100000
775.569092	447.800000
775.605713	448.800000
775.642395	454.800000
775.679016	456.100000
775.715698	457.200000
775.752380	456.200000
775.789001	454.100000
775.825684	453.300000
775.862366	459.200000
775.898987	474.600000
775.935669	465.900000
775.972351	479.700000
776.008972	472.500000
776.045654	468.800000
776.082336	466.700000
776.118958	473.800000
776.155640	478.900000
776.192322	482.200000
776.228882	483.800000
776.265564	476.100000
776.302185	472.400000
776.338867	486.200000
776.375488	479.800000
776.412109	486.200000
776.448792	489.500000
776.485413	494.800000
776.522034	485.600000
776.558716	485.600000
776.595337	494.700000
776.631958	495.800000
776.668579	492.100000
776.705261	496.700000
776.741882	486.300000
776.778503	489.600000
776.815186	496.200000
776.851746	503.400000
776.888367	498.100000
776.924988	507.900000
776.961609	497.200000
776.998291	496.800000
777.034851	493.200000
777.071472	507.700000
777.108154	503.400000
777.144714	512.600000
777.181335	508.600000
777.218018	501.100000
777.254578	514.200000
777.291199	516.000000
777.327759	515.700000
777.364380	522.000000
777.401062	528.700000
777.437622	536.100000
777.474243	526.900000
777.510864	534.800000
777.547424	536.300000
777.584045	537.900000
777.620667	538.700000
777.657227	538.000000
777.693848	533.600000
777.730469	545.000000
777.767029	541.800000
777.803650	536.900000
777.840271	533.600000
777.876831	531.000000
777.913452	534.000000
777.950012	518.500000
777.986633	527.900000
778.023193	526.300000
778.059753	527.500000
778.096375	530.300000
778.132996	537.600000
778.169556	528.000000
778.206116	537.300000
778.242737	535.500000
778.279297	544.300000
778.315857	538.700000
778.352478	541.600000
778.389038	542.900000
778.425598	550.500000
778.462219	554.700000
778.498718	548.500000
778.535339	556.200000
778.571838	558.700000
778.608459	559.100000
778.645020	552.000000
778.681580	559.300000
778.718140	556.900000
778.754761	553.900000
778.791260	563.200000
778.827881	564.900000
778.864441	558.100000
778.900940	565.600000
778.937561	562.400000
778.974121	559.100000
779.010620	556.800000
779.047241	558.500000
779.083801	566.800000
779.120300	567.000000
779.156860	571.600000
779.193359	569.400000
779.229980	578.500000
779.266541	580.800000
779.303040	578.200000
779.339600	570.200000
779.376160	560.000000
779.412659	563.200000
779.449219	566.000000
779.485779	579.100000
779.522278	577.600000
779.558838	575.700000
779.595398	577.300000
779.631897	568.600000
779.668457	560.700000
779.705017	572.200000
779.741516	568.700000
779.778076	567.000000
779.814575	564.000000
779.851074	565.900000
779.887634	564.800000
779.924133	572.400000
779.960693	564.600000
779.997253	575.200000
780.033691	574.100000
780.070251	572.100000
780.106812	575.500000
780.143250	582.100000
780.179810	581.800000
780.216370	581.900000
780.252808	584.900000
780.289368	588.300000
780.325867	585.100000
780.362366	582.000000
780.398865	600.200000
780.435364	598.400000
780.471863	596.500000
780.508423	584.300000
780.544861	586.300000
780.581421	585.200000
780.617920	584.000000
780.654419	584.100000
780.690918	592.900000
780.727417	597.800000
780.763916	589.900000
780.800415	594.800000
780.836914	585.100000
780.873352	597.800000
780.909912	590.000000
780.946411	596.600000
780.982849	606.400000
781.019348	612.100000
781.055786	604.500000
781.092346	604.000000
781.128845	614.200000
781.165283	615.200000
781.201782	617.900000
781.238281	609.400000
781.274719	608.300000
781.311218	604.400000
781.347717	619.600000
781.384155	613.200000
781.420654	613.200000
781.457092	624.100000
781.493591	609.100000
781.530090	611.100000
781.566528	615.600000
781.602966	615.200000
781.639465	617.300000
781.675903	611.100000
781.712402	619.300000
781.748901	622.000000
781.785278	620.500000
781.821777	627.900000
781.858276	624.000000
781.894714	639.300000
781.931152	630.400000
781.967651	631.900000
782.004089	630.700000
782.040527	640.200000
782.076965	630.800000
782.113403	635.500000
782.149902	635.000000
782.186340	636.000000
782.222778	650.900000
782.259277	644.900000
782.295654	644.400000
782.332092	654.000000
782.368591	644.700000
782.404968	641.200000
782.441467	652.100000
782.477905	658.700000
782.514282	655.900000
782.550781	666.800000
782.587219	668.500000
782.623596	675.400000
782.660095	672.800000
782.696472	676.500000
782.732910	682.400000
782.769348	687.700000
782.805786	691.600000
782.842224	688.100000
782.878662	679.600000
782.915039	684.900000
782.951477	691.700000
782.987915	683.300000
783.024292	691.100000
783.060730	693.700000
783.097168	677.600000
783.133545	669.200000
783.169983	665.200000
783.206421	660.100000
783.242798	659.900000
783.279236	654.300000
783.315613	652.700000
783.352051	646.800000
783.388489	643.400000
783.424866	638.500000
783.461304	646.800000
783.497681	655.300000
783.534058	652.100000
783.570496	646.600000
783.606934	647.200000
783.643250	646.200000
783.679687	657.200000
783.716125	660.000000
783.752441	657.500000
783.788879	664.000000
783.825317	665.300000
783.861633	654.100000
783.898071	641.300000
783.934448	628.700000
783.970825	612.700000
784.007263	584.400000
784.043579	562.100000
784.080017	523.600000
784.116394	481.900000
784.152710	447.200000
784.189148	414.000000
784.225525	377.200000
784.261902	349.600000
784.298279	334.000000
784.334656	323.400000
784.371033	315.100000
784.407410	330.100000
784.443787	338.300000
784.480164	365.400000
784.516541	389.200000
784.552856	432.200000
784.589233	462.800000
784.625610	491.700000
784.661987	536.600000
784.698364	559.800000
784.734741	587.100000
784.771057	617.500000
784.807434	639.300000
784.843811	663.600000
784.880127	664.800000
784.916504	688.700000
784.952881	696.100000
784.989197	701.700000
785.025574	707.600000
785.061951	721.900000
785.098267	738.500000
785.134644	722.900000
785.170959	713.700000
785.207275	720.100000
785.243652	725.300000
785.279968	714.400000
785.316345	718.000000
785.352722	708.600000
785.388977	695.100000
785.425354	684.600000
785.461731	681.200000
785.498047	683.800000
785.534363	677.600000
785.570679	675.000000
785.606995	674.700000
785.643372	674.900000
785.679687	669.500000
785.716003	673.000000
785.752380	678.000000
785.788635	681.000000
785.825012	690.800000
785.861328	688.000000
785.897644	679.700000
785.933960	696.200000
785.970337	709.900000
786.006592	735.200000
786.042908	744.800000
786.079285	739.300000
786.115540	739.200000
786.151855	739.700000
786.188171	740.900000
786.224487	747.600000
786.260803	747.100000
786.297119	743.800000
786.333435	734.700000
786.369751	725.400000
786.406006	723.000000
786.442322	721.700000
786.478638	716.300000
786.514954	722.600000
786.551270	706.200000
786.587585	704.500000
786.623840	693.300000
786.660156	698.300000
786.696472	690.900000
786.732727	693.900000
786.769043	696.300000
786.805298	686.800000
786.841614	689.300000
786.877930	700.900000
786.914124	687.100000
786.950439	708.200000
786.986755	718.800000
787.023010	724.500000
787.059326	726.100000
787.095642	732.700000
787.131836	738.800000
787.168152	738.900000
787.204468	749.800000
787.240723	760.800000
787.276978	752.300000
787.313293	751.100000
787.349548	754.500000
787.385803	761.000000
787.422058	753.300000
787.458313	749.000000
787.494629	743.900000
787.530823	741.200000
787.567139	732.300000
787.603455	732.900000
787.639648	726.700000
787.675903	730.900000
787.712219	730.500000
787.748413	724.200000
787.784729	728.000000
787.820984	715.200000
787.857178	713.900000
787.893494	717.600000
787.929749	720.300000
787.965942	729.000000
788.002258	735.900000
788.038452	735.900000
788.074707	733.500000
788.110962	742.000000
788.147217	740.500000
788.183472	753.700000
788.219727	755.100000
788.255920	762.300000
788.292175	769.700000
788.328430	762.500000
788.364624	757.800000
788.400879	764.500000
788.437134	768.000000
788.473328	764.100000
788.509583	764.500000
788.545837	758.400000
788.582031	757.000000
788.618286	766.900000
788.654480	763.500000
788.690735	765.100000
788.726990	781.300000
788.763184	779.400000
788.799377	779.600000
788.835632	779.300000
788.871826	795.700000
788.908081	788.500000
788.944336	771.300000
788.980469	777.600000
789.016724	771.300000
789.052979	772.000000
789.089111	758.300000
789.125366	765.800000
789.161621	755.600000
789.197754	766.100000
789.234009	765.800000
789.270142	748.300000
789.306396	743.400000
789.342590	752.700000
789.378784	753.600000
789.414978	749.800000
789.451233	758.500000
789.487366	755.000000
789.523621	762.100000
789.559814	758.500000
789.595947	764.300000
789.632202	780.300000
789.668335	784.300000
789.704529	791.300000
789.740784	792.000000
789.776917	791.200000
789.813110	792.100000
789.849304	811.100000
789.885498	809.700000
789.921692	819.800000
789.957886	806.700000
789.994019	803.100000
790.030212	796.200000
790.066406	807.600000
790.102539	808.100000
790.138733	820.000000
790.174927	810.300000
790.211060	815.100000
790.247253	800.100000
790.283386	791.300000
790.319580	787.100000
790.355774	788.900000
790.391907	794.900000
790.428101	797.800000
790.464294	794.000000
790.500427	792.000000
790.536621	776.000000
790.572754	776.400000
790.608887	786.900000
790.645081	790.500000
790.681274	794.500000
790.717346	780.300000
790.753540	765.900000
790.789734	753.800000
790.825867	758.700000
790.862000	768.000000
790.898132	772.900000
790.934265	769.200000
790.970459	765.500000
791.006592	757.100000
791.042725	769.200000
791.078918	772.900000
791.114990	777.500000
791.151184	775.000000
791.187317	780.800000
791.223389	775.600000
791.259583	771.400000
791.295715	773.400000
791.331848	781.000000
791.367981	792.800000
791.404114	792.200000
791.440247	777.600000
791.476379	777.000000
791.512451	759.200000
791.548584	770.500000
791.584778	777.200000
791.620850	787.400000
791.656982	783.800000
791.693115	775.000000
791.729187	770.100000
791.765381	771.300000
791.801514	769.400000
791.837585	773.300000
791.873718	776.300000
791.909851	773.000000
791.945923	775.000000
791.982056	752.800000
792.018188	755.400000
792.054260	762.300000
792.090393	770.000000
792.126465	754.600000
792.162598	757.200000
792.198669	743.300000
792.234741	744.000000
792.270874	749.400000
792.307007	747.700000
792.343079	747.400000
792.379150	745.200000
792.415283	731.700000
792.451355	733.500000
792.487488	717.600000
792.523560	726.000000
792.559631	728.000000
792.595764	714.300000
792.631836	686.800000
792.667908	666.500000
792.703979	661.700000
792.740051	696.700000
792.776184	755.000000
792.812256	804.000000
792.848328	819.000000
792.884399	820.400000
792.920471	812.800000
792.956543	825.000000
792.992615	833.600000
793.028748	837.800000
793.064758	842.100000
793.100830	841.500000
793.136963	835.100000
793.172974	842.800000
793.209045	837.400000
793.245178	843.700000
793.281189	843.500000
793.317261	859.800000
793.353271	853.700000
793.389404	857.100000
793.425476	851.100000
793.461487	843.000000
793.497559	839.600000
793.533630	849.800000
793.569641	853.200000
793.605713	852.400000
793.641785	854.000000
793.677795	842.100000
793.713867	829.900000
793.749878	844.600000
793.785950	860.500000
793.822021	871.900000
793.858032	851.800000
793.894104	850.600000
793.930176	840.400000
793.966187	837.800000
794.002258	839.500000
794.038269	851.500000
794.074280	843.600000
794.110352	859.800000
794.146423	840.900000
794.182373	826.300000
794.218445	827.800000
794.254517	833.600000
794.290466	826.100000
794.326538	826.700000
794.362549	829.700000
794.398560	824.600000
794.434631	830.000000
794.470581	820.100000
794.506653	822.200000
794.542664	825.100000
794.578674	821.600000
794.614685	818.600000
794.650757	809.300000
794.686707	809.700000
794.722778	806.600000
794.758789	821.400000
794.794739	831.000000
794.830811	844.200000
794.866821	858.000000
794.902771	851.500000
794.938843	849.800000
794.974792	853.600000
795.010803	857.400000
795.046814	850.600000
795.082825	839.400000
795.118835	854.300000
795.154846	823.400000
795.190796	826.300000
795.226807	826.300000
795.262817	833.500000
795.298767	822.700000
795.334778	832.800000
795.370850	821.400000
795.406799	823.500000
795.442810	811.600000
795.478821	818.800000
795.514709	828.500000
795.550720	856.600000
795.586670	827.200000
795.622681	824.300000
795.658691	819.200000
795.694641	828.800000
795.730652	833.200000
795.766663	840.700000
795.802551	836.300000
795.838562	852.800000
795.874573	836.200000
795.910522	826.500000
795.946472	825.900000
795.982483	846.500000
796.018433	844.400000
796.054382	848.000000
796.090393	834.000000
796.126282	827.100000
796.162292	818.400000
796.198242	822.900000
796.234192	827.000000
796.270203	824.000000
796.306091	837.000000
796.342041	841.600000
796.378052	822.400000
796.413940	830.100000
796.449951	833.500000
796.485901	835.300000
796.521790	848.100000
796.557800	851.100000
796.593689	840.400000
796.629639	827.500000
796.665649	827.300000
796.701599	828.700000
796.737488	837.100000
796.773437	842.500000
796.809387	830.000000
796.845337	827.300000
796.881287	819.700000
796.917175	811.000000
796.953125	832.700000
796.989075	841.900000
797.024963	833.800000
797.060913	827.200000
797.096863	820.900000
797.132751	820.600000
797.168701	816.100000
797.204590	828.300000
797.240540	827.400000
797.276489	829.200000
797.312439	821.200000
797.348328	798.000000
797.384277	795.600000
797.420166	797.700000
797.456055	805.000000
797.492004	800.200000
797.527893	804.400000
797.563843	793.100000
797.599731	779.300000
797.635620	771.300000
797.671570	796.000000
797.707520	805.800000
797.743347	802.400000
797.779297	792.300000
797.815125	776.500000
797.851074	771.200000
797.887024	778.900000
797.922913	788.700000
797.958801	798.800000
797.994690	787.400000
798.030579	783.000000
798.066467	781.100000
798.102356	774.900000
798.138245	777.600000
798.174133	773.200000
798.210083	775.800000
798.245911	783.800000
798.281799	777.200000
798.317749	760.900000
798.353577	764.900000
798.389465	760.100000
798.425293	762.100000
798.461243	758.700000
798.497131	763.500000
798.532959	755.700000
798.568848	758.300000
798.604736	744.900000
798.640564	744.400000
798.676453	753.000000
798.712402	759.700000
798.748230	751.100000
798.784119	750.600000
798.820007	743.100000
798.855835	742.400000
798.891724	740.900000
798.927551	744.000000
798.963379	743.800000
798.999268	731.000000
799.035095	729.300000
799.070984	734.600000
799.106873	728.000000
799.142700	736.900000
799.178528	726.900000
799.214417	726.300000
799.250244	729.800000
799.286133	719.500000
799.321960	727.700000
799.357788	731.300000
799.393677	724.400000
799.429504	722.500000
799.465332	727.800000
799.501221	723.800000
799.537048	723.900000
799.572876	724.400000
799.608704	731.900000
799.644531	742.200000
799.680359	731.600000
799.716248	731.300000
799.752014	734.600000
799.787903	723.800000
799.823730	724.500000
799.859558	722.600000
799.895386	726.500000
799.931213	730.300000
799.967041	720.400000
800.002869	713.500000
800.038696	718.000000
800.074463	713.200000
800.110352	729.300000
800.146179	721.000000
800.181946	723.500000
800.217773	720.300000
800.253540	709.800000
800.289429	704.500000
800.325256	704.700000
800.361023	705.600000
800.396851	711.200000
800.432678	712.900000
800.468445	706.200000
800.504272	703.300000
800.540100	686.600000
800.575867	696.100000
800.611694	700.000000
800.647461	696.500000
800.683289	688.200000
800.719116	688.700000
800.754883	683.600000
800.790649	679.200000
800.826477	674.500000
800.862244	692.500000
800.898071	680.500000
800.933838	681.800000
800.969604	679.300000
801.005432	676.900000
801.041199	679.200000
801.076965	680.600000
801.112793	668.200000
801.148560	665.100000
801.184326	663.100000
801.220154	660.000000
801.255859	648.900000
801.291687	653.800000
801.327454	649.900000
801.363281	656.300000
801.398987	648.500000
801.434814	649.200000
801.470520	652.800000
801.506287	646.700000
801.542114	641.900000
801.577820	646.700000
801.613647	645.900000
801.649414	643.900000
801.685120	638.600000
801.720886	644.000000
801.756714	630.000000
801.792419	632.700000
801.828186	632.700000
801.863892	634.800000
801.899719	626.300000
801.935486	628.300000
801.971252	636.000000
802.006958	633.000000
802.042725	631.300000
802.078430	624.400000
802.114197	620.600000
802.149963	633.400000
802.185669	622.400000
802.221436	624.200000
802.257202	626.400000
802.292908	623.000000
802.328674	630.600000
802.364441	628.000000
802.400146	626.600000
802.435913	619.000000
802.471558	616.700000
802.507324	616.400000
802.543091	619.000000
802.578796	628.800000
802.614502	624.800000
802.650269	623.300000
802.685974	611.100000
802.721741	613.400000
802.757446	625.000000
802.793152	625.700000
802.828918	633.300000
802.864624	616.900000
802.900330	615.500000
802.936035	618.500000
802.971802	619.700000
803.007446	614.000000
803.043213	606.600000
803.078857	618.300000
803.114624	600.300000
803.150330	605.700000
803.185974	600.900000
803.221741	605.000000
803.257446	610.600000
803.293152	607.000000
803.328857	598.800000
803.364563	590.600000
803.400208	588.300000
803.435974	594.300000
803.471680	587.800000
803.507324	588.500000
803.543030	595.500000
803.578735	591.900000
803.614441	580.200000
803.650146	586.400000
803.685791	578.000000
803.721497	582.700000
803.757202	578.200000
803.792847	582.800000
803.828552	571.100000
803.864258	567.000000
803.899902	566.100000
803.935608	561.700000
803.971313	571.300000
804.006958	572.200000
804.042664	561.500000
804.078308	571.800000
804.113953	558.500000
804.149658	561.900000
804.185364	551.400000
804.221008	573.900000
804.256714	559.700000
804.292297	556.200000
804.328003	548.100000
804.363708	547.500000
804.399292	547.000000
804.434998	549.900000
804.470703	544.000000
804.506287	549.900000
804.541992	541.900000
804.577637	542.100000
804.613281	530.000000
804.648926	530.800000
804.684570	542.000000
804.720215	534.800000
804.755920	536.000000
804.791565	534.600000
804.827209	533.700000
804.862854	528.000000
804.898437	527.900000
804.934143	530.900000
804.969788	530.300000
805.005371	526.800000
805.041077	528.300000
805.076721	521.600000
805.112305	519.200000
805.147949	519.900000
805.183655	517.600000
805.219238	525.600000
805.254883	518.000000
805.290466	517.300000
805.326111	514.600000
805.361755	507.500000
805.397400	514.300000
805.432983	515.000000
805.468628	515.700000
805.504211	519.400000
805.539856	519.700000
805.575500	516.800000
805.611084	508.100000
805.646729	498.200000
805.682373	506.500000
805.717957	514.800000
805.753601	513.500000
805.789246	496.900000
805.824768	504.100000
805.860413	506.700000
805.895996	499.600000
805.931641	500.200000
805.967224	505.900000
806.002869	493.900000
806.038452	505.500000
806.074036	502.100000
806.109619	489.700000
806.145264	484.900000
806.180847	490.000000
806.216431	490.100000
806.252014	489.900000
806.287659	488.400000
806.323181	499.400000
806.358826	493.900000
806.394409	478.900000
806.429993	478.500000
806.465576	489.100000
806.501160	475.900000
806.536743	468.000000
806.572327	476.500000
806.607910	473.300000
806.643494	474.900000
806.679077	469.500000
806.714661	471.900000
806.750244	468.700000
806.785828	465.600000
806.821350	462.800000
806.856934	468.400000
806.892517	462.600000
806.928101	459.900000
806.963684	462.300000
806.999268	467.000000
807.034790	446.200000
807.070374	453.300000
807.105896	443.600000
807.141479	449.200000
807.177063	455.100000
807.212585	452.000000
807.248169	446.300000
807.283752	448.800000
807.319275	442.300000
807.354858	446.400000
807.390381	438.100000
807.425903	435.700000
807.461487	434.000000
807.497070	428.200000
807.532593	429.000000
807.568115	430.700000
807.603699	426.500000
807.639221	423.500000
807.674744	428.800000
807.710266	427.700000
807.745850	427.100000
807.781372	422.900000
807.816895	418.700000
807.852417	424.900000
807.888000	421.600000
807.923523	416.500000
807.959045	421.100000
807.994629	413.700000
808.030090	411.900000
808.065613	414.200000
808.101135	418.000000
808.136658	413.800000
808.172241	411.900000
808.207764	413.600000
808.243225	410.900000
808.278809	402.900000
808.314270	412.500000
808.349792	401.800000
808.385315	400.200000
808.420837	409.500000
808.456360	413.600000
808.491882	410.400000
808.527344	408.000000
808.562866	410.900000
808.598389	404.600000
808.633850	403.300000
808.669434	398.100000
808.704895	401.800000
808.740417	405.500000
808.775940	398.100000
808.811462	395.000000
808.846924	394.000000
808.882385	393.600000
808.917847	390.500000
808.953369	391.600000
808.988892	386.300000
809.024353	392.600000
809.059875	394.500000
809.095398	387.200000
809.130798	383.500000
809.166321	386.200000
809.201843	383.300000
809.237305	387.800000
809.272766	391.200000
809.308228	378.300000
809.343750	379.100000
809.379211	382.100000
809.414734	380.300000
809.450134	382.200000
809.485657	372.100000
809.521118	376.800000
809.556580	373.600000
809.592102	372.900000
809.627502	371.700000
809.663025	372.200000
809.698486	369.600000
809.733887	363.500000
809.769409	368.000000
809.804871	356.300000
809.840271	359.400000
809.875793	362.300000
809.911194	367.400000
809.946655	359.700000
809.982178	353.200000
810.017639	360.200000
810.053040	357.200000
810.088501	352.300000
810.123901	355.600000
810.159424	351.200000
810.194885	344.500000
810.230286	349.500000
810.265747	346.600000
810.301208	343.200000
810.336609	347.500000
810.372070	340.700000
810.407532	341.700000
810.442932	340.800000
810.478394	343.100000
810.513794	338.600000
810.549255	338.400000
810.584717	337.700000
810.620117	331.300000
810.655518	336.800000
810.690979	334.000000
810.726379	333.900000
810.761841	326.300000
810.797302	325.900000
810.832642	324.200000
810.868103	333.700000
810.903564	323.400000
810.938904	329.700000
810.974365	317.700000
811.009827	322.300000
811.045166	317.300000
811.080627	312.400000
811.115967	318.000000
811.151428	323.800000
811.186829	316.400000
811.222229	318.800000
811.257629	310.500000
811.293091	315.500000
811.328430	322.600000
811.363892	315.700000
811.399292	317.300000
811.434631	311.200000
811.470093	316.000000
811.505493	310.200000
811.540833	308.300000
811.576294	310.800000
811.611694	306.100000
811.647034	304.900000
811.682434	305.400000
811.717773	304.500000
811.753235	310.100000
811.788635	304.300000
811.823975	303.400000
811.859375	310.500000
811.894775	298.000000
811.930115	299.100000
811.965515	297.400000
812.000916	300.700000
812.036255	295.900000
812.071655	300.300000
812.106995	292.200000
812.142395	294.000000
812.177795	300.300000
812.213196	296.100000
812.248474	296.200000
812.283875	287.300000
812.319214	292.500000
812.354614	288.000000
812.390015	287.100000
812.425293	285.800000
812.460693	288.200000
812.496094	282.800000
812.531433	280.300000
812.566772	280.300000
812.602173	284.200000
812.637451	282.600000
812.672852	279.300000
812.708191	282.500000
812.743530	277.100000
812.778931	272.300000
812.814270	276.100000
812.849609	278.900000
812.884949	277.400000
812.920227	267.300000
812.955627	281.600000
812.990967	274.000000
813.026306	271.200000
813.061646	262.600000
813.096985	261.500000
813.132324	257.600000
813.167664	262.600000
813.203003	266.300000
813.238281	255.300000
813.273682	255.600000
813.308960	255.700000
813.344299	254.600000
813.379639	261.700000
813.414978	255.700000
813.450256	254.600000
813.485596	257.500000
813.520874	252.200000
813.556213	255.200000
813.591614	258.400000
813.626831	251.300000
813.662170	253.200000
813.697510	259.400000
813.732788	249.000000
813.768127	253.400000
813.803467	252.300000
813.838745	248.600000
813.874084	252.200000
813.909363	251.800000
813.944641	249.400000
813.979980	243.400000
814.015320	246.300000
814.050598	247.500000
814.085876	247.700000
814.121155	244.200000
814.156494	243.400000
814.191772	245.600000
814.227051	239.800000
814.262390	244.300000
814.297668	242.700000
814.332947	245.800000
814.368225	237.100000
814.403564	241.300000
814.438782	236.500000
814.474121	240.400000
814.509338	236.800000
814.544617	243.800000
814.579956	236.600000
814.615173	244.900000
814.650513	239.600000
814.685791	234.300000
814.721008	236.700000
814.756348	236.700000
814.791626	234.400000
814.826843	234.200000
814.862122	234.000000
814.897400	231.800000
814.932678	234.200000
814.967957	233.200000
815.003235	234.400000
815.038452	229.300000
815.073730	228.200000
815.108948	235.200000
815.144226	234.600000
815.179504	236.200000
815.214722	225.900000
815.250000	224.000000
815.285278	230.700000
815.320496	225.900000
815.355774	227.300000
815.391052	229.000000
815.426270	229.500000
815.461487	225.800000
815.496765	223.700000
815.531982	219.600000
815.567261	225.600000
815.602539	229.700000
815.637695	227.000000
815.672974	227.400000
815.708191	229.400000
815.743408	229.300000
815.778687	224.100000
815.813904	229.900000
815.849121	218.600000
815.884399	219.200000
815.919556	219.900000
815.954834	222.300000
815.990051	223.200000
816.025269	225.900000
816.060486	219.300000
816.095703	218.100000
816.130920	223.100000
816.166199	219.200000
816.201416	223.300000
816.236572	226.000000
816.271851	221.500000
816.307007	223.800000
816.342224	216.100000
816.377441	220.300000
816.412659	215.300000
816.447876	222.700000
816.483093	220.000000
816.518250	220.100000
816.553467	217.100000
816.588745	221.500000
816.623901	214.900000
816.659119	213.200000
816.694275	217.100000
816.729492	215.400000
816.764709	245.800000
816.799927	212.900000
816.835083	216.200000
816.870300	211.700000
816.905457	216.500000
816.940674	217.200000
816.975830	213.100000
817.010986	213.800000
817.046204	214.000000
817.081421	212.500000
817.116577	211.900000
817.151733	219.000000
817.186951	217.700000
817.222107	216.900000
817.257324	218.400000
817.292419	218.200000
817.327637	210.700000
817.362854	214.200000
817.398010	209.600000
817.433167	214.000000
817.468323	211.100000
817.503479	211.700000
817.538635	221.800000
817.573853	216.800000
817.608948	212.600000
817.644165	211.600000
817.679321	210.300000
817.714478	211.000000
817.749634	214.000000
817.784790	221.800000
817.819946	219.100000
817.855103	206.400000
817.890198	212.900000
817.925415	205.600000
817.960571	214.600000
817.995667	215.800000
818.030823	215.000000
818.066040	208.700000
818.101135	215.100000
818.136292	211.000000
818.171448	208.700000
818.206543	211.600000
818.241699	215.300000
818.276855	213.200000
818.311951	212.400000
818.347107	208.800000
818.382263	215.700000
818.417358	217.300000
818.452515	218.500000
818.487610	218.500000
818.522766	211.500000
818.557922	219.500000
818.593018	214.900000
818.628113	212.500000
818.663269	208.900000
818.698364	213.000000
818.733521	210.900000
818.768677	214.200000
818.803711	210.000000
818.838867	208.200000
818.874023	211.100000
818.909058	207.400000
818.944214	208.800000
818.979370	212.300000
819.014404	213.200000
819.049561	209.600000
819.084595	213.600000
819.119751	206.600000
819.154846	213.000000
819.189941	209.700000
819.225037	206.600000
819.260193	204.900000
819.295227	205.400000
819.330322	204.700000
819.365479	204.000000
819.400513	240.200000
819.435608	203.200000
819.470764	202.900000
819.505798	204.700000
819.540894	208.300000
819.575989	204.800000
819.611084	212.100000
819.646179	212.400000
819.681213	210.600000
819.716309	205.600000
819.751404	206.700000
819.786438	212.700000
819.821533	204.400000
819.856628	209.100000
819.891663	210.900000
819.926758	216.100000
819.961853	213.000000
819.996887	204.800000
820.031982	210.000000
820.067017	206.900000
820.102112	241.000000
820.137207	206.400000
820.172302	218.800000
820.207275	205.800000
820.242371	204.700000
820.277405	205.200000
820.312500	209.300000
820.347534	208.700000
820.382568	213.100000
820.417664	205.200000
820.452759	204.600000
820.487732	205.600000
820.522827	206.100000
820.557861	202.700000
820.592896	206.300000
820.627930	207.400000
820.662964	202.500000
820.698059	208.400000
820.733093	205.800000
820.768127	209.300000
820.803162	205.900000
820.838196	205.000000
820.873230	205.900000
820.908264	208.300000
820.943298	204.300000
820.978333	210.900000
821.013367	206.800000
821.048401	211.500000
821.083435	209.400000
821.118469	202.700000
821.153503	209.300000
821.188477	208.700000
821.223511	201.900000
821.258484	206.400000
821.293579	207.200000
821.328613	202.800000
821.363647	204.300000
821.398621	203.400000
821.433655	204.000000
821.468628	217.000000
821.503662	204.800000
821.538696	209.500000
821.573669	202.200000
821.608704	210.000000
821.643677	204.100000
821.678650	208.900000
821.713684	212.000000
821.748718	206.700000
821.783691	206.400000
821.818726	206.500000
821.853638	208.400000
821.888672	206.000000
821.923706	206.200000
821.958618	203.800000
821.993652	204.900000
822.028687	209.900000
822.063599	211.600000
822.098633	206.600000
822.133667	202.600000
822.168579	206.600000
822.203613	207.600000
822.238586	200.900000
822.273560	209.300000
822.308533	202.800000
822.343567	204.700000
822.378479	205.400000
822.413452	205.800000
822.448425	202.400000
822.483398	210.300000
822.518372	208.200000
822.553345	203.100000
822.588318	211.800000
822.623291	205.400000
822.658203	202.100000
822.693237	206.400000
822.728210	202.100000
822.763123	206.300000
822.798096	201.300000
822.833069	204.800000
822.867981	204.300000
822.902954	206.500000
822.937927	207.100000
822.972900	213.700000
823.007874	198.400000
823.042725	208.800000
823.077698	213.200000
823.112671	201.900000
823.147583	203.400000
823.182556	206.200000
823.217529	207.400000
823.252441	203.100000
823.287415	214.700000
823.322388	208.200000
823.357239	203.900000
823.392212	211.100000
823.427185	210.300000
823.462097	202.000000
823.497009	208.100000
823.531982	202.700000
823.566895	205.700000
823.601807	201.100000
823.636719	204.700000
823.671631	206.800000
823.706604	204.000000
823.741455	205.900000
823.776428	200.200000
823.811340	206.900000
823.846252	211.300000
823.881165	210.400000
823.916138	205.800000
823.950989	210.500000
823.985901	204.400000
824.020813	205.100000
824.055725	203.700000
824.090637	198.000000
824.125610	206.000000
824.160461	205.200000
824.195374	204.800000
824.230225	206.600000
824.265198	199.500000
824.300110	201.100000
824.334961	212.200000
824.369873	196.300000
824.404785	205.900000
824.439636	207.600000
824.474548	196.700000
824.509460	197.700000
824.544312	208.500000
824.579224	205.300000
824.614075	207.300000
824.648987	203.200000
824.683899	204.100000
824.718811	201.100000
824.753662	208.400000
824.788574	207.900000
824.823364	204.000000
824.858276	200.300000
824.893188	206.900000
824.928040	208.300000
824.962952	205.200000
824.997803	208.500000
825.032654	203.600000
825.067566	205.100000
825.102417	200.400000
825.137268	203.600000
825.172119	203.000000
825.206970	201.900000
825.241882	200.400000
825.276733	200.400000
825.311646	201.200000
825.346436	199.700000
825.381348	197.800000
825.416138	205.100000
825.450989	199.200000
825.485901	195.900000
825.520691	195.000000
825.555542	197.800000
825.590454	200.800000
825.625244	196.800000
825.660095	205.100000
825.695007	204.200000
825.729797	201.800000
825.764648	197.500000
825.799438	200.500000
825.834290	202.500000
825.869202	195.200000
825.903992	200.700000
825.938843	199.000000
825.973694	196.600000
826.008484	209.000000
826.043335	196.800000
826.078186	194.100000
826.112976	204.300000
826.147827	204.400000
826.182678	207.800000
826.217468	193.700000
826.252319	203.600000
826.287109	194.600000
826.321899	203.200000
826.356750	198.300000
826.391541	193.600000
826.426392	202.400000
826.461182	198.200000
826.495972	194.200000
826.530823	190.100000
826.565613	200.300000
826.600403	192.400000
826.635254	200.600000
826.670044	190.800000
826.704834	191.900000
826.739685	192.500000
826.774475	198.900000
826.809265	196.000000
826.844055	194.400000
826.878906	200.000000
826.913635	197.200000
826.948425	196.100000
826.983215	198.100000
827.018005	199.000000
827.052856	194.100000
827.087585	198.200000
827.122375	191.000000
827.157227	194.500000
827.191956	206.600000
827.226746	190.500000
827.261536	197.200000
827.296265	189.800000
827.331116	193.300000
827.365906	195.800000
827.400635	193.200000
827.435425	188.200000
827.470215	198.900000
827.504944	193.700000
827.539734	199.100000
827.574463	194.400000
827.609253	199.800000
827.644043	195.200000
827.678772	198.100000
827.713562	194.500000
827.748352	192.300000
827.783081	190.500000
827.817871	194.800000
827.852600	192.200000
827.887329	193.600000
827.922119	187.900000
827.956848	196.800000
827.991638	204.600000
828.026367	194.900000
828.061157	195.600000
828.095886	194.000000
828.130615	209.800000
828.165344	187.100000
828.200073	194.900000
828.234863	191.800000
828.269592	192.600000
828.304321	196.800000
828.339111	195.000000
828.373779	190.300000
828.408569	198.200000
828.443298	198.500000
828.477966	192.700000
828.512756	194.000000
828.547424	191.700000
828.582214	191.900000
828.616943	193.800000
828.651672	194.300000
828.686340	197.500000
828.721130	191.700000
828.755798	194.200000
828.790527	195.000000
828.825256	195.000000
828.859924	196.000000
828.894714	200.100000
828.929443	201.400000
828.964111	192.900000
828.998840	198.000000
829.033569	192.100000
829.068237	193.200000
829.102966	192.800000
829.137634	196.000000
829.172363	194.300000
829.207092	196.500000
829.241821	190.100000
829.276489	189.200000
829.311157	194.600000
829.345825	193.100000
829.380554	198.200000
829.415283	191.900000
829.449951	188.900000
829.484619	201.700000
829.519348	198.700000
829.554016	194.200000
829.588745	193.600000
829.623413	189.000000
829.658081	201.500000
829.692749	190.000000
829.727417	197.900000
829.762146	196.200000
829.796814	190.700000
829.831482	193.200000
829.866150	194.400000
829.900879	192.500000
829.935486	195.100000
829.970154	192.000000
830.004883	204.500000
830.039490	195.800000
830.074219	191.100000
830.108887	194.200000
830.143494	192.800000
830.178223	189.000000
830.212891	193.400000
830.247498	194.100000
830.282166	200.400000
830.316772	199.100000
830.351501	192.100000
830.386169	192.800000
830.420776	193.900000
830.455444	194.900000
830.490112	191.900000
830.524719	188.200000
830.559387	197.100000
830.594055	196.800000
830.628662	196.000000
830.663330	193.100000
830.697998	201.600000
830.732605	193.300000
830.767273	195.500000
830.801941	193.000000
830.836487	202.700000
830.871155	194.300000
830.905762	195.100000
830.940430	188.900000
830.975098	192.100000
831.009644	194.200000
831.044312	201.600000
831.078979	195.100000
831.113525	187.400000
831.148193	194.200000
831.182861	194.200000
831.217407	194.800000
831.252075	205.500000
831.286621	191.900000
831.321289	190.500000
831.355896	195.400000
831.390564	200.100000
831.425110	194.900000
831.459778	199.400000
831.494324	204.300000
831.528931	197.600000
831.563599	198.200000
831.598145	189.400000
831.632751	194.800000
831.667419	192.900000
831.701965	197.200000
831.736572	196.800000
831.771179	190.000000
831.805786	191.300000
831.840393	199.800000
831.874939	188.300000
831.909546	197.500000
831.944153	187.800000
831.978760	194.300000
832.013306	189.400000
832.047913	199.500000
832.082458	202.300000
832.117065	191.900000
832.151672	201.500000
832.186218	196.800000
832.220825	196.500000
832.255432	187.600000
832.289978	191.800000
832.324585	196.100000
832.359192	195.000000
832.393677	194.300000
832.428284	194.000000
832.462830	192.700000
832.497437	192.900000
832.531982	197.900000
832.566589	191.800000
832.601135	195.600000
832.635681	187.600000
832.670227	194.900000
832.704773	200.000000
832.739380	194.900000
832.773926	193.500000
832.808472	191.000000
832.843079	193.100000
832.877563	196.000000
832.912170	193.000000
832.946716	187.900000
832.981201	198.000000
833.015808	197.600000
833.050293	194.600000
833.084839	190.200000
833.119446	193.900000
833.153992	198.500000
833.188477	194.300000
833.223022	191.400000
833.257568	196.300000
833.292114	198.600000
833.326660	204.600000
833.361145	192.000000
833.395691	189.000000
833.430237	194.500000
833.464783	197.300000
833.499329	191.000000
833.533875	191.700000
833.568359	197.100000
833.602905	199.200000
833.637390	198.700000
833.671875	193.000000
833.706421	191.900000
833.740906	192.900000
833.775452	187.000000
833.809998	193.300000
833.844482	199.900000
833.879028	194.700000
833.913513	192.600000
833.947998	197.400000
833.982544	191.200000
834.017090	191.900000
834.051514	185.300000
834.086060	196.700000
834.120544	194.000000
834.155029	197.700000
834.189575	192.600000
834.223999	195.100000
834.258545	193.500000
834.293030	196.400000
834.327515	194.000000
834.362000	193.300000
834.396545	197.600000
834.430969	192.400000
834.465454	197.900000
834.500000	189.200000
834.534424	196.100000
834.568970	187.900000
834.603455	188.100000
834.637878	191.800000
834.672363	194.900000
834.706909	193.300000
834.741333	195.400000
834.775818	186.800000
834.810242	191.200000
834.844727	194.200000
834.879211	193.200000
834.913635	195.100000
834.948181	196.300000
834.982666	193.500000
835.017090	193.400000
835.051575	194.600000
835.086060	191.900000
835.120483	197.000000
835.154907	197.100000
835.189331	193.900000
835.223816	198.000000
835.258301	188.100000
835.292786	191.100000
835.327209	196.200000
835.361694	191.700000
835.396057	192.800000
835.430542	197.400000
835.465027	193.900000
835.499390	191.200000
835.533875	218.800000
835.568359	191.900000
835.602722	188.400000
835.637207	195.300000
835.671692	188.500000
835.706055	211.000000
835.740540	195.900000
835.774902	196.700000
835.809387	194.900000
835.843811	189.900000
835.878235	199.300000
835.912659	189.500000
835.947083	192.500000
835.981506	193.700000
836.015930	189.100000
836.050354	197.500000
836.084778	202.100000
836.119202	196.900000
836.153625	208.100000
836.187988	189.700000
836.222473	192.300000
836.256897	194.700000
836.291260	194.000000
836.325684	194.900000
836.360046	192.200000
836.394470	193.800000
836.428894	201.400000
836.463318	190.200000
836.497681	196.700000
836.532104	199.800000
836.566467	194.400000
836.600891	191.800000
836.635315	199.700000
836.669678	195.600000
836.704102	198.700000
836.738525	194.800000
836.772888	188.900000
836.807251	191.400000
836.841675	197.400000
836.876038	190.500000
836.910461	191.100000
836.944763	196.900000
836.979187	191.500000
837.013611	198.800000
837.047974	190.700000
837.082336	203.400000
837.116699	197.700000
837.151062	194.500000
837.185486	190.300000
837.219849	191.100000
837.254211	198.400000
837.288574	193.700000
837.322937	189.300000
837.357300	186.000000
837.391663	204.700000
837.426086	199.100000
837.460388	193.900000
837.494751	198.800000
837.529114	191.700000
837.563477	201.200000
837.597839	195.200000
837.632141	192.700000
837.666565	192.100000
837.700928	198.200000
837.735229	195.400000
837.769592	197.000000
837.803955	198.100000
837.838257	191.000000
837.872620	191.400000
837.906982	201.000000
837.941284	193.000000
837.975647	196.500000
838.010010	199.700000
838.044312	192.200000
838.078674	192.900000
838.112976	195.000000
838.147339	197.600000
838.181702	195.300000
838.216003	201.000000
838.250366	195.900000
838.284668	196.300000
838.318970	189.400000
838.353333	192.600000
838.387634	194.100000
838.421936	194.700000
838.456299	195.700000
838.490601	201.100000
838.524902	197.900000
838.559265	198.700000
838.593567	197.100000
838.627869	190.200000
838.662170	197.300000
838.696472	189.300000
838.730774	192.200000
838.765137	195.900000
838.799377	183.700000
838.833740	196.300000
838.868042	198.500000
838.902283	189.000000
838.936646	199.300000
838.970947	195.600000
839.005188	199.500000
839.039551	189.700000
839.073792	199.300000
839.108093	194.600000
839.142395	201.500000
839.176697	189.600000
839.210937	196.500000
839.245300	203.700000
839.279541	188.200000
839.313843	193.800000
839.348145	195.800000
839.382385	198.300000
839.416687	197.200000
839.450989	196.700000
839.485229	192.700000
839.519531	191.100000
839.553833	198.800000
839.588013	193.800000
839.622314	195.300000
839.656555	195.900000
839.690857	192.900000
839.725159	190.300000
839.759460	193.400000
839.793640	191.700000
839.827942	194.500000
839.862183	190.500000
839.896423	195.500000
839.930725	203.900000
839.964966	201.100000
839.999207	198.600000
840.033508	200.100000
840.067688	192.000000
840.101990	200.700000
840.136230	193.500000
840.170471	201.200000
840.204712	191.700000
840.238953	192.700000
840.273193	194.100000
840.307434	197.200000
840.341736	191.100000
840.375916	190.000000
840.410217	191.700000
840.444397	199.700000
840.478638	195.500000
840.512878	199.500000
840.547119	194.100000
840.581360	197.300000
840.615601	201.100000
840.649780	204.400000
840.684021	193.900000
840.718262	201.100000
840.752441	200.800000
840.786682	196.600000
840.820862	195.900000
840.855103	202.300000
840.889343	195.300000
840.923584	197.700000
840.957764	196.000000
840.992004	196.000000
841.026184	205.800000
841.060425	193.600000
841.094666	192.300000
841.128845	197.100000
841.163025	196.200000
841.197266	197.100000
841.231445	195.000000
841.265686	197.800000
841.299866	191.400000
841.334045	200.800000
841.368286	194.900000
841.402405	200.400000
841.436646	196.500000
841.470825	193.300000
841.505005	194.600000
841.539185	190.200000
841.573425	192.500000
841.607544	194.600000
841.641785	194.600000
841.675964	191.500000
841.710144	194.700000
841.744324	192.000000
841.778503	194.400000
841.812683	190.800000
841.846863	201.400000
841.881042	199.900000
841.915222	192.400000
841.949402	205.400000
841.983521	188.900000
842.017700	193.200000
842.051880	195.300000
842.086060	196.900000
842.120239	196.300000
842.154419	191.800000
842.188538	196.400000
842.222717	193.800000
842.256897	201.100000
842.291016	194.000000
842.325195	196.100000
842.359375	202.900000
842.393494	202.300000
842.427673	194.700000
842.461853	196.600000
842.495911	202.300000
842.530090	195.300000
842.564209	193.100000
842.598389	196.300000
842.632568	195.800000
842.666626	197.600000
842.700806	193.900000
842.734985	193.100000
842.769043	197.000000
842.803223	193.800000
842.837402	193.600000
842.871460	192.400000
842.905640	204.800000
842.939697	191.800000
842.973877	196.900000
843.007996	198.700000
843.042175	204.700000
843.076233	190.700000
843.110413	198.800000
843.144470	200.700000
843.178589	199.300000
843.212769	192.200000
843.246826	200.700000
843.280945	191.100000
843.315125	195.000000
843.349182	190.400000
843.383301	200.200000
843.417419	204.800000
843.451538	195.400000
843.485657	192.400000
843.519714	196.300000
843.553833	195.300000
843.587952	193.200000
843.622070	191.100000
843.656128	197.400000
843.690247	191.600000
843.724304	196.200000
843.758423	196.700000
843.792542	192.900000
843.826599	195.500000
843.860718	194.000000
843.894836	189.000000
843.928894	195.600000
843.963013	195.300000
843.997070	192.200000
844.031128	191.800000
844.065247	199.700000
844.099304	198.600000
844.133362	196.100000
844.167480	197.800000
844.201599	199.400000
844.235596	197.000000
844.269714	197.100000
844.303711	197.500000
844.337830	188.500000
844.371948	196.400000
844.405945	194.200000
844.440063	192.400000
844.474121	205.400000
844.508118	194.000000
844.542236	194.000000
844.576294	195.700000
844.610352	189.500000
844.644409	194.800000
844.678406	187.500000
844.712524	199.200000
844.746582	200.000000
844.780640	194.100000
844.814636	194.400000
844.848755	206.300000
844.882751	192.400000
844.916809	197.200000
844.950867	196.100000
844.984863	202.000000
845.018921	193.900000
845.052979	192.700000
845.086975	195.200000
845.121033	189.300000
845.155090	191.400000
845.189087	200.500000
845.223145	192.900000
845.257141	195.800000
845.291199	197.800000
845.325256	200.700000
845.359253	196.400000
845.393250	206.900000
845.427307	194.300000
845.461304	195.300000
845.495361	196.400000
845.529358	203.000000
845.563354	194.300000
845.597412	191.300000
845.631409	204.600000
845.665405	200.900000
845.699463	199.800000
845.733459	194.300000
845.767456	204.300000
845.801453	192.700000
845.835449	200.500000
845.869446	199.200000
845.903503	198.500000
845.937439	191.200000
845.971497	201.300000
846.005493	190.800000
846.039429	200.600000
846.073486	203.500000
846.107483	193.500000
846.141418	192.900000
846.175476	196.500000
846.209473	200.400000
846.243408	191.800000
846.277405	195.600000
846.311401	193.200000
846.345337	195.500000
846.379395	199.700000
846.413330	190.500000
846.447327	204.300000
846.481323	193.100000
846.515259	192.900000
846.549255	194.100000
846.583252	198.700000
846.617187	191.300000
846.651184	195.700000
846.685120	194.200000
846.719055	203.100000
846.753052	198.500000
846.786987	199.200000
846.820984	191.200000
846.854980	201.000000
846.888916	193.000000
846.922852	197.100000
846.956848	201.600000
846.990723	193.200000
847.024719	198.200000
847.058716	193.900000
847.092590	200.900000
847.126587	197.000000
847.160522	194.000000
847.194458	199.000000
847.228455	193.500000
847.262390	190.800000
847.296265	194.500000
847.330261	199.300000
847.364136	194.100000
847.398132	191.600000
847.432068	197.100000
847.466003	193.500000
847.499939	194.700000
847.533875	197.600000
847.567749	194.900000
847.601746	194.200000
847.635681	199.400000
847.669556	187.500000
847.703491	200.500000
847.737427	205.900000
847.771301	192.100000
847.805237	197.700000
847.839233	197.300000
847.873108	193.700000
847.907043	194.900000
847.940918	200.400000
847.974854	196.200000
848.008789	200.000000
848.042664	196.500000
848.076538	197.800000
848.110474	194.900000
848.144348	198.000000
848.178284	189.900000
848.212219	196.700000
848.246094	194.600000
848.279968	196.700000
848.313904	198.300000
848.347778	197.900000
848.381653	193.900000
848.415588	193.700000
848.449463	193.200000
848.483337	197.100000
848.517212	201.800000
848.551086	196.700000
848.585022	190.600000
848.618835	205.900000
848.652771	192.500000
848.686646	191.400000
848.720520	201.300000
848.754395	193.700000
848.788330	199.200000
848.822144	200.500000
848.856018	193.700000
848.889954	204.400000
848.923767	191.300000
848.957642	193.600000
848.991577	196.800000
849.025391	195.300000
849.059265	194.800000
849.093079	192.000000
849.126953	191.300000
849.160828	201.000000
849.194641	196.000000
849.228577	194.800000
849.262451	194.600000
849.296265	193.900000
849.330139	191.900000
849.364014	195.100000
849.397827	196.300000
849.431702	196.900000
849.465515	200.500000
849.499329	188.100000
849.533203	192.100000
849.567078	188.300000
849.600891	198.800000
849.634766	193.500000
849.668518	200.600000
849.702393	194.500000
849.736267	191.500000
849.770020	202.300000
849.803894	198.500000
849.837769	196.100000
849.871521	198.300000
849.905396	198.200000
849.939270	192.900000
849.973022	194.600000
850.006897	198.700000
850.040710	197.500000
850.074524	199.600000
850.108337	193.800000
850.142151	201.000000
850.175964	200.300000
850.209778	195.700000
850.243530	185.900000
850.277405	200.200000
850.311218	194.300000
850.344971	192.500000
850.378845	201.500000
850.412659	192.700000
850.446411	197.800000
850.480225	195.900000
850.514038	197.700000
850.547791	197.900000
850.581665	194.700000
850.615417	191.600000
850.649231	197.500000
850.683044	193.900000
850.716858	194.600000
850.750610	196.600000
850.784424	198.400000
850.818176	192.500000
850.851929	193.400000
850.885742	192.000000
850.919495	195.400000
850.953308	201.500000
850.987122	203.400000
851.020874	189.900000
851.054626	192.300000
851.088440	197.100000
851.122192	198.600000
851.156006	195.200000
851.189697	196.600000
851.223511	191.300000
851.257263	200.300000
851.291077	196.000000
851.324829	194.500000
851.358582	192.600000
851.392334	194.900000
851.426086	192.500000
851.459900	203.000000
851.493591	194.600000
851.527344	196.200000
851.561157	194.400000
851.594849	198.000000
851.628662	195.800000
851.662415	204.100000
851.696106	197.000000
851.729858	199.700000
851.763611	190.900000
851.797363	197.600000
851.831116	191.100000
851.864868	198.300000
851.898560	199.200000
851.932312	193.700000
851.966064	199.100000
851.999817	194.700000
852.033569	193.900000
852.067261	200.300000
852.101013	192.000000
852.134766	193.500000
852.168457	188.600000
852.202209	200.200000
852.235901	191.500000
852.269592	196.900000
852.303345	203.300000
852.337036	197.600000
852.370789	196.200000
852.404541	199.400000
852.438171	192.600000
852.471924	195.700000
852.505676	193.800000
852.539307	195.900000
852.573059	193.900000
852.606812	195.200000
852.640442	194.900000
852.674194	200.100000
852.707886	204.600000
852.741577	200.200000
852.775269	193.900000
852.809021	195.700000
852.842651	197.500000
852.876404	200.400000
852.910034	198.200000
852.943787	199.600000
852.977478	199.100000
853.011108	191.200000
853.044861	192.700000
853.078552	201.300000
853.112183	197.900000
853.145874	196.800000
853.179626	189.200000
853.213257	196.600000
853.246948	192.400000
853.280640	204.400000
853.314270	194.400000
853.347961	200.700000
853.381653	197.600000
853.415283	199.700000
853.448975	192.900000
853.482605	197.800000
853.516296	197.200000
853.549988	191.900000
853.583618	198.000000
853.617310	198.400000
853.651001	197.000000
853.684631	193.900000
853.718323	194.000000
853.751953	201.500000
853.785583	188.200000
853.819275	199.100000
853.852966	195.100000
853.886536	189.700000
853.920227	190.200000
853.953918	200.400000
853.987488	194.600000
854.021179	200.900000
854.054749	201.400000
854.088440	199.500000
854.122131	191.800000
854.155701	198.400000
854.189331	192.000000
854.223022	198.500000
854.256592	196.300000
854.290283	194.100000
854.323914	196.800000
854.357483	196.000000
854.391174	197.300000
854.424744	204.000000
854.458374	196.100000
854.492065	205.300000
854.525696	198.300000
854.559265	199.600000
854.592896	206.200000
854.626465	197.600000
854.660095	194.900000
854.693787	198.000000
854.727356	194.700000
854.760986	199.000000
854.794617	197.500000
854.828186	194.700000
854.861816	198.100000
854.895447	195.600000
854.929016	196.500000
854.962585	196.500000
854.996155	204.700000
855.029785	196.700000
855.063416	197.100000
855.097046	199.700000
855.130615	191.900000
855.164185	200.000000
855.197754	196.200000
855.231384	196.700000
855.264954	194.400000
855.298523	198.500000
855.332153	197.700000
855.365723	200.100000
855.399292	193.900000
855.432922	194.900000
855.466492	198.500000
855.500061	192.800000
855.533630	194.200000
855.567200	197.200000
855.600769	199.400000
855.634338	199.400000
855.667969	197.000000
855.701477	193.700000
855.735046	193.500000
855.768616	189.600000
855.802185	198.300000
855.835754	207.800000
855.869324	190.100000
855.902893	195.500000
855.936401	199.900000
855.969971	195.200000
856.003540	191.100000
856.037109	198.400000
856.070618	195.000000
856.104187	191.300000
856.137695	194.300000
856.171265	187.900000
856.204834	195.600000
856.238403	200.000000
856.271912	192.500000
856.305481	198.000000
856.338989	191.300000
856.372559	198.800000
856.406128	197.400000
856.439636	198.500000
856.473145	192.900000
856.506653	202.000000
856.540222	195.200000
856.573792	201.200000
856.607300	198.100000
856.640808	192.400000
856.674377	196.200000
856.707825	228.500000
856.741394	199.100000
856.774902	192.300000
856.808472	188.800000
856.841980	199.400000
856.875488	200.800000
856.908936	191.000000
856.942505	193.600000
856.976013	194.400000
857.009521	192.200000
857.043030	196.000000
857.076477	194.700000
857.110046	200.700000
857.143555	197.100000
857.177063	198.300000
857.210571	194.500000
857.244080	191.500000
857.277527	197.600000
857.311035	195.200000
857.344543	200.100000
857.378052	194.600000
857.411499	201.800000
857.445068	203.600000
857.478516	194.800000
857.512024	191.400000
857.545532	195.500000
857.578979	195.700000
857.612427	197.200000
857.645874	193.300000
857.679382	197.800000
857.712891	198.800000
857.746399	196.500000
857.779846	198.700000
857.813354	202.400000
857.846741	195.500000
857.880249	193.800000
857.913757	196.100000
857.947266	197.100000
857.980652	198.100000
858.014160	195.900000
858.047546	193.500000
858.081055	195.500000
858.114563	205.200000
858.147949	191.100000
858.181458	197.800000
858.214844	195.900000
858.248352	188.900000
858.281799	200.300000
858.315308	204.700000
858.348694	197.900000
858.382141	203.300000
858.415588	199.200000
858.449036	199.400000
858.482483	197.800000
858.515930	194.100000
858.549377	197.400000
858.582825	201.900000
858.616211	198.200000
858.649658	198.400000
858.683105	191.500000
858.716553	193.600000
858.750000	191.300000
858.783386	193.900000
858.816833	190.500000
858.850281	195.900000
858.883728	196.200000
858.917114	197.100000
858.950562	202.700000
858.983948	202.000000
859.017395	199.300000
859.050781	195.800000
859.084167	191.000000
859.117615	191.500000
859.151062	196.200000
859.184448	193.300000
859.217834	194.200000
859.251282	194.100000
859.284668	190.700000
859.318054	189.500000
859.351440	194.400000
859.384888	202.500000
859.418274	189.600000
859.451721	189.500000
859.485046	197.300000
859.518494	197.900000
859.551819	192.000000
859.585266	198.200000
859.618652	199.300000
859.652039	190.900000
859.685425	190.300000
859.718811	192.400000
859.752197	186.500000
859.785583	201.500000
859.819031	201.900000
859.852356	197.600000
859.885742	192.000000
859.919067	195.600000
859.952454	194.500000
859.985901	199.600000
860.019287	195.700000
860.052612	0.000000
860.085999	0.000000
860.119324	0.000000
860.152710	0.000000
860.186096	0.000000
860.219421	0.000000
860.252808	0.000000
860.286133	0.000000
860.319519	0.000000
860.352905	0.000000
860.386292	0.000000
860.419617	0.000000
860.452942	0.000000
860.486267	0.000000
860.519653	0.000000
860.553040	0.000000
860.586365	0.000000
860.619690	0.000000
860.653076	0.000000
860.686340	0.000000
860.719727	0.000000
860.753113	0.000000
860.786377	0.000000
860.819763	0.000000
860.853027	0.000000
860.886414	0.000000
860.919739	0.000000
860.953125	0.000000
860.986389	0.000000
861.019714	0.000000
861.053040	0.000000
861.086365	0.000000
861.119690	0.000000
861.153076	0.000000
861.186340	0.000000
861.219666	0.000000
861.252930	0.000000
861.286316	0.000000
861.319641	0.000000
861.352905	0.000000
861.386230	0.000000
861.419495	0.000000
861.452820	0.000000
861.486145	0.000000
861.519470	0.000000
861.552734	0.000000
861.586060	0.000000
861.619324	0.000000
861.652649	0.000000
861.685974	0.000000
861.719238	0.000000
861.752563	0.000000
861.785828	0.000000
861.819092	0.000000
861.852417	0.000000
861.885742	0.000000
861.918945	0.000000
861.952271	0.000000
861.985535	0.000000
862.018799	0.000000
862.052124	0.000000
862.085449	0.000000
862.118652	0.000000
862.151978	0.000000
862.185181	0.000000
862.218506	0.000000
862.251770	0.000000
862.285034	0.000000
862.318298	0.000000
862.351562	0.000000
862.384827	0.000000
862.418091	0.000000
862.451355	0.000000
862.484619	0.000000
862.517883	0.000000
862.551086	0.000000
862.584351	0.000000
862.617676	0.000000
862.650940	0.000000
862.684143	0.000000
862.717407	0.000000
862.750610	0.000000
862.783875	0.000000
862.817139	0.000000
862.850342	0.000000
862.883606	0.000000
862.916870	0.000000
862.950073	0.000000
862.983337	0.000000
863.016602	0.000000
863.049805	0.000000
863.083069	0.000000
863.116211	0.000000
863.149475	0.000000
863.182739	0.000000
863.216003	0.000000
863.249146	0.000000
863.282410	0.000000
863.315613	0.000000
863.348816	0.000000
863.382080	0.000000
863.415222	0.000000
863.448486	0.000000
863.481689	0.000000
863.514893	0.000000
863.548157	0.000000
863.581360	0.000000
863.614502	0.000000
863.647766	0.000000
863.680908	0.000000
863.714172	0.000000
863.747375	0.000000
863.780579	0.000000
863.813721	0.000000
863.846985	0.000000
863.880127	0.000000
863.913330	0.000000
863.946533	0.000000
863.979675	0.000000
864.012939	0.000000
