Model Number: SPM-001-M   
Serial Number: 10090201
Firmware Version: 004.17.6
Exposure Time: 300000.000000us
Data Taken on: 11-02-2021 11:23:11.204
Wavelength	Amplitude
733.770752	0.000000
733.808716	0.000000
733.846619	0.000000
733.884583	0.000000
733.922546	0.000000
733.960449	0.000000
733.998413	0.000000
734.036377	0.000000
734.074219	0.000000
734.112183	0.000000
734.150085	0.000000
734.188049	0.000000
734.226013	0.000000
734.263916	0.000000
734.301819	0.000000
734.339783	0.000000
734.377686	0.000000
734.415588	0.000000
734.453552	0.000000
734.491455	0.000000
734.529419	0.000000
734.567322	0.000000
734.605225	0.000000
734.643127	0.000000
734.681091	0.000000
734.718994	0.000000
734.756897	0.000000
734.794800	0.000000
734.832703	0.000000
734.870667	0.000000
734.908508	0.000000
734.946472	0.000000
734.984375	0.000000
735.022278	0.000000
735.060181	0.000000
735.098083	0.000000
735.135986	0.000000
735.173889	0.000000
735.211792	0.000000
735.249695	0.000000
735.287598	0.000000
735.325439	0.000000
735.363403	0.000000
735.401306	0.000000
735.439148	0.000000
735.477051	0.000000
735.515015	0.000000
735.552856	0.000000
735.590759	0.000000
735.628662	0.000000
735.666504	0.000000
735.704407	0.000000
735.742310	0.000000
735.780212	0.000000
735.818115	0.000000
735.856018	0.000000
735.893860	0.000000
735.931763	0.000000
735.969604	0.000000
736.007507	0.000000
736.045410	0.000000
736.083252	0.000000
736.121094	0.000000
736.158997	0.000000
736.196838	0.000000
736.234741	0.000000
736.272644	0.000000
736.310486	0.000000
736.348389	0.000000
736.386230	0.000000
736.424072	0.000000
736.461975	0.000000
736.499878	0.000000
736.537720	0.000000
736.575562	0.000000
736.613403	0.000000
736.651306	0.000000
736.689148	0.000000
736.726990	0.000000
736.764893	0.000000
736.802734	0.000000
736.840576	0.000000
736.878418	0.000000
736.916321	0.000000
736.954102	0.000000
736.992004	0.000000
737.029846	0.000000
737.067688	0.000000
737.105530	0.000000
737.143372	0.000000
737.181213	0.000000
737.219116	0.000000
737.256897	0.000000
737.294739	0.000000
737.332642	0.000000
737.370422	0.000000
737.408325	0.000000
737.446167	0.000000
737.483948	0.000000
737.521790	0.000000
737.559692	0.000000
737.597473	0.000000
737.635315	0.000000
737.673157	0.000000
737.710999	0.000000
737.748840	0.000000
737.786621	0.000000
737.824463	0.000000
737.862305	0.000000
737.900085	0.000000
737.937927	0.000000
737.975769	0.000000
738.013550	0.000000
738.051392	0.000000
738.089233	0.000000
738.127014	0.000000
738.164856	0.000000
738.202698	0.000000
738.240479	0.000000
738.278320	0.000000
738.316162	0.000000
738.353943	0.000000
738.391785	0.000000
738.429565	0.000000
738.467407	0.000000
738.505188	0.000000
738.542969	0.000000
738.580811	0.000000
738.618652	0.000000
738.656372	0.000000
738.694214	0.000000
738.732056	0.000000
738.769836	0.000000
738.807617	0.000000
738.845459	0.000000
738.883240	0.000000
738.921021	0.000000
738.958862	0.000000
738.996582	0.000000
739.034424	0.000000
739.072205	0.000000
739.109985	0.000000
739.147827	0.000000
739.185547	0.000000
739.223389	0.000000
739.261169	0.000000
739.298889	0.000000
739.336731	0.000000
739.374512	0.000000
739.412292	0.000000
739.450073	0.000000
739.487854	0.000000
739.525635	0.000000
739.563416	0.000000
739.601135	0.000000
739.638977	0.000000
739.676758	0.000000
739.714478	0.000000
739.752258	0.000000
739.790100	0.000000
739.827820	0.000000
739.865601	0.000000
739.903381	0.000000
739.941101	0.000000
739.978882	196.900000
740.016724	192.000000
740.054443	197.000000
740.092224	192.400000
740.130005	191.500000
740.167725	190.600000
740.205505	190.400000
740.243225	198.400000
740.281006	195.600000
740.318787	189.000000
740.356506	199.800000
740.394287	198.900000
740.432068	191.700000
740.469727	188.600000
740.507507	197.300000
740.545288	194.200000
740.583008	196.600000
740.620789	194.700000
740.658569	188.200000
740.696228	194.200000
740.734009	197.800000
740.771790	185.900000
740.809509	196.700000
740.847229	190.500000
740.884949	191.300000
740.922729	187.700000
740.960449	191.800000
740.998169	190.800000
741.035950	190.500000
741.073669	195.100000
741.111389	194.500000
741.149170	201.300000
741.186890	199.700000
741.224609	197.300000
741.262329	195.400000
741.300110	200.900000
741.337769	190.100000
741.375549	188.700000
741.413208	194.600000
741.450989	190.700000
741.488708	192.200000
741.526367	192.500000
741.564148	196.500000
741.601868	196.600000
741.639526	192.700000
741.677307	196.100000
741.715027	195.600000
741.752686	191.000000
741.790466	200.600000
741.828186	195.100000
741.865845	189.900000
741.903564	189.100000
741.941345	193.900000
741.979004	190.100000
742.016724	196.900000
742.054382	194.500000
742.092102	198.400000
742.129822	189.900000
742.167480	191.400000
742.205200	192.300000
742.242920	196.100000
742.280640	197.600000
742.318359	189.900000
742.356079	192.300000
742.393738	196.800000
742.431396	192.100000
742.469116	197.700000
742.506775	188.400000
742.544495	196.100000
742.582214	198.200000
742.619873	193.000000
742.657593	199.800000
742.695251	199.400000
742.732971	192.900000
742.770630	196.300000
742.808289	194.600000
742.846008	194.200000
742.883728	194.100000
742.921326	194.400000
742.959045	192.500000
742.996765	193.300000
743.034424	194.200000
743.072083	192.800000
743.109802	193.800000
743.147400	189.000000
743.185120	194.000000
743.222839	194.900000
743.260437	200.300000
743.298157	195.800000
743.335754	188.100000
743.373474	194.400000
743.411133	189.500000
743.448792	193.800000
743.486450	193.500000
743.524170	189.700000
743.561768	194.000000
743.599487	200.000000
743.637146	203.900000
743.674744	193.600000
743.712463	191.500000
743.750122	194.900000
743.787720	195.800000
743.825439	192.600000
743.863037	193.100000
743.900696	192.600000
743.938416	219.800000
743.976013	192.900000
744.013672	200.800000
744.051331	198.000000
744.088928	202.100000
744.126587	197.900000
744.164307	196.700000
744.201904	190.600000
744.239563	196.400000
744.277222	196.800000
744.314819	194.600000
744.352478	199.600000
744.390137	195.500000
744.427734	195.600000
744.465393	193.500000
744.502991	190.700000
744.540649	196.500000
744.578308	194.500000
744.615906	190.900000
744.653564	186.700000
744.691223	196.000000
744.728821	189.400000
744.766418	195.100000
744.804077	195.700000
744.841675	191.700000
744.879333	189.700000
744.916992	193.600000
744.954529	192.500000
744.992187	198.300000
745.029785	193.600000
745.067444	192.200000
745.105042	195.400000
745.142639	195.000000
745.180298	201.700000
745.217896	191.700000
745.255493	193.200000
745.293152	197.100000
745.330750	198.300000
745.368347	199.900000
745.405945	197.100000
745.443604	194.100000
745.481140	198.000000
745.518799	193.500000
745.556396	196.800000
745.593994	196.500000
745.631592	194.000000
745.669189	189.800000
745.706787	195.300000
745.744385	190.900000
745.781982	197.200000
745.819580	192.500000
745.857178	194.400000
745.894775	193.900000
745.932373	196.600000
745.969971	196.100000
746.007568	189.100000
746.045166	200.200000
746.082764	199.400000
746.120300	196.800000
746.157898	195.500000
746.195557	194.400000
746.233093	190.400000
746.270691	196.500000
746.308228	195.900000
746.345825	197.700000
746.383423	197.500000
746.420959	191.200000
746.458557	192.300000
746.496155	192.300000
746.533691	195.400000
746.571289	190.300000
746.608887	193.400000
746.646423	194.300000
746.684021	194.500000
746.721619	191.400000
746.759155	196.700000
746.796753	190.300000
746.834351	188.800000
746.871826	191.600000
746.909424	199.200000
746.946960	195.400000
746.984558	193.400000
747.022156	192.800000
747.059631	201.300000
747.097229	197.300000
747.134827	192.800000
747.172363	198.700000
747.209900	196.500000
747.247498	190.100000
747.285034	198.300000
747.322571	200.300000
747.360168	193.300000
747.397644	188.000000
747.435242	199.000000
747.472778	198.300000
747.510315	193.400000
747.547913	193.800000
747.585388	199.500000
747.622925	193.500000
747.660522	189.500000
747.697998	192.600000
747.735596	194.400000
747.773132	192.900000
747.810669	194.000000
747.848206	198.000000
747.885742	191.000000
747.923279	189.700000
747.960815	196.800000
747.998352	194.800000
748.035889	198.500000
748.073425	197.200000
748.110901	192.500000
748.148437	191.100000
748.185974	193.500000
748.223511	200.200000
748.261047	196.400000
748.298584	195.000000
748.336060	192.600000
748.373596	196.100000
748.411133	218.800000
748.448608	193.100000
748.486145	197.100000
748.523682	198.800000
748.561218	201.300000
748.598755	195.200000
748.636292	196.200000
748.673706	193.000000
748.711243	199.400000
748.748718	195.300000
748.786255	195.500000
748.823792	194.900000
748.861267	191.400000
748.898804	196.100000
748.936340	196.800000
748.973816	190.600000
749.011292	198.400000
749.048828	195.300000
749.086304	196.400000
749.123840	203.400000
749.161316	192.100000
749.198792	201.400000
749.236328	199.400000
749.273743	195.000000
749.311279	193.700000
749.348816	197.200000
749.386230	195.300000
749.423767	185.600000
749.461304	197.300000
749.498718	194.400000
749.536255	200.100000
749.573730	203.700000
749.611206	200.700000
749.648682	194.300000
749.686218	194.800000
749.723633	195.500000
749.761169	192.900000
749.798645	190.800000
749.836060	192.500000
749.873596	191.300000
749.911011	196.700000
749.948547	198.600000
749.986023	193.700000
750.023437	194.400000
750.060913	189.900000
750.098450	189.900000
750.135864	193.400000
750.173340	195.400000
750.210815	198.500000
750.248291	191.400000
750.285767	194.600000
750.323242	199.900000
750.360657	195.700000
750.398132	190.200000
750.435608	197.200000
750.473022	191.300000
750.510498	192.200000
750.547974	190.700000
750.585449	192.600000
750.622925	186.300000
750.660339	204.700000
750.697815	196.500000
750.735291	193.200000
750.772644	197.900000
750.810120	196.600000
750.847595	197.900000
750.885010	190.600000
750.922485	201.100000
750.959961	194.000000
750.997375	201.100000
751.034851	197.100000
751.072266	197.900000
751.109680	189.500000
751.147156	201.100000
751.184570	196.300000
751.221985	195.500000
751.259460	188.900000
751.296875	194.800000
751.334290	194.500000
751.371765	198.500000
751.409180	197.600000
751.446594	198.000000
751.484070	196.000000
751.521423	195.700000
751.558899	194.700000
751.596375	202.100000
751.633728	199.900000
751.671204	204.100000
751.708618	192.200000
751.746033	195.800000
751.783447	190.800000
751.820801	191.400000
751.858276	198.100000
751.895691	194.600000
751.933105	193.900000
751.970520	190.300000
752.007935	193.400000
752.045349	197.500000
752.082764	195.400000
752.120178	190.800000
752.157532	192.000000
752.195007	192.700000
752.232422	196.300000
752.269775	198.300000
752.307190	196.300000
752.344543	191.700000
752.382019	193.900000
752.419434	193.600000
752.456787	197.100000
752.494202	198.000000
752.531616	194.600000
752.568970	197.200000
752.606384	197.100000
752.643799	196.700000
752.681152	200.300000
752.718567	196.200000
752.755981	189.700000
752.793335	196.500000
752.830750	189.000000
752.868164	198.600000
752.905518	192.100000
752.942932	198.200000
752.980225	191.100000
753.017639	197.500000
753.055054	194.000000
753.092407	195.800000
753.129822	197.900000
753.167175	201.700000
753.204529	195.100000
753.241943	191.800000
753.279358	190.700000
753.316650	197.600000
753.354065	196.600000
753.391479	198.500000
753.428772	199.900000
753.466187	197.300000
753.503479	192.000000
753.540894	194.900000
753.578308	189.700000
753.615601	190.700000
753.653015	194.500000
753.690369	193.500000
753.727722	191.900000
753.765076	191.700000
753.802490	190.000000
753.839783	188.300000
753.877136	192.100000
753.914551	205.200000
753.951843	191.500000
753.989258	198.100000
754.026611	194.000000
754.063904	195.000000
754.101257	190.600000
754.138611	189.800000
754.175964	195.500000
754.213318	202.300000
754.250610	189.300000
754.288025	193.500000
754.325378	190.700000
754.362671	197.100000
754.400024	194.700000
754.437378	202.400000
754.474670	201.200000
754.512085	192.600000
754.549438	195.900000
754.586731	192.900000
754.624084	194.500000
754.661438	190.600000
754.698730	201.900000
754.736084	194.500000
754.773376	194.800000
754.810730	196.500000
754.848083	194.200000
754.885315	199.100000
754.922668	189.700000
754.960022	191.500000
754.997314	199.300000
755.034668	194.500000
755.072021	196.500000
755.109253	193.300000
755.146606	201.300000
755.183960	193.000000
755.221252	201.900000
755.258545	197.400000
755.295898	199.300000
755.333191	198.700000
755.370544	197.100000
755.407776	195.100000
755.445129	196.700000
755.482422	198.900000
755.519714	193.800000
755.557068	190.200000
755.594360	188.800000
755.631653	198.300000
755.668945	201.700000
755.706299	195.500000
755.743530	205.700000
755.780884	201.200000
755.818176	200.500000
755.855408	200.200000
755.892761	197.300000
755.930054	197.500000
755.967346	199.500000
756.004639	198.700000
756.041870	196.800000
756.079224	202.200000
756.116516	195.100000
756.153748	199.900000
756.191040	202.700000
756.228394	198.200000
756.265625	192.500000
756.302917	197.800000
756.340210	195.100000
756.377441	201.800000
756.414795	201.900000
756.452087	197.600000
756.489319	192.000000
756.526611	202.300000
756.563843	197.100000
756.601135	203.800000
756.638428	205.100000
756.675659	196.600000
756.712952	199.900000
756.750244	200.200000
756.787476	198.500000
756.824768	202.400000
756.862061	196.600000
756.899292	246.500000
756.936584	201.500000
756.973816	205.800000
757.011047	206.900000
757.048340	198.300000
757.085632	199.600000
757.122864	213.600000
757.160156	197.000000
757.197327	201.400000
757.234619	203.700000
757.271912	198.000000
757.309082	202.900000
757.346375	197.000000
757.383667	203.400000
757.420837	200.200000
757.458130	200.600000
757.495422	197.600000
757.532593	200.800000
757.569885	195.200000
757.607117	198.000000
757.644348	201.100000
757.681580	210.300000
757.718811	191.900000
757.756042	202.800000
757.793335	196.800000
757.830505	202.000000
757.867798	197.300000
757.905029	197.500000
757.942200	199.700000
757.979492	199.900000
758.016724	199.600000
758.053894	198.800000
758.091187	215.100000
758.128418	202.500000
758.165588	199.600000
758.202820	209.800000
758.240112	198.900000
758.277283	210.200000
758.314514	203.300000
758.351685	200.400000
758.388916	208.200000
758.426147	207.600000
758.463379	209.500000
758.500610	204.300000
758.537842	201.900000
758.575012	209.000000
758.612244	198.800000
758.649475	212.500000
758.686646	198.300000
758.723877	209.500000
758.761108	208.700000
758.798279	202.900000
758.835510	204.600000
758.872742	208.300000
758.909851	204.400000
758.947083	204.600000
758.984253	206.200000
759.021484	207.100000
759.058716	206.300000
759.095886	208.400000
759.133057	204.400000
759.170288	208.300000
759.207458	204.200000
759.244690	213.000000
759.281860	212.600000
759.319031	205.900000
759.356262	204.400000
759.393433	205.000000
759.430603	205.300000
759.467773	206.200000
759.505005	211.900000
759.542175	211.700000
759.579346	206.500000
759.616516	207.300000
759.653687	211.100000
759.690918	204.200000
759.728027	208.200000
759.765259	208.400000
759.802429	210.300000
759.839539	209.500000
759.876770	213.200000
759.913940	216.300000
759.951111	209.300000
759.988281	209.400000
760.025452	206.400000
760.062561	205.500000
760.099792	217.600000
760.136963	212.100000
760.174072	208.100000
760.211243	204.700000
760.248413	206.200000
760.285583	207.600000
760.322754	218.800000
760.359863	214.700000
760.397034	213.900000
760.434204	209.000000
760.471375	211.900000
760.508545	209.200000
760.545715	211.400000
760.582825	207.000000
760.619995	215.100000
760.657166	206.900000
760.694275	215.800000
760.731445	214.100000
760.768555	212.800000
760.805664	216.600000
760.842834	214.000000
760.879944	215.100000
760.917114	213.100000
760.954285	212.900000
760.991394	207.800000
761.028564	217.600000
761.065674	214.700000
761.102783	211.100000
761.139954	217.800000
761.177124	215.900000
761.214172	218.700000
761.251343	213.900000
761.288452	213.800000
761.325562	217.800000
761.362732	212.400000
761.399841	214.400000
761.436951	215.100000
761.474121	212.700000
761.511169	215.900000
761.548340	219.300000
761.585449	218.100000
761.622559	219.400000
761.659668	216.500000
761.696838	222.200000
761.733887	219.500000
761.771057	215.300000
761.808167	216.500000
761.845276	220.500000
761.882385	225.900000
761.919434	217.900000
761.956604	232.800000
761.993713	215.600000
762.030762	223.500000
762.067871	218.100000
762.105042	218.500000
762.142090	225.700000
762.179199	221.500000
762.216309	223.700000
762.253418	231.400000
762.290527	227.400000
762.327637	224.700000
762.364685	216.500000
762.401794	224.200000
762.438904	222.800000
762.475952	219.500000
762.513062	219.500000
762.550110	222.400000
762.587219	231.600000
762.624329	229.400000
762.661377	224.900000
762.698486	223.800000
762.735596	224.500000
762.772644	220.800000
762.809753	217.800000
762.846863	222.900000
762.883911	228.300000
762.921021	227.300000
762.958069	225.600000
762.995117	231.400000
763.032227	228.700000
763.069336	223.000000
763.106323	219.200000
763.143433	220.500000
763.180481	226.500000
763.217590	228.000000
763.254639	226.400000
763.291687	224.900000
763.328735	231.400000
763.365845	224.900000
763.402893	225.000000
763.439941	228.500000
763.477051	229.500000
763.514038	228.600000
763.551147	224.800000
763.588196	228.400000
763.625244	229.300000
763.662292	233.800000
763.699402	237.500000
763.736389	232.300000
763.773499	240.500000
763.810486	233.400000
763.847534	231.400000
763.884644	231.800000
763.921631	228.000000
763.958679	237.500000
763.995728	230.700000
764.032776	237.100000
764.069824	229.800000
764.106873	237.600000
764.143860	244.100000
764.180969	234.300000
764.218018	240.400000
764.255005	234.100000
764.292053	234.900000
764.329102	241.300000
764.366089	242.800000
764.403137	240.100000
764.440125	233.400000
764.477173	234.900000
764.514221	241.700000
764.551208	239.300000
764.588257	236.700000
764.625305	245.500000
764.662292	247.600000
764.699341	251.600000
764.736389	242.700000
764.773376	254.200000
764.810425	244.200000
764.847473	249.600000
764.884399	246.000000
764.921448	252.400000
764.958435	251.300000
764.995483	245.100000
765.032532	258.700000
765.069458	248.200000
765.106506	250.200000
765.143555	249.100000
765.180481	252.300000
765.217529	256.400000
765.254578	245.500000
765.291504	254.500000
765.328552	251.300000
765.365540	249.200000
765.402527	259.400000
765.439575	251.200000
765.476501	248.000000
765.513550	247.700000
765.550537	253.000000
765.587463	260.500000
765.624512	252.700000
765.661499	248.700000
765.698486	261.000000
765.735474	253.300000
765.772461	255.600000
765.809448	261.600000
765.846436	259.300000
765.883423	261.300000
765.920410	257.000000
765.957397	253.600000
765.994385	258.400000
766.031311	267.000000
766.068359	259.800000
766.105286	261.200000
766.142273	267.900000
766.179260	262.200000
766.216187	257.400000
766.253174	255.800000
766.290161	261.600000
766.327148	265.700000
766.364136	264.000000
766.401123	274.700000
766.438049	259.400000
766.475037	271.300000
766.512024	268.500000
766.548950	279.600000
766.585937	276.200000
766.622864	272.300000
766.659790	270.800000
766.696777	261.600000
766.733704	274.300000
766.770691	267.600000
766.807678	278.100000
766.844604	271.800000
766.881531	272.200000
766.918518	275.800000
766.955444	277.300000
766.992432	272.500000
767.029358	274.500000
767.066284	276.000000
767.103271	276.000000
767.140198	307.100000
767.177124	288.200000
767.214050	277.400000
767.251038	280.100000
767.287964	276.400000
767.324890	275.600000
767.361816	278.400000
767.398743	283.100000
767.435730	278.000000
767.472595	281.000000
767.509583	285.500000
767.546509	275.800000
767.583374	280.300000
767.620361	276.700000
767.657288	279.400000
767.694214	280.900000
767.731140	281.300000
767.768066	284.100000
767.804993	285.900000
767.841919	280.400000
767.878845	283.300000
767.915710	289.000000
767.952698	282.200000
767.989563	286.300000
768.026489	287.500000
768.063416	282.600000
768.100281	283.200000
768.137207	289.700000
768.174133	289.900000
768.211060	289.000000
768.247986	287.900000
768.284912	286.300000
768.321777	287.700000
768.358704	283.500000
768.395630	286.000000
768.432495	282.900000
768.469421	287.800000
768.506348	291.900000
768.543152	299.300000
768.580078	290.600000
768.616943	294.500000
768.653870	296.200000
768.690796	295.600000
768.727661	295.100000
768.764587	298.800000
768.801453	291.500000
768.838318	298.600000
768.875244	297.100000
768.912109	304.000000
768.948975	295.800000
768.985901	298.600000
769.022766	297.300000
769.059631	301.600000
769.096558	295.900000
769.133362	297.600000
769.170288	301.900000
769.207214	301.300000
769.244019	302.200000
769.280945	302.500000
769.317810	309.100000
769.354675	302.500000
769.391541	310.100000
769.428406	310.300000
769.465271	316.300000
769.502136	310.200000
769.539062	313.900000
769.575867	309.100000
769.612732	313.800000
769.649597	319.700000
769.686462	319.400000
769.723328	314.200000
769.760193	313.800000
769.797058	312.900000
769.833923	323.500000
769.870728	320.100000
769.907593	322.700000
769.944519	320.400000
769.981323	323.100000
770.018188	320.900000
770.055054	321.500000
770.091858	321.500000
770.128723	330.400000
770.165588	333.200000
770.202393	324.500000
770.239258	331.500000
770.276062	328.800000
770.312927	329.300000
770.349792	336.400000
770.386597	333.000000
770.423462	341.100000
770.460327	348.600000
770.497131	335.700000
770.533997	333.500000
770.570862	343.900000
770.607605	344.800000
770.644470	342.200000
770.681335	342.500000
770.718140	345.900000
770.754944	341.400000
770.791809	342.700000
770.828613	341.300000
770.865479	344.600000
770.902222	352.400000
770.939087	346.200000
770.975952	343.500000
771.012695	348.400000
771.049561	359.500000
771.086365	350.700000
771.123169	348.100000
771.159973	345.600000
771.196838	351.300000
771.233582	356.000000
771.270447	356.400000
771.307251	359.400000
771.344055	356.600000
771.380859	356.900000
771.417664	352.900000
771.454468	361.900000
771.491272	361.500000
771.528076	362.000000
771.564880	360.800000
771.601685	366.900000
771.638428	358.200000
771.675293	368.700000
771.712097	359.400000
771.748840	375.200000
771.785645	365.300000
771.822449	366.900000
771.859253	368.900000
771.896057	366.700000
771.932861	375.000000
771.969604	370.600000
772.006409	366.800000
772.043213	373.000000
772.079956	370.500000
772.116760	367.600000
772.153503	371.100000
772.190308	379.600000
772.227112	373.500000
772.263855	370.300000
772.300659	372.400000
772.337463	378.600000
772.374207	371.300000
772.411011	369.600000
772.447754	374.900000
772.484497	387.000000
772.521301	381.100000
772.558105	377.200000
772.594849	381.000000
772.631592	387.000000
772.668396	384.000000
772.705139	391.300000
772.741882	383.300000
772.778625	392.000000
772.815430	393.000000
772.852173	394.400000
772.888916	398.000000
772.925720	402.700000
772.962463	404.300000
772.999207	397.400000
773.035950	394.600000
773.072754	397.000000
773.109436	396.900000
773.146240	401.900000
773.182922	402.100000
773.219727	407.500000
773.256470	402.100000
773.293152	397.900000
773.329956	403.400000
773.366699	410.900000
773.403381	403.400000
773.440186	406.500000
773.476929	406.500000
773.513611	401.500000
773.550354	401.100000
773.587158	405.700000
773.623840	405.000000
773.660583	405.100000
773.697327	413.700000
773.734009	402.800000
773.770813	401.000000
773.807495	403.200000
773.844238	408.700000
773.880981	417.700000
773.917664	412.000000
773.954407	416.600000
773.991150	410.700000
774.027832	417.100000
774.064575	413.700000
774.101318	417.700000
774.138000	417.200000
774.174744	412.000000
774.211487	414.500000
774.248108	408.400000
774.284851	418.800000
774.321594	422.100000
774.358276	417.800000
774.395020	426.600000
774.431702	420.800000
774.468384	416.400000
774.505127	420.400000
774.541809	428.300000
774.578491	427.100000
774.615234	428.000000
774.651917	418.700000
774.688599	426.200000
774.725342	437.500000
774.762024	436.000000
774.798706	437.400000
774.835449	430.200000
774.872070	432.800000
774.908813	433.900000
774.945496	438.900000
774.982178	441.200000
775.018860	443.900000
775.055542	440.700000
775.092224	437.300000
775.128967	442.100000
775.165588	444.300000
775.202271	441.300000
775.239014	448.400000
775.275635	446.300000
775.312317	441.000000
775.349060	443.700000
775.385681	449.200000
775.422363	448.600000
775.459045	456.400000
775.495667	455.600000
775.532410	451.700000
775.569092	451.700000
775.605713	451.200000
775.642395	455.300000
775.679016	460.600000
775.715698	460.300000
775.752380	460.000000
775.789001	453.500000
775.825684	455.600000
775.862366	463.100000
775.898987	476.800000
775.935669	467.100000
775.972351	481.500000
776.008972	474.900000
776.045654	471.400000
776.082336	469.400000
776.118958	479.900000
776.155640	482.600000
776.192322	482.400000
776.228882	483.600000
776.265564	480.700000
776.302185	476.100000
776.338867	489.800000
776.375488	483.500000
776.412109	491.700000
776.448792	489.700000
776.485413	491.800000
776.522034	483.000000
776.558716	484.100000
776.595337	494.300000
776.631958	492.000000
776.668579	493.100000
776.705261	498.500000
776.741882	491.900000
776.778503	494.800000
776.815186	499.300000
776.851746	504.000000
776.888367	499.800000
776.924988	508.600000
776.961609	501.300000
776.998291	500.800000
777.034851	498.200000
777.071472	506.300000
777.108154	503.000000
777.144714	511.500000
777.181335	509.200000
777.218018	505.200000
777.254578	517.200000
777.291199	517.500000
777.327759	520.600000
777.364380	524.800000
777.401062	533.600000
777.437622	538.900000
777.474243	528.000000
777.510864	538.000000
777.547424	533.000000
777.584045	535.600000
777.620667	537.700000
777.657227	539.300000
777.693848	536.300000
777.730469	544.700000
777.767029	536.500000
777.803650	541.100000
777.840271	533.900000
777.876831	532.700000
777.913452	536.000000
777.950012	522.100000
777.986633	527.300000
778.023193	524.900000
778.059753	526.900000
778.096375	526.800000
778.132996	537.300000
778.169556	533.900000
778.206116	536.700000
778.242737	534.200000
778.279297	541.400000
778.315857	533.400000
778.352478	541.200000
778.389038	546.200000
778.425598	552.900000
778.462219	558.200000
778.498718	554.800000
778.535339	563.700000
778.571838	562.300000
778.608459	563.500000
778.645020	554.400000
778.681580	560.900000
778.718140	560.200000
778.754761	555.500000
778.791260	566.900000
778.827881	569.800000
778.864441	568.500000
778.900940	572.000000
778.937561	567.000000
778.974121	565.300000
779.010620	560.900000
779.047241	564.100000
779.083801	570.800000
779.120300	569.700000
779.156860	571.300000
779.193359	565.700000
779.229980	577.400000
779.266541	587.100000
779.303040	580.700000
779.339600	571.900000
779.376160	569.000000
779.412659	571.000000
779.449219	568.200000
779.485779	575.100000
779.522278	576.800000
779.558838	579.300000
779.595398	578.300000
779.631897	572.700000
779.668457	566.100000
779.705017	576.000000
779.741516	568.500000
779.778076	563.000000
779.814575	563.400000
779.851074	563.100000
779.887634	564.100000
779.924133	574.700000
779.960693	571.100000
779.997253	579.500000
780.033691	577.800000
780.070251	573.900000
780.106812	578.800000
780.143250	580.400000
780.179810	584.000000
780.216370	588.800000
780.252808	587.100000
780.289368	591.300000
780.325867	589.500000
780.362366	589.700000
780.398865	603.400000
780.435364	597.600000
780.471863	599.400000
780.508423	589.100000
780.544861	589.600000
780.581421	589.200000
780.617920	585.400000
780.654419	586.800000
780.690918	591.300000
780.727417	593.400000
780.763916	584.000000
780.800415	591.100000
780.836914	585.000000
780.873352	599.300000
780.909912	597.000000
780.946411	601.900000
780.982849	604.600000
781.019348	611.400000
781.055786	602.800000
781.092346	607.300000
781.128845	620.100000
781.165283	617.900000
781.201782	621.900000
781.238281	616.400000
781.274719	610.900000
781.311218	612.200000
781.347717	623.000000
781.384155	614.100000
781.420654	618.600000
781.457092	622.700000
781.493591	619.300000
781.530090	613.500000
781.566528	619.100000
781.602966	624.600000
781.639465	623.800000
781.675903	615.600000
781.712402	623.700000
781.748901	624.500000
781.785278	625.000000
781.821777	629.100000
781.858276	633.200000
781.894714	641.400000
781.931152	634.800000
781.967651	643.000000
782.004089	632.300000
782.040527	638.800000
782.076965	636.400000
782.113403	639.700000
782.149902	643.300000
782.186340	640.500000
782.222778	649.400000
782.259277	638.500000
782.295654	644.900000
782.332092	652.300000
782.368591	648.300000
782.404968	644.300000
782.441467	653.300000
782.477905	658.500000
782.514282	657.600000
782.550781	662.200000
782.587219	660.700000
782.623596	672.000000
782.660095	672.900000
782.696472	674.500000
782.732910	678.500000
782.769348	684.200000
782.805786	692.300000
782.842224	692.700000
782.878662	687.100000
782.915039	690.100000
782.951477	695.500000
782.987915	694.800000
783.024292	696.200000
783.060730	691.000000
783.097168	685.100000
783.133545	674.300000
783.169983	674.100000
783.206421	667.700000
783.242798	661.600000
783.279236	660.500000
783.315613	656.500000
783.352051	650.500000
783.388489	650.300000
783.424866	645.900000
783.461304	649.600000
783.497681	662.200000
783.534058	660.500000
783.570496	656.400000
783.606934	654.300000
783.643250	656.600000
783.679687	667.700000
783.716125	660.400000
783.752441	664.100000
783.788879	675.800000
783.825317	675.600000
783.861633	667.600000
783.898071	664.600000
783.934448	665.300000
783.970825	662.100000
784.007263	655.000000
784.043579	652.600000
784.080017	651.900000
784.116394	645.400000
784.152710	639.000000
784.189148	628.900000
784.225525	619.000000
784.261902	614.600000
784.298279	618.500000
784.334656	616.500000
784.371033	614.400000
784.407410	608.400000
784.443787	602.100000
784.480164	595.900000
784.516541	589.200000
784.552856	604.000000
784.589233	605.600000
784.625610	605.200000
784.661987	626.900000
784.698364	623.500000
784.734741	626.900000
784.771057	638.400000
784.807434	653.800000
784.843811	672.700000
784.880127	666.000000
784.916504	682.600000
784.952881	690.200000
784.989197	698.100000
785.025574	712.200000
785.061951	718.300000
785.098267	734.100000
785.134644	723.900000
785.170959	716.400000
785.207275	726.200000
785.243652	730.900000
785.279968	726.000000
785.316345	725.600000
785.352722	717.800000
785.388977	703.900000
785.425354	686.400000
785.461731	686.800000
785.498047	688.300000
785.534363	680.500000
785.570679	677.200000
785.606995	675.500000
785.643372	674.800000
785.679687	673.300000
785.716003	673.900000
785.752380	678.300000
785.788635	686.300000
785.825012	696.300000
785.861328	692.500000
785.897644	684.500000
785.933960	702.800000
785.970337	723.500000
786.006592	747.200000
786.042908	746.300000
786.079285	737.900000
786.115540	744.500000
786.151855	742.700000
786.188171	743.800000
786.224487	756.400000
786.260803	752.400000
786.297119	747.100000
786.333435	732.400000
786.369751	725.700000
786.406006	735.900000
786.442322	733.000000
786.478638	725.700000
786.514954	730.200000
786.551270	710.100000
786.587585	705.600000
786.623840	696.600000
786.660156	694.400000
786.696472	691.800000
786.732727	695.200000
786.769043	702.700000
786.805298	687.700000
786.841614	690.100000
786.877930	704.700000
786.914124	700.400000
786.950439	719.700000
786.986755	726.800000
787.023010	730.200000
787.059326	734.300000
787.095642	736.700000
787.131836	740.600000
787.168152	740.100000
787.204468	752.800000
787.240723	769.500000
787.276978	769.900000
787.313293	763.000000
787.349548	753.800000
787.385803	759.200000
787.422058	762.700000
787.458313	761.500000
787.494629	757.000000
787.530823	753.100000
787.567139	744.100000
787.603455	733.700000
787.639648	732.800000
787.675903	742.000000
787.712219	734.100000
787.748413	728.700000
787.784729	730.200000
787.820984	724.300000
787.857178	723.900000
787.893494	720.700000
787.929749	722.100000
787.965942	732.900000
788.002258	736.900000
788.038452	744.400000
788.074707	741.400000
788.110962	746.800000
788.147217	746.500000
788.183472	757.800000
788.219727	759.700000
788.255920	769.600000
788.292175	768.900000
788.328430	763.300000
788.364624	758.400000
788.400879	768.400000
788.437134	776.100000
788.473328	766.000000
788.509583	769.000000
788.545837	763.000000
788.582031	766.100000
788.618286	777.400000
788.654480	773.300000
788.690735	780.600000
788.726990	796.600000
788.763184	780.300000
788.799377	787.600000
788.835632	784.200000
788.871826	798.600000
788.908081	797.600000
788.944336	782.100000
788.980469	794.200000
789.016724	785.000000
789.052979	774.800000
789.089111	765.800000
789.125366	777.400000
789.161621	762.800000
789.197754	771.200000
789.234009	762.900000
789.270142	754.900000
789.306396	746.900000
789.342590	752.600000
789.378784	742.300000
789.414978	742.700000
789.451233	766.100000
789.487366	765.500000
789.523621	765.100000
789.559814	769.200000
789.595947	773.300000
789.632202	786.700000
789.668335	794.400000
789.704529	802.800000
789.740784	806.000000
789.776917	801.300000
789.813110	799.100000
789.849304	810.900000
789.885498	812.600000
789.921692	821.000000
789.957886	817.200000
789.994019	807.500000
790.030212	799.800000
790.066406	805.200000
790.102539	817.400000
790.138733	833.600000
790.174927	827.800000
790.211060	824.900000
790.247253	804.000000
790.283386	798.000000
790.319580	796.300000
790.355774	797.400000
790.391907	803.600000
790.428101	817.700000
790.464294	806.400000
790.500427	801.700000
790.536621	788.200000
790.572754	783.800000
790.608887	795.500000
790.645081	799.200000
790.681274	803.600000
790.717346	792.500000
790.753540	774.000000
790.789734	763.300000
790.825867	763.000000
790.862000	776.600000
790.898132	782.700000
790.934265	773.300000
790.970459	763.600000
791.006592	769.900000
791.042725	773.800000
791.078918	775.400000
791.114990	783.000000
791.151184	780.000000
791.187317	787.600000
791.223389	778.600000
791.259583	771.400000
791.295715	781.100000
791.331848	790.400000
791.367981	797.400000
791.404114	792.100000
791.440247	781.900000
791.476379	781.200000
791.512451	766.300000
791.548584	775.900000
791.584778	775.200000
791.620850	790.500000
791.656982	789.900000
791.693115	772.000000
791.729187	771.500000
791.765381	775.500000
791.801514	781.900000
791.837585	785.700000
791.873718	782.500000
791.909851	778.400000
791.945923	772.800000
791.982056	754.000000
792.018188	759.600000
792.054260	770.200000
792.090393	774.700000
792.126465	762.400000
792.162598	759.500000
792.198669	750.700000
792.234741	751.700000
792.270874	752.400000
792.307007	749.900000
792.343079	754.000000
792.379150	752.100000
792.415283	730.000000
792.451355	733.800000
792.487488	720.600000
792.523560	732.700000
792.559631	735.200000
792.595764	727.700000
792.631836	704.600000
792.667908	683.000000
792.703979	675.300000
792.740051	711.700000
792.776184	774.100000
792.812256	821.500000
792.848328	845.900000
792.884399	845.400000
792.920471	843.500000
792.956543	845.700000
792.992615	850.500000
793.028748	854.700000
793.064758	861.000000
793.100830	870.800000
793.136963	878.700000
793.172974	876.800000
793.209045	860.600000
793.245178	878.300000
793.281189	866.100000
793.317261	879.300000
793.353271	887.500000
793.389404	883.800000
793.425476	873.100000
793.461487	863.900000
793.497559	862.900000
793.533630	876.600000
793.569641	870.800000
793.605713	866.600000
793.641785	864.700000
793.677795	872.900000
793.713867	858.600000
793.749878	867.900000
793.785950	884.500000
793.822021	889.000000
793.858032	869.400000
793.894104	875.600000
793.930176	860.900000
793.966187	866.900000
794.002258	861.000000
794.038269	874.200000
794.074280	872.600000
794.110352	885.900000
794.146423	864.300000
794.182373	850.500000
794.218445	850.600000
794.254517	853.900000
794.290466	841.800000
794.326538	849.800000
794.362549	850.100000
794.398560	853.400000
794.434631	850.900000
794.470581	839.700000
794.506653	848.500000
794.542664	855.900000
794.578674	852.300000
794.614685	845.300000
794.650757	832.900000
794.686707	831.700000
794.722778	833.100000
794.758789	844.400000
794.794739	866.000000
794.830811	889.100000
794.866821	890.100000
794.902771	879.300000
794.938843	869.400000
794.974792	874.600000
795.010803	881.000000
795.046814	884.800000
795.082825	869.300000
795.118835	880.300000
795.154846	850.200000
795.190796	858.500000
795.226807	852.100000
795.262817	856.600000
795.298767	855.200000
795.334778	862.200000
795.370850	855.900000
795.406799	856.100000
795.442810	835.900000
795.478821	844.500000
795.514709	848.600000
795.550720	878.000000
795.586670	847.500000
795.622681	847.600000
795.658691	840.900000
795.694641	844.500000
795.730652	847.300000
795.766663	870.900000
795.802551	862.900000
795.838562	868.300000
795.874573	851.600000
795.910522	853.400000
795.946472	853.100000
795.982483	864.900000
796.018433	863.700000
796.054382	870.900000
796.090393	864.100000
796.126282	845.600000
796.162292	839.100000
796.198242	848.900000
796.234192	849.600000
796.270203	849.900000
796.306091	849.200000
796.342041	857.700000
796.378052	849.300000
796.413940	851.300000
796.449951	861.200000
796.485901	866.300000
796.521790	875.000000
796.557800	879.400000
796.593689	865.000000
796.629639	852.600000
796.665649	847.900000
796.701599	855.300000
796.737488	859.500000
796.773437	874.700000
796.809387	866.800000
796.845337	857.700000
796.881287	850.500000
796.917175	853.300000
796.953125	863.800000
796.989075	872.500000
797.024963	863.400000
797.060913	854.500000
797.096863	846.200000
797.132751	838.200000
797.168701	833.600000
797.204590	849.800000
797.240540	851.600000
797.276489	858.600000
797.312439	843.600000
797.348328	824.700000
797.384277	817.100000
797.420166	822.300000
797.456055	837.100000
797.492004	832.500000
797.527893	826.800000
797.563843	825.100000
797.599731	820.400000
797.635620	817.900000
797.671570	827.000000
797.707520	834.500000
797.743347	833.300000
797.779297	823.800000
797.815125	806.200000
797.851074	795.900000
797.887024	798.100000
797.922913	808.900000
797.958801	822.500000
797.994690	809.100000
798.030579	804.800000
798.066467	802.800000
798.102356	799.600000
798.138245	798.600000
798.174133	796.700000
798.210083	800.800000
798.245911	812.500000
798.281799	801.000000
798.317749	788.600000
798.353577	787.500000
798.389465	786.500000
798.425293	789.200000
798.461243	789.900000
798.497131	791.700000
798.532959	779.800000
798.568848	784.400000
798.604736	771.100000
798.640564	770.700000
798.676453	781.300000
798.712402	780.200000
798.748230	779.100000
798.784119	768.600000
798.820007	763.500000
798.855835	771.700000
798.891724	772.900000
798.927551	773.300000
798.963379	772.300000
798.999268	763.400000
799.035095	746.400000
799.070984	747.900000
799.106873	747.200000
799.142700	759.200000
799.178528	749.800000
799.214417	754.700000
799.250244	759.300000
799.286133	749.300000
799.321960	746.800000
799.357788	750.000000
799.393677	749.800000
799.429504	751.400000
799.465332	750.300000
799.501221	751.200000
799.537048	741.100000
799.572876	742.200000
799.608704	746.400000
799.644531	762.800000
799.680359	758.200000
799.716248	755.200000
799.752014	751.700000
799.787903	747.600000
799.823730	746.600000
799.859558	746.200000
799.895386	749.200000
799.931213	754.600000
799.967041	746.200000
800.002869	736.400000
800.038696	749.500000
800.074463	748.700000
800.110352	746.400000
800.146179	737.000000
800.181946	740.200000
800.217773	739.000000
800.253540	732.700000
800.289429	737.000000
800.325256	731.500000
800.361023	726.100000
800.396851	737.600000
800.432678	729.200000
800.468445	721.700000
800.504272	721.000000
800.540100	709.500000
800.575867	712.200000
800.611694	722.700000
800.647461	717.700000
800.683289	716.300000
800.719116	712.400000
800.754883	708.600000
800.790649	699.100000
800.826477	697.500000
800.862244	719.600000
800.898071	704.000000
800.933838	702.300000
800.969604	690.600000
801.005432	687.400000
801.041199	696.000000
801.076965	697.600000
801.112793	688.600000
801.148560	683.800000
801.184326	684.100000
801.220154	678.500000
801.255859	671.600000
801.291687	673.000000
801.327454	675.700000
801.363281	680.200000
801.398987	673.100000
801.434814	671.900000
801.470520	680.600000
801.506287	670.900000
801.542114	667.900000
801.577820	666.900000
801.613647	667.900000
801.649414	661.100000
801.685120	657.300000
801.720886	658.800000
801.756714	657.600000
801.792419	658.100000
801.828186	648.900000
801.863892	658.100000
801.899719	646.200000
801.935486	648.300000
801.971252	653.500000
802.006958	649.300000
802.042725	650.300000
802.078430	647.900000
802.114197	642.800000
802.149963	650.700000
802.185669	644.100000
802.221436	642.400000
802.257202	646.900000
802.292908	643.600000
802.328674	651.200000
802.364441	652.600000
802.400146	644.900000
802.435913	643.700000
802.471558	641.400000
802.507324	637.400000
802.543091	628.100000
802.578796	641.200000
802.614502	641.600000
802.650269	645.200000
802.685974	629.300000
802.721741	635.900000
802.757446	639.300000
802.793152	644.200000
802.828918	648.500000
802.864624	643.200000
802.900330	644.100000
802.936035	637.700000
802.971802	638.700000
803.007446	630.700000
803.043213	627.100000
803.078857	641.300000
803.114624	621.800000
803.150330	623.500000
803.185974	617.100000
803.221741	616.700000
803.257446	627.800000
803.293152	630.000000
803.328857	617.800000
803.364563	611.700000
803.400208	601.200000
803.435974	606.500000
803.471680	603.000000
803.507324	606.500000
803.543030	616.600000
803.578735	612.300000
803.614441	601.700000
803.650146	603.700000
803.685791	588.700000
803.721497	595.700000
803.757202	594.700000
803.792847	603.700000
803.828552	594.900000
803.864258	590.300000
803.899902	585.200000
803.935608	575.800000
803.971313	579.100000
804.006958	584.700000
804.042664	583.900000
804.078308	584.900000
804.113953	571.400000
804.149658	575.200000
804.185364	569.800000
804.221008	584.800000
804.256714	573.800000
804.292297	570.100000
804.328003	565.400000
804.363708	560.700000
804.399292	564.700000
804.434998	569.400000
804.470703	560.800000
804.506287	572.400000
804.541992	559.800000
804.577637	559.300000
804.613281	550.100000
804.648926	551.500000
804.684570	553.800000
804.720215	544.500000
804.755920	545.000000
804.791565	546.400000
804.827209	547.200000
804.862854	544.200000
804.898437	541.400000
804.934143	544.400000
804.969788	545.100000
805.005371	541.900000
805.041077	540.100000
805.076721	536.100000
805.112305	529.800000
805.147949	533.500000
805.183655	533.500000
805.219238	540.200000
805.254883	529.000000
805.290466	533.300000
805.326111	526.300000
805.361755	521.300000
805.397400	524.300000
805.432983	526.600000
805.468628	529.100000
805.504211	532.700000
805.539856	525.900000
805.575500	529.500000
805.611084	520.600000
805.646729	515.100000
805.682373	520.700000
805.717957	528.700000
805.753601	529.100000
805.789246	516.000000
805.824768	519.400000
805.860413	522.400000
805.895996	515.600000
805.931641	518.700000
805.967224	523.500000
806.002869	517.300000
806.038452	515.700000
806.074036	513.300000
806.109619	507.100000
806.145264	504.300000
806.180847	504.000000
806.216431	503.800000
806.252014	507.100000
806.287659	501.100000
806.323181	510.200000
806.358826	506.100000
806.394409	490.200000
806.429993	492.200000
806.465576	504.100000
806.501160	493.600000
806.536743	483.600000
806.572327	490.400000
806.607910	486.600000
806.643494	488.000000
806.679077	485.400000
806.714661	482.300000
806.750244	481.300000
806.785828	479.100000
806.821350	481.800000
806.856934	480.400000
806.892517	474.200000
806.928101	469.900000
806.963684	474.200000
806.999268	478.300000
807.034790	464.100000
807.070374	467.200000
807.105896	459.500000
807.141479	463.000000
807.177063	467.800000
807.212585	461.800000
807.248169	457.800000
807.283752	458.900000
807.319275	452.600000
807.354858	458.800000
807.390381	453.000000
807.425903	451.700000
807.461487	448.000000
807.497070	446.100000
807.532593	447.400000
807.568115	440.100000
807.603699	434.900000
807.639221	434.500000
807.674744	441.100000
807.710266	444.000000
807.745850	438.200000
807.781372	435.000000
807.816895	432.500000
807.852417	432.900000
807.888000	431.500000
807.923523	432.200000
807.959045	431.000000
807.994629	423.900000
808.030090	423.400000
808.065613	426.700000
808.101135	429.300000
808.136658	423.700000
808.172241	422.600000
808.207764	422.600000
808.243225	417.700000
808.278809	413.800000
808.314270	421.200000
808.349792	411.100000
808.385315	412.400000
808.420837	416.200000
808.456360	420.900000
808.491882	420.700000
808.527344	415.900000
808.562866	422.000000
808.598389	411.900000
808.633850	415.700000
808.669434	405.900000
808.704895	412.600000
808.740417	417.900000
808.775940	412.300000
808.811462	409.600000
808.846924	404.500000
808.882385	402.100000
808.917847	402.500000
808.953369	400.100000
808.988892	398.900000
809.024353	403.600000
809.059875	403.200000
809.095398	403.800000
809.130798	396.100000
809.166321	394.000000
809.201843	392.900000
809.237305	393.300000
809.272766	401.500000
809.308228	389.000000
809.343750	387.900000
809.379211	389.300000
809.414734	389.900000
809.450134	398.100000
809.485657	385.900000
809.521118	389.000000
809.556580	382.000000
809.592102	380.000000
809.627502	380.100000
809.663025	377.000000
809.698486	375.500000
809.733887	372.100000
809.769409	377.300000
809.804871	367.200000
809.840271	369.400000
809.875793	371.800000
809.911194	375.500000
809.946655	364.600000
809.982178	363.800000
810.017639	369.400000
810.053040	365.400000
810.088501	362.300000
810.123901	360.000000
810.159424	356.500000
810.194885	355.700000
810.230286	357.500000
810.265747	351.700000
810.301208	349.800000
810.336609	355.100000
810.372070	346.400000
810.407532	350.600000
810.442932	348.400000
810.478394	353.700000
810.513794	347.000000
810.549255	345.600000
810.584717	343.200000
810.620117	339.700000
810.655518	345.400000
810.690979	340.100000
810.726379	338.400000
810.761841	333.200000
810.797302	333.300000
810.832642	332.800000
810.868103	339.900000
810.903564	329.600000
810.938904	335.800000
810.974365	325.000000
811.009827	327.500000
811.045166	324.200000
811.080627	319.300000
811.115967	324.600000
811.151428	330.100000
811.186829	323.000000
811.222229	321.700000
811.257629	319.000000
811.293091	319.800000
811.328430	329.700000
811.363892	322.000000
811.399292	323.500000
811.434631	317.700000
811.470093	322.700000
811.505493	315.400000
811.540833	315.900000
811.576294	317.400000
811.611694	315.300000
811.647034	308.900000
811.682434	309.900000
811.717773	312.800000
811.753235	315.800000
811.788635	309.700000
811.823975	308.800000
811.859375	314.500000
811.894775	301.900000
811.930115	304.100000
811.965515	302.200000
812.000916	305.900000
812.036255	303.600000
812.071655	306.900000
812.106995	298.300000
812.142395	296.800000
812.177795	303.900000
812.213196	300.700000
812.248474	299.900000
812.283875	292.500000
812.319214	295.800000
812.354614	295.100000
812.390015	291.300000
812.425293	289.000000
812.460693	291.000000
812.496094	287.900000
812.531433	283.000000
812.566772	284.000000
812.602173	286.000000
812.637451	286.600000
812.672852	282.700000
812.708191	283.900000
812.743530	279.800000
812.778931	276.300000
812.814270	277.100000
812.849609	282.200000
812.884949	279.000000
812.920227	272.300000
812.955627	285.000000
812.990967	276.200000
813.026306	274.300000
813.061646	266.800000
813.096985	265.500000
813.132324	262.100000
813.167664	266.600000
813.203003	269.700000
813.238281	259.600000
813.273682	259.000000
813.308960	258.400000
813.344299	258.700000
813.379639	266.800000
813.414978	259.800000
813.450256	258.900000
813.485596	262.200000
813.520874	255.800000
813.556213	258.000000
813.591614	261.800000
813.626831	254.600000
813.662170	259.000000
813.697510	262.600000
813.732788	252.300000
813.768127	255.700000
813.803467	256.600000
813.838745	252.000000
813.874084	256.100000
813.909363	253.500000
813.944641	253.000000
813.979980	245.700000
814.015320	249.800000
814.050598	248.500000
814.085876	250.800000
814.121155	246.200000
814.156494	245.500000
814.191772	246.100000
814.227051	243.500000
814.262390	244.700000
814.297668	243.900000
814.332947	245.500000
814.368225	240.000000
814.403564	241.300000
814.438782	237.700000
814.474121	242.100000
814.509338	238.700000
814.544617	245.300000
814.579956	238.100000
814.615173	245.600000
814.650513	241.500000
814.685791	236.600000
814.721008	240.500000
814.756348	239.300000
814.791626	236.300000
814.826843	235.700000
814.862122	237.200000
814.897400	234.600000
814.932678	236.600000
814.967957	235.200000
815.003235	235.600000
815.038452	230.100000
815.073730	228.700000
815.108948	237.500000
815.144226	234.600000
815.179504	239.700000
815.214722	225.200000
815.250000	227.100000
815.285278	233.500000
815.320496	227.100000
815.355774	229.700000
815.391052	230.800000
815.426270	227.800000
815.461487	227.400000
815.496765	224.500000
815.531982	220.800000
815.567261	225.600000
815.602539	233.400000
815.637695	227.700000
815.672974	229.000000
815.708191	230.200000
815.743408	231.600000
815.778687	224.000000
815.813904	231.400000
815.849121	220.400000
815.884399	219.600000
815.919556	221.100000
815.954834	221.900000
815.990051	224.300000
816.025269	228.400000
816.060486	219.800000
816.095703	220.300000
816.130920	223.800000
816.166199	219.800000
816.201416	225.000000
816.236572	226.800000
816.271851	221.900000
816.307007	224.800000
816.342224	217.900000
816.377441	221.200000
816.412659	215.300000
816.447876	223.500000
816.483093	221.000000
816.518250	219.700000
816.553467	219.000000
816.588745	223.200000
816.623901	217.400000
816.659119	212.200000
816.694275	218.000000
816.729492	214.700000
816.764709	245.300000
816.799927	211.500000
816.835083	217.800000
816.870300	212.700000
816.905457	218.100000
816.940674	218.200000
816.975830	215.000000
817.010986	214.300000
817.046204	213.700000
817.081421	211.300000
817.116577	212.500000
817.151733	221.200000
817.186951	217.900000
817.222107	216.200000
817.257324	219.300000
817.292419	217.600000
817.327637	211.500000
817.362854	214.100000
817.398010	211.300000
817.433167	215.200000
817.468323	212.400000
817.503479	213.800000
817.538635	221.300000
817.573853	216.200000
817.608948	213.500000
817.644165	211.700000
817.679321	210.500000
817.714478	212.500000
817.749634	214.600000
817.784790	222.200000
817.819946	220.000000
817.855103	206.900000
817.890198	212.600000
817.925415	207.000000
817.960571	215.800000
817.995667	215.300000
818.030823	214.000000
818.066040	210.700000
818.101135	213.200000
818.136292	212.100000
818.171448	209.500000
818.206543	213.300000
818.241699	214.700000
818.276855	214.900000
818.311951	213.100000
818.347107	208.200000
818.382263	215.500000
818.417358	218.200000
818.452515	218.300000
818.487610	219.100000
818.522766	210.800000
818.557922	218.600000
818.593018	216.800000
818.628113	214.300000
818.663269	211.100000
818.698364	215.700000
818.733521	211.800000
818.768677	214.800000
818.803711	209.400000
818.838867	209.300000
818.874023	211.700000
818.909058	209.800000
818.944214	209.100000
818.979370	214.800000
819.014404	214.000000
819.049561	210.000000
819.084595	214.200000
819.119751	207.000000
819.154846	213.600000
819.189941	209.400000
819.225037	208.600000
819.260193	203.900000
819.295227	206.200000
819.330322	204.000000
819.365479	204.200000
819.400513	238.600000
819.435608	203.200000
819.470764	202.000000
819.505798	203.800000
819.540894	207.000000
819.575989	206.900000
819.611084	212.500000
819.646179	214.200000
819.681213	209.800000
819.716309	207.200000
819.751404	206.300000
819.786438	214.000000
819.821533	204.800000
819.856628	208.600000
819.891663	212.200000
819.926758	219.000000
819.961853	214.400000
819.996887	206.700000
820.031982	210.000000
820.067017	207.700000
820.102112	241.800000
820.137207	206.000000
820.172302	219.300000
820.207275	205.300000
820.242371	205.800000
820.277405	206.900000
820.312500	208.100000
820.347534	209.100000
820.382568	213.500000
820.417664	205.200000
820.452759	206.400000
820.487732	205.800000
820.522827	207.400000
820.557861	204.300000
820.592896	206.300000
820.627930	207.000000
820.662964	203.600000
820.698059	208.400000
820.733093	206.500000
820.768127	208.800000
820.803162	207.900000
820.838196	204.400000
820.873230	207.200000
820.908264	209.500000
820.943298	205.900000
820.978333	210.700000
821.013367	207.900000
821.048401	211.400000
821.083435	211.100000
821.118469	201.300000
821.153503	211.800000
821.188477	209.200000
821.223511	201.900000
821.258484	207.300000
821.293579	206.600000
821.328613	202.300000
821.363647	206.900000
821.398621	201.900000
821.433655	205.800000
821.468628	218.200000
821.503662	205.600000
821.538696	209.800000
821.573669	202.200000
821.608704	210.300000
821.643677	205.600000
821.678650	209.500000
821.713684	212.500000
821.748718	207.100000
821.783691	206.300000
821.818726	206.800000
821.853638	209.000000
821.888672	205.500000
821.923706	206.400000
821.958618	205.100000
821.993652	205.800000
822.028687	210.700000
822.063599	211.800000
822.098633	207.500000
822.133667	204.800000
822.168579	206.900000
822.203613	206.800000
822.238586	203.900000
822.273560	208.500000
822.308533	203.600000
822.343567	203.800000
822.378479	205.700000
822.413452	205.200000
822.448425	202.700000
822.483398	208.600000
822.518372	210.200000
822.553345	203.900000
822.588318	212.200000
822.623291	204.500000
822.658203	204.400000
822.693237	206.200000
822.728210	203.600000
822.763123	205.500000
822.798096	201.500000
822.833069	206.100000
822.867981	205.300000
822.902954	207.000000
822.937927	206.800000
822.972900	212.700000
823.007874	201.200000
823.042725	209.500000
823.077698	214.600000
823.112671	202.700000
823.147583	204.400000
823.182556	207.400000
823.217529	208.600000
823.252441	203.200000
823.287415	213.700000
823.322388	208.300000
823.357239	204.800000
823.392212	211.200000
823.427185	211.300000
823.462097	202.100000
823.497009	206.000000
823.531982	202.400000
823.566895	205.600000
823.601807	201.600000
823.636719	203.700000
823.671631	207.800000
823.706604	202.900000
823.741455	206.900000
823.776428	199.700000
823.811340	207.100000
823.846252	210.100000
823.881165	211.200000
823.916138	205.400000
823.950989	211.300000
823.985901	203.100000
824.020813	205.000000
824.055725	204.000000
824.090637	199.200000
824.125610	206.600000
824.160461	205.900000
824.195374	206.400000
824.230225	207.800000
824.265198	198.900000
824.300110	203.000000
824.334961	212.400000
824.369873	197.400000
824.404785	205.900000
824.439636	208.200000
824.474548	198.500000
824.509460	196.100000
824.544312	209.700000
824.579224	205.700000
824.614075	206.500000
824.648987	202.900000
824.683899	204.800000
824.718811	202.000000
824.753662	210.100000
824.788574	207.100000
824.823364	207.000000
824.858276	200.700000
824.893188	207.900000
824.928040	206.100000
824.962952	206.200000
824.997803	207.400000
825.032654	205.600000
825.067566	205.800000
825.102417	201.800000
825.137268	203.700000
825.172119	202.000000
825.206970	200.100000
825.241882	203.000000
825.276733	199.600000
825.311646	200.800000
825.346436	199.600000
825.381348	199.400000
825.416138	203.200000
825.450989	199.200000
825.485901	195.300000
825.520691	196.800000
825.555542	197.400000
825.590454	200.400000
825.625244	196.100000
825.660095	208.100000
825.695007	203.900000
825.729797	201.000000
825.764648	197.200000
825.799438	200.100000
825.834290	202.600000
825.869202	195.300000
825.903992	202.600000
825.938843	199.500000
825.973694	196.300000
826.008484	209.900000
826.043335	197.700000
826.078186	191.900000
826.112976	204.100000
826.147827	203.700000
826.182678	207.200000
826.217468	192.600000
826.252319	203.800000
826.287109	195.900000
826.321899	202.400000
826.356750	197.200000
826.391541	195.600000
826.426392	201.100000
826.461182	197.600000
826.495972	194.100000
826.530823	190.100000
826.565613	197.500000
826.600403	194.400000
826.635254	199.200000
826.670044	190.600000
826.704834	191.100000
826.739685	191.900000
826.774475	198.100000
826.809265	195.500000
826.844055	193.900000
826.878906	201.100000
826.913635	196.600000
826.948425	197.300000
826.983215	198.400000
827.018005	199.200000
827.052856	194.200000
827.087585	198.700000
827.122375	189.200000
827.157227	194.300000
827.191956	206.300000
827.226746	190.800000
827.261536	198.300000
827.296265	190.800000
827.331116	192.000000
827.365906	197.800000
827.400635	191.900000
827.435425	187.900000
827.470215	198.500000
827.504944	192.700000
827.539734	197.600000
827.574463	192.600000
827.609253	201.200000
827.644043	193.900000
827.678772	199.000000
827.713562	192.700000
827.748352	193.500000
827.783081	190.500000
827.817871	195.200000
827.852600	190.400000
827.887329	194.200000
827.922119	186.800000
827.956848	196.200000
827.991638	205.100000
828.026367	195.800000
828.061157	192.800000
828.095886	194.300000
828.130615	205.900000
828.165344	186.700000
828.200073	194.200000
828.234863	192.900000
828.269592	194.200000
828.304321	195.800000
828.339111	194.400000
828.373779	191.100000
828.408569	196.500000
828.443298	197.500000
828.477966	191.800000
828.512756	192.600000
828.547424	190.000000
828.582214	192.300000
828.616943	191.800000
828.651672	193.400000
828.686340	196.100000
828.721130	190.400000
828.755798	194.500000
828.790527	192.800000
828.825256	195.300000
828.859924	195.000000
828.894714	196.600000
828.929443	199.500000
828.964111	191.800000
828.998840	195.800000
829.033569	190.200000
829.068237	192.000000
829.102966	192.400000
829.137634	195.600000
829.172363	196.100000
829.207092	194.600000
829.241821	191.200000
829.276489	187.800000
829.311157	194.800000
829.345825	191.000000
829.380554	196.800000
829.415283	190.900000
829.449951	187.600000
829.484619	200.600000
829.519348	200.400000
829.554016	194.700000
829.588745	194.800000
829.623413	189.000000
829.658081	202.800000
829.692749	189.700000
829.727417	198.400000
829.762146	195.800000
829.796814	190.900000
829.831482	193.000000
829.866150	194.300000
829.900879	192.000000
829.935486	195.000000
829.970154	192.100000
830.004883	203.500000
830.039490	193.400000
830.074219	191.700000
830.108887	194.700000
830.143494	191.800000
830.178223	189.700000
830.212891	193.200000
830.247498	194.800000
830.282166	199.200000
830.316772	197.600000
830.351501	191.200000
830.386169	193.200000
830.420776	192.700000
830.455444	194.900000
830.490112	190.000000
830.524719	187.200000
830.559387	194.600000
830.594055	195.100000
830.628662	193.100000
830.663330	194.700000
830.697998	199.800000
830.732605	192.900000
830.767273	194.000000
830.801941	194.200000
830.836487	199.800000
830.871155	195.300000
830.905762	196.300000
830.940430	189.000000
830.975098	190.700000
831.009644	194.300000
831.044312	200.900000
831.078979	196.600000
831.113525	186.600000
831.148193	194.900000
831.182861	192.200000
831.217407	195.900000
831.252075	205.900000
831.286621	191.100000
831.321289	191.000000
831.355896	195.900000
831.390564	200.500000
831.425110	195.200000
831.459778	199.300000
831.494324	204.500000
831.528931	196.700000
831.563599	198.500000
831.598145	190.300000
831.632751	193.400000
831.667419	193.500000
831.701965	195.000000
831.736572	196.700000
831.771179	189.200000
831.805786	191.200000
831.840393	198.800000
831.874939	187.800000
831.909546	195.700000
831.944153	187.200000
831.978760	195.000000
832.013306	190.800000
832.047913	198.600000
832.082458	199.500000
832.117065	191.700000
832.151672	201.200000
832.186218	193.700000
832.220825	196.300000
832.255432	187.500000
832.289978	192.800000
832.324585	195.700000
832.359192	195.100000
832.393677	192.400000
832.428284	195.400000
832.462830	193.400000
832.497437	193.000000
832.531982	196.500000
832.566589	193.000000
832.601135	193.900000
832.635681	187.500000
832.670227	194.500000
832.704773	200.600000
832.739380	194.000000
832.773926	193.400000
832.808472	190.600000
832.843079	195.200000
832.877563	196.400000
832.912170	192.400000
832.946716	189.000000
832.981201	197.800000
833.015808	196.900000
833.050293	193.000000
833.084839	189.600000
833.119446	192.200000
833.153992	197.600000
833.188477	193.900000
833.223022	191.400000
833.257568	196.300000
833.292114	199.100000
833.326660	203.100000
833.361145	191.900000
833.395691	187.300000
833.430237	193.600000
833.464783	196.600000
833.499329	191.100000
833.533875	190.900000
833.568359	198.200000
833.602905	198.000000
833.637390	198.900000
833.671875	192.100000
833.706421	192.300000
833.740906	191.100000
833.775452	185.900000
833.809998	192.200000
833.844482	201.400000
833.879028	194.200000
833.913513	191.600000
833.947998	196.500000
833.982544	190.000000
834.017090	191.600000
834.051514	186.300000
834.086060	196.000000
834.120544	193.800000
834.155029	195.300000
834.189575	192.800000
834.223999	196.500000
834.258545	196.000000
834.293030	195.400000
834.327515	193.100000
834.362000	191.800000
834.396545	196.700000
834.430969	194.100000
834.465454	197.500000
834.500000	188.800000
834.534424	195.800000
834.568970	187.100000
834.603455	186.500000
834.637878	191.200000
834.672363	194.800000
834.706909	196.300000
834.741333	193.000000
834.775818	187.800000
834.810242	191.700000
834.844727	193.100000
834.879211	192.800000
834.913635	194.400000
834.948181	195.400000
834.982666	194.500000
835.017090	192.800000
835.051575	195.400000
835.086060	190.100000
835.120483	196.200000
835.154907	194.900000
835.189331	193.900000
835.223816	196.500000
835.258301	189.100000
835.292786	189.600000
835.327209	196.700000
835.361694	191.200000
835.396057	192.800000
835.430542	193.900000
835.465027	193.600000
835.499390	190.300000
835.533875	218.700000
835.568359	193.100000
835.602722	189.200000
835.637207	194.400000
835.671692	189.200000
835.706055	209.500000
835.740540	194.500000
835.774902	194.900000
835.809387	194.400000
835.843811	188.900000
835.878235	197.900000
835.912659	189.500000
835.947083	190.600000
835.981506	193.400000
836.015930	188.900000
836.050354	197.800000
836.084778	200.200000
836.119202	197.900000
836.153625	206.200000
836.187988	188.900000
836.222473	191.300000
836.256897	195.900000
836.291260	192.300000
836.325684	196.200000
836.360046	192.200000
836.394470	193.200000
836.428894	199.600000
836.463318	191.300000
836.497681	196.300000
836.532104	199.700000
836.566467	194.700000
836.600891	191.800000
836.635315	198.300000
836.669678	195.200000
836.704102	196.500000
836.738525	196.500000
836.772888	187.300000
836.807251	191.700000
836.841675	196.300000
836.876038	190.500000
836.910461	192.000000
836.944763	196.200000
836.979187	189.300000
837.013611	198.200000
837.047974	189.800000
837.082336	203.200000
837.116699	195.800000
837.151062	193.300000
837.185486	188.900000
837.219849	191.800000
837.254211	197.400000
837.288574	192.900000
837.322937	190.800000
837.357300	184.900000
837.391663	203.500000
837.426086	197.100000
837.460388	195.300000
837.494751	197.000000
837.529114	191.600000
837.563477	199.900000
837.597839	194.700000
837.632141	193.200000
837.666565	192.200000
837.700928	197.400000
837.735229	194.400000
837.769592	196.500000
837.803955	196.400000
837.838257	192.800000
837.872620	191.200000
837.906982	200.100000
837.941284	193.500000
837.975647	195.000000
838.010010	200.100000
838.044312	192.400000
838.078674	191.600000
838.112976	195.300000
838.147339	194.600000
838.181702	193.300000
838.216003	199.900000
838.250366	195.700000
838.284668	196.700000
838.318970	189.300000
838.353333	192.300000
838.387634	193.100000
838.421936	194.300000
838.456299	195.000000
838.490601	199.200000
838.524902	197.100000
838.559265	198.000000
838.593567	196.100000
838.627869	188.400000
838.662170	196.300000
838.696472	189.400000
838.730774	191.700000
838.765137	196.800000
838.799377	184.000000
838.833740	193.500000
838.868042	198.000000
838.902283	188.000000
838.936646	200.500000
838.970947	194.100000
839.005188	199.500000
839.039551	186.800000
839.073792	198.600000
839.108093	192.000000
839.142395	201.200000
839.176697	188.500000
839.210937	195.400000
839.245300	202.400000
839.279541	189.300000
839.313843	193.300000
839.348145	196.300000
839.382385	197.100000
839.416687	199.000000
839.450989	195.400000
839.485229	193.100000
839.519531	190.700000
839.553833	198.000000
839.588013	192.800000
839.622314	195.600000
839.656555	194.800000
839.690857	193.600000
839.725159	189.900000
839.759460	192.400000
839.793640	192.500000
839.827942	193.900000
839.862183	190.000000
839.896423	194.900000
839.930725	204.300000
839.964966	200.100000
839.999207	198.700000
840.033508	200.700000
840.067688	192.000000
840.101990	199.600000
840.136230	192.700000
840.170471	199.900000
840.204712	190.700000
840.238953	190.600000
840.273193	194.400000
840.307434	197.500000
840.341736	191.300000
840.375916	189.200000
840.410217	192.200000
840.444397	198.800000
840.478638	196.800000
840.512878	199.500000
840.547119	195.900000
840.581360	197.400000
840.615601	201.300000
840.649780	203.300000
840.684021	193.700000
840.718262	202.000000
840.752441	200.000000
840.786682	195.300000
840.820862	193.900000
840.855103	200.700000
840.889343	194.000000
840.923584	198.500000
840.957764	196.500000
840.992004	194.900000
841.026184	205.700000
841.060425	194.500000
841.094666	191.200000
841.128845	197.600000
841.163025	194.900000
841.197266	195.700000
841.231445	195.400000
841.265686	196.800000
841.299866	190.100000
841.334045	201.800000
841.368286	192.700000
841.402405	200.800000
841.436646	196.200000
841.470825	192.100000
841.505005	193.700000
841.539185	190.700000
841.573425	192.200000
841.607544	193.900000
841.641785	194.100000
841.675964	191.500000
841.710144	193.500000
841.744324	191.100000
841.778503	192.600000
841.812683	191.700000
841.846863	199.900000
841.881042	200.000000
841.915222	192.800000
841.949402	205.600000
841.983521	186.000000
842.017700	193.500000
842.051880	193.800000
842.086060	196.700000
842.120239	194.400000
842.154419	193.400000
842.188538	195.000000
842.222717	192.600000
842.256897	202.200000
842.291016	193.700000
842.325195	196.500000
842.359375	203.700000
842.393494	200.200000
842.427673	194.600000
842.461853	196.800000
842.495911	202.800000
842.530090	195.500000
842.564209	194.200000
842.598389	196.600000
842.632568	195.000000
842.666626	198.900000
842.700806	192.200000
842.734985	193.200000
842.769043	196.600000
842.803223	193.400000
842.837402	193.200000
842.871460	192.500000
842.905640	202.700000
842.939697	191.100000
842.973877	195.500000
843.007996	198.900000
843.042175	201.700000
843.076233	191.300000
843.110413	195.800000
843.144470	202.300000
843.178589	199.400000
843.212769	193.600000
843.246826	198.100000
843.280945	192.300000
843.315125	193.100000
843.349182	191.300000
843.383301	198.800000
843.417419	204.500000
843.451538	195.700000
843.485657	192.600000
843.519714	194.700000
843.553833	195.300000
843.587952	193.000000
843.622070	191.900000
843.656128	197.700000
843.690247	190.600000
843.724304	193.900000
843.758423	196.800000
843.792542	194.000000
843.826599	194.600000
843.860718	192.400000
843.894836	188.600000
843.928894	196.000000
843.963013	195.800000
843.997070	190.600000
844.031128	191.000000
844.065247	199.900000
844.099304	198.700000
844.133362	196.500000
844.167480	196.100000
844.201599	201.200000
844.235596	196.200000
844.269714	196.800000
844.303711	194.600000
844.337830	188.200000
844.371948	196.700000
844.405945	194.000000
844.440063	191.200000
844.474121	205.700000
844.508118	194.400000
844.542236	194.700000
844.576294	194.500000
844.610352	189.500000
844.644409	193.900000
844.678406	189.200000
844.712524	200.200000
844.746582	199.700000
844.780640	195.200000
844.814636	194.600000
844.848755	203.900000
844.882751	193.100000
844.916809	197.700000
844.950867	197.100000
844.984863	201.700000
845.018921	194.600000
845.052979	191.900000
845.086975	195.400000
845.121033	190.300000
845.155090	192.100000
845.189087	198.800000
845.223145	193.300000
845.257141	196.800000
845.291199	197.200000
845.325256	199.900000
845.359253	195.200000
845.393250	206.800000
845.427307	193.600000
845.461304	196.400000
845.495361	195.100000
845.529358	202.700000
845.563354	192.800000
845.597412	192.100000
845.631409	200.700000
845.665405	200.900000
845.699463	198.200000
845.733459	192.600000
845.767456	202.600000
845.801453	194.900000
845.835449	199.800000
845.869446	198.400000
845.903503	198.000000
845.937439	190.900000
845.971497	199.500000
846.005493	190.500000
846.039429	199.900000
846.073486	202.800000
846.107483	193.800000
846.141418	193.300000
846.175476	195.500000
846.209473	201.000000
846.243408	191.600000
846.277405	197.000000
846.311401	191.300000
846.345337	193.300000
846.379395	198.500000
846.413330	193.200000
846.447327	203.600000
846.481323	192.100000
846.515259	192.100000
846.549255	193.100000
846.583252	197.700000
846.617187	190.500000
846.651184	196.300000
846.685120	194.300000
846.719055	202.800000
846.753052	197.900000
846.786987	198.400000
846.820984	188.600000
846.854980	201.000000
846.888916	190.900000
846.922852	196.400000
846.956848	200.300000
846.990723	191.700000
847.024719	197.100000
847.058716	194.900000
847.092590	200.100000
847.126587	198.200000
847.160522	192.000000
847.194458	197.500000
847.228455	190.900000
847.262390	190.400000
847.296265	193.800000
847.330261	199.300000
847.364136	193.400000
847.398132	193.200000
847.432068	195.100000
847.466003	193.100000
847.499939	192.800000
847.533875	197.600000
847.567749	194.400000
847.601746	192.500000
847.635681	196.600000
847.669556	188.300000
847.703491	199.800000
847.737427	206.000000
847.771301	190.400000
847.805237	197.900000
847.839233	195.800000
847.873108	194.300000
847.907043	193.800000
847.940918	200.900000
847.974854	196.700000
848.008789	199.500000
848.042664	194.600000
848.076538	197.300000
848.110474	195.100000
848.144348	195.300000
848.178284	191.300000
848.212219	196.400000
848.246094	192.600000
848.279968	194.700000
848.313904	196.600000
848.347778	196.400000
848.381653	193.500000
848.415588	191.100000
848.449463	192.500000
848.483337	196.700000
848.517212	200.700000
848.551086	194.800000
848.585022	190.000000
848.618835	203.600000
848.652771	193.400000
848.686646	192.100000
848.720520	200.200000
848.754395	194.400000
848.788330	197.400000
848.822144	197.900000
848.856018	193.100000
848.889954	203.100000
848.923767	189.800000
848.957642	192.600000
848.991577	197.000000
849.025391	194.400000
849.059265	194.500000
849.093079	192.400000
849.126953	190.300000
849.160828	197.900000
849.194641	195.700000
849.228577	192.700000
849.262451	194.000000
849.296265	193.900000
849.330139	192.500000
849.364014	194.900000
849.397827	196.600000
849.431702	196.100000
849.465515	199.200000
849.499329	188.900000
849.533203	190.900000
849.567078	187.400000
849.600891	197.100000
849.634766	194.000000
849.668518	198.200000
849.702393	195.700000
849.736267	190.300000
849.770020	204.700000
849.803894	197.200000
849.837769	196.200000
849.871521	194.700000
849.905396	197.800000
849.939270	191.200000
849.973022	194.500000
850.006897	198.500000
850.040710	198.600000
850.074524	198.700000
850.108337	193.900000
850.142151	200.100000
850.175964	200.500000
850.209778	194.100000
850.243530	185.600000
850.277405	198.800000
850.311218	195.000000
850.344971	193.600000
850.378845	202.300000
850.412659	192.200000
850.446411	196.700000
850.480225	195.100000
850.514038	199.200000
850.547791	198.100000
850.581665	194.600000
850.615417	191.000000
850.649231	196.100000
850.683044	194.700000
850.716858	193.500000
850.750610	197.200000
850.784424	198.900000
850.818176	191.600000
850.851929	193.300000
850.885742	192.200000
850.919495	194.600000
850.953308	200.800000
850.987122	201.000000
851.020874	190.500000
851.054626	189.800000
851.088440	197.600000
851.122192	198.200000
851.156006	195.600000
851.189697	194.500000
851.223511	192.000000
851.257263	198.400000
851.291077	196.700000
851.324829	194.200000
851.358582	194.200000
851.392334	194.300000
851.426086	192.900000
851.459900	202.000000
851.493591	195.700000
851.527344	195.000000
851.561157	193.700000
851.594849	196.100000
851.628662	196.000000
851.662415	202.900000
851.696106	198.100000
851.729858	198.700000
851.763611	191.800000
851.797363	195.400000
851.831116	190.700000
851.864868	198.300000
851.898560	199.800000
851.932312	194.500000
851.966064	197.100000
851.999817	194.200000
852.033569	193.200000
852.067261	199.900000
852.101013	191.500000
852.134766	194.700000
852.168457	188.100000
852.202209	200.300000
852.235901	190.300000
852.269592	199.400000
852.303345	201.700000
852.337036	198.900000
852.370789	195.500000
852.404541	198.400000
852.438171	191.500000
852.471924	194.800000
852.505676	190.400000
852.539307	196.500000
852.573059	192.700000
852.606812	194.600000
852.640442	194.500000
852.674194	200.900000
852.707886	203.900000
852.741577	200.700000
852.775269	192.200000
852.809021	196.500000
852.842651	196.900000
852.876404	201.300000
852.910034	196.700000
852.943787	198.700000
852.977478	198.000000
853.011108	192.800000
853.044861	192.700000
853.078552	201.100000
853.112183	197.500000
853.145874	197.700000
853.179626	189.800000
853.213257	196.900000
853.246948	193.300000
853.280640	204.000000
853.314270	194.700000
853.347961	200.800000
853.381653	197.900000
853.415283	200.600000
853.448975	192.900000
853.482605	196.600000
853.516296	194.500000
853.549988	189.400000
853.583618	197.600000
853.617310	197.300000
853.651001	196.100000
853.684631	191.900000
853.718323	194.000000
853.751953	200.800000
853.785583	188.900000
853.819275	197.700000
853.852966	196.600000
853.886536	189.500000
853.920227	193.200000
853.953918	199.400000
853.987488	193.600000
854.021179	199.300000
854.054749	201.900000
854.088440	197.400000
854.122131	191.800000
854.155701	197.000000
854.189331	192.900000
854.223022	198.800000
854.256592	197.500000
854.290283	193.500000
854.323914	196.600000
854.357483	196.500000
854.391174	198.300000
854.424744	201.500000
854.458374	196.800000
854.492065	205.700000
854.525696	197.800000
854.559265	201.000000
854.592896	207.000000
854.626465	196.200000
854.660095	194.500000
854.693787	197.500000
854.727356	194.100000
854.760986	199.400000
854.794617	197.400000
854.828186	194.300000
854.861816	196.600000
854.895447	197.400000
854.929016	195.300000
854.962585	197.700000
854.996155	203.300000
855.029785	196.600000
855.063416	196.600000
855.097046	197.600000
855.130615	190.500000
855.164185	200.600000
855.197754	196.000000
855.231384	197.200000
855.264954	194.500000
855.298523	199.200000
855.332153	196.400000
855.365723	200.000000
855.399292	193.100000
855.432922	194.100000
855.466492	198.100000
855.500061	192.100000
855.533630	192.300000
855.567200	197.600000
855.600769	198.600000
855.634338	199.700000
855.667969	197.300000
855.701477	192.700000
855.735046	192.200000
855.768616	188.500000
855.802185	197.100000
855.835754	206.800000
855.869324	190.500000
855.902893	194.900000
855.936401	200.100000
855.969971	196.300000
856.003540	190.300000
856.037109	199.500000
856.070618	195.700000
856.104187	191.500000
856.137695	193.100000
856.171265	189.000000
856.204834	196.400000
856.238403	199.800000
856.271912	192.700000
856.305481	196.800000
856.338989	190.900000
856.372559	197.200000
856.406128	197.700000
856.439636	198.400000
856.473145	194.700000
856.506653	201.500000
856.540222	196.000000
856.573792	199.700000
856.607300	199.100000
856.640808	191.300000
856.674377	196.300000
856.707825	228.300000
856.741394	200.200000
856.774902	191.300000
856.808472	189.900000
856.841980	198.100000
856.875488	199.600000
856.908936	189.600000
856.942505	194.000000
856.976013	194.700000
857.009521	192.000000
857.043030	195.600000
857.076477	193.500000
857.110046	200.900000
857.143555	195.800000
857.177063	197.800000
857.210571	194.300000
857.244080	190.600000
857.277527	196.500000
857.311035	195.700000
857.344543	200.800000
857.378052	194.900000
857.411499	200.000000
857.445068	201.500000
857.478516	193.500000
857.512024	192.100000
857.545532	193.200000
857.578979	198.400000
857.612427	196.400000
857.645874	193.100000
857.679382	197.600000
857.712891	199.700000
857.746399	194.000000
857.779846	199.700000
857.813354	200.600000
857.846741	195.400000
857.880249	191.500000
857.913757	195.700000
857.947266	195.800000
857.980652	198.300000
858.014160	194.000000
858.047546	192.500000
858.081055	195.100000
858.114563	205.600000
858.147949	190.100000
858.181458	197.100000
858.214844	196.000000
858.248352	187.700000
858.281799	199.900000
858.315308	205.900000
858.348694	198.100000
858.382141	202.600000
858.415588	197.800000
858.449036	198.400000
858.482483	196.400000
858.515930	193.000000
858.549377	195.800000
858.582825	199.300000
858.616211	196.600000
858.649658	196.500000
858.683105	191.200000
858.716553	194.900000
858.750000	190.300000
858.783386	193.900000
858.816833	189.100000
858.850281	196.500000
858.883728	196.600000
858.917114	197.600000
858.950562	202.800000
858.983948	202.000000
859.017395	200.400000
859.050781	193.300000
859.084167	192.300000
859.117615	191.000000
859.151062	198.900000
859.184448	190.900000
859.217834	194.500000
859.251282	193.500000
859.284668	191.200000
859.318054	188.500000
859.351440	194.400000
859.384888	200.500000
859.418274	189.000000
859.451721	189.700000
859.485046	196.700000
859.518494	196.500000
859.551819	193.200000
859.585266	197.500000
859.618652	200.300000
859.652039	193.000000
859.685425	190.000000
859.718811	190.700000
859.752197	186.100000
859.785583	200.300000
859.819031	201.800000
859.852356	197.600000
859.885742	191.600000
859.919067	194.200000
859.952454	193.200000
859.985901	200.300000
860.019287	195.100000
860.052612	0.000000
860.085999	0.000000
860.119324	0.000000
860.152710	0.000000
860.186096	0.000000
860.219421	0.000000
860.252808	0.000000
860.286133	0.000000
860.319519	0.000000
860.352905	0.000000
860.386292	0.000000
860.419617	0.000000
860.452942	0.000000
860.486267	0.000000
860.519653	0.000000
860.553040	0.000000
860.586365	0.000000
860.619690	0.000000
860.653076	0.000000
860.686340	0.000000
860.719727	0.000000
860.753113	0.000000
860.786377	0.000000
860.819763	0.000000
860.853027	0.000000
860.886414	0.000000
860.919739	0.000000
860.953125	0.000000
860.986389	0.000000
861.019714	0.000000
861.053040	0.000000
861.086365	0.000000
861.119690	0.000000
861.153076	0.000000
861.186340	0.000000
861.219666	0.000000
861.252930	0.000000
861.286316	0.000000
861.319641	0.000000
861.352905	0.000000
861.386230	0.000000
861.419495	0.000000
861.452820	0.000000
861.486145	0.000000
861.519470	0.000000
861.552734	0.000000
861.586060	0.000000
861.619324	0.000000
861.652649	0.000000
861.685974	0.000000
861.719238	0.000000
861.752563	0.000000
861.785828	0.000000
861.819092	0.000000
861.852417	0.000000
861.885742	0.000000
861.918945	0.000000
861.952271	0.000000
861.985535	0.000000
862.018799	0.000000
862.052124	0.000000
862.085449	0.000000
862.118652	0.000000
862.151978	0.000000
862.185181	0.000000
862.218506	0.000000
862.251770	0.000000
862.285034	0.000000
862.318298	0.000000
862.351562	0.000000
862.384827	0.000000
862.418091	0.000000
862.451355	0.000000
862.484619	0.000000
862.517883	0.000000
862.551086	0.000000
862.584351	0.000000
862.617676	0.000000
862.650940	0.000000
862.684143	0.000000
862.717407	0.000000
862.750610	0.000000
862.783875	0.000000
862.817139	0.000000
862.850342	0.000000
862.883606	0.000000
862.916870	0.000000
862.950073	0.000000
862.983337	0.000000
863.016602	0.000000
863.049805	0.000000
863.083069	0.000000
863.116211	0.000000
863.149475	0.000000
863.182739	0.000000
863.216003	0.000000
863.249146	0.000000
863.282410	0.000000
863.315613	0.000000
863.348816	0.000000
863.382080	0.000000
863.415222	0.000000
863.448486	0.000000
863.481689	0.000000
863.514893	0.000000
863.548157	0.000000
863.581360	0.000000
863.614502	0.000000
863.647766	0.000000
863.680908	0.000000
863.714172	0.000000
863.747375	0.000000
863.780579	0.000000
863.813721	0.000000
863.846985	0.000000
863.880127	0.000000
863.913330	0.000000
863.946533	0.000000
863.979675	0.000000
864.012939	0.000000
