Model Number: SPM-001-M   
Serial Number: 10090201
Firmware Version: 004.17.6
Exposure Time: 300000.000000us
Data Taken on: 11-02-2021 10:53:21.420
Wavelength	Amplitude
733.770752	0.000000
733.808716	0.000000
733.846619	0.000000
733.884583	0.000000
733.922546	0.000000
733.960449	0.000000
733.998413	0.000000
734.036377	0.000000
734.074219	0.000000
734.112183	0.000000
734.150085	0.000000
734.188049	0.000000
734.226013	0.000000
734.263916	0.000000
734.301819	0.000000
734.339783	0.000000
734.377686	0.000000
734.415588	0.000000
734.453552	0.000000
734.491455	0.000000
734.529419	0.000000
734.567322	0.000000
734.605225	0.000000
734.643127	0.000000
734.681091	0.000000
734.718994	0.000000
734.756897	0.000000
734.794800	0.000000
734.832703	0.000000
734.870667	0.000000
734.908508	0.000000
734.946472	0.000000
734.984375	0.000000
735.022278	0.000000
735.060181	0.000000
735.098083	0.000000
735.135986	0.000000
735.173889	0.000000
735.211792	0.000000
735.249695	0.000000
735.287598	0.000000
735.325439	0.000000
735.363403	0.000000
735.401306	0.000000
735.439148	0.000000
735.477051	0.000000
735.515015	0.000000
735.552856	0.000000
735.590759	0.000000
735.628662	0.000000
735.666504	0.000000
735.704407	0.000000
735.742310	0.000000
735.780212	0.000000
735.818115	0.000000
735.856018	0.000000
735.893860	0.000000
735.931763	0.000000
735.969604	0.000000
736.007507	0.000000
736.045410	0.000000
736.083252	0.000000
736.121094	0.000000
736.158997	0.000000
736.196838	0.000000
736.234741	0.000000
736.272644	0.000000
736.310486	0.000000
736.348389	0.000000
736.386230	0.000000
736.424072	0.000000
736.461975	0.000000
736.499878	0.000000
736.537720	0.000000
736.575562	0.000000
736.613403	0.000000
736.651306	0.000000
736.689148	0.000000
736.726990	0.000000
736.764893	0.000000
736.802734	0.000000
736.840576	0.000000
736.878418	0.000000
736.916321	0.000000
736.954102	0.000000
736.992004	0.000000
737.029846	0.000000
737.067688	0.000000
737.105530	0.000000
737.143372	0.000000
737.181213	0.000000
737.219116	0.000000
737.256897	0.000000
737.294739	0.000000
737.332642	0.000000
737.370422	0.000000
737.408325	0.000000
737.446167	0.000000
737.483948	0.000000
737.521790	0.000000
737.559692	0.000000
737.597473	0.000000
737.635315	0.000000
737.673157	0.000000
737.710999	0.000000
737.748840	0.000000
737.786621	0.000000
737.824463	0.000000
737.862305	0.000000
737.900085	0.000000
737.937927	0.000000
737.975769	0.000000
738.013550	0.000000
738.051392	0.000000
738.089233	0.000000
738.127014	0.000000
738.164856	0.000000
738.202698	0.000000
738.240479	0.000000
738.278320	0.000000
738.316162	0.000000
738.353943	0.000000
738.391785	0.000000
738.429565	0.000000
738.467407	0.000000
738.505188	0.000000
738.542969	0.000000
738.580811	0.000000
738.618652	0.000000
738.656372	0.000000
738.694214	0.000000
738.732056	0.000000
738.769836	0.000000
738.807617	0.000000
738.845459	0.000000
738.883240	0.000000
738.921021	0.000000
738.958862	0.000000
738.996582	0.000000
739.034424	0.000000
739.072205	0.000000
739.109985	0.000000
739.147827	0.000000
739.185547	0.000000
739.223389	0.000000
739.261169	0.000000
739.298889	0.000000
739.336731	0.000000
739.374512	0.000000
739.412292	0.000000
739.450073	0.000000
739.487854	0.000000
739.525635	0.000000
739.563416	0.000000
739.601135	0.000000
739.638977	0.000000
739.676758	0.000000
739.714478	0.000000
739.752258	0.000000
739.790100	0.000000
739.827820	0.000000
739.865601	0.000000
739.903381	0.000000
739.941101	0.000000
739.978882	199.000000
740.016724	192.800000
740.054443	198.900000
740.092224	192.500000
740.130005	194.100000
740.167725	191.900000
740.205505	194.100000
740.243225	199.800000
740.281006	197.400000
740.318787	190.300000
740.356506	201.700000
740.394287	197.300000
740.432068	193.400000
740.469727	189.700000
740.507507	197.400000
740.545288	194.200000
740.583008	196.100000
740.620789	194.700000
740.658569	190.500000
740.696228	194.400000
740.734009	198.700000
740.771790	186.900000
740.809509	197.600000
740.847229	192.300000
740.884949	192.600000
740.922729	189.800000
740.960449	194.200000
740.998169	192.000000
741.035950	193.800000
741.073669	197.100000
741.111389	197.800000
741.149170	203.200000
741.186890	202.500000
741.224609	199.000000
741.262329	196.000000
741.300110	203.200000
741.337769	191.500000
741.375549	192.100000
741.413208	194.400000
741.450989	194.100000
741.488708	192.000000
741.526367	192.500000
741.564148	197.200000
741.601868	198.700000
741.639526	193.700000
741.677307	197.800000
741.715027	196.700000
741.752686	191.500000
741.790466	200.000000
741.828186	197.500000
741.865845	190.300000
741.903564	190.900000
741.941345	194.200000
741.979004	191.800000
742.016724	198.400000
742.054382	195.700000
742.092102	198.300000
742.129822	191.800000
742.167480	194.400000
742.205200	194.300000
742.242920	196.600000
742.280640	198.600000
742.318359	191.400000
742.356079	193.800000
742.393738	199.800000
742.431396	193.000000
742.469116	199.600000
742.506775	188.700000
742.544495	198.900000
742.582214	198.100000
742.619873	194.800000
742.657593	200.600000
742.695251	200.800000
742.732971	194.500000
742.770630	197.700000
742.808289	196.700000
742.846008	195.700000
742.883728	195.300000
742.921326	195.900000
742.959045	192.300000
742.996765	195.500000
743.034424	195.500000
743.072083	193.800000
743.109802	194.400000
743.147400	192.400000
743.185120	195.700000
743.222839	194.800000
743.260437	200.300000
743.298157	197.800000
743.335754	188.400000
743.373474	196.000000
743.411133	190.500000
743.448792	195.800000
743.486450	195.400000
743.524170	189.300000
743.561768	195.100000
743.599487	201.500000
743.637146	202.900000
743.674744	195.300000
743.712463	193.600000
743.750122	196.200000
743.787720	197.000000
743.825439	194.100000
743.863037	193.000000
743.900696	195.400000
743.938416	220.200000
743.976013	196.300000
744.013672	202.400000
744.051331	198.600000
744.088928	202.700000
744.126587	200.600000
744.164307	197.900000
744.201904	193.600000
744.239563	197.600000
744.277222	197.700000
744.314819	196.100000
744.352478	200.800000
744.390137	197.300000
744.427734	196.700000
744.465393	193.300000
744.502991	193.000000
744.540649	198.000000
744.578308	194.500000
744.615906	192.500000
744.653564	186.200000
744.691223	197.300000
744.728821	190.800000
744.766418	196.100000
744.804077	196.000000
744.841675	193.200000
744.879333	189.100000
744.916992	194.300000
744.954529	192.700000
744.992187	198.900000
745.029785	194.000000
745.067444	192.400000
745.105042	194.500000
745.142639	196.500000
745.180298	203.200000
745.217896	194.200000
745.255493	194.000000
745.293152	199.100000
745.330750	198.800000
745.368347	200.600000
745.405945	197.900000
745.443604	196.100000
745.481140	199.200000
745.518799	194.600000
745.556396	198.000000
745.593994	198.000000
745.631592	196.900000
745.669189	191.200000
745.706787	197.100000
745.744385	192.600000
745.781982	200.200000
745.819580	192.800000
745.857178	197.500000
745.894775	194.600000
745.932373	196.500000
745.969971	195.500000
746.007568	190.200000
746.045166	202.100000
746.082764	201.700000
746.120300	198.500000
746.157898	198.600000
746.195557	195.200000
746.233093	192.400000
746.270691	196.800000
746.308228	197.400000
746.345825	198.100000
746.383423	198.500000
746.420959	191.600000
746.458557	194.600000
746.496155	192.800000
746.533691	197.500000
746.571289	190.700000
746.608887	196.300000
746.646423	195.900000
746.684021	195.200000
746.721619	193.500000
746.759155	197.800000
746.796753	190.000000
746.834351	190.500000
746.871826	192.900000
746.909424	200.400000
746.946960	196.900000
746.984558	195.700000
747.022156	193.400000
747.059631	203.600000
747.097229	197.700000
747.134827	193.900000
747.172363	200.900000
747.209900	199.500000
747.247498	192.900000
747.285034	200.200000
747.322571	201.800000
747.360168	195.200000
747.397644	190.800000
747.435242	198.100000
747.472778	201.600000
747.510315	192.700000
747.547913	195.200000
747.585388	199.300000
747.622925	194.600000
747.660522	189.200000
747.697998	193.900000
747.735596	192.700000
747.773132	193.700000
747.810669	195.500000
747.848206	198.900000
747.885742	192.900000
747.923279	190.800000
747.960815	195.200000
747.998352	196.500000
748.035889	198.000000
748.073425	197.800000
748.110901	193.900000
748.148437	191.100000
748.185974	195.100000
748.223511	203.000000
748.261047	197.900000
748.298584	196.400000
748.336060	194.800000
748.373596	197.700000
748.411133	220.100000
748.448608	193.700000
748.486145	197.000000
748.523682	200.800000
748.561218	202.400000
748.598755	196.700000
748.636292	197.800000
748.673706	194.400000
748.711243	202.400000
748.748718	196.000000
748.786255	196.200000
748.823792	195.800000
748.861267	192.600000
748.898804	198.000000
748.936340	197.500000
748.973816	193.000000
749.011292	200.900000
749.048828	196.200000
749.086304	197.500000
749.123840	203.800000
749.161316	193.500000
749.198792	201.400000
749.236328	200.900000
749.273743	194.800000
749.311279	195.800000
749.348816	198.900000
749.386230	196.400000
749.423767	185.300000
749.461304	197.700000
749.498718	196.200000
749.536255	200.700000
749.573730	205.000000
749.611206	202.000000
749.648682	194.200000
749.686218	194.300000
749.723633	197.900000
749.761169	195.000000
749.798645	191.300000
749.836060	195.600000
749.873596	191.700000
749.911011	197.200000
749.948547	199.900000
749.986023	194.700000
750.023437	195.300000
750.060913	191.900000
750.098450	190.700000
750.135864	194.700000
750.173340	196.300000
750.210815	200.100000
750.248291	192.200000
750.285767	196.000000
750.323242	201.000000
750.360657	197.500000
750.398132	192.600000
750.435608	198.000000
750.473022	193.300000
750.510498	193.700000
750.547974	192.600000
750.585449	194.000000
750.622925	188.000000
750.660339	204.500000
750.697815	196.500000
750.735291	195.100000
750.772644	199.300000
750.810120	194.800000
750.847595	198.000000
750.885010	190.400000
750.922485	202.400000
750.959961	195.200000
750.997375	202.100000
751.034851	198.700000
751.072266	198.300000
751.109680	189.300000
751.147156	201.200000
751.184570	196.300000
751.221985	196.100000
751.259460	189.100000
751.296875	195.600000
751.334290	195.400000
751.371765	198.600000
751.409180	199.600000
751.446594	200.800000
751.484070	198.200000
751.521423	196.800000
751.558899	196.100000
751.596375	203.700000
751.633728	201.300000
751.671204	205.400000
751.708618	195.500000
751.746033	196.900000
751.783447	191.500000
751.820801	192.700000
751.858276	199.300000
751.895691	195.500000
751.933105	195.100000
751.970520	191.400000
752.007935	193.400000
752.045349	198.800000
752.082764	195.400000
752.120178	192.300000
752.157532	194.600000
752.195007	193.100000
752.232422	197.900000
752.269775	198.700000
752.307190	198.400000
752.344543	191.400000
752.382019	196.200000
752.419434	194.100000
752.456787	198.100000
752.494202	199.500000
752.531616	197.000000
752.568970	198.800000
752.606384	198.000000
752.643799	195.900000
752.681152	202.000000
752.718567	198.700000
752.755981	190.200000
752.793335	198.100000
752.830750	190.100000
752.868164	199.700000
752.905518	191.100000
752.942932	199.100000
752.980225	192.100000
753.017639	198.400000
753.055054	196.800000
753.092407	197.000000
753.129822	199.400000
753.167175	202.900000
753.204529	194.800000
753.241943	194.100000
753.279358	190.700000
753.316650	200.100000
753.354065	196.000000
753.391479	200.500000
753.428772	201.000000
753.466187	197.900000
753.503479	191.500000
753.540894	195.200000
753.578308	189.300000
753.615601	191.600000
753.653015	194.700000
753.690369	194.200000
753.727722	192.400000
753.765076	190.900000
753.802490	191.300000
753.839783	189.500000
753.877136	193.100000
753.914551	205.700000
753.951843	193.400000
753.989258	199.800000
754.026611	197.000000
754.063904	198.300000
754.101257	190.900000
754.138611	190.200000
754.175964	195.900000
754.213318	204.700000
754.250610	190.300000
754.288025	193.900000
754.325378	190.400000
754.362671	199.400000
754.400024	195.600000
754.437378	204.400000
754.474670	202.000000
754.512085	192.900000
754.549438	196.700000
754.586731	196.100000
754.624084	196.800000
754.661438	192.200000
754.698730	204.200000
754.736084	195.700000
754.773376	196.500000
754.810730	199.100000
754.848083	195.700000
754.885315	200.000000
754.922668	192.200000
754.960022	193.200000
754.997314	201.300000
755.034668	195.500000
755.072021	199.000000
755.109253	194.000000
755.146606	201.800000
755.183960	195.000000
755.221252	202.600000
755.258545	199.300000
755.295898	202.400000
755.333191	201.400000
755.370544	197.900000
755.407776	196.300000
755.445129	197.200000
755.482422	200.200000
755.519714	194.900000
755.557068	191.500000
755.594360	190.800000
755.631653	201.300000
755.668945	204.400000
755.706299	199.000000
755.743530	206.900000
755.780884	202.600000
755.818176	202.100000
755.855408	202.500000
755.892761	201.800000
755.930054	198.600000
755.967346	200.600000
756.004639	201.300000
756.041870	199.900000
756.079224	203.500000
756.116516	195.600000
756.153748	200.600000
756.191040	206.300000
756.228394	201.400000
756.265625	195.600000
756.302917	201.500000
756.340210	195.400000
756.377441	203.000000
756.414795	204.600000
756.452087	199.300000
756.489319	194.500000
756.526611	203.700000
756.563843	199.900000
756.601135	207.500000
756.638428	207.000000
756.675659	199.700000
756.712952	201.300000
756.750244	203.300000
756.787476	199.500000
756.824768	203.800000
756.862061	199.200000
756.899292	246.500000
756.936584	202.500000
756.973816	209.200000
757.011047	209.500000
757.048340	200.800000
757.085632	201.300000
757.122864	214.600000
757.160156	198.100000
757.197327	202.700000
757.234619	204.100000
757.271912	201.300000
757.309082	204.500000
757.346375	199.400000
757.383667	206.100000
757.420837	202.500000
757.458130	203.100000
757.495422	198.700000
757.532593	204.800000
757.569885	198.200000
757.607117	200.300000
757.644348	203.600000
757.681580	214.900000
757.718811	193.000000
757.756042	204.300000
757.793335	201.100000
757.830505	208.500000
757.867798	200.400000
757.905029	200.600000
757.942200	201.900000
757.979492	201.700000
758.016724	201.900000
758.053894	200.300000
758.091187	215.700000
758.128418	203.100000
758.165588	201.200000
758.202820	213.100000
758.240112	201.600000
758.277283	211.500000
758.314514	205.300000
758.351685	202.000000
758.388916	209.900000
758.426147	209.900000
758.463379	212.600000
758.500610	207.300000
758.537842	205.400000
758.575012	211.400000
758.612244	200.900000
758.649475	214.800000
758.686646	200.800000
758.723877	210.200000
758.761108	212.100000
758.798279	205.400000
758.835510	208.100000
758.872742	211.400000
758.909851	208.900000
758.947083	209.600000
758.984253	208.600000
759.021484	211.100000
759.058716	209.600000
759.095886	210.300000
759.133057	206.500000
759.170288	210.300000
759.207458	207.500000
759.244690	217.900000
759.281860	217.200000
759.319031	208.600000
759.356262	208.300000
759.393433	207.700000
759.430603	209.000000
759.467773	208.600000
759.505005	215.500000
759.542175	214.300000
759.579346	208.900000
759.616516	209.400000
759.653687	214.700000
759.690918	206.700000
759.728027	211.400000
759.765259	212.100000
759.802429	214.300000
759.839539	210.700000
759.876770	215.200000
759.913940	218.400000
759.951111	213.200000
759.988281	212.200000
760.025452	210.700000
760.062561	209.400000
760.099792	221.000000
760.136963	215.100000
760.174072	210.800000
760.211243	207.300000
760.248413	209.100000
760.285583	210.000000
760.322754	223.500000
760.359863	218.000000
760.397034	220.400000
760.434204	214.000000
760.471375	214.100000
760.508545	214.100000
760.545715	213.700000
760.582825	211.600000
760.619995	217.400000
760.657166	209.900000
760.694275	220.100000
760.731445	216.500000
760.768555	217.200000
760.805664	218.300000
760.842834	215.900000
760.879944	219.300000
760.917114	216.000000
760.954285	216.000000
760.991394	212.300000
761.028564	221.500000
761.065674	217.000000
761.102783	214.600000
761.139954	221.100000
761.177124	222.400000
761.214172	221.900000
761.251343	215.700000
761.288452	216.000000
761.325562	221.500000
761.362732	215.000000
761.399841	218.200000
761.436951	219.000000
761.474121	216.500000
761.511169	218.400000
761.548340	222.200000
761.585449	221.500000
761.622559	223.800000
761.659668	220.500000
761.696838	226.700000
761.733887	222.800000
761.771057	220.000000
761.808167	220.200000
761.845276	224.700000
761.882385	231.200000
761.919434	223.900000
761.956604	236.000000
761.993713	218.700000
762.030762	227.500000
762.067871	223.300000
762.105042	223.800000
762.142090	230.900000
762.179199	226.300000
762.216309	228.300000
762.253418	235.800000
762.290527	231.000000
762.327637	228.800000
762.364685	220.000000
762.401794	227.800000
762.438904	227.500000
762.475952	224.400000
762.513062	223.500000
762.550110	225.300000
762.587219	234.400000
762.624329	234.100000
762.661377	226.800000
762.698486	229.900000
762.735596	226.700000
762.772644	224.500000
762.809753	222.300000
762.846863	227.500000
762.883911	232.600000
762.921021	232.200000
762.958069	228.500000
762.995117	236.200000
763.032227	233.100000
763.069336	226.500000
763.106323	224.800000
763.143433	223.800000
763.180481	230.700000
763.217590	231.600000
763.254639	230.300000
763.291687	229.700000
763.328735	239.100000
763.365845	231.200000
763.402893	231.800000
763.439941	233.000000
763.477051	235.700000
763.514038	234.000000
763.551147	228.600000
763.588196	232.800000
763.625244	233.100000
763.662292	241.000000
763.699402	242.700000
763.736389	237.200000
763.773499	244.400000
763.810486	237.400000
763.847534	235.700000
763.884644	237.400000
763.921631	234.800000
763.958679	242.000000
763.995728	237.400000
764.032776	242.000000
764.069824	234.900000
764.106873	240.900000
764.143860	248.200000
764.180969	238.700000
764.218018	244.500000
764.255005	237.600000
764.292053	239.000000
764.329102	248.100000
764.366089	247.000000
764.403137	242.000000
764.440125	239.700000
764.477173	242.900000
764.514221	248.500000
764.551208	245.300000
764.588257	243.600000
764.625305	249.400000
764.662292	255.400000
764.699341	254.100000
764.736389	250.100000
764.773376	262.300000
764.810425	251.900000
764.847473	255.700000
764.884399	251.400000
764.921448	258.900000
764.958435	258.700000
764.995483	253.100000
765.032532	265.300000
765.069458	254.400000
765.106506	258.000000
765.143555	254.600000
765.180481	258.400000
765.217529	266.000000
765.254578	253.400000
765.291504	260.000000
765.328552	256.100000
765.365540	255.000000
765.402527	266.700000
765.439575	256.300000
765.476501	253.000000
765.513550	257.000000
765.550537	260.000000
765.587463	268.800000
765.624512	259.400000
765.661499	255.300000
765.698486	266.100000
765.735474	258.900000
765.772461	262.100000
765.809448	268.500000
765.846436	265.400000
765.883423	270.300000
765.920410	264.200000
765.957397	262.300000
765.994385	266.400000
766.031311	274.000000
766.068359	267.700000
766.105286	268.300000
766.142273	275.400000
766.179260	269.800000
766.216187	265.400000
766.253174	264.000000
766.290161	268.800000
766.327148	275.100000
766.364136	274.400000
766.401123	284.500000
766.438049	267.300000
766.475037	278.800000
766.512024	277.100000
766.548950	288.900000
766.585937	284.700000
766.622864	279.700000
766.659790	281.100000
766.696777	271.200000
766.733704	281.500000
766.770691	274.700000
766.807678	287.100000
766.844604	280.500000
766.881531	282.400000
766.918518	286.200000
766.955444	288.800000
766.992432	279.700000
767.029358	282.700000
767.066284	283.100000
767.103271	283.600000
767.140198	316.100000
767.177124	296.000000
767.214050	288.300000
767.251038	288.900000
767.287964	286.600000
767.324890	283.700000
767.361816	288.600000
767.398743	293.500000
767.435730	288.800000
767.472595	290.600000
767.509583	293.800000
767.546509	284.800000
767.583374	291.600000
767.620361	285.900000
767.657288	288.900000
767.694214	290.200000
767.731140	290.800000
767.768066	291.900000
767.804993	295.800000
767.841919	288.500000
767.878845	292.400000
767.915710	299.300000
767.952698	294.500000
767.989563	296.900000
768.026489	298.600000
768.063416	294.900000
768.100281	294.300000
768.137207	301.800000
768.174133	299.100000
768.211060	299.400000
768.247986	299.100000
768.284912	297.500000
768.321777	299.900000
768.358704	292.800000
768.395630	296.000000
768.432495	293.300000
768.469421	302.400000
768.506348	304.500000
768.543152	309.300000
768.580078	301.600000
768.616943	304.500000
768.653870	305.900000
768.690796	307.700000
768.727661	306.900000
768.764587	308.000000
768.801453	300.200000
768.838318	309.700000
768.875244	307.600000
768.912109	314.900000
768.948975	307.100000
768.985901	309.700000
769.022766	308.700000
769.059631	314.000000
769.096558	308.600000
769.133362	310.100000
769.170288	315.200000
769.207214	312.900000
769.244019	316.000000
769.280945	314.600000
769.317810	322.000000
769.354675	317.100000
769.391541	327.100000
769.428406	324.400000
769.465271	329.900000
769.502136	320.500000
769.539062	322.500000
769.575867	320.800000
769.612732	326.200000
769.649597	328.700000
769.686462	332.700000
769.723328	327.300000
769.760193	327.700000
769.797058	327.600000
769.833923	337.000000
769.870728	335.100000
769.907593	336.400000
769.944519	331.900000
769.981323	336.800000
770.018188	336.000000
770.055054	336.600000
770.091858	335.400000
770.128723	345.300000
770.165588	349.900000
770.202393	337.000000
770.239258	346.600000
770.276062	345.800000
770.312927	348.600000
770.349792	354.000000
770.386597	350.400000
770.423462	357.400000
770.460327	363.400000
770.497131	352.800000
770.533997	347.300000
770.570862	361.100000
770.607605	361.000000
770.644470	359.700000
770.681335	359.900000
770.718140	358.100000
770.754944	357.500000
770.791809	354.700000
770.828613	356.800000
770.865479	360.700000
770.902222	367.200000
770.939087	363.000000
770.975952	357.000000
771.012695	360.900000
771.049561	376.600000
771.086365	365.000000
771.123169	363.900000
771.159973	362.600000
771.196838	367.400000
771.233582	369.300000
771.270447	372.300000
771.307251	374.800000
771.344055	373.200000
771.380859	372.700000
771.417664	370.500000
771.454468	378.500000
771.491272	377.100000
771.528076	377.400000
771.564880	373.900000
771.601685	379.100000
771.638428	375.100000
771.675293	383.700000
771.712097	376.600000
771.748840	393.600000
771.785645	382.300000
771.822449	382.200000
771.859253	385.200000
771.896057	385.200000
771.932861	395.200000
771.969604	387.800000
772.006409	382.400000
772.043213	392.500000
772.079956	385.300000
772.116760	386.500000
772.153503	389.000000
772.190308	399.200000
772.227112	394.500000
772.263855	389.100000
772.300659	388.100000
772.337463	397.000000
772.374207	385.900000
772.411011	388.700000
772.447754	392.000000
772.484497	405.100000
772.521301	396.800000
772.558105	393.700000
772.594849	394.200000
772.631592	404.500000
772.668396	404.600000
772.705139	407.500000
772.741882	403.300000
772.778625	408.900000
772.815430	412.600000
772.852173	413.400000
772.888916	417.100000
772.925720	420.300000
772.962463	424.300000
772.999207	413.600000
773.035950	414.400000
773.072754	418.900000
773.109436	417.100000
773.146240	422.200000
773.182922	419.500000
773.219727	423.600000
773.256470	418.000000
773.293152	415.500000
773.329956	421.400000
773.366699	428.300000
773.403381	423.900000
773.440186	426.000000
773.476929	424.900000
773.513611	421.900000
773.550354	424.400000
773.587158	428.200000
773.623840	427.100000
773.660583	424.700000
773.697327	430.500000
773.734009	426.000000
773.770813	427.000000
773.807495	429.300000
773.844238	433.700000
773.880981	437.600000
773.917664	428.700000
773.954407	437.400000
773.991150	432.600000
774.027832	438.700000
774.064575	437.800000
774.101318	441.600000
774.138000	436.800000
774.174744	433.700000
774.211487	435.700000
774.248108	430.800000
774.284851	434.700000
774.321594	442.500000
774.358276	438.900000
774.395020	444.100000
774.431702	443.000000
774.468384	435.700000
774.505127	438.700000
774.541809	445.200000
774.578491	449.900000
774.615234	449.000000
774.651917	440.100000
774.688599	444.400000
774.725342	457.100000
774.762024	459.100000
774.798706	458.200000
774.835449	451.800000
774.872070	455.200000
774.908813	454.400000
774.945496	460.300000
774.982178	467.400000
775.018860	465.100000
775.055542	466.000000
775.092224	461.000000
775.128967	465.400000
775.165588	468.600000
775.202271	465.200000
775.239014	473.000000
775.275635	469.900000
775.312317	461.800000
775.349060	467.600000
775.385681	466.600000
775.422363	467.400000
775.459045	481.300000
775.495667	480.600000
775.532410	475.000000
775.569092	473.800000
775.605713	474.500000
775.642395	481.400000
775.679016	485.400000
775.715698	489.400000
775.752380	484.600000
775.789001	475.800000
775.825684	479.100000
775.862366	489.100000
775.898987	500.400000
775.935669	494.300000
775.972351	504.000000
776.008972	499.300000
776.045654	500.100000
776.082336	496.700000
776.118958	503.400000
776.155640	508.600000
776.192322	508.800000
776.228882	509.100000
776.265564	503.300000
776.302185	498.900000
776.338867	511.400000
776.375488	508.200000
776.412109	512.100000
776.448792	511.700000
776.485413	518.400000
776.522034	512.400000
776.558716	515.200000
776.595337	520.300000
776.631958	521.900000
776.668579	519.500000
776.705261	526.300000
776.741882	514.200000
776.778503	516.100000
776.815186	524.800000
776.851746	533.700000
776.888367	529.200000
776.924988	539.100000
776.961609	525.700000
776.998291	526.000000
777.034851	527.300000
777.071472	537.900000
777.108154	532.100000
777.144714	545.000000
777.181335	536.900000
777.218018	529.900000
777.254578	541.100000
777.291199	544.200000
777.327759	551.600000
777.364380	559.600000
777.401062	563.900000
777.437622	567.500000
777.474243	555.300000
777.510864	564.700000
777.547424	561.500000
777.584045	566.500000
777.620667	563.500000
777.657227	567.700000
777.693848	569.600000
777.730469	580.000000
777.767029	568.900000
777.803650	569.000000
777.840271	569.400000
777.876831	563.200000
777.913452	567.700000
777.950012	550.600000
777.986633	557.500000
778.023193	558.400000
778.059753	559.800000
778.096375	559.500000
778.132996	571.100000
778.169556	559.300000
778.206116	568.300000
778.242737	568.900000
778.279297	575.100000
778.315857	568.900000
778.352478	579.300000
778.389038	584.000000
778.425598	585.500000
778.462219	586.900000
778.498718	589.100000
778.535339	592.200000
778.571838	599.900000
778.608459	593.300000
778.645020	584.000000
778.681580	595.700000
778.718140	594.700000
778.754761	590.000000
778.791260	600.300000
778.827881	604.000000
778.864441	595.400000
778.900940	596.700000
778.937561	595.100000
778.974121	595.100000
779.010620	593.800000
779.047241	592.800000
779.083801	596.600000
779.120300	594.600000
779.156860	601.300000
779.193359	605.300000
779.229980	607.900000
779.266541	616.300000
779.303040	615.500000
779.339600	605.000000
779.376160	597.800000
779.412659	605.000000
779.449219	602.700000
779.485779	612.300000
779.522278	607.800000
779.558838	609.300000
779.595398	605.700000
779.631897	602.600000
779.668457	599.900000
779.705017	610.000000
779.741516	602.000000
779.778076	596.400000
779.814575	596.600000
779.851074	601.300000
779.887634	596.500000
779.924133	608.800000
779.960693	598.100000
779.997253	608.600000
780.033691	609.700000
780.070251	611.400000
780.106812	614.100000
780.143250	616.700000
780.179810	618.500000
780.216370	622.000000
780.252808	622.300000
780.289368	627.400000
780.325867	621.200000
780.362366	621.600000
780.398865	637.000000
780.435364	633.600000
780.471863	636.400000
780.508423	629.900000
780.544861	629.000000
780.581421	625.900000
780.617920	616.800000
780.654419	619.800000
780.690918	631.800000
780.727417	628.500000
780.763916	626.900000
780.800415	631.500000
780.836914	618.900000
780.873352	635.600000
780.909912	628.200000
780.946411	629.700000
780.982849	637.600000
781.019348	643.700000
781.055786	635.200000
781.092346	636.000000
781.128845	649.300000
781.165283	651.100000
781.201782	658.600000
781.238281	652.600000
781.274719	648.600000
781.311218	641.300000
781.347717	659.300000
781.384155	649.300000
781.420654	653.800000
781.457092	656.300000
781.493591	652.800000
781.530090	650.300000
781.566528	656.700000
781.602966	659.100000
781.639465	666.200000
781.675903	662.100000
781.712402	661.100000
781.748901	664.100000
781.785278	654.700000
781.821777	660.300000
781.858276	668.300000
781.894714	677.200000
781.931152	678.000000
781.967651	681.600000
782.004089	669.300000
782.040527	679.200000
782.076965	680.200000
782.113403	684.700000
782.149902	686.000000
782.186340	681.100000
782.222778	692.500000
782.259277	681.400000
782.295654	683.900000
782.332092	692.900000
782.368591	688.400000
782.404968	683.700000
782.441467	689.900000
782.477905	695.100000
782.514282	694.800000
782.550781	709.200000
782.587219	704.400000
782.623596	712.000000
782.660095	711.700000
782.696472	718.700000
782.732910	724.100000
782.769348	720.700000
782.805786	734.000000
782.842224	735.900000
782.878662	724.400000
782.915039	728.500000
782.951477	738.300000
782.987915	730.300000
783.024292	738.800000
783.060730	736.600000
783.097168	726.400000
783.133545	714.400000
783.169983	713.800000
783.206421	709.000000
783.242798	700.900000
783.279236	695.700000
783.315613	693.100000
783.352051	691.700000
783.388489	691.700000
783.424866	687.200000
783.461304	694.700000
783.497681	696.800000
783.534058	697.100000
783.570496	694.600000
783.606934	693.000000
783.643250	699.900000
783.679687	710.500000
783.716125	712.200000
783.752441	717.000000
783.788879	723.400000
783.825317	735.500000
783.861633	734.500000
783.898071	730.900000
783.934448	731.800000
783.970825	705.000000
784.007263	653.700000
784.043579	604.100000
784.080017	547.200000
784.116394	481.600000
784.152710	441.800000
784.189148	429.100000
784.225525	430.700000
784.261902	445.000000
784.298279	458.900000
784.334656	473.100000
784.371033	465.700000
784.407410	472.100000
784.443787	464.400000
784.480164	474.500000
784.516541	498.300000
784.552856	549.000000
784.589233	598.900000
784.625610	647.400000
784.661987	697.100000
784.698364	705.800000
784.734741	705.200000
784.771057	722.700000
784.807434	730.100000
784.843811	741.900000
784.880127	735.200000
784.916504	755.100000
784.952881	756.300000
784.989197	762.200000
785.025574	765.800000
785.061951	776.400000
785.098267	791.600000
785.134644	780.800000
785.170959	768.000000
785.207275	774.700000
785.243652	775.900000
785.279968	768.900000
785.316345	773.900000
785.352722	764.100000
785.388977	752.200000
785.425354	733.300000
785.461731	731.000000
785.498047	719.300000
785.534363	720.900000
785.570679	716.700000
785.606995	713.200000
785.643372	719.000000
785.679687	716.800000
785.716003	720.300000
785.752380	724.300000
785.788635	734.600000
785.825012	743.100000
785.861328	733.600000
785.897644	728.800000
785.933960	749.100000
785.970337	764.200000
786.006592	791.900000
786.042908	793.100000
786.079285	782.700000
786.115540	788.600000
786.151855	787.000000
786.188171	790.900000
786.224487	799.000000
786.260803	795.900000
786.297119	798.800000
786.333435	788.100000
786.369751	777.400000
786.406006	779.200000
786.442322	778.100000
786.478638	771.900000
786.514954	775.900000
786.551270	759.900000
786.587585	760.300000
786.623840	750.000000
786.660156	747.900000
786.696472	743.600000
786.732727	739.800000
786.769043	739.700000
786.805298	728.000000
786.841614	739.700000
786.877930	751.700000
786.914124	746.500000
786.950439	763.900000
786.986755	766.700000
787.023010	783.400000
787.059326	785.200000
787.095642	785.300000
787.131836	799.800000
787.168152	796.200000
787.204468	803.600000
787.240723	816.600000
787.276978	817.800000
787.313293	811.100000
787.349548	801.800000
787.385803	807.500000
787.422058	800.900000
787.458313	807.500000
787.494629	799.100000
787.530823	797.400000
787.567139	789.000000
787.603455	783.900000
787.639648	775.200000
787.675903	782.000000
787.712219	788.400000
787.748413	778.200000
787.784729	777.700000
787.820984	766.900000
787.857178	763.600000
787.893494	767.900000
787.929749	770.500000
787.965942	779.000000
788.002258	780.700000
788.038452	787.300000
788.074707	781.100000
788.110962	785.800000
788.147217	790.100000
788.183472	808.800000
788.219727	809.100000
788.255920	813.200000
788.292175	818.400000
788.328430	816.200000
788.364624	811.800000
788.400879	816.000000
788.437134	821.500000
788.473328	818.100000
788.509583	817.800000
788.545837	814.300000
788.582031	813.000000
788.618286	824.900000
788.654480	820.700000
788.690735	823.000000
788.726990	841.800000
788.763184	839.100000
788.799377	844.300000
788.835632	836.700000
788.871826	854.800000
788.908081	849.100000
788.944336	835.200000
788.980469	838.500000
789.016724	825.900000
789.052979	822.600000
789.089111	805.600000
789.125366	817.400000
789.161621	802.800000
789.197754	814.200000
789.234009	818.500000
789.270142	808.300000
789.306396	798.200000
789.342590	804.500000
789.378784	807.300000
789.414978	807.900000
789.451233	813.500000
789.487366	804.300000
789.523621	808.800000
789.559814	808.500000
789.595947	812.500000
789.632202	820.600000
789.668335	838.800000
789.704529	857.000000
789.740784	853.200000
789.776917	850.200000
789.813110	844.300000
789.849304	861.500000
789.885498	864.100000
789.921692	880.500000
789.957886	866.500000
789.994019	862.000000
790.030212	854.800000
790.066406	864.900000
790.102539	862.500000
790.138733	887.500000
790.174927	875.900000
790.211060	876.500000
790.247253	859.900000
790.283386	854.200000
790.319580	852.300000
790.355774	842.600000
790.391907	850.600000
790.428101	869.100000
790.464294	857.600000
790.500427	846.600000
790.536621	843.200000
790.572754	840.800000
790.608887	839.700000
790.645081	848.500000
790.681274	848.100000
790.717346	834.900000
790.753540	819.200000
790.789734	812.100000
790.825867	812.400000
790.862000	823.400000
790.898132	830.400000
790.934265	815.800000
790.970459	812.600000
791.006592	810.900000
791.042725	816.400000
791.078918	825.100000
791.114990	833.000000
791.151184	835.000000
791.187317	843.000000
791.223389	832.100000
791.259583	826.000000
791.295715	841.300000
791.331848	851.100000
791.367981	856.100000
791.404114	855.700000
791.440247	838.400000
791.476379	832.100000
791.512451	816.800000
791.548584	828.800000
791.584778	831.000000
791.620850	840.700000
791.656982	842.300000
791.693115	829.700000
791.729187	826.400000
791.765381	826.700000
791.801514	836.100000
791.837585	839.100000
791.873718	837.800000
791.909851	833.900000
791.945923	832.500000
791.982056	805.500000
792.018188	815.600000
792.054260	818.800000
792.090393	822.100000
792.126465	808.100000
792.162598	806.100000
792.198669	797.000000
792.234741	796.900000
792.270874	790.700000
792.307007	792.500000
792.343079	795.900000
792.379150	800.100000
792.415283	778.700000
792.451355	784.000000
792.487488	774.100000
792.523560	779.500000
792.559631	785.800000
792.595764	770.000000
792.631836	740.700000
792.667908	721.000000
792.703979	715.700000
792.740051	751.700000
792.776184	805.800000
792.812256	851.700000
792.848328	870.200000
792.884399	882.300000
792.920471	878.300000
792.956543	883.100000
792.992615	881.600000
793.028748	878.000000
793.064758	889.600000
793.100830	897.600000
793.136963	900.800000
793.172974	906.100000
793.209045	884.800000
793.245178	906.700000
793.281189	908.400000
793.317261	921.800000
793.353271	906.600000
793.389404	904.600000
793.425476	895.300000
793.461487	885.800000
793.497559	888.700000
793.533630	903.600000
793.569641	894.900000
793.605713	895.600000
793.641785	888.800000
793.677795	892.500000
793.713867	895.000000
793.749878	902.900000
793.785950	917.500000
793.822021	923.200000
793.858032	903.300000
793.894104	908.300000
793.930176	896.100000
793.966187	900.000000
794.002258	897.400000
794.038269	905.900000
794.074280	893.900000
794.110352	919.200000
794.146423	894.700000
794.182373	881.500000
794.218445	872.200000
794.254517	880.700000
794.290466	877.500000
794.326538	880.000000
794.362549	883.500000
794.398560	873.900000
794.434631	878.100000
794.470581	858.500000
794.506653	859.600000
794.542664	872.100000
794.578674	872.300000
794.614685	862.500000
794.650757	851.100000
794.686707	860.900000
794.722778	863.200000
794.758789	881.200000
794.794739	893.600000
794.830811	898.700000
794.866821	919.800000
794.902771	907.200000
794.938843	893.000000
794.974792	902.700000
795.010803	909.300000
795.046814	907.500000
795.082825	898.500000
795.118835	912.400000
795.154846	880.200000
795.190796	883.000000
795.226807	868.700000
795.262817	883.100000
795.298767	883.300000
795.334778	885.400000
795.370850	867.600000
795.406799	867.500000
795.442810	860.200000
795.478821	870.900000
795.514709	877.900000
795.550720	900.700000
795.586670	870.800000
795.622681	870.600000
795.658691	868.700000
795.694641	877.600000
795.730652	879.700000
795.766663	892.800000
795.802551	884.800000
795.838562	888.000000
795.874573	878.400000
795.910522	878.800000
795.946472	878.800000
795.982483	894.800000
796.018433	890.900000
796.054382	895.600000
796.090393	885.600000
796.126282	871.100000
796.162292	857.800000
796.198242	869.400000
796.234192	878.800000
796.270203	884.000000
796.306091	882.000000
796.342041	893.800000
796.378052	875.700000
796.413940	872.000000
796.449951	886.400000
796.485901	883.500000
796.521790	889.700000
796.557800	899.700000
796.593689	883.300000
796.629639	870.000000
796.665649	868.800000
796.701599	882.200000
796.737488	893.700000
796.773437	897.400000
796.809387	884.200000
796.845337	880.200000
796.881287	869.700000
796.917175	869.000000
796.953125	887.200000
796.989075	903.200000
797.024963	890.300000
797.060913	878.000000
797.096863	871.100000
797.132751	866.600000
797.168701	865.300000
797.204590	884.500000
797.240540	877.700000
797.276489	877.900000
797.312439	860.500000
797.348328	844.700000
797.384277	843.600000
797.420166	842.900000
797.456055	849.300000
797.492004	853.500000
797.527893	847.900000
797.563843	838.100000
797.599731	834.900000
797.635620	838.700000
797.671570	857.000000
797.707520	861.600000
797.743347	852.000000
797.779297	847.500000
797.815125	831.900000
797.851074	820.300000
797.887024	829.100000
797.922913	837.200000
797.958801	849.100000
797.994690	844.800000
798.030579	840.200000
798.066467	830.800000
798.102356	824.300000
798.138245	825.100000
798.174133	823.600000
798.210083	833.000000
798.245911	836.200000
798.281799	821.900000
798.317749	804.400000
798.353577	803.400000
798.389465	809.200000
798.425293	822.300000
798.461243	815.700000
798.497131	809.600000
798.532959	795.200000
798.568848	799.900000
798.604736	789.000000
798.640564	789.300000
798.676453	796.300000
798.712402	797.100000
798.748230	787.400000
798.784119	779.400000
798.820007	779.300000
798.855835	783.000000
798.891724	791.900000
798.927551	785.900000
798.963379	782.300000
798.999268	781.600000
799.035095	771.900000
799.070984	765.700000
799.106873	765.000000
799.142700	779.200000
799.178528	772.400000
799.214417	776.400000
799.250244	785.400000
799.286133	771.700000
799.321960	768.100000
799.357788	768.400000
799.393677	767.900000
799.429504	767.100000
799.465332	762.900000
799.501221	760.000000
799.537048	768.700000
799.572876	768.100000
799.608704	770.000000
799.644531	783.900000
799.680359	779.100000
799.716248	783.500000
799.752014	780.300000
799.787903	769.300000
799.823730	770.600000
799.859558	771.800000
799.895386	772.300000
799.931213	766.900000
799.967041	762.100000
800.002869	756.200000
800.038696	772.500000
800.074463	766.000000
800.110352	765.800000
800.146179	755.700000
800.181946	764.600000
800.217773	762.000000
800.253540	759.000000
800.289429	753.700000
800.325256	755.800000
800.361023	754.500000
800.396851	757.500000
800.432678	750.300000
800.468445	740.500000
800.504272	732.500000
800.540100	722.700000
800.575867	734.700000
800.611694	738.700000
800.647461	734.400000
800.683289	738.600000
800.719116	732.400000
800.754883	733.000000
800.790649	728.600000
800.826477	725.400000
800.862244	737.600000
800.898071	726.500000
800.933838	729.500000
800.969604	716.500000
801.005432	711.200000
801.041199	715.000000
801.076965	719.300000
801.112793	712.500000
801.148560	707.400000
801.184326	700.600000
801.220154	701.800000
801.255859	691.900000
801.291687	696.600000
801.327454	694.200000
801.363281	698.200000
801.398987	690.000000
801.434814	688.800000
801.470520	689.500000
801.506287	678.700000
801.542114	679.700000
801.577820	688.200000
801.613647	680.500000
801.649414	673.500000
801.685120	674.400000
801.720886	674.300000
801.756714	672.100000
801.792419	675.200000
801.828186	667.500000
801.863892	669.200000
801.899719	666.800000
801.935486	663.800000
801.971252	667.200000
802.006958	667.800000
802.042725	659.800000
802.078430	661.700000
802.114197	659.300000
802.149963	674.000000
802.185669	660.700000
802.221436	657.300000
802.257202	663.500000
802.292908	658.500000
802.328674	666.500000
802.364441	664.600000
802.400146	661.000000
802.435913	656.800000
802.471558	651.000000
802.507324	649.200000
802.543091	653.400000
802.578796	661.000000
802.614502	656.100000
802.650269	657.200000
802.685974	644.800000
802.721741	651.200000
802.757446	662.300000
802.793152	653.700000
802.828918	659.800000
802.864624	656.900000
802.900330	655.500000
802.936035	650.500000
802.971802	648.700000
803.007446	645.500000
803.043213	645.500000
803.078857	644.400000
803.114624	632.400000
803.150330	640.800000
803.185974	633.400000
803.221741	633.000000
803.257446	643.300000
803.293152	641.700000
803.328857	632.200000
803.364563	624.200000
803.400208	622.400000
803.435974	622.000000
803.471680	620.400000
803.507324	622.700000
803.543030	627.200000
803.578735	627.900000
803.614441	617.800000
803.650146	620.000000
803.685791	611.100000
803.721497	612.200000
803.757202	604.900000
803.792847	615.300000
803.828552	601.800000
803.864258	603.500000
803.899902	601.200000
803.935608	592.600000
803.971313	597.700000
804.006958	600.300000
804.042664	596.900000
804.078308	599.600000
804.113953	587.800000
804.149658	591.400000
804.185364	579.300000
804.221008	600.000000
804.256714	587.500000
804.292297	580.800000
804.328003	574.700000
804.363708	575.500000
804.399292	575.300000
804.434998	577.500000
804.470703	570.300000
804.506287	586.400000
804.541992	574.800000
804.577637	573.000000
804.613281	560.600000
804.648926	555.700000
804.684570	561.900000
804.720215	562.800000
804.755920	564.800000
804.791565	562.300000
804.827209	562.100000
804.862854	558.700000
804.898437	555.000000
804.934143	559.200000
804.969788	557.300000
805.005371	556.400000
805.041077	553.900000
805.076721	549.400000
805.112305	546.300000
805.147949	545.900000
805.183655	544.000000
805.219238	552.300000
805.254883	544.900000
805.290466	546.700000
805.326111	539.700000
805.361755	533.100000
805.397400	539.900000
805.432983	544.800000
805.468628	546.100000
805.504211	545.200000
805.539856	543.800000
805.575500	543.900000
805.611084	534.200000
805.646729	529.400000
805.682373	531.400000
805.717957	533.800000
805.753601	540.000000
805.789246	521.300000
805.824768	531.500000
805.860413	531.400000
805.895996	523.000000
805.931641	525.000000
805.967224	534.900000
806.002869	520.500000
806.038452	531.200000
806.074036	529.800000
806.109619	515.000000
806.145264	514.300000
806.180847	516.700000
806.216431	515.500000
806.252014	518.900000
806.287659	523.500000
806.323181	524.300000
806.358826	512.900000
806.394409	498.800000
806.429993	504.700000
806.465576	514.100000
806.501160	505.000000
806.536743	492.600000
806.572327	497.300000
806.607910	496.100000
806.643494	499.400000
806.679077	493.500000
806.714661	494.800000
806.750244	491.000000
806.785828	488.800000
806.821350	483.100000
806.856934	489.800000
806.892517	487.000000
806.928101	481.900000
806.963684	480.900000
806.999268	486.400000
807.034790	469.900000
807.070374	477.800000
807.105896	470.900000
807.141479	469.500000
807.177063	476.600000
807.212585	469.500000
807.248169	467.600000
807.283752	471.900000
807.319275	459.800000
807.354858	468.800000
807.390381	463.700000
807.425903	463.000000
807.461487	456.500000
807.497070	446.600000
807.532593	448.300000
807.568115	449.600000
807.603699	446.200000
807.639221	444.700000
807.674744	449.800000
807.710266	451.900000
807.745850	449.900000
807.781372	444.600000
807.816895	437.100000
807.852417	440.500000
807.888000	438.700000
807.923523	440.200000
807.959045	440.500000
807.994629	430.300000
808.030090	432.500000
808.065613	437.800000
808.101135	439.100000
808.136658	432.100000
808.172241	431.300000
808.207764	435.000000
808.243225	427.600000
808.278809	424.300000
808.314270	435.800000
808.349792	423.900000
808.385315	420.000000
808.420837	428.100000
808.456360	434.800000
808.491882	426.200000
808.527344	419.900000
808.562866	432.500000
808.598389	428.900000
808.633850	421.100000
808.669434	417.200000
808.704895	420.400000
808.740417	424.400000
808.775940	415.700000
808.811462	414.900000
808.846924	410.700000
808.882385	407.900000
808.917847	409.900000
808.953369	411.200000
808.988892	402.300000
809.024353	409.100000
809.059875	412.600000
809.095398	406.700000
809.130798	400.800000
809.166321	402.600000
809.201843	403.100000
809.237305	404.600000
809.272766	408.200000
809.308228	396.400000
809.343750	397.100000
809.379211	397.900000
809.414734	398.200000
809.450134	402.500000
809.485657	389.000000
809.521118	394.900000
809.556580	390.400000
809.592102	388.500000
809.627502	389.100000
809.663025	383.200000
809.698486	383.600000
809.733887	378.700000
809.769409	382.900000
809.804871	375.200000
809.840271	377.100000
809.875793	378.700000
809.911194	379.400000
809.946655	370.300000
809.982178	370.500000
810.017639	374.600000
810.053040	371.600000
810.088501	370.400000
810.123901	370.200000
810.159424	362.200000
810.194885	360.100000
810.230286	362.800000
810.265747	360.100000
810.301208	356.700000
810.336609	361.400000
810.372070	352.800000
810.407532	354.800000
810.442932	354.800000
810.478394	356.700000
810.513794	352.700000
810.549255	352.900000
810.584717	350.000000
810.620117	345.700000
810.655518	348.200000
810.690979	347.500000
810.726379	345.900000
810.761841	338.000000
810.797302	340.200000
810.832642	336.800000
810.868103	346.200000
810.903564	337.100000
810.938904	342.400000
810.974365	333.100000
811.009827	337.400000
811.045166	329.600000
811.080627	325.100000
811.115967	327.600000
811.151428	333.400000
811.186829	326.700000
811.222229	330.000000
811.257629	320.700000
811.293091	326.600000
811.328430	331.700000
811.363892	328.100000
811.399292	326.200000
811.434631	322.700000
811.470093	326.800000
811.505493	318.900000
811.540833	316.900000
811.576294	323.400000
811.611694	317.100000
811.647034	312.800000
811.682434	315.400000
811.717773	315.500000
811.753235	318.900000
811.788635	314.300000
811.823975	315.400000
811.859375	319.400000
811.894775	307.100000
811.930115	312.300000
811.965515	307.700000
812.000916	311.600000
812.036255	307.400000
812.071655	310.900000
812.106995	303.800000
812.142395	302.100000
812.177795	307.500000
812.213196	306.100000
812.248474	306.900000
812.283875	299.500000
812.319214	299.100000
812.354614	298.600000
812.390015	296.700000
812.425293	295.300000
812.460693	297.600000
812.496094	291.500000
812.531433	288.100000
812.566772	289.100000
812.602173	292.600000
812.637451	290.800000
812.672852	286.900000
812.708191	286.800000
812.743530	283.700000
812.778931	276.800000
812.814270	281.600000
812.849609	284.800000
812.884949	284.900000
812.920227	274.200000
812.955627	289.800000
812.990967	279.700000
813.026306	276.200000
813.061646	267.900000
813.096985	268.000000
813.132324	265.300000
813.167664	268.700000
813.203003	272.300000
813.238281	265.100000
813.273682	265.100000
813.308960	262.700000
813.344299	261.300000
813.379639	268.700000
813.414978	262.700000
813.450256	262.600000
813.485596	265.700000
813.520874	260.000000
813.556213	261.900000
813.591614	266.500000
813.626831	258.200000
813.662170	261.700000
813.697510	267.900000
813.732788	254.800000
813.768127	260.000000
813.803467	258.700000
813.838745	255.200000
813.874084	258.700000
813.909363	256.700000
813.944641	256.300000
813.979980	248.900000
814.015320	252.900000
814.050598	251.400000
814.085876	253.700000
814.121155	251.000000
814.156494	250.100000
814.191772	251.900000
814.227051	246.300000
814.262390	247.800000
814.297668	246.800000
814.332947	248.300000
814.368225	242.800000
814.403564	245.000000
814.438782	241.200000
814.474121	244.700000
814.509338	240.600000
814.544617	247.500000
814.579956	239.700000
814.615173	251.000000
814.650513	245.600000
814.685791	239.700000
814.721008	241.700000
814.756348	241.700000
814.791626	238.300000
814.826843	239.000000
814.862122	239.400000
814.897400	237.400000
814.932678	238.500000
814.967957	237.800000
815.003235	238.100000
815.038452	233.100000
815.073730	232.200000
815.108948	239.400000
815.144226	238.500000
815.179504	240.900000
815.214722	229.600000
815.250000	228.600000
815.285278	235.500000
815.320496	229.100000
815.355774	231.600000
815.391052	233.300000
815.426270	231.700000
815.461487	228.800000
815.496765	227.100000
815.531982	223.600000
815.567261	231.000000
815.602539	232.800000
815.637695	231.900000
815.672974	230.000000
815.708191	234.000000
815.743408	233.100000
815.778687	226.700000
815.813904	233.000000
815.849121	223.000000
815.884399	222.700000
815.919556	221.800000
815.954834	224.100000
815.990051	228.600000
816.025269	231.200000
816.060486	223.000000
816.095703	222.200000
816.130920	226.600000
816.166199	223.000000
816.201416	225.300000
816.236572	228.700000
816.271851	223.600000
816.307007	228.600000
816.342224	220.600000
816.377441	223.700000
816.412659	217.100000
816.447876	225.800000
816.483093	221.600000
816.518250	223.300000
816.553467	221.200000
816.588745	227.300000
816.623901	218.600000
816.659119	215.400000
816.694275	219.600000
816.729492	218.300000
816.764709	247.700000
816.799927	218.000000
816.835083	219.800000
816.870300	216.000000
816.905457	217.700000
816.940674	221.300000
816.975830	215.600000
817.010986	215.100000
817.046204	214.800000
817.081421	215.000000
817.116577	215.000000
817.151733	222.700000
817.186951	220.200000
817.222107	218.200000
817.257324	219.100000
817.292419	220.200000
817.327637	212.800000
817.362854	216.900000
817.398010	212.400000
817.433167	217.000000
817.468323	213.800000
817.503479	216.100000
817.538635	224.600000
817.573853	218.400000
817.608948	217.800000
817.644165	213.600000
817.679321	214.000000
817.714478	212.700000
817.749634	217.100000
817.784790	225.600000
817.819946	222.100000
817.855103	208.200000
817.890198	214.300000
817.925415	208.500000
817.960571	217.800000
817.995667	215.600000
818.030823	216.900000
818.066040	212.000000
818.101135	217.200000
818.136292	214.100000
818.171448	211.600000
818.206543	213.100000
818.241699	218.300000
818.276855	215.600000
818.311951	215.600000
818.347107	209.900000
818.382263	218.700000
818.417358	219.100000
818.452515	221.300000
818.487610	221.100000
818.522766	212.900000
818.557922	219.700000
818.593018	219.400000
818.628113	214.300000
818.663269	211.800000
818.698364	216.000000
818.733521	212.900000
818.768677	215.600000
818.803711	212.900000
818.838867	211.400000
818.874023	214.300000
818.909058	211.000000
818.944214	211.500000
818.979370	216.000000
819.014404	215.200000
819.049561	211.500000
819.084595	217.400000
819.119751	210.700000
819.154846	215.700000
819.189941	212.900000
819.225037	208.800000
819.260193	206.500000
819.295227	207.600000
819.330322	207.700000
819.365479	205.500000
819.400513	239.800000
819.435608	205.400000
819.470764	203.500000
819.505798	206.500000
819.540894	209.200000
819.575989	206.400000
819.611084	214.100000
819.646179	214.500000
819.681213	212.400000
819.716309	206.500000
819.751404	210.800000
819.786438	214.900000
819.821533	206.900000
819.856628	211.600000
819.891663	213.500000
819.926758	219.300000
819.961853	215.300000
819.996887	207.700000
820.031982	212.500000
820.067017	211.100000
820.102112	242.000000
820.137207	207.900000
820.172302	222.200000
820.207275	206.500000
820.242371	208.500000
820.277405	208.300000
820.312500	210.600000
820.347534	212.600000
820.382568	214.300000
820.417664	207.800000
820.452759	207.800000
820.487732	209.400000
820.522827	208.400000
820.557861	206.100000
820.592896	209.000000
820.627930	209.500000
820.662964	206.300000
820.698059	211.200000
820.733093	206.600000
820.768127	212.500000
820.803162	208.500000
820.838196	207.800000
820.873230	208.300000
820.908264	211.500000
820.943298	205.100000
820.978333	213.100000
821.013367	209.800000
821.048401	212.300000
821.083435	212.700000
821.118469	204.600000
821.153503	211.900000
821.188477	211.200000
821.223511	204.100000
821.258484	208.900000
821.293579	209.100000
821.328613	204.300000
821.363647	206.700000
821.398621	204.900000
821.433655	206.600000
821.468628	220.700000
821.503662	206.500000
821.538696	211.200000
821.573669	204.200000
821.608704	212.200000
821.643677	207.300000
821.678650	210.500000
821.713684	214.000000
821.748718	209.200000
821.783691	209.200000
821.818726	210.100000
821.853638	211.200000
821.888672	207.300000
821.923706	208.900000
821.958618	208.100000
821.993652	207.900000
822.028687	211.000000
822.063599	215.400000
822.098633	209.600000
822.133667	205.600000
822.168579	207.700000
822.203613	210.700000
822.238586	203.800000
822.273560	211.800000
822.308533	204.800000
822.343567	206.100000
822.378479	207.500000
822.413452	207.000000
822.448425	203.800000
822.483398	213.100000
822.518372	210.200000
822.553345	205.900000
822.588318	214.900000
822.623291	207.400000
822.658203	205.000000
822.693237	208.300000
822.728210	203.800000
822.763123	208.200000
822.798096	202.200000
822.833069	207.700000
822.867981	206.100000
822.902954	208.600000
822.937927	209.800000
822.972900	214.600000
823.007874	201.800000
823.042725	209.800000
823.077698	216.700000
823.112671	204.500000
823.147583	205.800000
823.182556	209.400000
823.217529	209.800000
823.252441	204.600000
823.287415	216.900000
823.322388	207.600000
823.357239	207.900000
823.392212	212.500000
823.427185	212.500000
823.462097	203.700000
823.497009	210.800000
823.531982	205.300000
823.566895	207.700000
823.601807	202.200000
823.636719	206.500000
823.671631	208.300000
823.706604	205.100000
823.741455	208.100000
823.776428	200.600000
823.811340	207.800000
823.846252	212.000000
823.881165	210.300000
823.916138	207.800000
823.950989	212.600000
823.985901	204.000000
824.020813	204.300000
824.055725	205.000000
824.090637	201.100000
824.125610	208.600000
824.160461	207.800000
824.195374	208.300000
824.230225	208.000000
824.265198	201.000000
824.300110	204.800000
824.334961	213.900000
824.369873	198.900000
824.404785	209.000000
824.439636	209.200000
824.474548	200.700000
824.509460	199.700000
824.544312	211.900000
824.579224	207.600000
824.614075	209.600000
824.648987	203.900000
824.683899	205.700000
824.718811	204.600000
824.753662	211.000000
824.788574	210.900000
824.823364	206.800000
824.858276	202.800000
824.893188	210.000000
824.928040	209.300000
824.962952	206.100000
824.997803	209.700000
825.032654	205.600000
825.067566	206.100000
825.102417	203.200000
825.137268	204.600000
825.172119	203.900000
825.206970	203.900000
825.241882	203.700000
825.276733	201.900000
825.311646	203.000000
825.346436	201.100000
825.381348	200.500000
825.416138	205.300000
825.450989	200.300000
825.485901	197.400000
825.520691	198.900000
825.555542	199.000000
825.590454	201.400000
825.625244	197.500000
825.660095	208.600000
825.695007	206.100000
825.729797	202.400000
825.764648	200.300000
825.799438	201.500000
825.834290	203.900000
825.869202	197.300000
825.903992	203.000000
825.938843	199.800000
825.973694	197.000000
826.008484	210.900000
826.043335	198.500000
826.078186	195.100000
826.112976	205.800000
826.147827	205.600000
826.182678	209.400000
826.217468	195.900000
826.252319	205.900000
826.287109	197.100000
826.321899	204.100000
826.356750	200.700000
826.391541	196.400000
826.426392	204.000000
826.461182	199.200000
826.495972	195.500000
826.530823	191.600000
826.565613	200.500000
826.600403	194.000000
826.635254	202.100000
826.670044	193.500000
826.704834	193.700000
826.739685	193.600000
826.774475	200.100000
826.809265	196.000000
826.844055	196.500000
826.878906	201.900000
826.913635	199.800000
826.948425	199.100000
826.983215	200.900000
827.018005	199.800000
827.052856	195.500000
827.087585	199.900000
827.122375	192.000000
827.157227	196.300000
827.191956	209.400000
827.226746	192.700000
827.261536	200.900000
827.296265	193.700000
827.331116	194.300000
827.365906	198.800000
827.400635	194.400000
827.435425	191.100000
827.470215	201.300000
827.504944	196.200000
827.539734	199.000000
827.574463	196.900000
827.609253	203.000000
827.644043	195.500000
827.678772	198.900000
827.713562	195.900000
827.748352	195.200000
827.783081	192.800000
827.817871	196.900000
827.852600	193.400000
827.887329	195.800000
827.922119	189.400000
827.956848	197.100000
827.991638	207.000000
828.026367	196.800000
828.061157	197.000000
828.095886	195.500000
828.130615	210.400000
828.165344	187.700000
828.200073	196.500000
828.234863	194.200000
828.269592	194.500000
828.304321	198.200000
828.339111	197.200000
828.373779	191.200000
828.408569	199.000000
828.443298	198.900000
828.477966	194.900000
828.512756	194.300000
828.547424	192.100000
828.582214	194.300000
828.616943	194.000000
828.651672	194.600000
828.686340	198.900000
828.721130	193.800000
828.755798	194.900000
828.790527	195.100000
828.825256	196.500000
828.859924	197.000000
828.894714	200.000000
828.929443	202.500000
828.964111	192.300000
828.998840	198.200000
829.033569	191.600000
829.068237	195.700000
829.102966	192.900000
829.137634	196.200000
829.172363	196.300000
829.207092	196.700000
829.241821	191.100000
829.276489	191.800000
829.311157	193.500000
829.345825	194.500000
829.380554	198.600000
829.415283	192.800000
829.449951	190.000000
829.484619	203.600000
829.519348	200.600000
829.554016	196.200000
829.588745	194.900000
829.623413	191.300000
829.658081	204.000000
829.692749	191.900000
829.727417	198.000000
829.762146	196.500000
829.796814	191.600000
829.831482	193.800000
829.866150	195.300000
829.900879	195.500000
829.935486	196.100000
829.970154	193.900000
830.004883	204.800000
830.039490	196.300000
830.074219	193.000000
830.108887	196.000000
830.143494	193.800000
830.178223	191.000000
830.212891	193.800000
830.247498	194.600000
830.282166	201.200000
830.316772	199.200000
830.351501	193.900000
830.386169	194.400000
830.420776	196.200000
830.455444	194.800000
830.490112	193.900000
830.524719	189.500000
830.559387	197.600000
830.594055	196.500000
830.628662	196.400000
830.663330	193.300000
830.697998	200.700000
830.732605	193.700000
830.767273	197.600000
830.801941	193.500000
830.836487	204.700000
830.871155	195.100000
830.905762	198.200000
830.940430	189.700000
830.975098	192.400000
831.009644	195.500000
831.044312	203.200000
831.078979	196.700000
831.113525	188.600000
831.148193	195.400000
831.182861	194.800000
831.217407	199.500000
831.252075	207.400000
831.286621	192.600000
831.321289	191.000000
831.355896	196.000000
831.390564	200.800000
831.425110	197.300000
831.459778	199.400000
831.494324	206.300000
831.528931	197.900000
831.563599	200.100000
831.598145	189.000000
831.632751	195.700000
831.667419	194.500000
831.701965	197.300000
831.736572	196.200000
831.771179	193.100000
831.805786	192.700000
831.840393	202.200000
831.874939	188.800000
831.909546	200.300000
831.944153	187.100000
831.978760	195.700000
832.013306	190.700000
832.047913	200.600000
832.082458	201.500000
832.117065	194.200000
832.151672	201.000000
832.186218	197.600000
832.220825	195.700000
832.255432	188.500000
832.289978	193.400000
832.324585	196.700000
832.359192	196.800000
832.393677	194.900000
832.428284	195.100000
832.462830	194.700000
832.497437	195.000000
832.531982	198.100000
832.566589	193.600000
832.601135	197.100000
832.635681	188.300000
832.670227	194.900000
832.704773	201.500000
832.739380	195.700000
832.773926	196.500000
832.808472	193.700000
832.843079	195.500000
832.877563	197.900000
832.912170	194.600000
832.946716	189.900000
832.981201	199.600000
833.015808	198.800000
833.050293	195.200000
833.084839	190.700000
833.119446	195.600000
833.153992	198.200000
833.188477	196.400000
833.223022	192.200000
833.257568	196.600000
833.292114	199.100000
833.326660	206.000000
833.361145	193.200000
833.395691	189.400000
833.430237	193.900000
833.464783	198.100000
833.499329	191.900000
833.533875	193.100000
833.568359	196.400000
833.602905	200.500000
833.637390	199.100000
833.671875	193.600000
833.706421	192.000000
833.740906	192.600000
833.775452	186.700000
833.809998	193.200000
833.844482	200.800000
833.879028	194.600000
833.913513	193.600000
833.947998	197.700000
833.982544	191.400000
834.017090	193.600000
834.051514	188.800000
834.086060	198.200000
834.120544	194.000000
834.155029	196.500000
834.189575	193.900000
834.223999	197.000000
834.258545	197.800000
834.293030	195.300000
834.327515	195.700000
834.362000	193.500000
834.396545	198.900000
834.430969	194.100000
834.465454	199.000000
834.500000	188.400000
834.534424	198.200000
834.568970	189.400000
834.603455	189.400000
834.637878	190.900000
834.672363	196.400000
834.706909	194.400000
834.741333	196.400000
834.775818	190.600000
834.810242	192.800000
834.844727	194.000000
834.879211	195.000000
834.913635	195.000000
834.948181	196.600000
834.982666	195.000000
835.017090	193.900000
835.051575	195.900000
835.086060	193.700000
835.120483	196.900000
835.154907	196.900000
835.189331	193.900000
835.223816	198.000000
835.258301	189.200000
835.292786	191.600000
835.327209	197.400000
835.361694	192.700000
835.396057	194.200000
835.430542	197.500000
835.465027	194.900000
835.499390	192.300000
835.533875	220.400000
835.568359	193.200000
835.602722	190.700000
835.637207	196.500000
835.671692	192.200000
835.706055	210.800000
835.740540	198.400000
835.774902	196.300000
835.809387	196.500000
835.843811	190.000000
835.878235	201.600000
835.912659	189.800000
835.947083	193.000000
835.981506	193.700000
836.015930	190.200000
836.050354	198.200000
836.084778	201.800000
836.119202	198.100000
836.153625	210.500000
836.187988	191.500000
836.222473	192.400000
836.256897	194.700000
836.291260	194.700000
836.325684	195.700000
836.360046	193.900000
836.394470	194.000000
836.428894	200.500000
836.463318	192.100000
836.497681	198.900000
836.532104	199.300000
836.566467	194.600000
836.600891	191.800000
836.635315	200.400000
836.669678	196.100000
836.704102	199.000000
836.738525	196.600000
836.772888	188.600000
836.807251	192.600000
836.841675	197.000000
836.876038	191.700000
836.910461	193.100000
836.944763	198.400000
836.979187	192.300000
837.013611	199.300000
837.047974	190.300000
837.082336	205.800000
837.116699	196.300000
837.151062	195.600000
837.185486	190.000000
837.219849	193.700000
837.254211	198.500000
837.288574	195.200000
837.322937	190.700000
837.357300	187.200000
837.391663	204.100000
837.426086	198.800000
837.460388	195.500000
837.494751	199.100000
837.529114	192.100000
837.563477	201.300000
837.597839	194.400000
837.632141	194.900000
837.666565	191.800000
837.700928	199.200000
837.735229	197.000000
837.769592	198.900000
837.803955	197.600000
837.838257	193.700000
837.872620	192.400000
837.906982	202.300000
837.941284	194.400000
837.975647	196.800000
838.010010	200.200000
838.044312	193.800000
838.078674	193.500000
838.112976	195.900000
838.147339	196.800000
838.181702	195.700000
838.216003	201.300000
838.250366	196.200000
838.284668	198.600000
838.318970	189.500000
838.353333	195.900000
838.387634	193.900000
838.421936	196.300000
838.456299	195.600000
838.490601	201.200000
838.524902	198.100000
838.559265	198.500000
838.593567	197.400000
838.627869	190.900000
838.662170	196.500000
838.696472	190.900000
838.730774	191.600000
838.765137	198.700000
838.799377	183.800000
838.833740	196.600000
838.868042	197.800000
838.902283	189.400000
838.936646	200.200000
838.970947	196.100000
839.005188	200.500000
839.039551	190.600000
839.073792	201.100000
839.108093	194.200000
839.142395	201.100000
839.176697	190.100000
839.210937	196.000000
839.245300	202.400000
839.279541	189.100000
839.313843	194.800000
839.348145	197.600000
839.382385	198.300000
839.416687	199.600000
839.450989	198.200000
839.485229	194.800000
839.519531	192.200000
839.553833	199.700000
839.588013	194.500000
839.622314	197.300000
839.656555	196.800000
839.690857	196.300000
839.725159	190.800000
839.759460	194.800000
839.793640	193.200000
839.827942	195.600000
839.862183	192.200000
839.896423	196.800000
839.930725	206.100000
839.964966	203.200000
839.999207	199.800000
840.033508	203.200000
840.067688	192.300000
840.101990	201.700000
840.136230	194.200000
840.170471	202.000000
840.204712	189.700000
840.238953	194.400000
840.273193	194.200000
840.307434	199.000000
840.341736	191.700000
840.375916	192.900000
840.410217	191.000000
840.444397	199.100000
840.478638	196.300000
840.512878	199.800000
840.547119	194.400000
840.581360	198.900000
840.615601	201.300000
840.649780	205.300000
840.684021	195.700000
840.718262	202.400000
840.752441	201.900000
840.786682	197.400000
840.820862	196.100000
840.855103	203.000000
840.889343	195.300000
840.923584	200.900000
840.957764	196.900000
840.992004	197.300000
841.026184	208.100000
841.060425	196.500000
841.094666	192.800000
841.128845	198.700000
841.163025	197.300000
841.197266	197.000000
841.231445	196.800000
841.265686	197.400000
841.299866	193.100000
841.334045	201.400000
841.368286	195.000000
841.402405	201.500000
841.436646	198.800000
841.470825	193.900000
841.505005	195.300000
841.539185	191.900000
841.573425	193.700000
841.607544	194.700000
841.641785	194.800000
841.675964	191.900000
841.710144	196.400000
841.744324	192.700000
841.778503	195.400000
841.812683	191.300000
841.846863	201.700000
841.881042	200.700000
841.915222	193.600000
841.949402	205.900000
841.983521	190.300000
842.017700	194.800000
842.051880	196.600000
842.086060	198.100000
842.120239	197.000000
842.154419	193.000000
842.188538	196.500000
842.222717	192.600000
842.256897	203.300000
842.291016	195.400000
842.325195	197.100000
842.359375	205.100000
842.393494	201.700000
842.427673	196.600000
842.461853	197.400000
842.495911	203.600000
842.530090	197.500000
842.564209	195.200000
842.598389	197.700000
842.632568	196.700000
842.666626	198.600000
842.700806	195.000000
842.734985	193.100000
842.769043	197.900000
842.803223	195.200000
842.837402	195.700000
842.871460	191.500000
842.905640	205.400000
842.939697	191.300000
842.973877	197.200000
843.007996	200.200000
843.042175	205.300000
843.076233	192.600000
843.110413	199.700000
843.144470	202.400000
843.178589	200.400000
843.212769	192.600000
843.246826	200.000000
843.280945	192.500000
843.315125	194.700000
843.349182	191.400000
843.383301	200.700000
843.417419	207.400000
843.451538	195.100000
843.485657	193.600000
843.519714	197.100000
843.553833	196.400000
843.587952	194.700000
843.622070	194.300000
843.656128	197.600000
843.690247	195.200000
843.724304	196.600000
843.758423	198.100000
843.792542	195.300000
843.826599	195.900000
843.860718	194.000000
843.894836	191.300000
843.928894	196.000000
843.963013	197.500000
843.997070	192.200000
844.031128	192.500000
844.065247	201.200000
844.099304	199.800000
844.133362	197.700000
844.167480	197.800000
844.201599	201.600000
844.235596	199.900000
844.269714	197.900000
844.303711	197.800000
844.337830	189.500000
844.371948	199.200000
844.405945	194.400000
844.440063	193.200000
844.474121	206.500000
844.508118	194.300000
844.542236	195.500000
844.576294	195.000000
844.610352	191.900000
844.644409	195.200000
844.678406	189.900000
844.712524	201.000000
844.746582	201.700000
844.780640	196.100000
844.814636	195.300000
844.848755	206.900000
844.882751	194.400000
844.916809	198.200000
844.950867	197.400000
844.984863	202.700000
845.018921	195.200000
845.052979	193.300000
845.086975	196.600000
845.121033	191.400000
845.155090	193.200000
845.189087	200.900000
845.223145	194.600000
845.257141	197.000000
845.291199	198.600000
845.325256	200.100000
845.359253	197.400000
845.393250	207.700000
845.427307	195.500000
845.461304	196.900000
845.495361	197.500000
845.529358	203.300000
845.563354	195.500000
845.597412	191.900000
845.631409	205.300000
845.665405	201.700000
845.699463	200.000000
845.733459	193.800000
845.767456	206.800000
845.801453	195.800000
845.835449	202.200000
845.869446	198.200000
845.903503	200.300000
845.937439	192.400000
845.971497	203.000000
846.005493	190.200000
846.039429	201.200000
846.073486	206.300000
846.107483	195.800000
846.141418	194.600000
846.175476	197.500000
846.209473	201.800000
846.243408	193.700000
846.277405	196.500000
846.311401	193.400000
846.345337	196.100000
846.379395	200.500000
846.413330	194.200000
846.447327	204.600000
846.481323	193.600000
846.515259	192.900000
846.549255	196.400000
846.583252	198.800000
846.617187	194.000000
846.651184	197.400000
846.685120	195.700000
846.719055	202.900000
846.753052	200.300000
846.786987	200.000000
846.820984	192.300000
846.854980	200.300000
846.888916	194.400000
846.922852	196.600000
846.956848	200.700000
846.990723	192.800000
847.024719	198.000000
847.058716	194.400000
847.092590	202.900000
847.126587	197.400000
847.160522	194.300000
847.194458	198.900000
847.228455	192.800000
847.262390	190.600000
847.296265	195.500000
847.330261	199.200000
847.364136	194.800000
847.398132	194.500000
847.432068	198.000000
847.466003	194.600000
847.499939	196.600000
847.533875	199.000000
847.567749	194.900000
847.601746	195.700000
847.635681	199.700000
847.669556	190.000000
847.703491	201.000000
847.737427	207.300000
847.771301	191.500000
847.805237	198.100000
847.839233	197.500000
847.873108	196.200000
847.907043	195.400000
847.940918	203.200000
847.974854	198.400000
848.008789	200.700000
848.042664	195.600000
848.076538	199.500000
848.110474	194.900000
848.144348	198.700000
848.178284	190.200000
848.212219	199.700000
848.246094	193.600000
848.279968	199.300000
848.313904	198.600000
848.347778	197.700000
848.381653	194.400000
848.415588	195.300000
848.449463	193.500000
848.483337	199.600000
848.517212	201.900000
848.551086	196.200000
848.585022	191.400000
848.618835	207.200000
848.652771	194.100000
848.686646	194.100000
848.720520	203.300000
848.754395	197.200000
848.788330	199.200000
848.822144	200.400000
848.856018	195.000000
848.889954	206.000000
848.923767	193.000000
848.957642	194.700000
848.991577	198.700000
849.025391	196.000000
849.059265	195.900000
849.093079	192.900000
849.126953	192.700000
849.160828	200.200000
849.194641	196.800000
849.228577	196.100000
849.262451	195.800000
849.296265	195.000000
849.330139	195.000000
849.364014	196.100000
849.397827	199.700000
849.431702	196.600000
849.465515	200.300000
849.499329	188.300000
849.533203	193.700000
849.567078	186.700000
849.600891	198.600000
849.634766	195.600000
849.668518	199.900000
849.702393	196.100000
849.736267	192.200000
849.770020	204.400000
849.803894	199.300000
849.837769	197.000000
849.871521	197.100000
849.905396	198.800000
849.939270	192.900000
849.973022	194.800000
850.006897	198.800000
850.040710	199.100000
850.074524	200.100000
850.108337	195.700000
850.142151	202.300000
850.175964	203.500000
850.209778	196.000000
850.243530	187.000000
850.277405	200.200000
850.311218	195.900000
850.344971	194.900000
850.378845	203.300000
850.412659	194.000000
850.446411	198.700000
850.480225	196.600000
850.514038	202.100000
850.547791	199.600000
850.581665	196.200000
850.615417	193.400000
850.649231	198.700000
850.683044	194.900000
850.716858	196.600000
850.750610	196.900000
850.784424	199.200000
850.818176	192.000000
850.851929	196.100000
850.885742	193.200000
850.919495	197.200000
850.953308	200.900000
850.987122	203.100000
851.020874	190.200000
851.054626	191.700000
851.088440	198.500000
851.122192	201.000000
851.156006	197.100000
851.189697	197.100000
851.223511	192.200000
851.257263	200.000000
851.291077	197.500000
851.324829	195.200000
851.358582	193.100000
851.392334	196.200000
851.426086	193.900000
851.459900	204.700000
851.493591	195.800000
851.527344	196.800000
851.561157	196.000000
851.594849	198.900000
851.628662	196.900000
851.662415	204.900000
851.696106	197.800000
851.729858	200.000000
851.763611	193.600000
851.797363	195.700000
851.831116	192.500000
851.864868	199.000000
851.898560	201.600000
851.932312	194.500000
851.966064	200.200000
851.999817	194.500000
852.033569	195.900000
852.067261	201.400000
852.101013	195.400000
852.134766	194.800000
852.168457	190.000000
852.202209	200.600000
852.235901	195.000000
852.269592	198.900000
852.303345	202.800000
852.337036	197.100000
852.370789	197.700000
852.404541	198.500000
852.438171	192.900000
852.471924	195.400000
852.505676	192.600000
852.539307	196.600000
852.573059	194.400000
852.606812	193.400000
852.640442	195.300000
852.674194	200.400000
852.707886	206.800000
852.741577	202.700000
852.775269	193.600000
852.809021	196.600000
852.842651	198.800000
852.876404	202.900000
852.910034	198.700000
852.943787	201.900000
852.977478	200.300000
853.011108	194.300000
853.044861	193.700000
853.078552	202.200000
853.112183	198.000000
853.145874	196.900000
853.179626	189.100000
853.213257	197.700000
853.246948	193.500000
853.280640	204.900000
853.314270	194.800000
853.347961	202.200000
853.381653	198.300000
853.415283	202.200000
853.448975	192.200000
853.482605	197.500000
853.516296	196.000000
853.549988	193.200000
853.583618	197.300000
853.617310	198.800000
853.651001	196.500000
853.684631	194.700000
853.718323	193.200000
853.751953	202.400000
853.785583	189.200000
853.819275	200.300000
853.852966	196.900000
853.886536	191.900000
853.920227	191.400000
853.953918	200.600000
853.987488	195.600000
854.021179	201.000000
854.054749	203.400000
854.088440	200.300000
854.122131	191.700000
854.155701	197.700000
854.189331	194.400000
854.223022	198.500000
854.256592	197.600000
854.290283	195.100000
854.323914	197.800000
854.357483	197.400000
854.391174	198.400000
854.424744	204.600000
854.458374	197.500000
854.492065	207.800000
854.525696	200.200000
854.559265	201.600000
854.592896	206.300000
854.626465	195.300000
854.660095	197.500000
854.693787	198.300000
854.727356	196.100000
854.760986	198.700000
854.794617	199.300000
854.828186	195.100000
854.861816	200.600000
854.895447	198.400000
854.929016	197.700000
854.962585	196.800000
854.996155	206.100000
855.029785	197.000000
855.063416	198.300000
855.097046	200.500000
855.130615	192.900000
855.164185	199.600000
855.197754	198.700000
855.231384	197.800000
855.264954	196.900000
855.298523	200.000000
855.332153	197.800000
855.365723	201.800000
855.399292	195.000000
855.432922	194.300000
855.466492	199.200000
855.500061	193.500000
855.533630	193.800000
855.567200	199.300000
855.600769	201.900000
855.634338	201.500000
855.667969	197.300000
855.701477	194.800000
855.735046	194.100000
855.768616	189.700000
855.802185	198.000000
855.835754	209.500000
855.869324	190.700000
855.902893	196.900000
855.936401	200.000000
855.969971	196.600000
856.003540	191.800000
856.037109	199.000000
856.070618	196.100000
856.104187	193.700000
856.137695	193.600000
856.171265	190.000000
856.204834	196.200000
856.238403	200.700000
856.271912	193.800000
856.305481	199.600000
856.338989	190.800000
856.372559	200.100000
856.406128	198.400000
856.439636	200.600000
856.473145	194.300000
856.506653	204.300000
856.540222	195.200000
856.573792	202.500000
856.607300	199.800000
856.640808	191.700000
856.674377	196.400000
856.707825	229.900000
856.741394	200.900000
856.774902	194.200000
856.808472	189.600000
856.841980	201.000000
856.875488	202.800000
856.908936	191.300000
856.942505	196.000000
856.976013	196.500000
857.009521	194.300000
857.043030	196.900000
857.076477	195.200000
857.110046	202.700000
857.143555	198.200000
857.177063	199.300000
857.210571	194.600000
857.244080	191.500000
857.277527	199.300000
857.311035	196.000000
857.344543	202.200000
857.378052	195.100000
857.411499	202.600000
857.445068	201.900000
857.478516	195.600000
857.512024	191.900000
857.545532	196.400000
857.578979	196.700000
857.612427	198.000000
857.645874	192.700000
857.679382	199.300000
857.712891	200.500000
857.746399	197.900000
857.779846	199.100000
857.813354	201.800000
857.846741	196.200000
857.880249	193.900000
857.913757	198.400000
857.947266	199.000000
857.980652	199.500000
858.014160	196.600000
858.047546	194.000000
858.081055	195.500000
858.114563	207.300000
858.147949	193.200000
858.181458	199.000000
858.214844	196.600000
858.248352	190.300000
858.281799	200.200000
858.315308	208.000000
858.348694	200.700000
858.382141	203.900000
858.415588	200.600000
858.449036	199.800000
858.482483	199.400000
858.515930	195.200000
858.549377	195.900000
858.582825	203.000000
858.616211	199.500000
858.649658	198.700000
858.683105	192.300000
858.716553	196.300000
858.750000	191.400000
858.783386	194.600000
858.816833	190.100000
858.850281	198.100000
858.883728	197.400000
858.917114	198.800000
858.950562	202.900000
858.983948	202.200000
859.017395	200.100000
859.050781	195.800000
859.084167	192.300000
859.117615	194.000000
859.151062	198.600000
859.184448	194.100000
859.217834	196.200000
859.251282	195.100000
859.284668	191.200000
859.318054	191.400000
859.351440	196.200000
859.384888	204.600000
859.418274	190.700000
859.451721	191.600000
859.485046	199.200000
859.518494	199.500000
859.551819	192.500000
859.585266	200.000000
859.618652	200.600000
859.652039	191.700000
859.685425	191.300000
859.718811	191.200000
859.752197	187.700000
859.785583	201.700000
859.819031	203.300000
859.852356	197.900000
859.885742	194.800000
859.919067	196.900000
859.952454	195.300000
859.985901	199.600000
860.019287	196.800000
860.052612	0.000000
860.085999	0.000000
860.119324	0.000000
860.152710	0.000000
860.186096	0.000000
860.219421	0.000000
860.252808	0.000000
860.286133	0.000000
860.319519	0.000000
860.352905	0.000000
860.386292	0.000000
860.419617	0.000000
860.452942	0.000000
860.486267	0.000000
860.519653	0.000000
860.553040	0.000000
860.586365	0.000000
860.619690	0.000000
860.653076	0.000000
860.686340	0.000000
860.719727	0.000000
860.753113	0.000000
860.786377	0.000000
860.819763	0.000000
860.853027	0.000000
860.886414	0.000000
860.919739	0.000000
860.953125	0.000000
860.986389	0.000000
861.019714	0.000000
861.053040	0.000000
861.086365	0.000000
861.119690	0.000000
861.153076	0.000000
861.186340	0.000000
861.219666	0.000000
861.252930	0.000000
861.286316	0.000000
861.319641	0.000000
861.352905	0.000000
861.386230	0.000000
861.419495	0.000000
861.452820	0.000000
861.486145	0.000000
861.519470	0.000000
861.552734	0.000000
861.586060	0.000000
861.619324	0.000000
861.652649	0.000000
861.685974	0.000000
861.719238	0.000000
861.752563	0.000000
861.785828	0.000000
861.819092	0.000000
861.852417	0.000000
861.885742	0.000000
861.918945	0.000000
861.952271	0.000000
861.985535	0.000000
862.018799	0.000000
862.052124	0.000000
862.085449	0.000000
862.118652	0.000000
862.151978	0.000000
862.185181	0.000000
862.218506	0.000000
862.251770	0.000000
862.285034	0.000000
862.318298	0.000000
862.351562	0.000000
862.384827	0.000000
862.418091	0.000000
862.451355	0.000000
862.484619	0.000000
862.517883	0.000000
862.551086	0.000000
862.584351	0.000000
862.617676	0.000000
862.650940	0.000000
862.684143	0.000000
862.717407	0.000000
862.750610	0.000000
862.783875	0.000000
862.817139	0.000000
862.850342	0.000000
862.883606	0.000000
862.916870	0.000000
862.950073	0.000000
862.983337	0.000000
863.016602	0.000000
863.049805	0.000000
863.083069	0.000000
863.116211	0.000000
863.149475	0.000000
863.182739	0.000000
863.216003	0.000000
863.249146	0.000000
863.282410	0.000000
863.315613	0.000000
863.348816	0.000000
863.382080	0.000000
863.415222	0.000000
863.448486	0.000000
863.481689	0.000000
863.514893	0.000000
863.548157	0.000000
863.581360	0.000000
863.614502	0.000000
863.647766	0.000000
863.680908	0.000000
863.714172	0.000000
863.747375	0.000000
863.780579	0.000000
863.813721	0.000000
863.846985	0.000000
863.880127	0.000000
863.913330	0.000000
863.946533	0.000000
863.979675	0.000000
864.012939	0.000000
