Model Number: SPM-001-M   
Serial Number: 10090201
Firmware Version: 004.17.6
Exposure Time: 300000.000000us
Data Taken on: 11-02-2021 10:54:46.619
Wavelength	Amplitude
733.770752	0.000000
733.808716	0.000000
733.846619	0.000000
733.884583	0.000000
733.922546	0.000000
733.960449	0.000000
733.998413	0.000000
734.036377	0.000000
734.074219	0.000000
734.112183	0.000000
734.150085	0.000000
734.188049	0.000000
734.226013	0.000000
734.263916	0.000000
734.301819	0.000000
734.339783	0.000000
734.377686	0.000000
734.415588	0.000000
734.453552	0.000000
734.491455	0.000000
734.529419	0.000000
734.567322	0.000000
734.605225	0.000000
734.643127	0.000000
734.681091	0.000000
734.718994	0.000000
734.756897	0.000000
734.794800	0.000000
734.832703	0.000000
734.870667	0.000000
734.908508	0.000000
734.946472	0.000000
734.984375	0.000000
735.022278	0.000000
735.060181	0.000000
735.098083	0.000000
735.135986	0.000000
735.173889	0.000000
735.211792	0.000000
735.249695	0.000000
735.287598	0.000000
735.325439	0.000000
735.363403	0.000000
735.401306	0.000000
735.439148	0.000000
735.477051	0.000000
735.515015	0.000000
735.552856	0.000000
735.590759	0.000000
735.628662	0.000000
735.666504	0.000000
735.704407	0.000000
735.742310	0.000000
735.780212	0.000000
735.818115	0.000000
735.856018	0.000000
735.893860	0.000000
735.931763	0.000000
735.969604	0.000000
736.007507	0.000000
736.045410	0.000000
736.083252	0.000000
736.121094	0.000000
736.158997	0.000000
736.196838	0.000000
736.234741	0.000000
736.272644	0.000000
736.310486	0.000000
736.348389	0.000000
736.386230	0.000000
736.424072	0.000000
736.461975	0.000000
736.499878	0.000000
736.537720	0.000000
736.575562	0.000000
736.613403	0.000000
736.651306	0.000000
736.689148	0.000000
736.726990	0.000000
736.764893	0.000000
736.802734	0.000000
736.840576	0.000000
736.878418	0.000000
736.916321	0.000000
736.954102	0.000000
736.992004	0.000000
737.029846	0.000000
737.067688	0.000000
737.105530	0.000000
737.143372	0.000000
737.181213	0.000000
737.219116	0.000000
737.256897	0.000000
737.294739	0.000000
737.332642	0.000000
737.370422	0.000000
737.408325	0.000000
737.446167	0.000000
737.483948	0.000000
737.521790	0.000000
737.559692	0.000000
737.597473	0.000000
737.635315	0.000000
737.673157	0.000000
737.710999	0.000000
737.748840	0.000000
737.786621	0.000000
737.824463	0.000000
737.862305	0.000000
737.900085	0.000000
737.937927	0.000000
737.975769	0.000000
738.013550	0.000000
738.051392	0.000000
738.089233	0.000000
738.127014	0.000000
738.164856	0.000000
738.202698	0.000000
738.240479	0.000000
738.278320	0.000000
738.316162	0.000000
738.353943	0.000000
738.391785	0.000000
738.429565	0.000000
738.467407	0.000000
738.505188	0.000000
738.542969	0.000000
738.580811	0.000000
738.618652	0.000000
738.656372	0.000000
738.694214	0.000000
738.732056	0.000000
738.769836	0.000000
738.807617	0.000000
738.845459	0.000000
738.883240	0.000000
738.921021	0.000000
738.958862	0.000000
738.996582	0.000000
739.034424	0.000000
739.072205	0.000000
739.109985	0.000000
739.147827	0.000000
739.185547	0.000000
739.223389	0.000000
739.261169	0.000000
739.298889	0.000000
739.336731	0.000000
739.374512	0.000000
739.412292	0.000000
739.450073	0.000000
739.487854	0.000000
739.525635	0.000000
739.563416	0.000000
739.601135	0.000000
739.638977	0.000000
739.676758	0.000000
739.714478	0.000000
739.752258	0.000000
739.790100	0.000000
739.827820	0.000000
739.865601	0.000000
739.903381	0.000000
739.941101	0.000000
739.978882	198.200000
740.016724	193.600000
740.054443	199.300000
740.092224	192.800000
740.130005	193.100000
740.167725	192.600000
740.205505	193.000000
740.243225	201.900000
740.281006	195.600000
740.318787	191.200000
740.356506	202.000000
740.394287	199.100000
740.432068	193.300000
740.469727	190.100000
740.507507	198.400000
740.545288	195.100000
740.583008	197.100000
740.620789	194.200000
740.658569	189.700000
740.696228	195.200000
740.734009	200.300000
740.771790	186.700000
740.809509	199.500000
740.847229	191.700000
740.884949	194.200000
740.922729	189.900000
740.960449	195.400000
740.998169	191.000000
741.035950	193.600000
741.073669	194.600000
741.111389	198.600000
741.149170	203.800000
741.186890	202.100000
741.224609	196.900000
741.262329	197.800000
741.300110	201.500000
741.337769	193.400000
741.375549	190.500000
741.413208	196.300000
741.450989	192.600000
741.488708	194.900000
741.526367	193.100000
741.564148	199.400000
741.601868	198.900000
741.639526	195.300000
741.677307	196.100000
741.715027	197.500000
741.752686	191.400000
741.790466	202.800000
741.828186	198.600000
741.865845	192.200000
741.903564	190.900000
741.941345	194.700000
741.979004	192.100000
742.016724	199.000000
742.054382	195.900000
742.092102	198.400000
742.129822	191.700000
742.167480	193.800000
742.205200	195.100000
742.242920	196.400000
742.280640	199.700000
742.318359	192.400000
742.356079	194.100000
742.393738	198.900000
742.431396	194.500000
742.469116	199.200000
742.506775	188.600000
742.544495	197.400000
742.582214	199.800000
742.619873	194.500000
742.657593	201.400000
742.695251	198.300000
742.732971	195.800000
742.770630	196.100000
742.808289	196.400000
742.846008	195.300000
742.883728	197.800000
742.921326	195.200000
742.959045	194.300000
742.996765	194.300000
743.034424	194.700000
743.072083	193.900000
743.109802	194.800000
743.147400	191.400000
743.185120	197.200000
743.222839	195.200000
743.260437	200.300000
743.298157	197.000000
743.335754	188.600000
743.373474	195.700000
743.411133	189.000000
743.448792	195.400000
743.486450	195.700000
743.524170	190.200000
743.561768	195.400000
743.599487	199.700000
743.637146	204.000000
743.674744	195.300000
743.712463	192.900000
743.750122	196.600000
743.787720	195.600000
743.825439	194.400000
743.863037	194.000000
743.900696	196.800000
743.938416	221.700000
743.976013	196.900000
744.013672	200.900000
744.051331	199.700000
744.088928	202.900000
744.126587	200.800000
744.164307	196.400000
744.201904	192.800000
744.239563	198.300000
744.277222	199.500000
744.314819	196.600000
744.352478	200.800000
744.390137	196.700000
744.427734	198.800000
744.465393	193.700000
744.502991	192.900000
744.540649	197.400000
744.578308	196.400000
744.615906	192.300000
744.653564	188.000000
744.691223	198.000000
744.728821	190.100000
744.766418	196.200000
744.804077	196.500000
744.841675	194.300000
744.879333	190.400000
744.916992	194.400000
744.954529	193.200000
744.992187	200.700000
745.029785	194.100000
745.067444	194.700000
745.105042	195.100000
745.142639	198.600000
745.180298	203.900000
745.217896	194.300000
745.255493	194.800000
745.293152	199.300000
745.330750	199.300000
745.368347	202.600000
745.405945	197.300000
745.443604	197.200000
745.481140	198.400000
745.518799	196.100000
745.556396	197.400000
745.593994	198.800000
745.631592	195.400000
745.669189	192.900000
745.706787	195.400000
745.744385	194.200000
745.781982	197.400000
745.819580	194.800000
745.857178	195.400000
745.894775	195.400000
745.932373	196.900000
745.969971	197.400000
746.007568	190.700000
746.045166	202.900000
746.082764	201.200000
746.120300	197.900000
746.157898	198.400000
746.195557	195.900000
746.233093	191.100000
746.270691	197.500000
746.308228	197.500000
746.345825	199.000000
746.383423	199.200000
746.420959	193.200000
746.458557	194.100000
746.496155	193.900000
746.533691	196.500000
746.571289	191.700000
746.608887	196.300000
746.646423	196.900000
746.684021	197.800000
746.721619	193.900000
746.759155	198.100000
746.796753	190.500000
746.834351	191.700000
746.871826	192.900000
746.909424	200.800000
746.946960	196.700000
746.984558	195.700000
747.022156	193.900000
747.059631	204.200000
747.097229	197.500000
747.134827	194.900000
747.172363	200.100000
747.209900	201.800000
747.247498	191.800000
747.285034	201.700000
747.322571	202.300000
747.360168	196.100000
747.397644	190.400000
747.435242	199.300000
747.472778	201.200000
747.510315	194.400000
747.547913	195.200000
747.585388	201.200000
747.622925	195.300000
747.660522	189.800000
747.697998	195.100000
747.735596	194.000000
747.773132	193.300000
747.810669	196.400000
747.848206	198.400000
747.885742	192.500000
747.923279	192.000000
747.960815	197.000000
747.998352	197.400000
748.035889	199.500000
748.073425	199.200000
748.110901	193.000000
748.148437	192.800000
748.185974	195.300000
748.223511	204.800000
748.261047	197.300000
748.298584	197.700000
748.336060	194.400000
748.373596	199.700000
748.411133	220.000000
748.448608	194.100000
748.486145	198.200000
748.523682	200.200000
748.561218	201.400000
748.598755	197.300000
748.636292	197.100000
748.673706	196.200000
748.711243	202.600000
748.748718	197.300000
748.786255	195.200000
748.823792	196.100000
748.861267	192.600000
748.898804	198.900000
748.936340	197.600000
748.973816	195.000000
749.011292	200.600000
749.048828	196.700000
749.086304	197.600000
749.123840	203.800000
749.161316	193.100000
749.198792	203.000000
749.236328	200.900000
749.273743	194.900000
749.311279	195.000000
749.348816	198.500000
749.386230	196.600000
749.423767	187.600000
749.461304	198.800000
749.498718	196.400000
749.536255	201.200000
749.573730	204.800000
749.611206	202.200000
749.648682	196.200000
749.686218	196.000000
749.723633	197.400000
749.761169	196.700000
749.798645	192.200000
749.836060	195.200000
749.873596	192.400000
749.911011	198.100000
749.948547	199.800000
749.986023	196.300000
750.023437	195.000000
750.060913	192.300000
750.098450	192.100000
750.135864	196.300000
750.173340	196.800000
750.210815	200.400000
750.248291	191.600000
750.285767	195.600000
750.323242	199.800000
750.360657	199.400000
750.398132	193.000000
750.435608	198.200000
750.473022	193.400000
750.510498	192.000000
750.547974	191.000000
750.585449	194.100000
750.622925	188.400000
750.660339	205.700000
750.697815	195.900000
750.735291	195.800000
750.772644	199.900000
750.810120	196.100000
750.847595	198.700000
750.885010	191.600000
750.922485	204.900000
750.959961	196.400000
750.997375	202.600000
751.034851	198.300000
751.072266	198.100000
751.109680	189.800000
751.147156	203.300000
751.184570	196.600000
751.221985	197.300000
751.259460	189.700000
751.296875	196.900000
751.334290	195.000000
751.371765	200.200000
751.409180	197.700000
751.446594	201.500000
751.484070	197.200000
751.521423	198.700000
751.558899	195.800000
751.596375	205.800000
751.633728	201.200000
751.671204	205.500000
751.708618	193.800000
751.746033	197.100000
751.783447	191.400000
751.820801	192.400000
751.858276	200.000000
751.895691	197.500000
751.933105	194.500000
751.970520	192.200000
752.007935	194.200000
752.045349	199.700000
752.082764	197.000000
752.120178	194.200000
752.157532	194.300000
752.195007	193.900000
752.232422	197.800000
752.269775	198.600000
752.307190	198.900000
752.344543	190.700000
752.382019	195.900000
752.419434	194.300000
752.456787	199.200000
752.494202	199.400000
752.531616	198.000000
752.568970	198.700000
752.606384	199.000000
752.643799	197.100000
752.681152	201.700000
752.718567	198.100000
752.755981	191.800000
752.793335	199.900000
752.830750	191.100000
752.868164	199.200000
752.905518	193.700000
752.942932	198.700000
752.980225	193.600000
753.017639	197.700000
753.055054	197.400000
753.092407	197.000000
753.129822	200.400000
753.167175	203.700000
753.204529	197.000000
753.241943	191.900000
753.279358	192.200000
753.316650	199.000000
753.354065	198.100000
753.391479	199.500000
753.428772	202.600000
753.466187	197.800000
753.503479	192.200000
753.540894	195.200000
753.578308	191.000000
753.615601	193.200000
753.653015	196.300000
753.690369	195.400000
753.727722	192.600000
753.765076	192.300000
753.802490	191.600000
753.839783	190.700000
753.877136	193.800000
753.914551	207.300000
753.951843	192.400000
753.989258	200.100000
754.026611	196.900000
754.063904	199.600000
754.101257	191.400000
754.138611	191.800000
754.175964	197.900000
754.213318	204.900000
754.250610	191.100000
754.288025	195.400000
754.325378	190.700000
754.362671	200.800000
754.400024	196.000000
754.437378	205.000000
754.474670	202.200000
754.512085	193.900000
754.549438	196.600000
754.586731	194.400000
754.624084	195.100000
754.661438	194.000000
754.698730	203.800000
754.736084	196.100000
754.773376	194.900000
754.810730	198.700000
754.848083	196.400000
754.885315	201.400000
754.922668	192.300000
754.960022	193.500000
754.997314	200.300000
755.034668	195.900000
755.072021	198.400000
755.109253	195.800000
755.146606	202.000000
755.183960	196.100000
755.221252	203.400000
755.258545	199.900000
755.295898	201.400000
755.333191	201.100000
755.370544	200.100000
755.407776	197.800000
755.445129	199.100000
755.482422	200.600000
755.519714	196.600000
755.557068	192.200000
755.594360	192.100000
755.631653	201.200000
755.668945	204.500000
755.706299	198.600000
755.743530	209.100000
755.780884	202.900000
755.818176	202.700000
755.855408	202.500000
755.892761	200.400000
755.930054	198.400000
755.967346	201.900000
756.004639	200.700000
756.041870	199.600000
756.079224	203.100000
756.116516	196.300000
756.153748	201.200000
756.191040	206.800000
756.228394	201.100000
756.265625	196.400000
756.302917	198.600000
756.340210	196.900000
756.377441	203.100000
756.414795	205.500000
756.452087	198.900000
756.489319	194.100000
756.526611	202.600000
756.563843	199.500000
756.601135	206.700000
756.638428	206.000000
756.675659	198.900000
756.712952	203.000000
756.750244	202.400000
756.787476	198.800000
756.824768	205.700000
756.862061	199.000000
756.899292	248.200000
756.936584	204.500000
756.973816	209.600000
757.011047	208.300000
757.048340	200.300000
757.085632	199.900000
757.122864	215.900000
757.160156	198.300000
757.197327	203.300000
757.234619	203.500000
757.271912	199.500000
757.309082	205.100000
757.346375	199.400000
757.383667	204.800000
757.420837	203.500000
757.458130	201.300000
757.495422	200.300000
757.532593	203.200000
757.569885	197.200000
757.607117	199.600000
757.644348	204.700000
757.681580	211.600000
757.718811	194.300000
757.756042	202.800000
757.793335	199.900000
757.830505	204.200000
757.867798	199.100000
757.905029	198.900000
757.942200	202.300000
757.979492	201.700000
758.016724	201.100000
758.053894	199.700000
758.091187	217.200000
758.128418	203.900000
758.165588	201.000000
758.202820	213.800000
758.240112	201.600000
758.277283	213.300000
758.314514	204.400000
758.351685	202.300000
758.388916	211.600000
758.426147	209.700000
758.463379	210.300000
758.500610	207.100000
758.537842	204.700000
758.575012	210.800000
758.612244	200.200000
758.649475	215.700000
758.686646	199.700000
758.723877	211.900000
758.761108	212.200000
758.798279	205.100000
758.835510	206.100000
758.872742	212.600000
758.909851	208.500000
758.947083	209.300000
758.984253	207.600000
759.021484	210.600000
759.058716	208.600000
759.095886	210.500000
759.133057	205.800000
759.170288	210.400000
759.207458	205.200000
759.244690	215.200000
759.281860	215.400000
759.319031	209.400000
759.356262	206.700000
759.393433	206.700000
759.430603	208.100000
759.467773	208.100000
759.505005	213.700000
759.542175	212.400000
759.579346	208.000000
759.616516	209.400000
759.653687	213.000000
759.690918	207.700000
759.728027	211.600000
759.765259	210.800000
759.802429	214.000000
759.839539	212.600000
759.876770	214.900000
759.913940	218.200000
759.951111	211.700000
759.988281	210.400000
760.025452	209.600000
760.062561	208.600000
760.099792	222.300000
760.136963	214.600000
760.174072	212.300000
760.211243	207.300000
760.248413	209.200000
760.285583	208.800000
760.322754	221.000000
760.359863	216.200000
760.397034	217.100000
760.434204	212.700000
760.471375	213.900000
760.508545	212.100000
760.545715	214.100000
760.582825	209.100000
760.619995	217.600000
760.657166	209.200000
760.694275	221.000000
760.731445	215.200000
760.768555	216.900000
760.805664	217.500000
760.842834	216.500000
760.879944	217.600000
760.917114	216.400000
760.954285	213.400000
760.991394	210.900000
761.028564	219.600000
761.065674	218.000000
761.102783	213.800000
761.139954	219.900000
761.177124	219.200000
761.214172	220.300000
761.251343	217.400000
761.288452	216.600000
761.325562	220.400000
761.362732	214.600000
761.399841	217.700000
761.436951	218.900000
761.474121	214.700000
761.511169	218.100000
761.548340	221.300000
761.585449	219.000000
761.622559	222.300000
761.659668	219.800000
761.696838	225.400000
761.733887	220.000000
761.771057	218.300000
761.808167	219.300000
761.845276	224.500000
761.882385	229.400000
761.919434	222.300000
761.956604	235.000000
761.993713	219.200000
762.030762	226.100000
762.067871	222.400000
762.105042	221.700000
762.142090	229.500000
762.179199	223.300000
762.216309	227.300000
762.253418	235.300000
762.290527	229.900000
762.327637	226.000000
762.364685	219.000000
762.401794	226.900000
762.438904	227.100000
762.475952	223.300000
762.513062	221.900000
762.550110	223.400000
762.587219	234.600000
762.624329	231.800000
762.661377	226.100000
762.698486	227.100000
762.735596	227.000000
762.772644	222.300000
762.809753	220.500000
762.846863	227.000000
762.883911	231.100000
762.921021	232.300000
762.958069	228.100000
762.995117	234.100000
763.032227	233.300000
763.069336	224.900000
763.106323	221.200000
763.143433	223.600000
763.180481	228.600000
763.217590	230.700000
763.254639	228.400000
763.291687	230.700000
763.328735	235.900000
763.365845	230.700000
763.402893	227.500000
763.439941	231.400000
763.477051	232.900000
763.514038	234.000000
763.551147	227.700000
763.588196	230.800000
763.625244	231.600000
763.662292	239.000000
763.699402	240.100000
763.736389	235.600000
763.773499	241.600000
763.810486	235.800000
763.847534	232.300000
763.884644	234.700000
763.921631	231.900000
763.958679	240.700000
763.995728	233.300000
764.032776	239.400000
764.069824	232.800000
764.106873	241.300000
764.143860	244.700000
764.180969	237.100000
764.218018	242.900000
764.255005	236.300000
764.292053	238.500000
764.329102	244.600000
764.366089	245.400000
764.403137	241.400000
764.440125	238.100000
764.477173	241.000000
764.514221	245.300000
764.551208	243.700000
764.588257	239.500000
764.625305	246.700000
764.662292	253.100000
764.699341	254.800000
764.736389	247.300000
764.773376	259.300000
764.810425	248.700000
764.847473	252.700000
764.884399	250.900000
764.921448	254.400000
764.958435	255.400000
764.995483	248.000000
765.032532	263.600000
765.069458	252.300000
765.106506	255.100000
765.143555	252.900000
765.180481	254.900000
765.217529	263.000000
765.254578	252.200000
765.291504	257.900000
765.328552	255.900000
765.365540	251.300000
765.402527	265.000000
765.439575	254.600000
765.476501	253.300000
765.513550	254.400000
765.550537	258.100000
765.587463	265.800000
765.624512	256.900000
765.661499	252.500000
765.698486	263.700000
765.735474	256.500000
765.772461	258.100000
765.809448	265.100000
765.846436	262.000000
765.883423	266.300000
765.920410	261.600000
765.957397	259.400000
765.994385	262.300000
766.031311	271.200000
766.068359	264.600000
766.105286	267.300000
766.142273	271.100000
766.179260	266.600000
766.216187	262.400000
766.253174	261.600000
766.290161	266.300000
766.327148	270.700000
766.364136	269.000000
766.401123	281.100000
766.438049	264.000000
766.475037	276.500000
766.512024	272.300000
766.548950	285.600000
766.585937	280.200000
766.622864	276.300000
766.659790	276.600000
766.696777	268.900000
766.733704	280.000000
766.770691	272.600000
766.807678	281.600000
766.844604	277.600000
766.881531	278.100000
766.918518	281.900000
766.955444	283.700000
766.992432	276.400000
767.029358	279.300000
767.066284	281.600000
767.103271	278.700000
767.140198	312.200000
767.177124	293.100000
767.214050	284.700000
767.251038	286.300000
767.287964	283.600000
767.324890	282.400000
767.361816	283.600000
767.398743	291.500000
767.435730	282.800000
767.472595	286.800000
767.509583	289.700000
767.546509	282.000000
767.583374	287.400000
767.620361	281.300000
767.657288	286.200000
767.694214	288.000000
767.731140	287.100000
767.768066	289.000000
767.804993	288.500000
767.841919	283.800000
767.878845	287.900000
767.915710	295.500000
767.952698	287.200000
767.989563	291.600000
768.026489	293.100000
768.063416	289.300000
768.100281	288.400000
768.137207	296.800000
768.174133	293.900000
768.211060	297.400000
768.247986	293.900000
768.284912	292.700000
768.321777	295.200000
768.358704	290.000000
768.395630	293.200000
768.432495	289.100000
768.469421	295.800000
768.506348	301.300000
768.543152	305.100000
768.580078	298.600000
768.616943	299.800000
768.653870	301.800000
768.690796	301.900000
768.727661	298.200000
768.764587	301.300000
768.801453	297.400000
768.838318	306.400000
768.875244	303.100000
768.912109	310.200000
768.948975	301.500000
768.985901	306.900000
769.022766	302.100000
769.059631	309.100000
769.096558	302.800000
769.133362	303.100000
769.170288	304.300000
769.207214	308.000000
769.244019	310.800000
769.280945	309.900000
769.317810	315.400000
769.354675	311.000000
769.391541	320.000000
769.428406	318.100000
769.465271	324.500000
769.502136	315.600000
769.539062	316.200000
769.575867	316.600000
769.612732	320.200000
769.649597	325.600000
769.686462	325.100000
769.723328	319.800000
769.760193	320.100000
769.797058	320.400000
769.833923	329.500000
769.870728	327.600000
769.907593	329.200000
769.944519	328.200000
769.981323	331.300000
770.018188	328.000000
770.055054	328.800000
770.091858	329.600000
770.128723	341.000000
770.165588	342.000000
770.202393	330.500000
770.239258	340.700000
770.276062	336.500000
770.312927	338.600000
770.349792	346.200000
770.386597	341.100000
770.423462	349.600000
770.460327	355.400000
770.497131	343.700000
770.533997	340.100000
770.570862	353.900000
770.607605	352.900000
770.644470	352.800000
770.681335	353.000000
770.718140	353.100000
770.754944	350.600000
770.791809	347.600000
770.828613	349.100000
770.865479	351.700000
770.902222	358.900000
770.939087	357.500000
770.975952	348.700000
771.012695	354.200000
771.049561	364.900000
771.086365	357.600000
771.123169	354.600000
771.159973	357.600000
771.196838	360.600000
771.233582	364.200000
771.270447	361.300000
771.307251	365.400000
771.344055	365.300000
771.380859	365.600000
771.417664	362.600000
771.454468	373.700000
771.491272	369.200000
771.528076	368.100000
771.564880	366.400000
771.601685	371.000000
771.638428	369.000000
771.675293	376.000000
771.712097	370.200000
771.748840	381.900000
771.785645	376.200000
771.822449	376.500000
771.859253	377.200000
771.896057	374.300000
771.932861	385.400000
771.969604	379.600000
772.006409	375.700000
772.043213	382.400000
772.079956	380.800000
772.116760	376.200000
772.153503	379.300000
772.190308	388.900000
772.227112	385.600000
772.263855	380.300000
772.300659	382.000000
772.337463	382.900000
772.374207	377.900000
772.411011	377.100000
772.447754	383.600000
772.484497	395.300000
772.521301	388.800000
772.558105	386.900000
772.594849	388.300000
772.631592	393.500000
772.668396	393.300000
772.705139	399.100000
772.741882	395.900000
772.778625	400.900000
772.815430	403.100000
772.852173	401.000000
772.888916	406.900000
772.925720	410.500000
772.962463	412.600000
772.999207	404.800000
773.035950	409.600000
773.072754	406.300000
773.109436	404.200000
773.146240	411.500000
773.182922	407.500000
773.219727	412.900000
773.256470	406.900000
773.293152	402.400000
773.329956	405.800000
773.366699	416.000000
773.403381	410.700000
773.440186	414.100000
773.476929	414.200000
773.513611	410.400000
773.550354	410.700000
773.587158	418.100000
773.623840	413.300000
773.660583	415.200000
773.697327	423.700000
773.734009	414.100000
773.770813	412.600000
773.807495	415.500000
773.844238	418.500000
773.880981	430.000000
773.917664	418.500000
773.954407	423.900000
773.991150	419.600000
774.027832	432.300000
774.064575	426.000000
774.101318	428.100000
774.138000	425.200000
774.174744	422.200000
774.211487	424.600000
774.248108	419.400000
774.284851	424.100000
774.321594	431.000000
774.358276	426.700000
774.395020	435.400000
774.431702	432.300000
774.468384	427.400000
774.505127	430.800000
774.541809	437.600000
774.578491	436.400000
774.615234	437.000000
774.651917	429.100000
774.688599	434.600000
774.725342	445.500000
774.762024	444.400000
774.798706	445.600000
774.835449	439.000000
774.872070	447.700000
774.908813	442.900000
774.945496	446.100000
774.982178	450.500000
775.018860	454.900000
775.055542	452.900000
775.092224	451.100000
775.128967	453.800000
775.165588	455.100000
775.202271	448.700000
775.239014	460.000000
775.275635	453.700000
775.312317	451.900000
775.349060	455.300000
775.385681	458.800000
775.422363	456.900000
775.459045	466.100000
775.495667	466.300000
775.532410	464.500000
775.569092	462.400000
775.605713	461.900000
775.642395	468.000000
775.679016	475.300000
775.715698	474.200000
775.752380	469.700000
775.789001	461.000000
775.825684	463.000000
775.862366	474.900000
775.898987	486.300000
775.935669	478.100000
775.972351	492.100000
776.008972	482.300000
776.045654	481.200000
776.082336	484.000000
776.118958	489.000000
776.155640	491.800000
776.192322	496.200000
776.228882	495.500000
776.265564	494.100000
776.302185	487.000000
776.338867	497.100000
776.375488	489.400000
776.412109	499.400000
776.448792	501.300000
776.485413	503.800000
776.522034	497.500000
776.558716	504.200000
776.595337	506.800000
776.631958	504.400000
776.668579	507.400000
776.705261	511.900000
776.741882	500.100000
776.778503	504.400000
776.815186	514.000000
776.851746	518.300000
776.888367	511.800000
776.924988	519.300000
776.961609	511.700000
776.998291	510.100000
777.034851	508.500000
777.071472	521.500000
777.108154	514.600000
777.144714	525.300000
777.181335	522.400000
777.218018	517.300000
777.254578	530.200000
777.291199	531.400000
777.327759	534.100000
777.364380	542.200000
777.401062	544.900000
777.437622	551.700000
777.474243	543.100000
777.510864	554.300000
777.547424	546.700000
777.584045	548.700000
777.620667	551.000000
777.657227	555.100000
777.693848	545.900000
777.730469	559.800000
777.767029	552.200000
777.803650	555.600000
777.840271	549.400000
777.876831	550.500000
777.913452	549.800000
777.950012	536.100000
777.986633	542.400000
778.023193	541.900000
778.059753	542.900000
778.096375	546.800000
778.132996	553.300000
778.169556	547.500000
778.206116	547.600000
778.242737	548.000000
778.279297	558.700000
778.315857	551.200000
778.352478	555.200000
778.389038	562.800000
778.425598	562.800000
778.462219	576.600000
778.498718	573.300000
778.535339	581.800000
778.571838	581.400000
778.608459	575.300000
778.645020	564.400000
778.681580	572.700000
778.718140	571.600000
778.754761	572.800000
778.791260	578.400000
778.827881	585.000000
778.864441	580.400000
778.900940	583.800000
778.937561	581.500000
778.974121	580.300000
779.010620	577.000000
779.047241	578.200000
779.083801	582.400000
779.120300	583.200000
779.156860	586.100000
779.193359	579.400000
779.229980	593.600000
779.266541	596.800000
779.303040	596.300000
779.339600	583.100000
779.376160	579.700000
779.412659	584.100000
779.449219	584.500000
779.485779	591.600000
779.522278	588.300000
779.558838	589.900000
779.595398	590.500000
779.631897	586.300000
779.668457	580.300000
779.705017	598.300000
779.741516	587.100000
779.778076	575.900000
779.814575	580.100000
779.851074	579.900000
779.887634	577.400000
779.924133	593.700000
779.960693	584.600000
779.997253	591.800000
780.033691	594.700000
780.070251	588.400000
780.106812	593.700000
780.143250	600.900000
780.179810	601.100000
780.216370	603.900000
780.252808	606.400000
780.289368	612.000000
780.325867	600.900000
780.362366	602.500000
780.398865	620.200000
780.435364	615.900000
780.471863	623.900000
780.508423	612.400000
780.544861	604.500000
780.581421	608.100000
780.617920	602.100000
780.654419	606.600000
780.690918	608.700000
780.727417	614.800000
780.763916	612.600000
780.800415	610.000000
780.836914	604.900000
780.873352	621.700000
780.909912	615.800000
780.946411	620.700000
780.982849	618.700000
781.019348	627.400000
781.055786	619.000000
781.092346	626.300000
781.128845	630.700000
781.165283	632.600000
781.201782	636.600000
781.238281	637.200000
781.274719	630.300000
781.311218	627.000000
781.347717	640.800000
781.384155	628.600000
781.420654	633.000000
781.457092	643.100000
781.493591	632.300000
781.530090	627.800000
781.566528	630.400000
781.602966	640.300000
781.639465	643.200000
781.675903	637.100000
781.712402	643.900000
781.748901	639.600000
781.785278	638.700000
781.821777	642.100000
781.858276	645.600000
781.894714	659.100000
781.931152	654.300000
781.967651	659.900000
782.004089	652.100000
782.040527	661.800000
782.076965	659.700000
782.113403	656.600000
782.149902	659.200000
782.186340	652.200000
782.222778	666.700000
782.259277	661.700000
782.295654	668.500000
782.332092	668.500000
782.368591	666.800000
782.404968	659.900000
782.441467	664.500000
782.477905	675.600000
782.514282	681.800000
782.550781	686.700000
782.587219	682.700000
782.623596	693.800000
782.660095	692.600000
782.696472	695.000000
782.732910	706.200000
782.769348	707.400000
782.805786	714.000000
782.842224	713.200000
782.878662	704.400000
782.915039	708.400000
782.951477	712.500000
782.987915	708.800000
783.024292	714.900000
783.060730	713.800000
783.097168	696.900000
783.133545	688.700000
783.169983	694.700000
783.206421	690.200000
783.242798	683.000000
783.279236	668.200000
783.315613	672.600000
783.352051	673.600000
783.388489	668.000000
783.424866	660.500000
783.461304	669.400000
783.497681	682.000000
783.534058	680.600000
783.570496	678.000000
783.606934	677.100000
783.643250	682.800000
783.679687	697.200000
783.716125	690.700000
783.752441	698.000000
783.788879	717.700000
783.825317	727.000000
783.861633	725.600000
783.898071	730.600000
783.934448	734.700000
783.970825	733.700000
784.007263	731.200000
784.043579	721.400000
784.080017	706.100000
784.116394	674.400000
784.152710	640.000000
784.189148	617.200000
784.225525	602.200000
784.261902	601.200000
784.298279	613.600000
784.334656	621.300000
784.371033	620.300000
784.407410	625.600000
784.443787	605.200000
784.480164	608.100000
784.516541	605.700000
784.552856	624.500000
784.589233	636.700000
784.625610	649.000000
784.661987	680.500000
784.698364	689.500000
784.734741	695.400000
784.771057	703.700000
784.807434	715.500000
784.843811	721.400000
784.880127	708.500000
784.916504	736.100000
784.952881	734.700000
784.989197	743.000000
785.025574	743.100000
785.061951	748.400000
785.098267	757.600000
785.134644	750.400000
785.170959	740.500000
785.207275	750.700000
785.243652	752.000000
785.279968	745.200000
785.316345	741.000000
785.352722	737.100000
785.388977	723.100000
785.425354	711.700000
785.461731	705.300000
785.498047	708.500000
785.534363	702.600000
785.570679	697.000000
785.606995	687.900000
785.643372	692.800000
785.679687	696.800000
785.716003	703.100000
785.752380	707.200000
785.788635	712.400000
785.825012	717.300000
785.861328	714.900000
785.897644	709.200000
785.933960	723.200000
785.970337	739.300000
786.006592	758.700000
786.042908	765.900000
786.079285	759.800000
786.115540	762.800000
786.151855	762.300000
786.188171	762.400000
786.224487	772.400000
786.260803	776.800000
786.297119	769.000000
786.333435	756.100000
786.369751	742.000000
786.406006	750.100000
786.442322	745.100000
786.478638	736.200000
786.514954	748.800000
786.551270	731.800000
786.587585	728.600000
786.623840	718.500000
786.660156	721.600000
786.696472	716.700000
786.732727	720.800000
786.769043	724.000000
786.805298	714.700000
786.841614	713.300000
786.877930	715.000000
786.914124	716.600000
786.950439	735.400000
786.986755	741.400000
787.023010	749.200000
787.059326	748.900000
787.095642	758.000000
787.131836	774.900000
787.168152	771.000000
787.204468	776.600000
787.240723	789.200000
787.276978	778.900000
787.313293	782.600000
787.349548	769.900000
787.385803	775.600000
787.422058	780.600000
787.458313	781.000000
787.494629	774.500000
787.530823	772.100000
787.567139	755.600000
787.603455	754.500000
787.639648	748.500000
787.675903	754.100000
787.712219	754.000000
787.748413	748.600000
787.784729	751.200000
787.820984	728.900000
787.857178	731.500000
787.893494	741.200000
787.929749	741.300000
787.965942	746.800000
788.002258	750.200000
788.038452	762.800000
788.074707	756.400000
788.110962	764.100000
788.147217	761.000000
788.183472	778.200000
788.219727	783.000000
788.255920	793.200000
788.292175	782.600000
788.328430	787.100000
788.364624	784.600000
788.400879	788.900000
788.437134	796.100000
788.473328	794.100000
788.509583	789.400000
788.545837	785.500000
788.582031	786.200000
788.618286	790.500000
788.654480	792.400000
788.690735	797.000000
788.726990	805.800000
788.763184	808.500000
788.799377	814.000000
788.835632	810.300000
788.871826	818.100000
788.908081	817.600000
788.944336	802.500000
788.980469	809.800000
789.016724	804.100000
789.052979	794.600000
789.089111	788.200000
789.125366	795.800000
789.161621	787.500000
789.197754	795.400000
789.234009	788.200000
789.270142	782.100000
789.306396	773.800000
789.342590	776.200000
789.378784	777.600000
789.414978	775.800000
789.451233	783.100000
789.487366	780.600000
789.523621	783.000000
789.559814	777.900000
789.595947	786.000000
789.632202	800.400000
789.668335	816.200000
789.704529	825.200000
789.740784	830.100000
789.776917	820.800000
789.813110	811.100000
789.849304	826.300000
789.885498	826.400000
789.921692	840.100000
789.957886	842.900000
789.994019	834.500000
790.030212	816.200000
790.066406	823.800000
790.102539	831.800000
790.138733	841.400000
790.174927	835.600000
790.211060	839.100000
790.247253	823.000000
790.283386	817.400000
790.319580	820.600000
790.355774	822.300000
790.391907	820.400000
790.428101	829.100000
790.464294	822.500000
790.500427	816.000000
790.536621	794.700000
790.572754	805.000000
790.608887	810.700000
790.645081	820.700000
790.681274	820.600000
790.717346	803.000000
790.753540	791.800000
790.789734	789.500000
790.825867	789.400000
790.862000	795.800000
790.898132	803.000000
790.934265	788.400000
790.970459	782.800000
791.006592	790.200000
791.042725	788.000000
791.078918	787.800000
791.114990	799.100000
791.151184	803.400000
791.187317	805.400000
791.223389	806.100000
791.259583	793.200000
791.295715	806.000000
791.331848	813.100000
791.367981	819.200000
791.404114	809.500000
791.440247	798.000000
791.476379	799.300000
791.512451	788.400000
791.548584	794.400000
791.584778	795.900000
791.620850	813.900000
791.656982	813.000000
791.693115	801.000000
791.729187	790.800000
791.765381	798.900000
791.801514	805.900000
791.837585	812.600000
791.873718	813.400000
791.909851	801.800000
791.945923	803.100000
791.982056	779.600000
792.018188	783.700000
792.054260	789.000000
792.090393	788.200000
792.126465	778.000000
792.162598	777.900000
792.198669	769.400000
792.234741	769.100000
792.270874	768.600000
792.307007	758.600000
792.343079	760.600000
792.379150	766.200000
792.415283	755.200000
792.451355	745.300000
792.487488	738.600000
792.523560	754.700000
792.559631	754.600000
792.595764	742.300000
792.631836	715.800000
792.667908	687.500000
792.703979	677.700000
792.740051	707.600000
792.776184	762.100000
792.812256	800.000000
792.848328	813.500000
792.884399	819.100000
792.920471	818.700000
792.956543	817.000000
792.992615	819.800000
793.028748	829.100000
793.064758	840.300000
793.100830	847.100000
793.136963	841.600000
793.172974	845.500000
793.209045	839.600000
793.245178	845.100000
793.281189	843.800000
793.317261	854.700000
793.353271	847.400000
793.389404	864.100000
793.425476	845.800000
793.461487	836.300000
793.497559	834.100000
793.533630	851.400000
793.569641	846.200000
793.605713	841.300000
793.641785	834.300000
793.677795	845.600000
793.713867	835.000000
793.749878	844.800000
793.785950	861.900000
793.822021	865.800000
793.858032	835.100000
793.894104	843.600000
793.930176	834.500000
793.966187	848.300000
794.002258	842.900000
794.038269	858.100000
794.074280	845.700000
794.110352	861.700000
794.146423	833.400000
794.182373	822.600000
794.218445	817.700000
794.254517	824.800000
794.290466	822.400000
794.326538	829.600000
794.362549	826.000000
794.398560	820.400000
794.434631	811.600000
794.470581	801.000000
794.506653	806.000000
794.542664	815.100000
794.578674	825.800000
794.614685	819.700000
794.650757	809.400000
794.686707	810.500000
794.722778	813.100000
794.758789	827.500000
794.794739	842.100000
794.830811	853.300000
794.866821	857.300000
794.902771	847.300000
794.938843	831.100000
794.974792	839.000000
795.010803	849.800000
795.046814	851.500000
795.082825	843.200000
795.118835	842.300000
795.154846	820.300000
795.190796	818.600000
795.226807	817.700000
795.262817	831.500000
795.298767	830.600000
795.334778	831.800000
795.370850	817.600000
795.406799	826.400000
795.442810	820.500000
795.478821	825.500000
795.514709	827.600000
795.550720	849.700000
795.586670	820.800000
795.622681	818.400000
795.658691	816.800000
795.694641	827.900000
795.730652	820.800000
795.766663	831.800000
795.802551	841.800000
795.838562	846.400000
795.874573	824.000000
795.910522	826.200000
795.946472	829.000000
795.982483	838.900000
796.018433	839.700000
796.054382	847.700000
796.090393	829.000000
796.126282	823.300000
796.162292	817.000000
796.198242	826.300000
796.234192	827.600000
796.270203	830.900000
796.306091	830.800000
796.342041	834.400000
796.378052	818.000000
796.413940	825.800000
796.449951	835.500000
796.485901	834.900000
796.521790	837.700000
796.557800	840.000000
796.593689	834.200000
796.629639	823.900000
796.665649	821.100000
796.701599	824.000000
796.737488	833.800000
796.773437	834.600000
796.809387	840.600000
796.845337	832.400000
796.881287	824.300000
796.917175	814.900000
796.953125	822.700000
796.989075	837.600000
797.024963	836.400000
797.060913	821.500000
797.096863	815.200000
797.132751	810.800000
797.168701	811.800000
797.204590	814.200000
797.240540	825.400000
797.276489	820.800000
797.312439	814.700000
797.348328	796.300000
797.384277	790.700000
797.420166	800.200000
797.456055	799.300000
797.492004	798.900000
797.527893	809.200000
797.563843	796.600000
797.599731	783.800000
797.635620	781.400000
797.671570	797.500000
797.707520	806.800000
797.743347	803.700000
797.779297	799.300000
797.815125	783.600000
797.851074	773.600000
797.887024	775.700000
797.922913	783.000000
797.958801	794.400000
797.994690	782.900000
798.030579	783.200000
798.066467	773.000000
798.102356	764.400000
798.138245	764.100000
798.174133	766.700000
798.210083	780.900000
798.245911	782.900000
798.281799	777.500000
798.317749	768.600000
798.353577	762.500000
798.389465	763.700000
798.425293	769.900000
798.461243	768.900000
798.497131	772.200000
798.532959	758.500000
798.568848	756.600000
798.604736	745.500000
798.640564	740.200000
798.676453	741.200000
798.712402	749.400000
798.748230	756.800000
798.784119	749.300000
798.820007	745.100000
798.855835	747.000000
798.891724	744.300000
798.927551	745.800000
798.963379	748.000000
798.999268	743.400000
799.035095	729.600000
799.070984	720.200000
799.106873	720.000000
799.142700	739.000000
799.178528	733.700000
799.214417	734.100000
799.250244	730.000000
799.286133	722.600000
799.321960	730.000000
799.357788	720.600000
799.393677	720.600000
799.429504	725.500000
799.465332	720.600000
799.501221	721.400000
799.537048	717.900000
799.572876	714.800000
799.608704	721.900000
799.644531	732.500000
799.680359	727.600000
799.716248	735.100000
799.752014	735.500000
799.787903	724.500000
799.823730	720.000000
799.859558	715.900000
799.895386	725.200000
799.931213	727.500000
799.967041	721.200000
800.002869	714.700000
800.038696	725.200000
800.074463	716.100000
800.110352	728.300000
800.146179	718.500000
800.181946	721.100000
800.217773	716.500000
800.253540	709.600000
800.289429	702.800000
800.325256	709.900000
800.361023	706.100000
800.396851	714.900000
800.432678	704.300000
800.468445	703.700000
800.504272	701.300000
800.540100	691.500000
800.575867	694.800000
800.611694	703.300000
800.647461	693.400000
800.683289	696.100000
800.719116	697.000000
800.754883	688.500000
800.790649	686.400000
800.826477	688.200000
800.862244	699.700000
800.898071	680.800000
800.933838	677.100000
800.969604	672.200000
801.005432	666.600000
801.041199	672.800000
801.076965	674.700000
801.112793	664.900000
801.148560	661.400000
801.184326	665.800000
801.220154	663.800000
801.255859	651.700000
801.291687	657.100000
801.327454	654.800000
801.363281	654.800000
801.398987	646.100000
801.434814	647.900000
801.470520	657.900000
801.506287	649.600000
801.542114	639.600000
801.577820	641.400000
801.613647	640.600000
801.649414	642.200000
801.685120	643.600000
801.720886	639.800000
801.756714	633.400000
801.792419	629.300000
801.828186	624.800000
801.863892	635.000000
801.899719	628.000000
801.935486	624.500000
801.971252	630.000000
802.006958	631.300000
802.042725	626.700000
802.078430	626.800000
802.114197	620.100000
802.149963	633.900000
802.185669	617.800000
802.221436	621.400000
802.257202	627.700000
802.292908	627.900000
802.328674	634.200000
802.364441	629.400000
802.400146	628.200000
802.435913	628.600000
802.471558	618.000000
802.507324	614.400000
802.543091	609.900000
802.578796	625.100000
802.614502	623.500000
802.650269	623.200000
802.685974	610.500000
802.721741	617.400000
802.757446	624.000000
802.793152	629.400000
802.828918	632.100000
802.864624	618.300000
802.900330	616.100000
802.936035	618.300000
802.971802	623.200000
803.007446	616.800000
803.043213	612.400000
803.078857	617.600000
803.114624	600.100000
803.150330	600.600000
803.185974	593.300000
803.221741	600.400000
803.257446	613.000000
803.293152	613.000000
803.328857	598.100000
803.364563	592.400000
803.400208	587.400000
803.435974	588.600000
803.471680	588.500000
803.507324	591.700000
803.543030	600.500000
803.578735	596.400000
803.614441	586.800000
803.650146	593.700000
803.685791	579.300000
803.721497	577.200000
803.757202	572.600000
803.792847	583.600000
803.828552	576.000000
803.864258	571.300000
803.899902	568.600000
803.935608	562.000000
803.971313	567.200000
804.006958	565.800000
804.042664	561.000000
804.078308	571.200000
804.113953	557.100000
804.149658	562.200000
804.185364	553.500000
804.221008	569.500000
804.256714	554.100000
804.292297	556.800000
804.328003	552.200000
804.363708	548.100000
804.399292	546.400000
804.434998	543.000000
804.470703	543.600000
804.506287	553.500000
804.541992	547.100000
804.577637	546.600000
804.613281	535.600000
804.648926	536.300000
804.684570	542.800000
804.720215	537.900000
804.755920	537.200000
804.791565	538.400000
804.827209	539.100000
804.862854	531.600000
804.898437	524.200000
804.934143	531.200000
804.969788	527.600000
805.005371	532.400000
805.041077	526.100000
805.076721	519.700000
805.112305	516.700000
805.147949	517.400000
805.183655	517.700000
805.219238	524.700000
805.254883	515.000000
805.290466	516.300000
805.326111	518.000000
805.361755	508.700000
805.397400	506.400000
805.432983	511.800000
805.468628	516.500000
805.504211	521.200000
805.539856	518.400000
805.575500	515.400000
805.611084	506.600000
805.646729	505.100000
805.682373	508.500000
805.717957	513.200000
805.753601	513.000000
805.789246	494.600000
805.824768	503.300000
805.860413	508.400000
805.895996	500.400000
805.931641	497.800000
805.967224	510.100000
806.002869	502.500000
806.038452	509.100000
806.074036	501.900000
806.109619	488.800000
806.145264	488.200000
806.180847	492.800000
806.216431	491.300000
806.252014	490.500000
806.287659	487.000000
806.323181	499.100000
806.358826	489.900000
806.394409	477.600000
806.429993	482.500000
806.465576	496.300000
806.501160	483.300000
806.536743	470.600000
806.572327	476.900000
806.607910	474.400000
806.643494	473.100000
806.679077	471.700000
806.714661	474.700000
806.750244	473.200000
806.785828	464.600000
806.821350	462.700000
806.856934	467.000000
806.892517	461.200000
806.928101	458.200000
806.963684	460.700000
806.999268	463.300000
807.034790	445.800000
807.070374	455.700000
807.105896	450.800000
807.141479	452.400000
807.177063	459.500000
807.212585	447.800000
807.248169	444.000000
807.283752	451.400000
807.319275	445.400000
807.354858	445.300000
807.390381	438.300000
807.425903	436.300000
807.461487	434.900000
807.497070	428.700000
807.532593	430.600000
807.568115	431.500000
807.603699	429.500000
807.639221	426.100000
807.674744	428.400000
807.710266	434.700000
807.745850	429.300000
807.781372	428.000000
807.816895	421.600000
807.852417	426.200000
807.888000	420.200000
807.923523	421.500000
807.959045	419.100000
807.994629	415.200000
808.030090	410.400000
808.065613	414.000000
808.101135	419.400000
808.136658	419.700000
808.172241	413.500000
808.207764	413.100000
808.243225	407.000000
808.278809	408.500000
808.314270	412.500000
808.349792	401.300000
808.385315	401.000000
808.420837	405.700000
808.456360	413.200000
808.491882	413.900000
808.527344	404.900000
808.562866	411.800000
808.598389	405.500000
808.633850	404.100000
808.669434	398.900000
808.704895	404.900000
808.740417	409.300000
808.775940	401.800000
808.811462	398.800000
808.846924	395.000000
808.882385	393.600000
808.917847	394.000000
808.953369	399.200000
808.988892	391.400000
809.024353	397.000000
809.059875	395.300000
809.095398	389.900000
809.130798	384.300000
809.166321	386.900000
809.201843	381.600000
809.237305	384.300000
809.272766	388.400000
809.308228	376.800000
809.343750	378.400000
809.379211	383.300000
809.414734	379.800000
809.450134	388.700000
809.485657	374.600000
809.521118	381.100000
809.556580	376.100000
809.592102	375.800000
809.627502	370.900000
809.663025	372.800000
809.698486	372.100000
809.733887	368.600000
809.769409	369.400000
809.804871	358.400000
809.840271	360.500000
809.875793	364.100000
809.911194	367.300000
809.946655	357.200000
809.982178	356.600000
810.017639	359.800000
810.053040	358.200000
810.088501	354.800000
810.123901	357.200000
810.159424	350.600000
810.194885	347.200000
810.230286	350.100000
810.265747	349.700000
810.301208	344.700000
810.336609	350.600000
810.372070	342.600000
810.407532	345.100000
810.442932	341.600000
810.478394	347.800000
810.513794	342.400000
810.549255	341.400000
810.584717	336.600000
810.620117	335.200000
810.655518	339.000000
810.690979	333.400000
810.726379	334.900000
810.761841	328.300000
810.797302	326.200000
810.832642	326.400000
810.868103	333.800000
810.903564	325.600000
810.938904	330.200000
810.974365	318.800000
811.009827	320.800000
811.045166	319.200000
811.080627	313.800000
811.115967	319.400000
811.151428	322.200000
811.186829	318.200000
811.222229	320.300000
811.257629	313.500000
811.293091	318.400000
811.328430	326.000000
811.363892	319.600000
811.399292	320.200000
811.434631	313.500000
811.470093	316.700000
811.505493	310.800000
811.540833	309.200000
811.576294	312.600000
811.611694	310.500000
811.647034	308.200000
811.682434	306.700000
811.717773	309.900000
811.753235	312.400000
811.788635	306.500000
811.823975	303.200000
811.859375	310.300000
811.894775	299.900000
811.930115	301.800000
811.965515	299.500000
812.000916	301.300000
812.036255	298.600000
812.071655	303.900000
812.106995	294.000000
812.142395	295.700000
812.177795	299.700000
812.213196	298.200000
812.248474	295.900000
812.283875	290.900000
812.319214	292.800000
812.354614	292.900000
812.390015	287.700000
812.425293	287.400000
812.460693	288.000000
812.496094	285.100000
812.531433	282.200000
812.566772	282.100000
812.602173	284.600000
812.637451	284.900000
812.672852	281.400000
812.708191	282.800000
812.743530	277.600000
812.778931	273.200000
812.814270	276.700000
812.849609	280.700000
812.884949	279.300000
812.920227	269.500000
812.955627	283.400000
812.990967	276.000000
813.026306	272.200000
813.061646	263.600000
813.096985	261.700000
813.132324	260.500000
813.167664	264.500000
813.203003	266.300000
813.238281	257.400000
813.273682	256.800000
813.308960	257.500000
813.344299	257.400000
813.379639	264.600000
813.414978	256.100000
813.450256	258.000000
813.485596	257.700000
813.520874	255.700000
813.556213	256.400000
813.591614	261.600000
813.626831	250.000000
813.662170	257.600000
813.697510	261.300000
813.732788	250.300000
813.768127	254.500000
813.803467	254.100000
813.838745	251.100000
813.874084	254.600000
813.909363	253.300000
813.944641	253.100000
813.979980	244.000000
814.015320	249.100000
814.050598	246.200000
814.085876	249.500000
814.121155	245.300000
814.156494	245.100000
814.191772	247.000000
814.227051	242.800000
814.262390	245.100000
814.297668	244.000000
814.332947	246.100000
814.368225	238.800000
814.403564	242.500000
814.438782	239.800000
814.474121	242.000000
814.509338	236.400000
814.544617	244.100000
814.579956	237.900000
814.615173	248.200000
814.650513	240.800000
814.685791	237.700000
814.721008	239.100000
814.756348	238.200000
814.791626	234.500000
814.826843	236.700000
814.862122	236.500000
814.897400	234.100000
814.932678	235.300000
814.967957	235.300000
815.003235	234.800000
815.038452	229.600000
815.073730	228.200000
815.108948	238.100000
815.144226	234.400000
815.179504	238.800000
815.214722	227.000000
815.250000	224.500000
815.285278	232.200000
815.320496	227.600000
815.355774	228.900000
815.391052	230.100000
815.426270	228.100000
815.461487	226.800000
815.496765	224.000000
815.531982	222.600000
815.567261	227.600000
815.602539	232.000000
815.637695	229.700000
815.672974	229.600000
815.708191	230.000000
815.743408	229.600000
815.778687	225.400000
815.813904	231.000000
815.849121	221.000000
815.884399	220.900000
815.919556	222.100000
815.954834	223.000000
815.990051	225.400000
816.025269	227.900000
816.060486	221.400000
816.095703	219.900000
816.130920	224.900000
816.166199	219.900000
816.201416	224.100000
816.236572	226.800000
816.271851	222.300000
816.307007	225.900000
816.342224	219.500000
816.377441	221.200000
816.412659	215.900000
816.447876	223.700000
816.483093	219.600000
816.518250	220.500000
816.553467	220.100000
816.588745	223.200000
816.623901	217.600000
816.659119	212.500000
816.694275	219.300000
816.729492	215.600000
816.764709	246.700000
816.799927	215.100000
816.835083	218.600000
816.870300	213.200000
816.905457	217.800000
816.940674	219.700000
816.975830	215.600000
817.010986	214.600000
817.046204	216.300000
817.081421	213.600000
817.116577	211.800000
817.151733	221.600000
817.186951	220.500000
817.222107	219.300000
817.257324	219.100000
817.292419	219.100000
817.327637	211.900000
817.362854	215.400000
817.398010	210.400000
817.433167	215.300000
817.468323	212.600000
817.503479	214.200000
817.538635	223.400000
817.573853	218.100000
817.608948	214.400000
817.644165	214.200000
817.679321	211.000000
817.714478	213.300000
817.749634	214.700000
817.784790	223.800000
817.819946	219.700000
817.855103	207.300000
817.890198	212.600000
817.925415	207.300000
817.960571	215.800000
817.995667	216.400000
818.030823	214.900000
818.066040	212.000000
818.101135	215.100000
818.136292	212.500000
818.171448	208.900000
818.206543	213.200000
818.241699	216.300000
818.276855	214.100000
818.311951	213.900000
818.347107	210.200000
818.382263	218.900000
818.417358	219.100000
818.452515	219.600000
818.487610	219.800000
818.522766	212.900000
818.557922	221.300000
818.593018	216.800000
818.628113	215.100000
818.663269	212.300000
818.698364	215.000000
818.733521	213.100000
818.768677	214.100000
818.803711	211.900000
818.838867	209.400000
818.874023	213.400000
818.909058	209.400000
818.944214	210.500000
818.979370	213.600000
819.014404	215.700000
819.049561	210.600000
819.084595	215.500000
819.119751	208.500000
819.154846	215.100000
819.189941	211.200000
819.225037	209.400000
819.260193	204.100000
819.295227	206.300000
819.330322	204.300000
819.365479	206.000000
819.400513	239.800000
819.435608	204.500000
819.470764	201.700000
819.505798	206.400000
819.540894	207.600000
819.575989	206.100000
819.611084	212.000000
819.646179	215.500000
819.681213	211.100000
819.716309	207.300000
819.751404	209.300000
819.786438	214.100000
819.821533	206.200000
819.856628	210.800000
819.891663	212.500000
819.926758	218.400000
819.961853	215.100000
819.996887	207.300000
820.031982	213.000000
820.067017	207.800000
820.102112	242.400000
820.137207	207.900000
820.172302	221.200000
820.207275	204.700000
820.242371	206.800000
820.277405	206.000000
820.312500	209.700000
820.347534	211.500000
820.382568	213.500000
820.417664	207.300000
820.452759	207.600000
820.487732	206.000000
820.522827	208.500000
820.557861	204.600000
820.592896	206.800000
820.627930	206.900000
820.662964	205.300000
820.698059	209.600000
820.733093	206.500000
820.768127	210.300000
820.803162	208.200000
820.838196	205.500000
820.873230	207.500000
820.908264	210.300000
820.943298	207.100000
820.978333	213.000000
821.013367	208.200000
821.048401	212.000000
821.083435	211.500000
821.118469	203.600000
821.153503	211.800000
821.188477	210.100000
821.223511	202.700000
821.258484	209.700000
821.293579	209.400000
821.328613	203.700000
821.363647	206.800000
821.398621	204.600000
821.433655	205.700000
821.468628	220.000000
821.503662	205.800000
821.538696	211.300000
821.573669	203.500000
821.608704	212.000000
821.643677	205.500000
821.678650	211.100000
821.713684	211.000000
821.748718	207.600000
821.783691	206.700000
821.818726	208.000000
821.853638	207.700000
821.888672	207.100000
821.923706	206.700000
821.958618	207.500000
821.993652	205.500000
822.028687	210.900000
822.063599	212.300000
822.098633	209.500000
822.133667	203.200000
822.168579	207.400000
822.203613	209.200000
822.238586	204.700000
822.273560	209.800000
822.308533	205.300000
822.343567	203.400000
822.378479	205.200000
822.413452	205.700000
822.448425	204.400000
822.483398	211.700000
822.518372	209.900000
822.553345	203.400000
822.588318	212.800000
822.623291	206.100000
822.658203	205.200000
822.693237	206.800000
822.728210	203.600000
822.763123	207.100000
822.798096	203.500000
822.833069	207.400000
822.867981	206.900000
822.902954	208.800000
822.937927	209.400000
822.972900	215.000000
823.007874	200.800000
823.042725	211.400000
823.077698	214.300000
823.112671	203.800000
823.147583	204.000000
823.182556	209.000000
823.217529	208.200000
823.252441	205.000000
823.287415	213.600000
823.322388	209.900000
823.357239	205.100000
823.392212	211.500000
823.427185	212.000000
823.462097	202.800000
823.497009	207.900000
823.531982	204.000000
823.566895	205.500000
823.601807	204.000000
823.636719	204.100000
823.671631	207.600000
823.706604	206.000000
823.741455	208.000000
823.776428	199.900000
823.811340	208.200000
823.846252	212.400000
823.881165	210.600000
823.916138	206.000000
823.950989	212.700000
823.985901	205.100000
824.020813	205.200000
824.055725	205.600000
824.090637	201.000000
824.125610	208.900000
824.160461	207.700000
824.195374	208.200000
824.230225	208.300000
824.265198	201.000000
824.300110	202.400000
824.334961	213.200000
824.369873	198.300000
824.404785	207.700000
824.439636	210.000000
824.474548	201.200000
824.509460	197.800000
824.544312	210.100000
824.579224	206.400000
824.614075	207.600000
824.648987	203.900000
824.683899	204.700000
824.718811	202.100000
824.753662	209.900000
824.788574	208.300000
824.823364	206.600000
824.858276	201.900000
824.893188	209.300000
824.928040	207.100000
824.962952	206.800000
824.997803	207.900000
825.032654	206.200000
825.067566	206.800000
825.102417	204.600000
825.137268	204.100000
825.172119	204.200000
825.206970	202.400000
825.241882	203.300000
825.276733	200.900000
825.311646	202.600000
825.346436	200.000000
825.381348	198.900000
825.416138	204.800000
825.450989	200.500000
825.485901	197.800000
825.520691	196.900000
825.555542	198.300000
825.590454	202.500000
825.625244	199.000000
825.660095	206.900000
825.695007	205.300000
825.729797	201.000000
825.764648	199.300000
825.799438	201.400000
825.834290	204.700000
825.869202	195.800000
825.903992	204.300000
825.938843	198.600000
825.973694	197.800000
826.008484	209.000000
826.043335	199.300000
826.078186	193.600000
826.112976	205.600000
826.147827	203.400000
826.182678	208.500000
826.217468	193.500000
826.252319	206.000000
826.287109	196.400000
826.321899	203.800000
826.356750	199.500000
826.391541	194.900000
826.426392	202.500000
826.461182	199.600000
826.495972	195.400000
826.530823	192.800000
826.565613	199.100000
826.600403	194.500000
826.635254	202.500000
826.670044	192.000000
826.704834	191.900000
826.739685	194.800000
826.774475	200.500000
826.809265	198.500000
826.844055	196.000000
826.878906	202.800000
826.913635	199.800000
826.948425	199.700000
826.983215	201.200000
827.018005	199.700000
827.052856	198.000000
827.087585	199.100000
827.122375	191.500000
827.157227	196.000000
827.191956	209.800000
827.226746	191.400000
827.261536	199.200000
827.296265	190.100000
827.331116	195.500000
827.365906	198.400000
827.400635	194.900000
827.435425	189.100000
827.470215	201.400000
827.504944	194.800000
827.539734	200.200000
827.574463	194.000000
827.609253	203.800000
827.644043	195.000000
827.678772	199.400000
827.713562	194.000000
827.748352	195.300000
827.783081	192.000000
827.817871	196.800000
827.852600	191.900000
827.887329	195.900000
827.922119	188.700000
827.956848	198.600000
827.991638	206.300000
828.026367	197.200000
828.061157	196.200000
828.095886	195.300000
828.130615	209.200000
828.165344	188.100000
828.200073	195.500000
828.234863	193.600000
828.269592	196.600000
828.304321	198.800000
828.339111	197.900000
828.373779	192.900000
828.408569	198.200000
828.443298	199.600000
828.477966	193.800000
828.512756	196.000000
828.547424	193.400000
828.582214	194.300000
828.616943	195.000000
828.651672	194.200000
828.686340	199.900000
828.721130	193.500000
828.755798	196.900000
828.790527	194.900000
828.825256	197.000000
828.859924	197.100000
828.894714	200.500000
828.929443	202.600000
828.964111	194.500000
828.998840	197.800000
829.033569	193.900000
829.068237	194.200000
829.102966	194.700000
829.137634	196.400000
829.172363	197.000000
829.207092	197.000000
829.241821	192.300000
829.276489	190.400000
829.311157	196.400000
829.345825	194.500000
829.380554	199.700000
829.415283	194.200000
829.449951	191.200000
829.484619	204.100000
829.519348	201.200000
829.554016	197.000000
829.588745	196.300000
829.623413	192.100000
829.658081	204.500000
829.692749	193.000000
829.727417	198.100000
829.762146	197.000000
829.796814	191.600000
829.831482	195.300000
829.866150	194.700000
829.900879	193.600000
829.935486	196.100000
829.970154	192.700000
830.004883	204.000000
830.039490	197.100000
830.074219	191.200000
830.108887	196.600000
830.143494	193.100000
830.178223	191.900000
830.212891	193.400000
830.247498	194.400000
830.282166	199.800000
830.316772	200.700000
830.351501	192.700000
830.386169	196.200000
830.420776	193.200000
830.455444	196.200000
830.490112	191.400000
830.524719	189.400000
830.559387	196.600000
830.594055	197.100000
830.628662	195.900000
830.663330	195.700000
830.697998	202.700000
830.732605	195.100000
830.767273	196.000000
830.801941	194.000000
830.836487	204.300000
830.871155	196.700000
830.905762	197.600000
830.940430	191.300000
830.975098	193.200000
831.009644	194.600000
831.044312	203.500000
831.078979	196.300000
831.113525	190.800000
831.148193	195.200000
831.182861	193.900000
831.217407	197.500000
831.252075	208.400000
831.286621	192.900000
831.321289	193.000000
831.355896	194.400000
831.390564	201.000000
831.425110	194.500000
831.459778	202.200000
831.494324	206.400000
831.528931	197.500000
831.563599	200.300000
831.598145	191.100000
831.632751	194.300000
831.667419	194.800000
831.701965	197.000000
831.736572	198.000000
831.771179	191.200000
831.805786	193.200000
831.840393	200.900000
831.874939	189.800000
831.909546	199.300000
831.944153	188.800000
831.978760	195.800000
832.013306	193.100000
832.047913	200.400000
832.082458	202.600000
832.117065	192.100000
832.151672	204.000000
832.186218	198.000000
832.220825	198.400000
832.255432	189.600000
832.289978	193.700000
832.324585	197.800000
832.359192	197.100000
832.393677	196.000000
832.428284	197.000000
832.462830	195.200000
832.497437	195.800000
832.531982	200.400000
832.566589	193.100000
832.601135	197.400000
832.635681	187.900000
832.670227	196.100000
832.704773	201.800000
832.739380	197.500000
832.773926	195.000000
832.808472	193.300000
832.843079	193.700000
832.877563	197.600000
832.912170	193.400000
832.946716	191.000000
832.981201	198.500000
833.015808	199.900000
833.050293	194.500000
833.084839	192.500000
833.119446	193.700000
833.153992	198.500000
833.188477	194.800000
833.223022	192.300000
833.257568	196.900000
833.292114	201.700000
833.326660	205.100000
833.361145	193.200000
833.395691	189.600000
833.430237	194.300000
833.464783	198.300000
833.499329	193.600000
833.533875	191.900000
833.568359	198.600000
833.602905	200.500000
833.637390	200.600000
833.671875	194.300000
833.706421	194.200000
833.740906	193.300000
833.775452	187.900000
833.809998	195.400000
833.844482	201.900000
833.879028	196.600000
833.913513	193.100000
833.947998	198.800000
833.982544	191.900000
834.017090	193.400000
834.051514	187.100000
834.086060	199.300000
834.120544	194.300000
834.155029	198.400000
834.189575	193.600000
834.223999	197.400000
834.258545	195.900000
834.293030	195.900000
834.327515	194.100000
834.362000	193.200000
834.396545	197.000000
834.430969	194.600000
834.465454	198.700000
834.500000	189.900000
834.534424	196.700000
834.568970	188.300000
834.603455	189.100000
834.637878	191.700000
834.672363	195.900000
834.706909	195.300000
834.741333	196.000000
834.775818	189.500000
834.810242	191.300000
834.844727	194.800000
834.879211	194.700000
834.913635	195.500000
834.948181	197.500000
834.982666	195.500000
835.017090	193.900000
835.051575	197.600000
835.086060	193.500000
835.120483	197.100000
835.154907	198.600000
835.189331	194.500000
835.223816	197.600000
835.258301	190.500000
835.292786	192.200000
835.327209	198.400000
835.361694	192.800000
835.396057	193.100000
835.430542	197.700000
835.465027	194.900000
835.499390	194.500000
835.533875	218.800000
835.568359	193.900000
835.602722	189.400000
835.637207	197.500000
835.671692	190.200000
835.706055	210.600000
835.740540	195.600000
835.774902	197.900000
835.809387	194.900000
835.843811	191.000000
835.878235	199.400000
835.912659	190.800000
835.947083	192.400000
835.981506	195.800000
836.015930	189.300000
836.050354	198.500000
836.084778	202.500000
836.119202	198.100000
836.153625	209.500000
836.187988	191.700000
836.222473	194.800000
836.256897	195.300000
836.291260	195.200000
836.325684	198.100000
836.360046	194.100000
836.394470	194.200000
836.428894	201.000000
836.463318	194.300000
836.497681	198.900000
836.532104	200.700000
836.566467	197.300000
836.600891	193.400000
836.635315	202.400000
836.669678	196.100000
836.704102	199.200000
836.738525	196.000000
836.772888	190.600000
836.807251	192.900000
836.841675	198.000000
836.876038	190.400000
836.910461	193.100000
836.944763	197.500000
836.979187	192.500000
837.013611	199.500000
837.047974	190.400000
837.082336	204.900000
837.116699	198.700000
837.151062	196.000000
837.185486	191.000000
837.219849	192.000000
837.254211	200.000000
837.288574	195.000000
837.322937	191.500000
837.357300	187.800000
837.391663	205.200000
837.426086	199.600000
837.460388	195.800000
837.494751	199.000000
837.529114	193.300000
837.563477	200.900000
837.597839	196.800000
837.632141	194.800000
837.666565	193.800000
837.700928	198.100000
837.735229	197.800000
837.769592	198.700000
837.803955	197.900000
837.838257	193.500000
837.872620	193.400000
837.906982	203.100000
837.941284	196.000000
837.975647	196.600000
838.010010	200.200000
838.044312	194.700000
838.078674	193.100000
838.112976	196.900000
838.147339	197.500000
838.181702	196.100000
838.216003	200.400000
838.250366	197.600000
838.284668	196.300000
838.318970	190.000000
838.353333	192.800000
838.387634	195.000000
838.421936	195.200000
838.456299	197.400000
838.490601	200.300000
838.524902	199.600000
838.559265	198.500000
838.593567	198.500000
838.627869	190.600000
838.662170	196.400000
838.696472	190.800000
838.730774	193.300000
838.765137	197.900000
838.799377	184.300000
838.833740	195.700000
838.868042	200.600000
838.902283	189.800000
838.936646	201.200000
838.970947	196.100000
839.005188	200.100000
839.039551	190.200000
839.073792	200.300000
839.108093	194.800000
839.142395	202.700000
839.176697	191.300000
839.210937	196.500000
839.245300	204.300000
839.279541	190.700000
839.313843	194.000000
839.348145	198.400000
839.382385	200.000000
839.416687	198.400000
839.450989	198.400000
839.485229	193.700000
839.519531	193.400000
839.553833	199.200000
839.588013	195.900000
839.622314	196.100000
839.656555	197.100000
839.690857	194.500000
839.725159	191.300000
839.759460	193.600000
839.793640	193.300000
839.827942	193.900000
839.862183	191.800000
839.896423	195.400000
839.930725	206.100000
839.964966	203.500000
839.999207	199.700000
840.033508	201.600000
840.067688	192.400000
840.101990	202.600000
840.136230	195.000000
840.170471	202.800000
840.204712	192.400000
840.238953	193.200000
840.273193	195.400000
840.307434	198.900000
840.341736	193.500000
840.375916	191.100000
840.410217	192.800000
840.444397	200.200000
840.478638	198.900000
840.512878	199.800000
840.547119	196.500000
840.581360	199.100000
840.615601	203.900000
840.649780	205.900000
840.684021	195.200000
840.718262	203.600000
840.752441	202.600000
840.786682	197.700000
840.820862	194.900000
840.855103	205.300000
840.889343	194.700000
840.923584	200.700000
840.957764	196.400000
840.992004	197.700000
841.026184	206.900000
841.060425	196.000000
841.094666	191.000000
841.128845	198.900000
841.163025	195.400000
841.197266	197.900000
841.231445	194.500000
841.265686	197.800000
841.299866	191.700000
841.334045	204.200000
841.368286	195.000000
841.402405	203.000000
841.436646	197.500000
841.470825	194.500000
841.505005	195.200000
841.539185	192.200000
841.573425	193.100000
841.607544	196.300000
841.641785	195.200000
841.675964	192.800000
841.710144	196.900000
841.744324	194.400000
841.778503	194.900000
841.812683	193.000000
841.846863	201.500000
841.881042	202.100000
841.915222	192.900000
841.949402	207.700000
841.983521	191.200000
842.017700	195.900000
842.051880	198.300000
842.086060	198.400000
842.120239	196.700000
842.154419	192.400000
842.188538	198.100000
842.222717	192.900000
842.256897	204.500000
842.291016	194.300000
842.325195	197.400000
842.359375	203.900000
842.393494	203.100000
842.427673	196.100000
842.461853	198.800000
842.495911	203.000000
842.530090	196.900000
842.564209	194.200000
842.598389	198.600000
842.632568	195.000000
842.666626	197.800000
842.700806	192.800000
842.734985	194.400000
842.769043	196.400000
842.803223	194.400000
842.837402	194.300000
842.871460	192.700000
842.905640	204.600000
842.939697	193.600000
842.973877	196.300000
843.007996	200.000000
843.042175	204.800000
843.076233	193.800000
843.110413	198.900000
843.144470	203.300000
843.178589	200.600000
843.212769	194.300000
843.246826	201.100000
843.280945	193.000000
843.315125	196.000000
843.349182	192.300000
843.383301	202.100000
843.417419	205.500000
843.451538	197.900000
843.485657	193.400000
843.519714	195.800000
843.553833	195.300000
843.587952	195.700000
843.622070	193.400000
843.656128	200.900000
843.690247	192.900000
843.724304	196.800000
843.758423	197.700000
843.792542	194.200000
843.826599	196.200000
843.860718	193.400000
843.894836	188.500000
843.928894	196.300000
843.963013	196.100000
843.997070	193.000000
844.031128	189.900000
844.065247	199.900000
844.099304	199.500000
844.133362	196.800000
844.167480	199.900000
844.201599	201.700000
844.235596	198.700000
844.269714	198.000000
844.303711	197.300000
844.337830	190.300000
844.371948	197.500000
844.405945	195.400000
844.440063	194.200000
844.474121	207.700000
844.508118	194.700000
844.542236	195.300000
844.576294	197.200000
844.610352	191.600000
844.644409	197.000000
844.678406	189.900000
844.712524	200.500000
844.746582	200.400000
844.780640	196.400000
844.814636	194.400000
844.848755	206.600000
844.882751	194.000000
844.916809	198.900000
844.950867	196.900000
844.984863	204.300000
845.018921	192.900000
845.052979	193.400000
845.086975	195.100000
845.121033	190.900000
845.155090	191.700000
845.189087	201.500000
845.223145	194.100000
845.257141	197.700000
845.291199	197.700000
845.325256	201.900000
845.359253	197.600000
845.393250	208.600000
845.427307	195.000000
845.461304	197.800000
845.495361	195.600000
845.529358	203.100000
845.563354	194.800000
845.597412	193.700000
845.631409	205.200000
845.665405	201.900000
845.699463	200.500000
845.733459	194.600000
845.767456	205.400000
845.801453	195.200000
845.835449	200.400000
845.869446	199.100000
845.903503	200.200000
845.937439	191.000000
845.971497	203.600000
846.005493	190.700000
846.039429	200.500000
846.073486	204.400000
846.107483	196.300000
846.141418	194.300000
846.175476	198.100000
846.209473	200.800000
846.243408	193.100000
846.277405	197.600000
846.311401	193.800000
846.345337	196.400000
846.379395	202.500000
846.413330	193.600000
846.447327	206.100000
846.481323	192.400000
846.515259	194.100000
846.549255	194.400000
846.583252	199.200000
846.617187	192.600000
846.651184	197.200000
846.685120	194.000000
846.719055	204.200000
846.753052	199.400000
846.786987	200.700000
846.820984	191.300000
846.854980	201.800000
846.888916	192.400000
846.922852	198.700000
846.956848	201.500000
846.990723	193.400000
847.024719	197.400000
847.058716	195.400000
847.092590	203.500000
847.126587	198.000000
847.160522	194.600000
847.194458	199.800000
847.228455	193.900000
847.262390	192.000000
847.296265	196.400000
847.330261	200.400000
847.364136	194.100000
847.398132	194.700000
847.432068	198.700000
847.466003	195.400000
847.499939	196.600000
847.533875	199.200000
847.567749	195.300000
847.601746	194.200000
847.635681	199.200000
847.669556	189.500000
847.703491	202.400000
847.737427	207.400000
847.771301	193.800000
847.805237	198.700000
847.839233	197.600000
847.873108	195.200000
847.907043	196.400000
847.940918	201.600000
847.974854	198.500000
848.008789	199.200000
848.042664	196.100000
848.076538	197.700000
848.110474	198.400000
848.144348	197.700000
848.178284	191.000000
848.212219	197.700000
848.246094	194.700000
848.279968	197.100000
848.313904	198.400000
848.347778	197.100000
848.381653	195.900000
848.415588	194.900000
848.449463	194.200000
848.483337	199.200000
848.517212	203.100000
848.551086	197.800000
848.585022	193.800000
848.618835	207.200000
848.652771	193.700000
848.686646	193.800000
848.720520	202.200000
848.754395	196.300000
848.788330	199.100000
848.822144	199.800000
848.856018	194.000000
848.889954	205.800000
848.923767	192.600000
848.957642	195.000000
848.991577	197.100000
849.025391	197.100000
849.059265	195.700000
849.093079	194.400000
849.126953	192.800000
849.160828	201.000000
849.194641	196.600000
849.228577	196.500000
849.262451	194.400000
849.296265	197.800000
849.330139	193.500000
849.364014	196.300000
849.397827	198.700000
849.431702	197.600000
849.465515	200.200000
849.499329	189.300000
849.533203	193.300000
849.567078	189.300000
849.600891	199.200000
849.634766	195.500000
849.668518	200.400000
849.702393	197.200000
849.736267	192.100000
849.770020	204.400000
849.803894	198.800000
849.837769	197.500000
849.871521	198.200000
849.905396	200.300000
849.939270	194.300000
849.973022	194.700000
850.006897	200.600000
850.040710	199.000000
850.074524	200.800000
850.108337	195.000000
850.142151	202.000000
850.175964	201.600000
850.209778	197.000000
850.243530	187.300000
850.277405	201.600000
850.311218	195.000000
850.344971	195.300000
850.378845	202.700000
850.412659	195.100000
850.446411	197.500000
850.480225	196.900000
850.514038	199.700000
850.547791	201.200000
850.581665	196.500000
850.615417	193.600000
850.649231	197.300000
850.683044	195.300000
850.716858	195.100000
850.750610	197.100000
850.784424	199.500000
850.818176	193.900000
850.851929	195.400000
850.885742	194.100000
850.919495	196.700000
850.953308	202.900000
850.987122	202.400000
851.020874	191.900000
851.054626	191.600000
851.088440	199.800000
851.122192	199.700000
851.156006	197.600000
851.189697	195.900000
851.223511	192.400000
851.257263	201.600000
851.291077	199.100000
851.324829	195.900000
851.358582	194.100000
851.392334	196.700000
851.426086	195.000000
851.459900	204.900000
851.493591	197.200000
851.527344	198.300000
851.561157	196.300000
851.594849	199.300000
851.628662	196.100000
851.662415	204.400000
851.696106	197.700000
851.729858	201.400000
851.763611	192.000000
851.797363	198.400000
851.831116	193.900000
851.864868	199.500000
851.898560	200.100000
851.932312	194.700000
851.966064	197.300000
851.999817	195.700000
852.033569	194.900000
852.067261	201.300000
852.101013	193.200000
852.134766	196.500000
852.168457	189.600000
852.202209	202.600000
852.235901	192.600000
852.269592	199.700000
852.303345	203.700000
852.337036	200.000000
852.370789	197.500000
852.404541	201.200000
852.438171	193.000000
852.471924	196.800000
852.505676	192.300000
852.539307	197.400000
852.573059	194.800000
852.606812	196.500000
852.640442	196.200000
852.674194	201.100000
852.707886	206.200000
852.741577	201.300000
852.775269	192.500000
852.809021	196.800000
852.842651	198.700000
852.876404	202.200000
852.910034	198.800000
852.943787	198.700000
852.977478	200.000000
853.011108	193.300000
853.044861	194.700000
853.078552	202.400000
853.112183	199.900000
853.145874	197.400000
853.179626	192.100000
853.213257	197.600000
853.246948	195.500000
853.280640	203.500000
853.314270	196.500000
853.347961	202.500000
853.381653	199.000000
853.415283	202.400000
853.448975	193.500000
853.482605	197.400000
853.516296	195.500000
853.549988	191.500000
853.583618	198.100000
853.617310	198.300000
853.651001	197.200000
853.684631	195.000000
853.718323	195.500000
853.751953	201.900000
853.785583	189.800000
853.819275	199.600000
853.852966	198.000000
853.886536	191.500000
853.920227	193.300000
853.953918	201.600000
853.987488	196.900000
854.021179	201.300000
854.054749	204.000000
854.088440	202.000000
854.122131	192.600000
854.155701	200.800000
854.189331	193.900000
854.223022	201.000000
854.256592	197.300000
854.290283	195.700000
854.323914	198.400000
854.357483	198.300000
854.391174	199.000000
854.424744	204.400000
854.458374	197.400000
854.492065	207.800000
854.525696	194.900000
854.559265	201.900000
854.592896	206.000000
854.626465	197.500000
854.660095	196.900000
854.693787	199.500000
854.727356	194.800000
854.760986	201.200000
854.794617	198.300000
854.828186	195.500000
854.861816	199.500000
854.895447	196.800000
854.929016	197.700000
854.962585	199.000000
854.996155	206.300000
855.029785	198.100000
855.063416	197.800000
855.097046	201.500000
855.130615	192.400000
855.164185	201.200000
855.197754	197.000000
855.231384	198.400000
855.264954	196.100000
855.298523	199.300000
855.332153	198.500000
855.365723	202.800000
855.399292	195.100000
855.432922	195.900000
855.466492	198.400000
855.500061	192.300000
855.533630	195.200000
855.567200	199.400000
855.600769	201.400000
855.634338	201.500000
855.667969	199.100000
855.701477	193.200000
855.735046	194.600000
855.768616	189.500000
855.802185	198.800000
855.835754	207.500000
855.869324	190.900000
855.902893	195.600000
855.936401	201.300000
855.969971	196.600000
856.003540	190.600000
856.037109	198.900000
856.070618	195.800000
856.104187	191.300000
856.137695	194.600000
856.171265	189.500000
856.204834	197.900000
856.238403	201.700000
856.271912	195.200000
856.305481	199.000000
856.338989	191.500000
856.372559	200.000000
856.406128	199.600000
856.439636	200.500000
856.473145	195.700000
856.506653	203.600000
856.540222	197.500000
856.573792	202.300000
856.607300	199.600000
856.640808	194.600000
856.674377	197.700000
856.707825	230.300000
856.741394	201.000000
856.774902	194.000000
856.808472	190.400000
856.841980	200.800000
856.875488	202.600000
856.908936	192.100000
856.942505	194.900000
856.976013	196.100000
857.009521	192.700000
857.043030	197.400000
857.076477	195.400000
857.110046	203.400000
857.143555	197.400000
857.177063	200.200000
857.210571	195.200000
857.244080	192.600000
857.277527	198.800000
857.311035	196.600000
857.344543	200.200000
857.378052	196.100000
857.411499	201.300000
857.445068	203.900000
857.478516	195.200000
857.512024	193.100000
857.545532	195.300000
857.578979	198.200000
857.612427	197.800000
857.645874	193.600000
857.679382	198.700000
857.712891	202.200000
857.746399	197.000000
857.779846	201.300000
857.813354	201.600000
857.846741	196.500000
857.880249	194.700000
857.913757	197.500000
857.947266	199.700000
857.980652	200.700000
858.014160	197.900000
858.047546	195.100000
858.081055	196.800000
858.114563	207.200000
858.147949	193.300000
858.181458	199.200000
858.214844	197.300000
858.248352	190.500000
858.281799	201.500000
858.315308	206.600000
858.348694	201.700000
858.382141	204.200000
858.415588	201.400000
858.449036	200.100000
858.482483	198.400000
858.515930	193.800000
858.549377	198.000000
858.582825	201.500000
858.616211	199.200000
858.649658	198.600000
858.683105	192.700000
858.716553	195.100000
858.750000	192.500000
858.783386	194.700000
858.816833	191.000000
858.850281	197.800000
858.883728	198.300000
858.917114	197.900000
858.950562	204.900000
858.983948	203.900000
859.017395	201.000000
859.050781	196.100000
859.084167	193.200000
859.117615	193.000000
859.151062	199.800000
859.184448	194.900000
859.217834	196.700000
859.251282	196.900000
859.284668	192.700000
859.318054	191.200000
859.351440	194.600000
859.384888	204.400000
859.418274	192.800000
859.451721	193.600000
859.485046	199.200000
859.518494	199.900000
859.551819	193.200000
859.585266	200.300000
859.618652	201.600000
859.652039	193.100000
859.685425	192.900000
859.718811	193.700000
859.752197	187.800000
859.785583	202.300000
859.819031	201.200000
859.852356	200.400000
859.885742	193.900000
859.919067	196.700000
859.952454	194.300000
859.985901	202.600000
860.019287	195.800000
860.052612	0.000000
860.085999	0.000000
860.119324	0.000000
860.152710	0.000000
860.186096	0.000000
860.219421	0.000000
860.252808	0.000000
860.286133	0.000000
860.319519	0.000000
860.352905	0.000000
860.386292	0.000000
860.419617	0.000000
860.452942	0.000000
860.486267	0.000000
860.519653	0.000000
860.553040	0.000000
860.586365	0.000000
860.619690	0.000000
860.653076	0.000000
860.686340	0.000000
860.719727	0.000000
860.753113	0.000000
860.786377	0.000000
860.819763	0.000000
860.853027	0.000000
860.886414	0.000000
860.919739	0.000000
860.953125	0.000000
860.986389	0.000000
861.019714	0.000000
861.053040	0.000000
861.086365	0.000000
861.119690	0.000000
861.153076	0.000000
861.186340	0.000000
861.219666	0.000000
861.252930	0.000000
861.286316	0.000000
861.319641	0.000000
861.352905	0.000000
861.386230	0.000000
861.419495	0.000000
861.452820	0.000000
861.486145	0.000000
861.519470	0.000000
861.552734	0.000000
861.586060	0.000000
861.619324	0.000000
861.652649	0.000000
861.685974	0.000000
861.719238	0.000000
861.752563	0.000000
861.785828	0.000000
861.819092	0.000000
861.852417	0.000000
861.885742	0.000000
861.918945	0.000000
861.952271	0.000000
861.985535	0.000000
862.018799	0.000000
862.052124	0.000000
862.085449	0.000000
862.118652	0.000000
862.151978	0.000000
862.185181	0.000000
862.218506	0.000000
862.251770	0.000000
862.285034	0.000000
862.318298	0.000000
862.351562	0.000000
862.384827	0.000000
862.418091	0.000000
862.451355	0.000000
862.484619	0.000000
862.517883	0.000000
862.551086	0.000000
862.584351	0.000000
862.617676	0.000000
862.650940	0.000000
862.684143	0.000000
862.717407	0.000000
862.750610	0.000000
862.783875	0.000000
862.817139	0.000000
862.850342	0.000000
862.883606	0.000000
862.916870	0.000000
862.950073	0.000000
862.983337	0.000000
863.016602	0.000000
863.049805	0.000000
863.083069	0.000000
863.116211	0.000000
863.149475	0.000000
863.182739	0.000000
863.216003	0.000000
863.249146	0.000000
863.282410	0.000000
863.315613	0.000000
863.348816	0.000000
863.382080	0.000000
863.415222	0.000000
863.448486	0.000000
863.481689	0.000000
863.514893	0.000000
863.548157	0.000000
863.581360	0.000000
863.614502	0.000000
863.647766	0.000000
863.680908	0.000000
863.714172	0.000000
863.747375	0.000000
863.780579	0.000000
863.813721	0.000000
863.846985	0.000000
863.880127	0.000000
863.913330	0.000000
863.946533	0.000000
863.979675	0.000000
864.012939	0.000000
