Model Number: SPM-001-M   
Serial Number: 10090201
Firmware Version: 004.17.6
Exposure Time: 300000.000000us
Data Taken on: 11-02-2021 10:58:08.219
Wavelength	Amplitude
733.770752	0.000000
733.808716	0.000000
733.846619	0.000000
733.884583	0.000000
733.922546	0.000000
733.960449	0.000000
733.998413	0.000000
734.036377	0.000000
734.074219	0.000000
734.112183	0.000000
734.150085	0.000000
734.188049	0.000000
734.226013	0.000000
734.263916	0.000000
734.301819	0.000000
734.339783	0.000000
734.377686	0.000000
734.415588	0.000000
734.453552	0.000000
734.491455	0.000000
734.529419	0.000000
734.567322	0.000000
734.605225	0.000000
734.643127	0.000000
734.681091	0.000000
734.718994	0.000000
734.756897	0.000000
734.794800	0.000000
734.832703	0.000000
734.870667	0.000000
734.908508	0.000000
734.946472	0.000000
734.984375	0.000000
735.022278	0.000000
735.060181	0.000000
735.098083	0.000000
735.135986	0.000000
735.173889	0.000000
735.211792	0.000000
735.249695	0.000000
735.287598	0.000000
735.325439	0.000000
735.363403	0.000000
735.401306	0.000000
735.439148	0.000000
735.477051	0.000000
735.515015	0.000000
735.552856	0.000000
735.590759	0.000000
735.628662	0.000000
735.666504	0.000000
735.704407	0.000000
735.742310	0.000000
735.780212	0.000000
735.818115	0.000000
735.856018	0.000000
735.893860	0.000000
735.931763	0.000000
735.969604	0.000000
736.007507	0.000000
736.045410	0.000000
736.083252	0.000000
736.121094	0.000000
736.158997	0.000000
736.196838	0.000000
736.234741	0.000000
736.272644	0.000000
736.310486	0.000000
736.348389	0.000000
736.386230	0.000000
736.424072	0.000000
736.461975	0.000000
736.499878	0.000000
736.537720	0.000000
736.575562	0.000000
736.613403	0.000000
736.651306	0.000000
736.689148	0.000000
736.726990	0.000000
736.764893	0.000000
736.802734	0.000000
736.840576	0.000000
736.878418	0.000000
736.916321	0.000000
736.954102	0.000000
736.992004	0.000000
737.029846	0.000000
737.067688	0.000000
737.105530	0.000000
737.143372	0.000000
737.181213	0.000000
737.219116	0.000000
737.256897	0.000000
737.294739	0.000000
737.332642	0.000000
737.370422	0.000000
737.408325	0.000000
737.446167	0.000000
737.483948	0.000000
737.521790	0.000000
737.559692	0.000000
737.597473	0.000000
737.635315	0.000000
737.673157	0.000000
737.710999	0.000000
737.748840	0.000000
737.786621	0.000000
737.824463	0.000000
737.862305	0.000000
737.900085	0.000000
737.937927	0.000000
737.975769	0.000000
738.013550	0.000000
738.051392	0.000000
738.089233	0.000000
738.127014	0.000000
738.164856	0.000000
738.202698	0.000000
738.240479	0.000000
738.278320	0.000000
738.316162	0.000000
738.353943	0.000000
738.391785	0.000000
738.429565	0.000000
738.467407	0.000000
738.505188	0.000000
738.542969	0.000000
738.580811	0.000000
738.618652	0.000000
738.656372	0.000000
738.694214	0.000000
738.732056	0.000000
738.769836	0.000000
738.807617	0.000000
738.845459	0.000000
738.883240	0.000000
738.921021	0.000000
738.958862	0.000000
738.996582	0.000000
739.034424	0.000000
739.072205	0.000000
739.109985	0.000000
739.147827	0.000000
739.185547	0.000000
739.223389	0.000000
739.261169	0.000000
739.298889	0.000000
739.336731	0.000000
739.374512	0.000000
739.412292	0.000000
739.450073	0.000000
739.487854	0.000000
739.525635	0.000000
739.563416	0.000000
739.601135	0.000000
739.638977	0.000000
739.676758	0.000000
739.714478	0.000000
739.752258	0.000000
739.790100	0.000000
739.827820	0.000000
739.865601	0.000000
739.903381	0.000000
739.941101	0.000000
739.978882	198.300000
740.016724	194.300000
740.054443	198.600000
740.092224	193.500000
740.130005	194.200000
740.167725	194.100000
740.205505	193.200000
740.243225	200.700000
740.281006	196.100000
740.318787	190.300000
740.356506	201.100000
740.394287	198.800000
740.432068	192.300000
740.469727	190.300000
740.507507	198.100000
740.545288	194.800000
740.583008	197.600000
740.620789	195.400000
740.658569	189.600000
740.696228	194.100000
740.734009	198.700000
740.771790	187.200000
740.809509	197.500000
740.847229	193.100000
740.884949	193.300000
740.922729	191.100000
740.960449	194.400000
740.998169	192.200000
741.035950	191.700000
741.073669	197.200000
741.111389	195.700000
741.149170	204.200000
741.186890	203.000000
741.224609	198.100000
741.262329	197.400000
741.300110	203.900000
741.337769	193.900000
741.375549	191.900000
741.413208	196.700000
741.450989	192.600000
741.488708	193.400000
741.526367	193.500000
741.564148	198.500000
741.601868	199.100000
741.639526	194.100000
741.677307	197.500000
741.715027	197.800000
741.752686	192.100000
741.790466	199.600000
741.828186	197.000000
741.865845	192.200000
741.903564	189.800000
741.941345	195.400000
741.979004	191.300000
742.016724	200.000000
742.054382	195.500000
742.092102	198.400000
742.129822	191.300000
742.167480	195.100000
742.205200	193.500000
742.242920	197.200000
742.280640	198.500000
742.318359	191.000000
742.356079	195.400000
742.393738	198.300000
742.431396	194.500000
742.469116	199.500000
742.506775	187.700000
742.544495	199.400000
742.582214	200.300000
742.619873	195.300000
742.657593	201.000000
742.695251	200.300000
742.732971	194.600000
742.770630	197.200000
742.808289	197.600000
742.846008	197.000000
742.883728	196.900000
742.921326	195.400000
742.959045	194.200000
742.996765	194.900000
743.034424	194.900000
743.072083	194.300000
743.109802	194.200000
743.147400	190.300000
743.185120	194.800000
743.222839	195.500000
743.260437	201.600000
743.298157	196.600000
743.335754	189.100000
743.373474	194.600000
743.411133	189.500000
743.448792	194.800000
743.486450	195.600000
743.524170	189.400000
743.561768	194.900000
743.599487	200.300000
743.637146	203.900000
743.674744	193.200000
743.712463	194.300000
743.750122	195.800000
743.787720	196.900000
743.825439	193.200000
743.863037	195.200000
743.900696	194.400000
743.938416	222.300000
743.976013	194.600000
744.013672	202.300000
744.051331	198.400000
744.088928	202.200000
744.126587	199.600000
744.164307	197.700000
744.201904	193.200000
744.239563	198.900000
744.277222	197.600000
744.314819	197.300000
744.352478	200.800000
744.390137	197.500000
744.427734	196.500000
744.465393	193.500000
744.502991	193.800000
744.540649	199.000000
744.578308	196.000000
744.615906	191.200000
744.653564	188.300000
744.691223	197.200000
744.728821	190.100000
744.766418	195.000000
744.804077	197.800000
744.841675	193.900000
744.879333	191.300000
744.916992	195.000000
744.954529	194.700000
744.992187	198.300000
745.029785	191.900000
745.067444	192.300000
745.105042	195.700000
745.142639	196.300000
745.180298	204.400000
745.217896	194.700000
745.255493	194.300000
745.293152	197.000000
745.330750	199.400000
745.368347	201.700000
745.405945	198.500000
745.443604	195.200000
745.481140	199.500000
745.518799	195.400000
745.556396	199.000000
745.593994	198.300000
745.631592	196.500000
745.669189	191.200000
745.706787	196.200000
745.744385	193.300000
745.781982	199.700000
745.819580	193.400000
745.857178	196.500000
745.894775	196.300000
745.932373	197.400000
745.969971	197.300000
746.007568	190.600000
746.045166	201.900000
746.082764	201.900000
746.120300	198.000000
746.157898	196.700000
746.195557	195.600000
746.233093	191.000000
746.270691	198.200000
746.308228	199.000000
746.345825	199.200000
746.383423	198.800000
746.420959	192.400000
746.458557	194.300000
746.496155	194.100000
746.533691	197.000000
746.571289	191.100000
746.608887	195.100000
746.646423	196.700000
746.684021	196.600000
746.721619	193.000000
746.759155	197.800000
746.796753	191.300000
746.834351	191.100000
746.871826	192.600000
746.909424	200.700000
746.946960	196.200000
746.984558	193.700000
747.022156	194.100000
747.059631	201.100000
747.097229	197.200000
747.134827	195.400000
747.172363	200.600000
747.209900	200.100000
747.247498	192.700000
747.285034	201.400000
747.322571	202.200000
747.360168	195.400000
747.397644	190.700000
747.435242	199.600000
747.472778	200.900000
747.510315	194.000000
747.547913	194.400000
747.585388	199.500000
747.622925	195.500000
747.660522	189.900000
747.697998	193.100000
747.735596	193.400000
747.773132	192.500000
747.810669	195.500000
747.848206	198.700000
747.885742	191.700000
747.923279	191.700000
747.960815	197.400000
747.998352	196.200000
748.035889	199.500000
748.073425	198.600000
748.110901	193.300000
748.148437	192.400000
748.185974	195.800000
748.223511	202.900000
748.261047	197.700000
748.298584	196.200000
748.336060	195.000000
748.373596	197.500000
748.411133	220.300000
748.448608	193.000000
748.486145	197.900000
748.523682	200.200000
748.561218	202.600000
748.598755	197.100000
748.636292	197.800000
748.673706	194.500000
748.711243	202.200000
748.748718	196.400000
748.786255	196.700000
748.823792	196.500000
748.861267	193.300000
748.898804	198.600000
748.936340	197.400000
748.973816	194.000000
749.011292	202.200000
749.048828	196.900000
749.086304	197.200000
749.123840	203.800000
749.161316	193.600000
749.198792	202.700000
749.236328	200.400000
749.273743	195.600000
749.311279	194.300000
749.348816	199.200000
749.386230	195.100000
749.423767	188.300000
749.461304	199.300000
749.498718	196.100000
749.536255	199.000000
749.573730	204.800000
749.611206	202.200000
749.648682	194.900000
749.686218	195.700000
749.723633	199.600000
749.761169	194.400000
749.798645	194.200000
749.836060	194.100000
749.873596	192.600000
749.911011	197.200000
749.948547	200.800000
749.986023	195.200000
750.023437	195.700000
750.060913	192.500000
750.098450	191.400000
750.135864	195.300000
750.173340	196.200000
750.210815	199.700000
750.248291	192.800000
750.285767	195.000000
750.323242	200.500000
750.360657	197.900000
750.398132	194.000000
750.435608	198.200000
750.473022	194.400000
750.510498	191.900000
750.547974	192.100000
750.585449	195.400000
750.622925	187.800000
750.660339	205.500000
750.697815	197.100000
750.735291	195.400000
750.772644	200.700000
750.810120	194.400000
750.847595	198.300000
750.885010	192.500000
750.922485	202.000000
750.959961	195.500000
750.997375	202.400000
751.034851	199.200000
751.072266	198.700000
751.109680	190.600000
751.147156	201.100000
751.184570	198.300000
751.221985	196.000000
751.259460	190.100000
751.296875	195.700000
751.334290	195.700000
751.371765	200.800000
751.409180	200.200000
751.446594	201.500000
751.484070	198.500000
751.521423	197.200000
751.558899	197.400000
751.596375	205.300000
751.633728	201.400000
751.671204	205.100000
751.708618	194.200000
751.746033	197.700000
751.783447	191.900000
751.820801	194.800000
751.858276	199.800000
751.895691	195.600000
751.933105	194.900000
751.970520	191.800000
752.007935	194.800000
752.045349	200.100000
752.082764	196.200000
752.120178	193.900000
752.157532	192.700000
752.195007	193.600000
752.232422	197.300000
752.269775	198.800000
752.307190	198.500000
752.344543	191.600000
752.382019	194.800000
752.419434	193.600000
752.456787	197.000000
752.494202	200.000000
752.531616	196.000000
752.568970	197.900000
752.606384	196.600000
752.643799	197.800000
752.681152	201.300000
752.718567	199.200000
752.755981	191.100000
752.793335	198.700000
752.830750	191.700000
752.868164	201.700000
752.905518	191.600000
752.942932	200.100000
752.980225	191.600000
753.017639	198.900000
753.055054	195.500000
753.092407	197.200000
753.129822	201.000000
753.167175	203.300000
753.204529	195.700000
753.241943	194.500000
753.279358	192.000000
753.316650	199.100000
753.354065	196.700000
753.391479	200.800000
753.428772	202.100000
753.466187	197.900000
753.503479	192.800000
753.540894	194.800000
753.578308	192.000000
753.615601	190.000000
753.653015	196.200000
753.690369	193.400000
753.727722	191.900000
753.765076	192.000000
753.802490	192.000000
753.839783	189.600000
753.877136	193.700000
753.914551	205.500000
753.951843	192.100000
753.989258	199.300000
754.026611	197.700000
754.063904	198.800000
754.101257	193.000000
754.138611	188.800000
754.175964	197.400000
754.213318	204.200000
754.250610	191.000000
754.288025	193.900000
754.325378	192.700000
754.362671	198.300000
754.400024	195.500000
754.437378	204.300000
754.474670	202.800000
754.512085	194.600000
754.549438	198.800000
754.586731	194.900000
754.624084	196.600000
754.661438	193.000000
754.698730	203.400000
754.736084	195.800000
754.773376	195.600000
754.810730	196.700000
754.848083	196.300000
754.885315	200.500000
754.922668	192.300000
754.960022	193.500000
754.997314	199.700000
755.034668	196.600000
755.072021	197.500000
755.109253	196.100000
755.146606	202.800000
755.183960	195.600000
755.221252	202.100000
755.258545	199.800000
755.295898	200.800000
755.333191	201.500000
755.370544	197.200000
755.407776	197.400000
755.445129	198.400000
755.482422	199.000000
755.519714	195.300000
755.557068	192.100000
755.594360	189.700000
755.631653	200.700000
755.668945	202.600000
755.706299	199.900000
755.743530	207.700000
755.780884	203.700000
755.818176	201.300000
755.855408	202.300000
755.892761	199.600000
755.930054	198.400000
755.967346	199.500000
756.004639	201.200000
756.041870	197.700000
756.079224	203.700000
756.116516	195.600000
756.153748	200.900000
756.191040	206.400000
756.228394	200.800000
756.265625	195.600000
756.302917	199.400000
756.340210	196.600000
756.377441	202.900000
756.414795	204.500000
756.452087	198.100000
756.489319	194.100000
756.526611	202.100000
756.563843	198.600000
756.601135	205.000000
756.638428	205.200000
756.675659	199.600000
756.712952	201.900000
756.750244	201.200000
756.787476	200.400000
756.824768	203.600000
756.862061	198.400000
756.899292	246.900000
756.936584	202.700000
756.973816	206.600000
757.011047	209.200000
757.048340	200.000000
757.085632	200.400000
757.122864	214.000000
757.160156	198.300000
757.197327	202.400000
757.234619	204.900000
757.271912	199.200000
757.309082	203.400000
757.346375	198.500000
757.383667	204.800000
757.420837	202.200000
757.458130	201.400000
757.495422	199.100000
757.532593	202.600000
757.569885	197.000000
757.607117	197.800000
757.644348	203.400000
757.681580	213.300000
757.718811	192.800000
757.756042	202.900000
757.793335	200.000000
757.830505	204.300000
757.867798	200.100000
757.905029	199.500000
757.942200	202.500000
757.979492	199.700000
758.016724	199.900000
758.053894	199.100000
758.091187	215.900000
758.128418	202.300000
758.165588	200.300000
758.202820	210.400000
758.240112	200.700000
758.277283	210.600000
758.314514	203.800000
758.351685	200.500000
758.388916	208.600000
758.426147	210.300000
758.463379	209.900000
758.500610	205.900000
758.537842	203.600000
758.575012	208.600000
758.612244	201.500000
758.649475	214.100000
758.686646	199.700000
758.723877	209.400000
758.761108	210.900000
758.798279	203.900000
758.835510	206.100000
758.872742	211.300000
758.909851	207.200000
758.947083	207.100000
758.984253	207.900000
759.021484	207.900000
759.058716	208.700000
759.095886	209.600000
759.133057	207.000000
759.170288	209.800000
759.207458	205.300000
759.244690	214.200000
759.281860	212.600000
759.319031	207.500000
759.356262	205.600000
759.393433	205.300000
759.430603	206.700000
759.467773	206.400000
759.505005	211.600000
759.542175	211.500000
759.579346	206.200000
759.616516	208.400000
759.653687	212.200000
759.690918	205.600000
759.728027	210.600000
759.765259	210.100000
759.802429	212.200000
759.839539	211.300000
759.876770	214.500000
759.913940	217.900000
759.951111	210.200000
759.988281	211.200000
760.025452	208.900000
760.062561	208.000000
760.099792	218.700000
760.136963	213.800000
760.174072	209.400000
760.211243	206.400000
760.248413	206.400000
760.285583	208.000000
760.322754	220.000000
760.359863	218.000000
760.397034	217.700000
760.434204	211.000000
760.471375	211.600000
760.508545	210.200000
760.545715	211.800000
760.582825	209.700000
760.619995	214.800000
760.657166	208.700000
760.694275	217.600000
760.731445	213.600000
760.768555	214.900000
760.805664	216.800000
760.842834	213.900000
760.879944	214.900000
760.917114	215.500000
760.954285	212.700000
760.991394	210.200000
761.028564	219.200000
761.065674	217.100000
761.102783	210.700000
761.139954	217.500000
761.177124	216.700000
761.214172	219.300000
761.251343	213.500000
761.288452	214.600000
761.325562	219.100000
761.362732	212.200000
761.399841	215.600000
761.436951	218.100000
761.474121	212.500000
761.511169	215.700000
761.548340	219.800000
761.585449	218.900000
761.622559	220.000000
761.659668	218.100000
761.696838	221.600000
761.733887	219.500000
761.771057	216.100000
761.808167	217.900000
761.845276	221.200000
761.882385	229.100000
761.919434	219.700000
761.956604	234.700000
761.993713	216.200000
762.030762	222.700000
762.067871	219.200000
762.105042	220.000000
762.142090	227.300000
762.179199	222.000000
762.216309	224.600000
762.253418	231.900000
762.290527	228.400000
762.327637	224.100000
762.364685	217.700000
762.401794	224.000000
762.438904	223.300000
762.475952	219.200000
762.513062	220.900000
762.550110	220.900000
762.587219	231.900000
762.624329	229.200000
762.661377	224.700000
762.698486	223.200000
762.735596	222.800000
762.772644	219.700000
762.809753	218.900000
762.846863	222.400000
762.883911	228.300000
762.921021	225.700000
762.958069	225.800000
762.995117	230.000000
763.032227	230.200000
763.069336	222.200000
763.106323	219.500000
763.143433	219.800000
763.180481	227.900000
763.217590	228.500000
763.254639	227.200000
763.291687	226.800000
763.328735	233.600000
763.365845	225.600000
763.402893	224.200000
763.439941	228.200000
763.477051	231.000000
763.514038	230.400000
763.551147	226.800000
763.588196	229.500000
763.625244	228.600000
763.662292	234.600000
763.699402	238.200000
763.736389	232.600000
763.773499	238.900000
763.810486	232.900000
763.847534	229.900000
763.884644	232.000000
763.921631	229.500000
763.958679	237.100000
763.995728	231.700000
764.032776	237.800000
764.069824	228.300000
764.106873	237.100000
764.143860	242.800000
764.180969	234.000000
764.218018	239.000000
764.255005	232.500000
764.292053	234.100000
764.329102	242.600000
764.366089	241.900000
764.403137	239.800000
764.440125	233.200000
764.477173	239.000000
764.514221	240.400000
764.551208	240.000000
764.588257	236.300000
764.625305	244.500000
764.662292	247.200000
764.699341	249.900000
764.736389	242.300000
764.773376	254.600000
764.810425	245.600000
764.847473	247.600000
764.884399	246.700000
764.921448	254.200000
764.958435	251.600000
764.995483	245.900000
765.032532	259.100000
765.069458	246.900000
765.106506	249.500000
765.143555	249.500000
765.180481	251.800000
765.217529	258.600000
765.254578	245.300000
765.291504	252.300000
765.328552	250.100000
765.365540	247.200000
765.402527	260.600000
765.439575	249.700000
765.476501	247.300000
765.513550	248.900000
765.550537	250.700000
765.587463	257.400000
765.624512	252.400000
765.661499	245.000000
765.698486	257.300000
765.735474	250.200000
765.772461	252.100000
765.809448	261.100000
765.846436	259.000000
765.883423	261.600000
765.920410	257.500000
765.957397	254.400000
765.994385	257.300000
766.031311	266.200000
766.068359	261.200000
766.105286	262.300000
766.142273	264.200000
766.179260	260.700000
766.216187	256.900000
766.253174	254.200000
766.290161	261.700000
766.327148	263.900000
766.364136	263.300000
766.401123	274.300000
766.438049	260.200000
766.475037	270.600000
766.512024	265.400000
766.548950	278.100000
766.585937	274.700000
766.622864	269.700000
766.659790	268.700000
766.696777	261.300000
766.733704	271.700000
766.770691	264.100000
766.807678	277.300000
766.844604	270.300000
766.881531	270.700000
766.918518	274.100000
766.955444	273.900000
766.992432	269.600000
767.029358	271.600000
767.066284	273.700000
767.103271	273.300000
767.140198	305.600000
767.177124	286.300000
767.214050	276.200000
767.251038	276.800000
767.287964	273.600000
767.324890	273.200000
767.361816	278.100000
767.398743	279.200000
767.435730	275.600000
767.472595	279.500000
767.509583	282.400000
767.546509	274.000000
767.583374	280.100000
767.620361	272.000000
767.657288	277.600000
767.694214	278.300000
767.731140	279.100000
767.768066	281.500000
767.804993	285.800000
767.841919	275.900000
767.878845	281.100000
767.915710	286.000000
767.952698	280.900000
767.989563	284.100000
768.026489	285.000000
768.063416	281.600000
768.100281	281.300000
768.137207	287.900000
768.174133	288.500000
768.211060	286.500000
768.247986	286.000000
768.284912	284.200000
768.321777	285.600000
768.358704	281.300000
768.395630	284.300000
768.432495	282.500000
768.469421	289.600000
768.506348	291.700000
768.543152	292.300000
768.580078	289.200000
768.616943	290.400000
768.653870	294.300000
768.690796	293.000000
768.727661	293.300000
768.764587	294.900000
768.801453	288.400000
768.838318	295.800000
768.875244	295.900000
768.912109	302.100000
768.948975	293.700000
768.985901	296.200000
769.022766	295.400000
769.059631	299.300000
769.096558	295.600000
769.133362	294.800000
769.170288	297.400000
769.207214	298.600000
769.244019	300.100000
769.280945	298.700000
769.317810	305.600000
769.354675	301.100000
769.391541	310.000000
769.428406	306.400000
769.465271	315.100000
769.502136	305.200000
769.539062	307.300000
769.575867	305.300000
769.612732	308.400000
769.649597	315.000000
769.686462	313.400000
769.723328	311.100000
769.760193	310.300000
769.797058	310.500000
769.833923	320.700000
769.870728	315.000000
769.907593	317.600000
769.944519	315.900000
769.981323	317.400000
770.018188	318.900000
770.055054	319.100000
770.091858	317.500000
770.128723	325.900000
770.165588	329.700000
770.202393	319.000000
770.239258	330.400000
770.276062	325.800000
770.312927	326.700000
770.349792	332.200000
770.386597	328.600000
770.423462	337.700000
770.460327	343.300000
770.497131	328.600000
770.533997	329.800000
770.570862	340.800000
770.607605	341.000000
770.644470	337.200000
770.681335	339.900000
770.718140	339.100000
770.754944	335.500000
770.791809	337.900000
770.828613	338.700000
770.865479	339.500000
770.902222	346.600000
770.939087	343.900000
770.975952	337.300000
771.012695	341.600000
771.049561	356.200000
771.086365	346.700000
771.123169	343.900000
771.159973	344.800000
771.196838	347.700000
771.233582	350.800000
771.270447	349.300000
771.307251	354.100000
771.344055	348.100000
771.380859	351.000000
771.417664	345.600000
771.454468	356.000000
771.491272	353.400000
771.528076	356.000000
771.564880	352.900000
771.601685	359.200000
771.638428	353.200000
771.675293	358.600000
771.712097	349.400000
771.748840	367.300000
771.785645	362.100000
771.822449	362.600000
771.859253	361.400000
771.896057	359.800000
771.932861	371.100000
771.969604	365.300000
772.006409	358.800000
772.043213	368.300000
772.079956	362.600000
772.116760	358.700000
772.153503	362.300000
772.190308	373.300000
772.227112	366.600000
772.263855	363.200000
772.300659	364.000000
772.337463	371.400000
772.374207	365.600000
772.411011	363.100000
772.447754	366.300000
772.484497	380.100000
772.521301	369.900000
772.558105	368.800000
772.594849	371.100000
772.631592	380.200000
772.668396	379.900000
772.705139	380.900000
772.741882	375.700000
772.778625	386.200000
772.815430	384.300000
772.852173	381.000000
772.888916	388.200000
772.925720	391.100000
772.962463	394.000000
772.999207	387.400000
773.035950	392.000000
773.072754	390.000000
773.109436	390.800000
773.146240	395.100000
773.182922	392.200000
773.219727	398.400000
773.256470	392.000000
773.293152	385.600000
773.329956	391.600000
773.366699	400.500000
773.403381	391.400000
773.440186	393.000000
773.476929	395.100000
773.513611	390.400000
773.550354	393.100000
773.587158	396.800000
773.623840	394.800000
773.660583	396.600000
773.697327	403.200000
773.734009	395.500000
773.770813	395.800000
773.807495	397.100000
773.844238	401.500000
773.880981	410.400000
773.917664	401.800000
773.954407	406.500000
773.991150	400.800000
774.027832	411.600000
774.064575	407.100000
774.101318	405.200000
774.138000	404.500000
774.174744	403.000000
774.211487	408.900000
774.248108	402.100000
774.284851	403.000000
774.321594	412.400000
774.358276	411.700000
774.395020	414.900000
774.431702	411.700000
774.468384	408.900000
774.505127	409.200000
774.541809	415.100000
774.578491	414.800000
774.615234	415.400000
774.651917	409.100000
774.688599	414.200000
774.725342	424.000000
774.762024	426.800000
774.798706	427.200000
774.835449	423.100000
774.872070	426.900000
774.908813	423.500000
774.945496	425.400000
774.982178	429.800000
775.018860	430.200000
775.055542	426.700000
775.092224	426.400000
775.128967	431.700000
775.165588	433.900000
775.202271	434.700000
775.239014	443.000000
775.275635	437.300000
775.312317	431.700000
775.349060	435.300000
775.385681	438.300000
775.422363	436.400000
775.459045	443.500000
775.495667	443.800000
775.532410	439.200000
775.569092	438.600000
775.605713	441.200000
775.642395	444.700000
775.679016	448.300000
775.715698	450.000000
775.752380	447.800000
775.789001	442.600000
775.825684	441.900000
775.862366	447.900000
775.898987	462.200000
775.935669	453.700000
775.972351	462.300000
776.008972	459.200000
776.045654	456.700000
776.082336	454.700000
776.118958	461.500000
776.155640	465.200000
776.192322	470.800000
776.228882	469.300000
776.265564	465.200000
776.302185	463.400000
776.338867	475.500000
776.375488	472.500000
776.412109	475.900000
776.448792	474.700000
776.485413	479.100000
776.522034	466.900000
776.558716	472.600000
776.595337	478.300000
776.631958	482.700000
776.668579	480.400000
776.705261	486.300000
776.741882	481.300000
776.778503	482.600000
776.815186	484.800000
776.851746	490.700000
776.888367	489.300000
776.924988	495.100000
776.961609	484.200000
776.998291	484.500000
777.034851	486.600000
777.071472	493.000000
777.108154	489.200000
777.144714	500.800000
777.181335	495.900000
777.218018	489.100000
777.254578	500.700000
777.291199	505.100000
777.327759	507.000000
777.364380	510.800000
777.401062	514.500000
777.437622	521.500000
777.474243	511.100000
777.510864	519.400000
777.547424	513.700000
777.584045	515.600000
777.620667	515.900000
777.657227	518.900000
777.693848	519.900000
777.730469	527.000000
777.767029	520.200000
777.803650	519.700000
777.840271	516.300000
777.876831	517.200000
777.913452	520.100000
777.950012	511.600000
777.986633	512.500000
778.023193	511.500000
778.059753	509.300000
778.096375	513.200000
778.132996	525.800000
778.169556	515.400000
778.206116	519.700000
778.242737	523.200000
778.279297	524.400000
778.315857	517.100000
778.352478	523.700000
778.389038	531.100000
778.425598	534.700000
778.462219	543.400000
778.498718	538.900000
778.535339	543.000000
778.571838	547.300000
778.608459	548.100000
778.645020	537.100000
778.681580	544.600000
778.718140	543.500000
778.754761	538.200000
778.791260	545.300000
778.827881	550.500000
778.864441	547.700000
778.900940	551.300000
778.937561	549.700000
778.974121	550.000000
779.010620	544.100000
779.047241	549.800000
779.083801	549.100000
779.120300	550.700000
779.156860	552.700000
779.193359	550.800000
779.229980	558.800000
779.266541	559.600000
779.303040	560.300000
779.339600	553.100000
779.376160	548.600000
779.412659	552.000000
779.449219	550.200000
779.485779	560.100000
779.522278	555.600000
779.558838	560.000000
779.595398	561.400000
779.631897	552.400000
779.668457	542.900000
779.705017	558.800000
779.741516	546.600000
779.778076	540.400000
779.814575	545.400000
779.851074	547.800000
779.887634	545.600000
779.924133	553.500000
779.960693	546.400000
779.997253	558.100000
780.033691	558.600000
780.070251	557.400000
780.106812	562.900000
780.143250	563.500000
780.179810	561.400000
780.216370	566.200000
780.252808	569.300000
780.289368	569.100000
780.325867	568.800000
780.362366	562.600000
780.398865	580.500000
780.435364	576.500000
780.471863	581.800000
780.508423	571.800000
780.544861	573.000000
780.581421	566.400000
780.617920	565.800000
780.654419	568.700000
780.690918	573.700000
780.727417	579.500000
780.763916	571.800000
780.800415	572.700000
780.836914	562.100000
780.873352	573.600000
780.909912	569.100000
780.946411	575.700000
780.982849	586.000000
781.019348	593.300000
781.055786	583.400000
781.092346	585.000000
781.128845	592.500000
781.165283	594.400000
781.201782	599.300000
781.238281	598.000000
781.274719	594.500000
781.311218	589.200000
781.347717	603.300000
781.384155	593.900000
781.420654	598.900000
781.457092	603.000000
781.493591	591.400000
781.530090	596.000000
781.566528	604.600000
781.602966	604.000000
781.639465	601.300000
781.675903	594.100000
781.712402	599.300000
781.748901	604.500000
781.785278	600.700000
781.821777	607.300000
781.858276	606.800000
781.894714	619.700000
781.931152	614.900000
781.967651	615.300000
782.004089	606.900000
782.040527	615.700000
782.076965	614.400000
782.113403	618.700000
782.149902	625.100000
782.186340	614.800000
782.222778	627.400000
782.259277	621.900000
782.295654	623.800000
782.332092	627.700000
782.368591	631.600000
782.404968	625.400000
782.441467	625.800000
782.477905	628.300000
782.514282	628.000000
782.550781	643.800000
782.587219	640.600000
782.623596	650.400000
782.660095	651.700000
782.696472	654.300000
782.732910	659.900000
782.769348	661.700000
782.805786	666.600000
782.842224	662.900000
782.878662	660.300000
782.915039	664.100000
782.951477	669.700000
782.987915	662.800000
783.024292	660.900000
783.060730	663.200000
783.097168	657.300000
783.133545	649.400000
783.169983	649.000000
783.206421	643.700000
783.242798	640.400000
783.279236	636.200000
783.315613	631.300000
783.352051	629.400000
783.388489	624.300000
783.424866	616.400000
783.461304	626.200000
783.497681	632.500000
783.534058	633.100000
783.570496	621.400000
783.606934	620.500000
783.643250	627.700000
783.679687	632.800000
783.716125	614.100000
783.752441	608.900000
783.788879	600.900000
783.825317	586.300000
783.861633	563.300000
783.898071	534.200000
783.934448	512.600000
783.970825	485.000000
784.007263	455.600000
784.043579	432.700000
784.080017	410.000000
784.116394	379.500000
784.152710	361.200000
784.189148	345.200000
784.225525	332.400000
784.261902	322.000000
784.298279	320.800000
784.334656	323.400000
784.371033	319.400000
784.407410	331.000000
784.443787	339.300000
784.480164	358.200000
784.516541	382.300000
784.552856	422.700000
784.589233	451.000000
784.625610	476.300000
784.661987	525.000000
784.698364	537.200000
784.734741	566.100000
784.771057	588.600000
784.807434	617.500000
784.843811	650.600000
784.880127	649.400000
784.916504	674.300000
784.952881	676.500000
784.989197	682.600000
785.025574	692.000000
785.061951	699.600000
785.098267	718.200000
785.134644	703.300000
785.170959	697.400000
785.207275	705.000000
785.243652	709.000000
785.279968	696.800000
785.316345	697.600000
785.352722	689.800000
785.388977	679.400000
785.425354	668.200000
785.461731	655.000000
785.498047	661.000000
785.534363	660.600000
785.570679	657.500000
785.606995	651.800000
785.643372	648.300000
785.679687	655.000000
785.716003	654.600000
785.752380	656.800000
785.788635	656.800000
785.825012	667.200000
785.861328	670.100000
785.897644	662.700000
785.933960	678.400000
785.970337	689.600000
786.006592	713.500000
786.042908	716.000000
786.079285	714.300000
786.115540	715.900000
786.151855	722.700000
786.188171	727.000000
786.224487	732.400000
786.260803	726.800000
786.297119	725.400000
786.333435	709.900000
786.369751	703.500000
786.406006	701.400000
786.442322	703.500000
786.478638	695.400000
786.514954	699.800000
786.551270	688.700000
786.587585	690.300000
786.623840	678.900000
786.660156	681.400000
786.696472	672.200000
786.732727	677.400000
786.769043	674.500000
786.805298	663.100000
786.841614	668.600000
786.877930	676.200000
786.914124	667.600000
786.950439	692.700000
786.986755	701.800000
787.023010	707.400000
787.059326	705.900000
787.095642	706.700000
787.131836	718.400000
787.168152	716.000000
787.204468	733.100000
787.240723	738.600000
787.276978	731.200000
787.313293	727.700000
787.349548	723.400000
787.385803	728.200000
787.422058	737.800000
787.458313	739.700000
787.494629	726.900000
787.530823	724.000000
787.567139	711.900000
787.603455	709.700000
787.639648	707.200000
787.675903	708.000000
787.712219	707.100000
787.748413	703.400000
787.784729	706.100000
787.820984	696.300000
787.857178	695.400000
787.893494	695.700000
787.929749	695.700000
787.965942	707.600000
788.002258	711.400000
788.038452	720.100000
788.074707	711.600000
788.110962	722.200000
788.147217	725.000000
788.183472	728.400000
788.219727	736.100000
788.255920	745.000000
788.292175	741.700000
788.328430	744.300000
788.364624	734.700000
788.400879	743.600000
788.437134	746.600000
788.473328	746.000000
788.509583	743.200000
788.545837	742.200000
788.582031	735.500000
788.618286	737.200000
788.654480	741.700000
788.690735	749.800000
788.726990	761.300000
788.763184	758.600000
788.799377	771.200000
788.835632	767.700000
788.871826	779.800000
788.908081	770.400000
788.944336	750.600000
788.980469	759.100000
789.016724	752.600000
789.052979	745.100000
789.089111	735.200000
789.125366	751.100000
789.161621	739.700000
789.197754	744.400000
789.234009	737.500000
789.270142	725.800000
789.306396	729.500000
789.342590	735.800000
789.378784	722.000000
789.414978	729.700000
789.451233	737.200000
789.487366	732.200000
789.523621	741.000000
789.559814	736.200000
789.595947	737.200000
789.632202	754.900000
789.668335	763.900000
789.704529	773.400000
789.740784	772.300000
789.776917	767.800000
789.813110	769.900000
789.849304	786.100000
789.885498	780.600000
789.921692	790.300000
789.957886	781.000000
789.994019	774.300000
790.030212	772.400000
790.066406	778.200000
790.102539	781.100000
790.138733	794.200000
790.174927	783.100000
790.211060	787.200000
790.247253	777.100000
790.283386	776.900000
790.319580	768.500000
790.355774	766.900000
790.391907	771.900000
790.428101	783.900000
790.464294	771.100000
790.500427	763.500000
790.536621	759.700000
790.572754	753.800000
790.608887	759.500000
790.645081	762.500000
790.681274	766.600000
790.717346	756.900000
790.753540	744.400000
790.789734	736.100000
790.825867	727.500000
790.862000	739.700000
790.898132	745.900000
790.934265	738.900000
790.970459	738.100000
791.006592	733.500000
791.042725	741.100000
791.078918	747.700000
791.114990	753.800000
791.151184	750.500000
791.187317	755.100000
791.223389	745.500000
791.259583	743.300000
791.295715	752.000000
791.331848	762.400000
791.367981	771.100000
791.404114	763.000000
791.440247	758.100000
791.476379	755.100000
791.512451	742.100000
791.548584	751.200000
791.584778	760.800000
791.620850	765.900000
791.656982	762.400000
791.693115	749.100000
791.729187	744.900000
791.765381	743.600000
791.801514	756.000000
791.837585	754.900000
791.873718	759.100000
791.909851	754.400000
791.945923	750.500000
791.982056	727.800000
792.018188	730.600000
792.054260	735.200000
792.090393	745.800000
792.126465	735.600000
792.162598	742.800000
792.198669	734.200000
792.234741	727.200000
792.270874	726.200000
792.307007	728.300000
792.343079	726.200000
792.379150	729.600000
792.415283	715.600000
792.451355	710.200000
792.487488	700.900000
792.523560	712.000000
792.559631	709.700000
792.595764	706.400000
792.631836	690.400000
792.667908	692.600000
792.703979	704.900000
792.740051	763.200000
792.776184	838.100000
792.812256	895.900000
792.848328	919.000000
792.884399	923.700000
792.920471	918.600000
792.956543	916.700000
792.992615	910.300000
793.028748	925.200000
793.064758	927.300000
793.100830	943.800000
793.136963	942.400000
793.172974	943.400000
793.209045	933.100000
793.245178	948.800000
793.281189	947.300000
793.317261	958.200000
793.353271	956.800000
793.389404	959.400000
793.425476	949.300000
793.461487	930.700000
793.497559	934.000000
793.533630	943.200000
793.569641	947.600000
793.605713	951.200000
793.641785	937.100000
793.677795	945.700000
793.713867	943.300000
793.749878	946.300000
793.785950	959.700000
793.822021	972.600000
793.858032	955.200000
793.894104	956.600000
793.930176	941.900000
793.966187	940.000000
794.002258	934.600000
794.038269	955.400000
794.074280	948.700000
794.110352	963.500000
794.146423	937.300000
794.182373	913.300000
794.218445	919.000000
794.254517	936.200000
794.290466	926.700000
794.326538	923.200000
794.362549	922.000000
794.398560	919.500000
794.434631	918.800000
794.470581	902.000000
794.506653	907.200000
794.542664	923.000000
794.578674	915.500000
794.614685	912.300000
794.650757	907.000000
794.686707	906.500000
794.722778	905.300000
794.758789	928.300000
794.794739	943.500000
794.830811	959.700000
794.866821	963.900000
794.902771	956.900000
794.938843	942.500000
794.974792	944.800000
795.010803	962.100000
795.046814	962.100000
795.082825	944.600000
795.118835	948.800000
795.154846	928.400000
795.190796	928.100000
795.226807	919.200000
795.262817	943.700000
795.298767	941.400000
795.334778	935.400000
795.370850	918.600000
795.406799	926.700000
795.442810	912.900000
795.478821	915.100000
795.514709	922.200000
795.550720	957.500000
795.586670	932.400000
795.622681	921.200000
795.658691	919.200000
795.694641	923.200000
795.730652	924.700000
795.766663	939.600000
795.802551	936.600000
795.838562	940.600000
795.874573	922.900000
795.910522	924.800000
795.946472	923.100000
795.982483	937.300000
796.018433	940.800000
796.054382	955.900000
796.090393	936.400000
796.126282	921.800000
796.162292	908.600000
796.198242	913.000000
796.234192	924.300000
796.270203	926.200000
796.306091	934.200000
796.342041	936.400000
796.378052	919.400000
796.413940	926.700000
796.449951	939.500000
796.485901	943.700000
796.521790	950.900000
796.557800	953.100000
796.593689	934.000000
796.629639	916.600000
796.665649	919.400000
796.701599	929.300000
796.737488	936.100000
796.773437	951.300000
796.809387	940.800000
796.845337	926.200000
796.881287	914.100000
796.917175	913.300000
796.953125	928.200000
796.989075	934.600000
797.024963	935.500000
797.060913	926.100000
797.096863	915.600000
797.132751	913.900000
797.168701	914.300000
797.204590	925.200000
797.240540	922.700000
797.276489	927.900000
797.312439	909.600000
797.348328	885.600000
797.384277	887.800000
797.420166	884.800000
797.456055	895.700000
797.492004	899.800000
797.527893	895.200000
797.563843	879.100000
797.599731	870.500000
797.635620	871.400000
797.671570	884.700000
797.707520	895.000000
797.743347	898.000000
797.779297	894.700000
797.815125	881.700000
797.851074	869.300000
797.887024	868.300000
797.922913	879.700000
797.958801	887.000000
797.994690	875.200000
798.030579	869.300000
798.066467	867.600000
798.102356	857.800000
798.138245	865.000000
798.174133	859.900000
798.210083	871.400000
798.245911	871.300000
798.281799	862.200000
798.317749	850.200000
798.353577	851.100000
798.389465	847.700000
798.425293	857.200000
798.461243	856.400000
798.497131	858.000000
798.532959	854.100000
798.568848	848.300000
798.604736	835.800000
798.640564	828.300000
798.676453	831.600000
798.712402	844.200000
798.748230	841.200000
798.784119	833.500000
798.820007	827.500000
798.855835	833.600000
798.891724	834.200000
798.927551	830.000000
798.963379	831.900000
798.999268	819.400000
799.035095	806.800000
799.070984	802.800000
799.106873	805.300000
799.142700	816.800000
799.178528	814.900000
799.214417	817.100000
799.250244	813.600000
799.286133	806.100000
799.321960	814.600000
799.357788	807.700000
799.393677	805.800000
799.429504	809.900000
799.465332	799.100000
799.501221	803.600000
799.537048	806.900000
799.572876	812.200000
799.608704	811.600000
799.644531	821.200000
799.680359	818.000000
799.716248	818.500000
799.752014	822.000000
799.787903	807.000000
799.823730	815.600000
799.859558	811.700000
799.895386	805.800000
799.931213	809.100000
799.967041	802.000000
800.002869	796.200000
800.038696	811.100000
800.074463	803.800000
800.110352	811.500000
800.146179	794.000000
800.181946	791.300000
800.217773	788.800000
800.253540	789.400000
800.289429	792.200000
800.325256	796.400000
800.361023	792.800000
800.396851	792.700000
800.432678	794.700000
800.468445	784.000000
800.504272	782.900000
800.540100	769.500000
800.575867	773.500000
800.611694	782.100000
800.647461	775.900000
800.683289	772.800000
800.719116	773.100000
800.754883	767.400000
800.790649	759.100000
800.826477	754.300000
800.862244	775.000000
800.898071	758.100000
800.933838	759.400000
800.969604	750.300000
801.005432	744.500000
801.041199	752.600000
801.076965	749.500000
801.112793	739.100000
801.148560	735.000000
801.184326	734.200000
801.220154	731.600000
801.255859	722.400000
801.291687	730.300000
801.327454	728.700000
801.363281	730.100000
801.398987	722.900000
801.434814	716.700000
801.470520	724.900000
801.506287	713.100000
801.542114	708.900000
801.577820	715.500000
801.613647	716.900000
801.649414	707.300000
801.685120	712.700000
801.720886	713.500000
801.756714	703.100000
801.792419	699.800000
801.828186	696.300000
801.863892	704.500000
801.899719	698.200000
801.935486	689.600000
801.971252	699.500000
802.006958	694.800000
802.042725	694.700000
802.078430	693.100000
802.114197	688.000000
802.149963	701.300000
802.185669	691.400000
802.221436	689.900000
802.257202	694.800000
802.292908	691.500000
802.328674	700.600000
802.364441	701.600000
802.400146	694.800000
802.435913	691.100000
802.471558	692.100000
802.507324	686.800000
802.543091	680.400000
802.578796	688.600000
802.614502	686.100000
802.650269	685.600000
802.685974	677.300000
802.721741	689.800000
802.757446	692.600000
802.793152	688.100000
802.828918	699.600000
802.864624	694.000000
802.900330	688.300000
802.936035	680.100000
802.971802	677.500000
803.007446	675.600000
803.043213	668.900000
803.078857	680.100000
803.114624	662.000000
803.150330	666.400000
803.185974	656.700000
803.221741	666.300000
803.257446	675.100000
803.293152	674.900000
803.328857	664.300000
803.364563	652.600000
803.400208	648.400000
803.435974	651.200000
803.471680	646.500000
803.507324	648.500000
803.543030	652.900000
803.578735	652.300000
803.614441	642.300000
803.650146	650.800000
803.685791	636.500000
803.721497	642.200000
803.757202	634.500000
803.792847	638.800000
803.828552	629.000000
803.864258	626.100000
803.899902	624.300000
803.935608	614.900000
803.971313	617.900000
804.006958	621.800000
804.042664	621.900000
804.078308	626.800000
804.113953	617.300000
804.149658	620.900000
804.185364	608.200000
804.221008	626.500000
804.256714	612.300000
804.292297	608.600000
804.328003	603.400000
804.363708	597.400000
804.399292	599.900000
804.434998	599.600000
804.470703	595.600000
804.506287	608.700000
804.541992	594.600000
804.577637	596.700000
804.613281	584.600000
804.648926	583.200000
804.684570	587.500000
804.720215	585.500000
804.755920	589.700000
804.791565	586.200000
804.827209	583.900000
804.862854	581.800000
804.898437	577.600000
804.934143	585.700000
804.969788	589.200000
805.005371	581.600000
805.041077	573.600000
805.076721	564.300000
805.112305	564.800000
805.147949	567.100000
805.183655	570.400000
805.219238	576.200000
805.254883	568.400000
805.290466	566.700000
805.326111	562.300000
805.361755	558.600000
805.397400	564.300000
805.432983	570.500000
805.468628	568.100000
805.504211	567.300000
805.539856	565.100000
805.575500	565.400000
805.611084	554.300000
805.646729	546.700000
805.682373	556.000000
805.717957	564.300000
805.753601	561.200000
805.789246	546.500000
805.824768	550.600000
805.860413	555.600000
805.895996	547.500000
805.931641	544.900000
805.967224	555.100000
806.002869	551.300000
806.038452	556.300000
806.074036	553.600000
806.109619	541.600000
806.145264	535.500000
806.180847	534.700000
806.216431	536.700000
806.252014	538.900000
806.287659	539.300000
806.323181	544.600000
806.358826	539.900000
806.394409	524.400000
806.429993	528.000000
806.465576	534.700000
806.501160	523.400000
806.536743	513.800000
806.572327	519.000000
806.607910	517.900000
806.643494	519.800000
806.679077	515.900000
806.714661	517.400000
806.750244	516.000000
806.785828	509.200000
806.821350	503.800000
806.856934	508.700000
806.892517	502.900000
806.928101	499.500000
806.963684	498.700000
806.999268	504.500000
807.034790	491.500000
807.070374	496.700000
807.105896	485.700000
807.141479	492.000000
807.177063	492.600000
807.212585	489.000000
807.248169	484.500000
807.283752	489.400000
807.319275	484.800000
807.354858	486.100000
807.390381	479.500000
807.425903	473.900000
807.461487	474.300000
807.497070	464.500000
807.532593	467.400000
807.568115	466.200000
807.603699	465.400000
807.639221	458.900000
807.674744	463.500000
807.710266	464.200000
807.745850	467.700000
807.781372	458.200000
807.816895	457.800000
807.852417	458.600000
807.888000	460.900000
807.923523	455.400000
807.959045	458.800000
807.994629	448.800000
808.030090	448.100000
808.065613	452.800000
808.101135	454.800000
808.136658	448.900000
808.172241	448.700000
808.207764	448.900000
808.243225	441.100000
808.278809	440.200000
808.314270	452.500000
808.349792	435.300000
808.385315	436.500000
808.420837	440.100000
808.456360	448.100000
808.491882	445.000000
808.527344	436.200000
808.562866	444.300000
808.598389	440.700000
808.633850	439.700000
808.669434	433.200000
808.704895	438.300000
808.740417	440.000000
808.775940	433.600000
808.811462	430.400000
808.846924	426.600000
808.882385	421.900000
808.917847	424.200000
808.953369	427.700000
808.988892	421.600000
809.024353	423.700000
809.059875	427.700000
809.095398	420.400000
809.130798	413.500000
809.166321	412.000000
809.201843	416.800000
809.237305	418.100000
809.272766	421.000000
809.308228	405.500000
809.343750	409.400000
809.379211	412.700000
809.414734	415.400000
809.450134	416.100000
809.485657	402.900000
809.521118	411.000000
809.556580	405.700000
809.592102	403.100000
809.627502	401.700000
809.663025	401.000000
809.698486	396.200000
809.733887	391.600000
809.769409	394.600000
809.804871	386.800000
809.840271	389.300000
809.875793	389.600000
809.911194	392.600000
809.946655	384.900000
809.982178	383.500000
810.017639	387.800000
810.053040	383.600000
810.088501	379.500000
810.123901	381.800000
810.159424	375.700000
810.194885	373.700000
810.230286	375.600000
810.265747	369.800000
810.301208	369.800000
810.336609	373.000000
810.372070	365.800000
810.407532	366.100000
810.442932	368.100000
810.478394	370.400000
810.513794	367.200000
810.549255	364.100000
810.584717	363.100000
810.620117	357.300000
810.655518	365.100000
810.690979	357.300000
810.726379	354.100000
810.761841	349.100000
810.797302	349.800000
810.832642	348.900000
810.868103	355.200000
810.903564	344.100000
810.938904	353.400000
810.974365	342.600000
811.009827	342.700000
811.045166	341.000000
811.080627	337.300000
811.115967	339.400000
811.151428	344.800000
811.186829	341.200000
811.222229	339.900000
811.257629	331.400000
811.293091	333.100000
811.328430	345.000000
811.363892	335.300000
811.399292	338.600000
811.434631	333.100000
811.470093	336.400000
811.505493	329.700000
811.540833	329.200000
811.576294	332.900000
811.611694	328.900000
811.647034	321.800000
811.682434	325.700000
811.717773	324.500000
811.753235	328.400000
811.788635	321.400000
811.823975	323.500000
811.859375	326.900000
811.894775	317.000000
811.930115	318.600000
811.965515	318.600000
812.000916	317.700000
812.036255	315.500000
812.071655	318.700000
812.106995	312.800000
812.142395	310.900000
812.177795	317.100000
812.213196	313.800000
812.248474	314.400000
812.283875	302.300000
812.319214	308.900000
812.354614	308.400000
812.390015	302.600000
812.425293	303.200000
812.460693	305.000000
812.496094	300.700000
812.531433	294.600000
812.566772	296.200000
812.602173	297.100000
812.637451	298.700000
812.672852	294.300000
812.708191	295.400000
812.743530	290.000000
812.778931	285.300000
812.814270	287.300000
812.849609	291.900000
812.884949	289.400000
812.920227	282.200000
812.955627	293.100000
812.990967	288.000000
813.026306	283.400000
813.061646	275.900000
813.096985	275.000000
813.132324	270.700000
813.167664	273.400000
813.203003	279.300000
813.238281	269.100000
813.273682	269.900000
813.308960	268.800000
813.344299	268.900000
813.379639	273.200000
813.414978	267.700000
813.450256	265.800000
813.485596	269.600000
813.520874	264.400000
813.556213	267.300000
813.591614	270.000000
813.626831	264.700000
813.662170	265.800000
813.697510	272.400000
813.732788	259.900000
813.768127	262.900000
813.803467	262.000000
813.838745	260.600000
813.874084	263.400000
813.909363	260.500000
813.944641	259.900000
813.979980	254.100000
814.015320	255.900000
814.050598	254.800000
814.085876	257.900000
814.121155	253.900000
814.156494	252.800000
814.191772	252.500000
814.227051	247.700000
814.262390	250.600000
814.297668	251.700000
814.332947	253.700000
814.368225	246.700000
814.403564	247.800000
814.438782	244.900000
814.474121	247.100000
814.509338	246.300000
814.544617	250.600000
814.579956	244.900000
814.615173	252.100000
814.650513	248.800000
814.685791	244.200000
814.721008	246.100000
814.756348	244.900000
814.791626	243.100000
814.826843	242.200000
814.862122	243.000000
814.897400	238.900000
814.932678	241.300000
814.967957	239.300000
815.003235	241.200000
815.038452	235.800000
815.073730	234.900000
815.108948	244.800000
815.144226	241.600000
815.179504	244.800000
815.214722	231.800000
815.250000	231.400000
815.285278	238.300000
815.320496	234.100000
815.355774	234.800000
815.391052	237.000000
815.426270	234.300000
815.461487	232.600000
815.496765	229.200000
815.531982	227.300000
815.567261	231.500000
815.602539	237.200000
815.637695	234.000000
815.672974	232.500000
815.708191	234.600000
815.743408	236.900000
815.778687	229.400000
815.813904	236.900000
815.849121	224.300000
815.884399	225.600000
815.919556	226.100000
815.954834	226.400000
815.990051	229.700000
816.025269	232.500000
816.060486	225.400000
816.095703	225.800000
816.130920	229.100000
816.166199	225.000000
816.201416	227.400000
816.236572	230.900000
816.271851	226.300000
816.307007	230.100000
816.342224	221.300000
816.377441	226.600000
816.412659	219.700000
816.447876	228.000000
816.483093	222.700000
816.518250	225.700000
816.553467	223.200000
816.588745	227.000000
816.623901	221.700000
816.659119	215.800000
816.694275	222.900000
816.729492	219.600000
816.764709	250.700000
816.799927	217.900000
816.835083	220.500000
816.870300	217.100000
816.905457	219.900000
816.940674	221.700000
816.975830	217.300000
817.010986	215.600000
817.046204	217.600000
817.081421	215.700000
817.116577	217.000000
817.151733	222.200000
817.186951	222.500000
817.222107	219.700000
817.257324	223.200000
817.292419	220.100000
817.327637	215.300000
817.362854	217.800000
817.398010	214.500000
817.433167	217.300000
817.468323	217.000000
817.503479	217.700000
817.538635	226.800000
817.573853	220.000000
817.608948	219.100000
817.644165	216.400000
817.679321	215.400000
817.714478	214.300000
817.749634	217.700000
817.784790	226.100000
817.819946	224.900000
817.855103	210.500000
817.890198	218.900000
817.925415	211.600000
817.960571	220.200000
817.995667	217.900000
818.030823	218.800000
818.066040	214.800000
818.101135	217.800000
818.136292	216.800000
818.171448	212.700000
818.206543	215.100000
818.241699	218.200000
818.276855	218.500000
818.311951	216.100000
818.347107	212.800000
818.382263	219.200000
818.417358	220.100000
818.452515	221.700000
818.487610	222.900000
818.522766	213.800000
818.557922	223.000000
818.593018	219.400000
818.628113	216.500000
818.663269	215.200000
818.698364	217.200000
818.733521	215.700000
818.768677	218.800000
818.803711	214.100000
818.838867	214.100000
818.874023	215.700000
818.909058	213.200000
818.944214	213.200000
818.979370	218.600000
819.014404	216.800000
819.049561	214.500000
819.084595	218.000000
819.119751	211.400000
819.154846	216.900000
819.189941	213.900000
819.225037	211.700000
819.260193	208.600000
819.295227	210.300000
819.330322	208.800000
819.365479	207.500000
819.400513	242.300000
819.435608	206.700000
819.470764	204.700000
819.505798	207.200000
819.540894	210.800000
819.575989	209.200000
819.611084	214.200000
819.646179	216.700000
819.681213	213.400000
819.716309	210.400000
819.751404	209.600000
819.786438	215.300000
819.821533	207.500000
819.856628	212.900000
819.891663	214.100000
819.926758	220.400000
819.961853	216.500000
819.996887	208.600000
820.031982	213.000000
820.067017	211.300000
820.102112	245.400000
820.137207	211.100000
820.172302	222.200000
820.207275	209.200000
820.242371	208.000000
820.277405	209.600000
820.312500	211.100000
820.347534	214.100000
820.382568	217.900000
820.417664	210.100000
820.452759	209.300000
820.487732	209.400000
820.522827	210.500000
820.557861	207.800000
820.592896	209.200000
820.627930	211.700000
820.662964	208.400000
820.698059	215.100000
820.733093	208.100000
820.768127	212.700000
820.803162	212.000000
820.838196	209.600000
820.873230	211.300000
820.908264	211.100000
820.943298	207.000000
820.978333	213.700000
821.013367	211.300000
821.048401	213.400000
821.083435	213.900000
821.118469	204.800000
821.153503	212.800000
821.188477	210.900000
821.223511	204.500000
821.258484	210.200000
821.293579	210.600000
821.328613	206.300000
821.363647	208.900000
821.398621	205.500000
821.433655	207.900000
821.468628	217.900000
821.503662	208.200000
821.538696	212.800000
821.573669	206.800000
821.608704	213.400000
821.643677	209.100000
821.678650	211.500000
821.713684	216.700000
821.748718	209.800000
821.783691	210.400000
821.818726	209.700000
821.853638	212.600000
821.888672	208.300000
821.923706	210.400000
821.958618	208.800000
821.993652	208.900000
822.028687	213.300000
822.063599	215.100000
822.098633	211.500000
822.133667	206.400000
822.168579	209.300000
822.203613	211.400000
822.238586	206.400000
822.273560	212.000000
822.308533	207.900000
822.343567	206.200000
822.378479	207.500000
822.413452	206.900000
822.448425	205.400000
822.483398	213.700000
822.518372	211.500000
822.553345	206.200000
822.588318	215.900000
822.623291	206.700000
822.658203	208.500000
822.693237	208.700000
822.728210	206.600000
822.763123	207.800000
822.798096	204.200000
822.833069	208.100000
822.867981	209.200000
822.902954	209.600000
822.937927	210.100000
822.972900	216.700000
823.007874	203.600000
823.042725	213.000000
823.077698	216.900000
823.112671	205.300000
823.147583	205.000000
823.182556	210.100000
823.217529	211.700000
823.252441	206.700000
823.287415	218.600000
823.322388	210.600000
823.357239	208.000000
823.392212	212.800000
823.427185	213.600000
823.462097	206.100000
823.497009	209.600000
823.531982	206.300000
823.566895	208.100000
823.601807	203.700000
823.636719	206.800000
823.671631	209.200000
823.706604	205.800000
823.741455	208.900000
823.776428	201.800000
823.811340	211.200000
823.846252	212.900000
823.881165	212.400000
823.916138	207.700000
823.950989	213.500000
823.985901	204.900000
824.020813	208.000000
824.055725	205.700000
824.090637	202.700000
824.125610	209.400000
824.160461	208.700000
824.195374	206.700000
824.230225	210.900000
824.265198	201.500000
824.300110	204.400000
824.334961	214.900000
824.369873	200.500000
824.404785	208.200000
824.439636	212.500000
824.474548	201.500000
824.509460	199.600000
824.544312	211.000000
824.579224	209.800000
824.614075	208.600000
824.648987	206.200000
824.683899	205.600000
824.718811	205.000000
824.753662	211.100000
824.788574	210.400000
824.823364	207.900000
824.858276	203.500000
824.893188	210.200000
824.928040	209.900000
824.962952	207.400000
824.997803	208.800000
825.032654	207.400000
825.067566	208.400000
825.102417	204.500000
825.137268	203.500000
825.172119	205.700000
825.206970	203.400000
825.241882	205.500000
825.276733	202.000000
825.311646	204.300000
825.346436	200.800000
825.381348	200.800000
825.416138	205.600000
825.450989	201.400000
825.485901	195.600000
825.520691	198.600000
825.555542	198.600000
825.590454	203.600000
825.625244	197.600000
825.660095	209.100000
825.695007	206.400000
825.729797	203.300000
825.764648	199.200000
825.799438	203.300000
825.834290	203.200000
825.869202	198.800000
825.903992	203.900000
825.938843	201.300000
825.973694	198.000000
826.008484	211.900000
826.043335	198.400000
826.078186	196.200000
826.112976	205.300000
826.147827	205.500000
826.182678	208.100000
826.217468	195.700000
826.252319	206.800000
826.287109	198.400000
826.321899	204.500000
826.356750	200.500000
826.391541	194.700000
826.426392	203.500000
826.461182	198.500000
826.495972	196.100000
826.530823	192.700000
826.565613	200.300000
826.600403	195.000000
826.635254	200.300000
826.670044	192.100000
826.704834	193.800000
826.739685	193.600000
826.774475	200.000000
826.809265	198.100000
826.844055	196.000000
826.878906	201.500000
826.913635	198.600000
826.948425	199.700000
826.983215	198.900000
827.018005	200.700000
827.052856	195.600000
827.087585	201.600000
827.122375	190.900000
827.157227	196.100000
827.191956	207.200000
827.226746	193.900000
827.261536	199.100000
827.296265	192.000000
827.331116	194.500000
827.365906	199.100000
827.400635	192.400000
827.435425	189.900000
827.470215	200.500000
827.504944	195.100000
827.539734	200.100000
827.574463	196.200000
827.609253	202.600000
827.644043	197.200000
827.678772	199.800000
827.713562	194.800000
827.748352	195.500000
827.783081	193.000000
827.817871	196.900000
827.852600	191.800000
827.887329	196.100000
827.922119	188.600000
827.956848	197.300000
827.991638	205.900000
828.026367	196.100000
828.061157	195.500000
828.095886	194.900000
828.130615	209.200000
828.165344	188.700000
828.200073	194.300000
828.234863	193.500000
828.269592	195.800000
828.304321	198.700000
828.339111	196.000000
828.373779	193.500000
828.408569	198.400000
828.443298	200.400000
828.477966	192.800000
828.512756	197.400000
828.547424	192.700000
828.582214	194.200000
828.616943	194.200000
828.651672	195.000000
828.686340	198.800000
828.721130	193.200000
828.755798	196.400000
828.790527	196.100000
828.825256	196.400000
828.859924	197.500000
828.894714	200.000000
828.929443	203.600000
828.964111	193.700000
828.998840	199.500000
829.033569	193.500000
829.068237	194.900000
829.102966	193.100000
829.137634	195.800000
829.172363	197.200000
829.207092	195.800000
829.241821	192.300000
829.276489	189.400000
829.311157	194.500000
829.345825	193.800000
829.380554	198.000000
829.415283	191.900000
829.449951	190.400000
829.484619	201.700000
829.519348	201.200000
829.554016	196.000000
829.588745	195.500000
829.623413	190.700000
829.658081	204.400000
829.692749	190.500000
829.727417	199.300000
829.762146	195.700000
829.796814	192.500000
829.831482	193.100000
829.866150	196.900000
829.900879	193.300000
829.935486	197.700000
829.970154	193.800000
830.004883	204.800000
830.039490	195.500000
830.074219	192.100000
830.108887	196.100000
830.143494	195.200000
830.178223	190.900000
830.212891	195.000000
830.247498	196.300000
830.282166	202.600000
830.316772	200.500000
830.351501	193.300000
830.386169	194.800000
830.420776	194.000000
830.455444	196.300000
830.490112	194.600000
830.524719	188.900000
830.559387	197.800000
830.594055	196.200000
830.628662	196.100000
830.663330	195.100000
830.697998	201.700000
830.732605	195.400000
830.767273	196.600000
830.801941	194.600000
830.836487	202.500000
830.871155	196.500000
830.905762	196.300000
830.940430	189.900000
830.975098	192.300000
831.009644	196.300000
831.044312	202.600000
831.078979	197.300000
831.113525	189.100000
831.148193	194.900000
831.182861	195.000000
831.217407	198.900000
831.252075	206.700000
831.286621	192.800000
831.321289	193.100000
831.355896	195.200000
831.390564	201.500000
831.425110	196.200000
831.459778	201.300000
831.494324	207.700000
831.528931	197.800000
831.563599	199.900000
831.598145	191.000000
831.632751	194.700000
831.667419	194.300000
831.701965	198.300000
831.736572	196.000000
831.771179	191.700000
831.805786	193.400000
831.840393	202.100000
831.874939	189.900000
831.909546	198.900000
831.944153	189.700000
831.978760	195.500000
832.013306	191.300000
832.047913	199.000000
832.082458	202.000000
832.117065	192.800000
832.151672	203.000000
832.186218	197.100000
832.220825	198.500000
832.255432	190.200000
832.289978	193.600000
832.324585	198.000000
832.359192	198.200000
832.393677	193.900000
832.428284	196.400000
832.462830	195.200000
832.497437	195.600000
832.531982	199.900000
832.566589	193.600000
832.601135	197.300000
832.635681	190.500000
832.670227	196.400000
832.704773	201.400000
832.739380	196.900000
832.773926	198.100000
832.808472	192.400000
832.843079	197.000000
832.877563	198.300000
832.912170	195.000000
832.946716	189.500000
832.981201	200.200000
833.015808	199.500000
833.050293	195.600000
833.084839	192.300000
833.119446	195.400000
833.153992	199.100000
833.188477	195.500000
833.223022	192.200000
833.257568	197.100000
833.292114	200.700000
833.326660	205.100000
833.361145	192.800000
833.395691	188.500000
833.430237	195.000000
833.464783	198.100000
833.499329	192.800000
833.533875	192.100000
833.568359	198.700000
833.602905	199.600000
833.637390	200.800000
833.671875	193.000000
833.706421	194.600000
833.740906	192.300000
833.775452	188.400000
833.809998	192.900000
833.844482	201.800000
833.879028	195.000000
833.913513	194.300000
833.947998	197.700000
833.982544	192.600000
834.017090	192.800000
834.051514	188.300000
834.086060	198.300000
834.120544	196.600000
834.155029	197.800000
834.189575	194.700000
834.223999	195.400000
834.258545	197.000000
834.293030	196.000000
834.327515	195.300000
834.362000	193.500000
834.396545	198.500000
834.430969	194.600000
834.465454	198.600000
834.500000	189.700000
834.534424	197.300000
834.568970	188.200000
834.603455	189.400000
834.637878	192.300000
834.672363	196.400000
834.706909	196.600000
834.741333	195.200000
834.775818	189.900000
834.810242	192.400000
834.844727	195.500000
834.879211	193.500000
834.913635	195.900000
834.948181	195.900000
834.982666	196.200000
835.017090	193.000000
835.051575	196.600000
835.086060	192.700000
835.120483	197.700000
835.154907	196.400000
835.189331	197.100000
835.223816	198.300000
835.258301	190.100000
835.292786	190.100000
835.327209	198.200000
835.361694	192.500000
835.396057	194.200000
835.430542	197.600000
835.465027	196.700000
835.499390	192.900000
835.533875	221.000000
835.568359	194.000000
835.602722	190.100000
835.637207	196.700000
835.671692	191.700000
835.706055	211.500000
835.740540	197.200000
835.774902	197.400000
835.809387	197.700000
835.843811	190.900000
835.878235	200.900000
835.912659	189.800000
835.947083	193.300000
835.981506	194.900000
836.015930	191.400000
836.050354	199.200000
836.084778	202.200000
836.119202	199.300000
836.153625	208.500000
836.187988	193.600000
836.222473	193.000000
836.256897	196.300000
836.291260	193.300000
836.325684	198.600000
836.360046	194.200000
836.394470	194.500000
836.428894	201.200000
836.463318	192.500000
836.497681	198.400000
836.532104	201.200000
836.566467	196.600000
836.600891	195.600000
836.635315	200.100000
836.669678	197.300000
836.704102	198.400000
836.738525	198.400000
836.772888	190.100000
836.807251	194.500000
836.841675	198.100000
836.876038	193.200000
836.910461	191.900000
836.944763	199.100000
836.979187	191.600000
837.013611	200.700000
837.047974	190.100000
837.082336	207.000000
837.116699	197.900000
837.151062	195.300000
837.185486	192.000000
837.219849	195.500000
837.254211	200.500000
837.288574	197.100000
837.322937	191.800000
837.357300	187.200000
837.391663	204.300000
837.426086	199.000000
837.460388	195.600000
837.494751	198.600000
837.529114	193.800000
837.563477	200.800000
837.597839	195.800000
837.632141	195.500000
837.666565	193.600000
837.700928	198.100000
837.735229	198.700000
837.769592	197.700000
837.803955	198.800000
837.838257	194.100000
837.872620	192.000000
837.906982	202.900000
837.941284	195.600000
837.975647	196.700000
838.010010	202.000000
838.044312	193.900000
838.078674	193.500000
838.112976	195.900000
838.147339	199.500000
838.181702	196.500000
838.216003	202.400000
838.250366	197.400000
838.284668	199.600000
838.318970	189.500000
838.353333	194.500000
838.387634	195.500000
838.421936	196.700000
838.456299	197.200000
838.490601	202.100000
838.524902	198.700000
838.559265	199.600000
838.593567	199.900000
838.627869	193.200000
838.662170	197.500000
838.696472	190.500000
838.730774	192.000000
838.765137	198.900000
838.799377	185.500000
838.833740	196.500000
838.868042	200.900000
838.902283	189.600000
838.936646	200.800000
838.970947	195.600000
839.005188	200.300000
839.039551	189.600000
839.073792	201.600000
839.108093	195.100000
839.142395	204.700000
839.176697	191.100000
839.210937	196.500000
839.245300	203.400000
839.279541	189.800000
839.313843	193.600000
839.348145	197.700000
839.382385	198.700000
839.416687	199.800000
839.450989	197.800000
839.485229	194.800000
839.519531	192.900000
839.553833	201.700000
839.588013	195.600000
839.622314	196.400000
839.656555	197.200000
839.690857	196.700000
839.725159	191.600000
839.759460	197.700000
839.793640	193.600000
839.827942	194.700000
839.862183	192.500000
839.896423	197.700000
839.930725	205.800000
839.964966	203.200000
839.999207	199.300000
840.033508	201.900000
840.067688	193.600000
840.101990	202.000000
840.136230	193.900000
840.170471	202.900000
840.204712	193.200000
840.238953	191.900000
840.273193	196.300000
840.307434	198.200000
840.341736	193.600000
840.375916	190.600000
840.410217	192.400000
840.444397	199.600000
840.478638	197.400000
840.512878	200.200000
840.547119	196.100000
840.581360	198.200000
840.615601	203.100000
840.649780	204.800000
840.684021	195.500000
840.718262	204.700000
840.752441	202.900000
840.786682	196.600000
840.820862	196.800000
840.855103	203.300000
840.889343	198.000000
840.923584	200.200000
840.957764	197.600000
840.992004	196.600000
841.026184	209.100000
841.060425	196.300000
841.094666	193.700000
841.128845	198.500000
841.163025	198.700000
841.197266	198.500000
841.231445	196.800000
841.265686	199.100000
841.299866	192.000000
841.334045	202.500000
841.368286	195.400000
841.402405	202.600000
841.436646	199.200000
841.470825	194.400000
841.505005	194.800000
841.539185	192.200000
841.573425	193.900000
841.607544	196.300000
841.641785	195.800000
841.675964	192.600000
841.710144	196.500000
841.744324	194.900000
841.778503	195.300000
841.812683	192.700000
841.846863	201.700000
841.881042	202.800000
841.915222	193.300000
841.949402	207.700000
841.983521	189.300000
842.017700	195.600000
842.051880	195.500000
842.086060	200.600000
842.120239	196.100000
842.154419	195.500000
842.188538	198.000000
842.222717	193.500000
842.256897	203.300000
842.291016	194.700000
842.325195	197.100000
842.359375	204.800000
842.393494	202.300000
842.427673	197.000000
842.461853	198.200000
842.495911	205.100000
842.530090	197.700000
842.564209	196.300000
842.598389	197.700000
842.632568	196.700000
842.666626	198.300000
842.700806	195.300000
842.734985	193.500000
842.769043	199.900000
842.803223	194.600000
842.837402	194.400000
842.871460	192.300000
842.905640	203.700000
842.939697	192.300000
842.973877	196.300000
843.007996	200.300000
843.042175	204.300000
843.076233	193.700000
843.110413	198.300000
843.144470	202.000000
843.178589	199.600000
843.212769	194.700000
843.246826	199.600000
843.280945	193.500000
843.315125	195.000000
843.349182	192.800000
843.383301	199.900000
843.417419	206.900000
843.451538	196.100000
843.485657	195.000000
843.519714	196.300000
843.553833	197.800000
843.587952	195.100000
843.622070	192.800000
843.656128	197.700000
843.690247	194.200000
843.724304	195.800000
843.758423	199.500000
843.792542	195.900000
843.826599	195.500000
843.860718	195.200000
843.894836	190.800000
843.928894	197.500000
843.963013	197.900000
843.997070	191.800000
844.031128	192.600000
844.065247	199.900000
844.099304	198.800000
844.133362	197.800000
844.167480	197.400000
844.201599	201.700000
844.235596	197.900000
844.269714	198.500000
844.303711	197.700000
844.337830	190.600000
844.371948	198.100000
844.405945	196.200000
844.440063	191.500000
844.474121	207.200000
844.508118	194.100000
844.542236	196.400000
844.576294	195.700000
844.610352	191.400000
844.644409	195.300000
844.678406	190.500000
844.712524	200.400000
844.746582	202.200000
844.780640	195.000000
844.814636	196.500000
844.848755	208.100000
844.882751	196.000000
844.916809	198.700000
844.950867	199.000000
844.984863	204.200000
845.018921	195.800000
845.052979	193.700000
845.086975	197.400000
845.121033	191.100000
845.155090	194.100000
845.189087	201.300000
845.223145	195.100000
845.257141	198.100000
845.291199	199.300000
845.325256	201.700000
845.359253	198.100000
845.393250	208.700000
845.427307	195.900000
845.461304	195.900000
845.495361	196.300000
845.529358	204.600000
845.563354	195.900000
845.597412	193.000000
845.631409	203.900000
845.665405	201.300000
845.699463	200.900000
845.733459	193.300000
845.767456	203.800000
845.801453	194.500000
845.835449	200.500000
845.869446	199.700000
845.903503	199.900000
845.937439	192.700000
845.971497	201.500000
846.005493	191.900000
846.039429	200.200000
846.073486	206.300000
846.107483	195.900000
846.141418	196.400000
846.175476	197.200000
846.209473	202.800000
846.243408	193.700000
846.277405	196.900000
846.311401	194.400000
846.345337	197.500000
846.379395	199.400000
846.413330	195.600000
846.447327	204.800000
846.481323	193.500000
846.515259	194.700000
846.549255	195.900000
846.583252	198.900000
846.617187	193.200000
846.651184	197.800000
846.685120	195.600000
846.719055	203.100000
846.753052	200.800000
846.786987	199.800000
846.820984	190.300000
846.854980	202.600000
846.888916	192.800000
846.922852	197.700000
846.956848	200.900000
846.990723	193.900000
847.024719	197.000000
847.058716	194.600000
847.092590	202.200000
847.126587	198.400000
847.160522	194.200000
847.194458	198.300000
847.228455	194.600000
847.262390	191.500000
847.296265	195.700000
847.330261	200.700000
847.364136	193.900000
847.398132	194.400000
847.432068	196.500000
847.466003	195.100000
847.499939	195.600000
847.533875	198.800000
847.567749	195.400000
847.601746	196.600000
847.635681	199.300000
847.669556	190.600000
847.703491	202.400000
847.737427	207.900000
847.771301	191.300000
847.805237	198.600000
847.839233	197.600000
847.873108	195.700000
847.907043	196.800000
847.940918	204.200000
847.974854	198.700000
848.008789	200.100000
848.042664	196.300000
848.076538	198.300000
848.110474	197.700000
848.144348	198.000000
848.178284	191.000000
848.212219	198.000000
848.246094	194.700000
848.279968	198.100000
848.313904	198.900000
848.347778	197.400000
848.381653	195.600000
848.415588	194.300000
848.449463	194.700000
848.483337	198.500000
848.517212	202.600000
848.551086	196.500000
848.585022	192.300000
848.618835	206.500000
848.652771	194.500000
848.686646	193.200000
848.720520	203.600000
848.754395	196.300000
848.788330	200.100000
848.822144	200.200000
848.856018	194.600000
848.889954	205.200000
848.923767	192.800000
848.957642	194.400000
848.991577	199.500000
849.025391	197.200000
849.059265	196.500000
849.093079	194.300000
849.126953	193.100000
849.160828	201.200000
849.194641	198.200000
849.228577	195.600000
849.262451	195.700000
849.296265	196.200000
849.330139	193.500000
849.364014	197.400000
849.397827	197.800000
849.431702	197.500000
849.465515	201.400000
849.499329	189.800000
849.533203	193.500000
849.567078	188.600000
849.600891	199.500000
849.634766	197.200000
849.668518	200.300000
849.702393	196.800000
849.736267	192.200000
849.770020	204.400000
849.803894	198.800000
849.837769	197.900000
849.871521	196.800000
849.905396	200.300000
849.939270	193.900000
849.973022	194.600000
850.006897	198.800000
850.040710	198.800000
850.074524	198.500000
850.108337	196.500000
850.142151	201.500000
850.175964	201.900000
850.209778	196.300000
850.243530	189.000000
850.277405	200.100000
850.311218	196.600000
850.344971	195.300000
850.378845	203.500000
850.412659	193.300000
850.446411	198.300000
850.480225	197.100000
850.514038	201.900000
850.547791	199.900000
850.581665	198.300000
850.615417	194.900000
850.649231	197.600000
850.683044	195.500000
850.716858	196.200000
850.750610	196.300000
850.784424	198.800000
850.818176	194.200000
850.851929	195.400000
850.885742	194.000000
850.919495	196.200000
850.953308	202.100000
850.987122	202.600000
851.020874	192.400000
851.054626	191.100000
851.088440	198.100000
851.122192	199.300000
851.156006	197.300000
851.189697	196.400000
851.223511	192.900000
851.257263	200.600000
851.291077	198.600000
851.324829	195.600000
851.358582	195.000000
851.392334	195.500000
851.426086	195.300000
851.459900	204.000000
851.493591	197.200000
851.527344	195.600000
851.561157	197.400000
851.594849	198.800000
851.628662	197.500000
851.662415	205.000000
851.696106	199.500000
851.729858	200.800000
851.763611	192.100000
851.797363	197.400000
851.831116	193.100000
851.864868	198.800000
851.898560	201.400000
851.932312	195.800000
851.966064	200.000000
851.999817	196.400000
852.033569	195.800000
852.067261	202.600000
852.101013	194.600000
852.134766	196.500000
852.168457	188.000000
852.202209	201.300000
852.235901	192.600000
852.269592	198.900000
852.303345	203.600000
852.337036	199.700000
852.370789	196.200000
852.404541	200.100000
852.438171	191.000000
852.471924	196.500000
852.505676	191.900000
852.539307	198.700000
852.573059	193.700000
852.606812	195.900000
852.640442	195.000000
852.674194	201.200000
852.707886	207.000000
852.741577	202.900000
852.775269	193.600000
852.809021	197.000000
852.842651	198.300000
852.876404	202.800000
852.910034	197.700000
852.943787	201.300000
852.977478	200.200000
853.011108	194.500000
853.044861	193.300000
853.078552	203.600000
853.112183	198.200000
853.145874	198.500000
853.179626	190.400000
853.213257	197.400000
853.246948	194.100000
853.280640	205.100000
853.314270	196.400000
853.347961	202.600000
853.381653	200.000000
853.415283	202.400000
853.448975	192.900000
853.482605	197.400000
853.516296	196.000000
853.549988	191.300000
853.583618	196.300000
853.617310	198.700000
853.651001	197.700000
853.684631	192.900000
853.718323	194.400000
853.751953	202.300000
853.785583	190.500000
853.819275	199.500000
853.852966	197.700000
853.886536	189.800000
853.920227	193.200000
853.953918	200.100000
853.987488	196.000000
854.021179	199.400000
854.054749	203.000000
854.088440	200.200000
854.122131	192.700000
854.155701	198.200000
854.189331	193.600000
854.223022	197.600000
854.256592	198.800000
854.290283	195.000000
854.323914	199.000000
854.357483	196.800000
854.391174	199.800000
854.424744	203.800000
854.458374	198.200000
854.492065	207.700000
854.525696	197.300000
854.559265	202.600000
854.592896	208.500000
854.626465	196.400000
854.660095	197.900000
854.693787	198.700000
854.727356	195.500000
854.760986	201.500000
854.794617	199.400000
854.828186	195.500000
854.861816	199.200000
854.895447	197.000000
854.929016	197.500000
854.962585	198.300000
854.996155	205.100000
855.029785	197.600000
855.063416	197.200000
855.097046	199.100000
855.130615	191.500000
855.164185	201.200000
855.197754	196.900000
855.231384	198.100000
855.264954	195.400000
855.298523	201.500000
855.332153	197.400000
855.365723	203.700000
855.399292	194.700000
855.432922	197.100000
855.466492	198.200000
855.500061	193.800000
855.533630	194.600000
855.567200	200.900000
855.600769	200.700000
855.634338	202.400000
855.667969	197.900000
855.701477	195.100000
855.735046	194.000000
855.768616	189.700000
855.802185	198.400000
855.835754	209.800000
855.869324	190.800000
855.902893	196.200000
855.936401	202.200000
855.969971	197.900000
856.003540	192.200000
856.037109	200.000000
856.070618	195.500000
856.104187	192.700000
856.137695	194.000000
856.171265	189.800000
856.204834	197.200000
856.238403	201.300000
856.271912	194.100000
856.305481	198.200000
856.338989	191.500000
856.372559	199.700000
856.406128	198.600000
856.439636	200.500000
856.473145	195.200000
856.506653	202.600000
856.540222	196.700000
856.573792	202.700000
856.607300	200.600000
856.640808	191.600000
856.674377	197.000000
856.707825	229.900000
856.741394	202.200000
856.774902	193.500000
856.808472	191.200000
856.841980	199.000000
856.875488	202.300000
856.908936	192.200000
856.942505	195.200000
856.976013	196.300000
857.009521	194.000000
857.043030	196.900000
857.076477	196.500000
857.110046	202.900000
857.143555	197.700000
857.177063	199.800000
857.210571	197.500000
857.244080	193.300000
857.277527	199.500000
857.311035	195.300000
857.344543	201.200000
857.378052	196.300000
857.411499	202.900000
857.445068	201.600000
857.478516	196.500000
857.512024	193.300000
857.545532	196.700000
857.578979	198.900000
857.612427	197.300000
857.645874	194.700000
857.679382	198.700000
857.712891	199.800000
857.746399	195.700000
857.779846	201.000000
857.813354	200.900000
857.846741	196.500000
857.880249	192.200000
857.913757	198.600000
857.947266	197.000000
857.980652	199.500000
858.014160	196.100000
858.047546	195.400000
858.081055	195.300000
858.114563	207.600000
858.147949	191.600000
858.181458	198.900000
858.214844	196.100000
858.248352	192.000000
858.281799	201.600000
858.315308	205.800000
858.348694	200.700000
858.382141	204.800000
858.415588	200.500000
858.449036	201.500000
858.482483	198.400000
858.515930	194.900000
858.549377	196.600000
858.582825	202.200000
858.616211	198.200000
858.649658	200.300000
858.683105	193.500000
858.716553	195.900000
858.750000	192.200000
858.783386	195.000000
858.816833	190.900000
858.850281	198.400000
858.883728	197.600000
858.917114	197.100000
858.950562	203.400000
858.983948	202.500000
859.017395	200.900000
859.050781	194.900000
859.084167	191.800000
859.117615	193.400000
859.151062	200.400000
859.184448	194.700000
859.217834	195.100000
859.251282	195.500000
859.284668	192.100000
859.318054	191.000000
859.351440	195.700000
859.384888	203.100000
859.418274	189.600000
859.451721	190.000000
859.485046	199.000000
859.518494	199.000000
859.551819	194.300000
859.585266	200.200000
859.618652	201.900000
859.652039	192.000000
859.685425	193.900000
859.718811	192.300000
859.752197	189.400000
859.785583	202.200000
859.819031	203.500000
859.852356	198.600000
859.885742	194.900000
859.919067	197.100000
859.952454	196.200000
859.985901	201.100000
860.019287	196.700000
860.052612	0.000000
860.085999	0.000000
860.119324	0.000000
860.152710	0.000000
860.186096	0.000000
860.219421	0.000000
860.252808	0.000000
860.286133	0.000000
860.319519	0.000000
860.352905	0.000000
860.386292	0.000000
860.419617	0.000000
860.452942	0.000000
860.486267	0.000000
860.519653	0.000000
860.553040	0.000000
860.586365	0.000000
860.619690	0.000000
860.653076	0.000000
860.686340	0.000000
860.719727	0.000000
860.753113	0.000000
860.786377	0.000000
860.819763	0.000000
860.853027	0.000000
860.886414	0.000000
860.919739	0.000000
860.953125	0.000000
860.986389	0.000000
861.019714	0.000000
861.053040	0.000000
861.086365	0.000000
861.119690	0.000000
861.153076	0.000000
861.186340	0.000000
861.219666	0.000000
861.252930	0.000000
861.286316	0.000000
861.319641	0.000000
861.352905	0.000000
861.386230	0.000000
861.419495	0.000000
861.452820	0.000000
861.486145	0.000000
861.519470	0.000000
861.552734	0.000000
861.586060	0.000000
861.619324	0.000000
861.652649	0.000000
861.685974	0.000000
861.719238	0.000000
861.752563	0.000000
861.785828	0.000000
861.819092	0.000000
861.852417	0.000000
861.885742	0.000000
861.918945	0.000000
861.952271	0.000000
861.985535	0.000000
862.018799	0.000000
862.052124	0.000000
862.085449	0.000000
862.118652	0.000000
862.151978	0.000000
862.185181	0.000000
862.218506	0.000000
862.251770	0.000000
862.285034	0.000000
862.318298	0.000000
862.351562	0.000000
862.384827	0.000000
862.418091	0.000000
862.451355	0.000000
862.484619	0.000000
862.517883	0.000000
862.551086	0.000000
862.584351	0.000000
862.617676	0.000000
862.650940	0.000000
862.684143	0.000000
862.717407	0.000000
862.750610	0.000000
862.783875	0.000000
862.817139	0.000000
862.850342	0.000000
862.883606	0.000000
862.916870	0.000000
862.950073	0.000000
862.983337	0.000000
863.016602	0.000000
863.049805	0.000000
863.083069	0.000000
863.116211	0.000000
863.149475	0.000000
863.182739	0.000000
863.216003	0.000000
863.249146	0.000000
863.282410	0.000000
863.315613	0.000000
863.348816	0.000000
863.382080	0.000000
863.415222	0.000000
863.448486	0.000000
863.481689	0.000000
863.514893	0.000000
863.548157	0.000000
863.581360	0.000000
863.614502	0.000000
863.647766	0.000000
863.680908	0.000000
863.714172	0.000000
863.747375	0.000000
863.780579	0.000000
863.813721	0.000000
863.846985	0.000000
863.880127	0.000000
863.913330	0.000000
863.946533	0.000000
863.979675	0.000000
864.012939	0.000000
