Model Number: SPM-001-M   
Serial Number: 10090201
Firmware Version: 004.17.6
Exposure Time: 300000.000000us
Data Taken on: 11-02-2021 11:02:10.315
Wavelength	Amplitude
733.770752	0.000000
733.808716	0.000000
733.846619	0.000000
733.884583	0.000000
733.922546	0.000000
733.960449	0.000000
733.998413	0.000000
734.036377	0.000000
734.074219	0.000000
734.112183	0.000000
734.150085	0.000000
734.188049	0.000000
734.226013	0.000000
734.263916	0.000000
734.301819	0.000000
734.339783	0.000000
734.377686	0.000000
734.415588	0.000000
734.453552	0.000000
734.491455	0.000000
734.529419	0.000000
734.567322	0.000000
734.605225	0.000000
734.643127	0.000000
734.681091	0.000000
734.718994	0.000000
734.756897	0.000000
734.794800	0.000000
734.832703	0.000000
734.870667	0.000000
734.908508	0.000000
734.946472	0.000000
734.984375	0.000000
735.022278	0.000000
735.060181	0.000000
735.098083	0.000000
735.135986	0.000000
735.173889	0.000000
735.211792	0.000000
735.249695	0.000000
735.287598	0.000000
735.325439	0.000000
735.363403	0.000000
735.401306	0.000000
735.439148	0.000000
735.477051	0.000000
735.515015	0.000000
735.552856	0.000000
735.590759	0.000000
735.628662	0.000000
735.666504	0.000000
735.704407	0.000000
735.742310	0.000000
735.780212	0.000000
735.818115	0.000000
735.856018	0.000000
735.893860	0.000000
735.931763	0.000000
735.969604	0.000000
736.007507	0.000000
736.045410	0.000000
736.083252	0.000000
736.121094	0.000000
736.158997	0.000000
736.196838	0.000000
736.234741	0.000000
736.272644	0.000000
736.310486	0.000000
736.348389	0.000000
736.386230	0.000000
736.424072	0.000000
736.461975	0.000000
736.499878	0.000000
736.537720	0.000000
736.575562	0.000000
736.613403	0.000000
736.651306	0.000000
736.689148	0.000000
736.726990	0.000000
736.764893	0.000000
736.802734	0.000000
736.840576	0.000000
736.878418	0.000000
736.916321	0.000000
736.954102	0.000000
736.992004	0.000000
737.029846	0.000000
737.067688	0.000000
737.105530	0.000000
737.143372	0.000000
737.181213	0.000000
737.219116	0.000000
737.256897	0.000000
737.294739	0.000000
737.332642	0.000000
737.370422	0.000000
737.408325	0.000000
737.446167	0.000000
737.483948	0.000000
737.521790	0.000000
737.559692	0.000000
737.597473	0.000000
737.635315	0.000000
737.673157	0.000000
737.710999	0.000000
737.748840	0.000000
737.786621	0.000000
737.824463	0.000000
737.862305	0.000000
737.900085	0.000000
737.937927	0.000000
737.975769	0.000000
738.013550	0.000000
738.051392	0.000000
738.089233	0.000000
738.127014	0.000000
738.164856	0.000000
738.202698	0.000000
738.240479	0.000000
738.278320	0.000000
738.316162	0.000000
738.353943	0.000000
738.391785	0.000000
738.429565	0.000000
738.467407	0.000000
738.505188	0.000000
738.542969	0.000000
738.580811	0.000000
738.618652	0.000000
738.656372	0.000000
738.694214	0.000000
738.732056	0.000000
738.769836	0.000000
738.807617	0.000000
738.845459	0.000000
738.883240	0.000000
738.921021	0.000000
738.958862	0.000000
738.996582	0.000000
739.034424	0.000000
739.072205	0.000000
739.109985	0.000000
739.147827	0.000000
739.185547	0.000000
739.223389	0.000000
739.261169	0.000000
739.298889	0.000000
739.336731	0.000000
739.374512	0.000000
739.412292	0.000000
739.450073	0.000000
739.487854	0.000000
739.525635	0.000000
739.563416	0.000000
739.601135	0.000000
739.638977	0.000000
739.676758	0.000000
739.714478	0.000000
739.752258	0.000000
739.790100	0.000000
739.827820	0.000000
739.865601	0.000000
739.903381	0.000000
739.941101	0.000000
739.978882	199.100000
740.016724	195.400000
740.054443	199.200000
740.092224	193.400000
740.130005	193.500000
740.167725	191.700000
740.205505	193.000000
740.243225	198.100000
740.281006	196.600000
740.318787	190.000000
740.356506	201.700000
740.394287	198.000000
740.432068	192.500000
740.469727	188.800000
740.507507	197.400000
740.545288	194.800000
740.583008	198.300000
740.620789	194.000000
740.658569	189.700000
740.696228	195.700000
740.734009	199.400000
740.771790	185.800000
740.809509	199.400000
740.847229	190.200000
740.884949	193.600000
740.922729	189.300000
740.960449	193.700000
740.998169	191.000000
741.035950	191.900000
741.073669	194.500000
741.111389	195.800000
741.149170	202.800000
741.186890	201.800000
741.224609	197.900000
741.262329	195.700000
741.300110	202.000000
741.337769	191.800000
741.375549	190.200000
741.413208	194.700000
741.450989	192.400000
741.488708	193.200000
741.526367	192.800000
741.564148	198.000000
741.601868	198.400000
741.639526	193.700000
741.677307	196.700000
741.715027	195.700000
741.752686	192.600000
741.790466	198.100000
741.828186	196.500000
741.865845	188.800000
741.903564	189.100000
741.941345	194.800000
741.979004	191.600000
742.016724	197.000000
742.054382	195.600000
742.092102	197.000000
742.129822	190.700000
742.167480	192.600000
742.205200	193.900000
742.242920	195.800000
742.280640	197.600000
742.318359	190.800000
742.356079	194.200000
742.393738	196.300000
742.431396	193.400000
742.469116	197.400000
742.506775	186.300000
742.544495	195.600000
742.582214	198.600000
742.619873	193.000000
742.657593	200.600000
742.695251	199.000000
742.732971	194.100000
742.770630	196.300000
742.808289	195.200000
742.846008	195.100000
742.883728	195.400000
742.921326	194.700000
742.959045	192.600000
742.996765	194.000000
743.034424	194.700000
743.072083	193.200000
743.109802	194.900000
743.147400	191.200000
743.185120	194.900000
743.222839	195.000000
743.260437	199.300000
743.298157	197.600000
743.335754	186.900000
743.373474	195.300000
743.411133	188.400000
743.448792	195.000000
743.486450	195.300000
743.524170	190.900000
743.561768	193.600000
743.599487	200.300000
743.637146	202.300000
743.674744	194.100000
743.712463	193.400000
743.750122	194.900000
743.787720	195.800000
743.825439	193.500000
743.863037	194.400000
743.900696	193.800000
743.938416	219.700000
743.976013	193.800000
744.013672	200.800000
744.051331	199.300000
744.088928	202.300000
744.126587	197.900000
744.164307	195.000000
744.201904	192.300000
744.239563	196.700000
744.277222	197.700000
744.314819	195.300000
744.352478	200.200000
744.390137	197.900000
744.427734	196.400000
744.465393	193.300000
744.502991	191.900000
744.540649	198.300000
744.578308	194.900000
744.615906	191.800000
744.653564	186.900000
744.691223	197.900000
744.728821	190.800000
744.766418	196.100000
744.804077	197.300000
744.841675	194.900000
744.879333	189.700000
744.916992	195.600000
744.954529	191.700000
744.992187	200.200000
745.029785	192.900000
745.067444	193.900000
745.105042	195.100000
745.142639	196.800000
745.180298	204.100000
745.217896	195.500000
745.255493	193.400000
745.293152	199.100000
745.330750	198.800000
745.368347	200.200000
745.405945	196.600000
745.443604	195.400000
745.481140	197.400000
745.518799	194.800000
745.556396	197.700000
745.593994	197.400000
745.631592	195.800000
745.669189	190.200000
745.706787	194.300000
745.744385	192.500000
745.781982	196.800000
745.819580	191.600000
745.857178	195.400000
745.894775	194.300000
745.932373	196.800000
745.969971	195.900000
746.007568	189.200000
746.045166	201.100000
746.082764	201.500000
746.120300	196.700000
746.157898	197.300000
746.195557	194.500000
746.233093	191.400000
746.270691	196.100000
746.308228	196.900000
746.345825	199.000000
746.383423	198.000000
746.420959	192.300000
746.458557	191.800000
746.496155	192.400000
746.533691	195.300000
746.571289	190.700000
746.608887	195.700000
746.646423	194.500000
746.684021	196.300000
746.721619	191.200000
746.759155	197.100000
746.796753	188.600000
746.834351	190.200000
746.871826	191.400000
746.909424	200.700000
746.946960	195.000000
746.984558	195.000000
747.022156	192.100000
747.059631	201.600000
747.097229	196.900000
747.134827	194.200000
747.172363	198.700000
747.209900	197.900000
747.247498	191.200000
747.285034	199.600000
747.322571	199.900000
747.360168	193.400000
747.397644	188.800000
747.435242	197.500000
747.472778	199.700000
747.510315	193.000000
747.547913	195.200000
747.585388	198.900000
747.622925	194.600000
747.660522	188.600000
747.697998	193.300000
747.735596	194.400000
747.773132	194.800000
747.810669	193.600000
747.848206	199.000000
747.885742	191.800000
747.923279	190.300000
747.960815	194.900000
747.998352	195.900000
748.035889	197.500000
748.073425	198.100000
748.110901	192.600000
748.148437	192.300000
748.185974	194.100000
748.223511	203.500000
748.261047	197.200000
748.298584	196.500000
748.336060	194.500000
748.373596	197.100000
748.411133	219.000000
748.448608	193.300000
748.486145	198.100000
748.523682	198.500000
748.561218	200.600000
748.598755	195.900000
748.636292	196.800000
748.673706	193.200000
748.711243	201.200000
748.748718	196.100000
748.786255	195.700000
748.823792	193.800000
748.861267	191.300000
748.898804	198.000000
748.936340	196.800000
748.973816	192.500000
749.011292	201.400000
749.048828	197.200000
749.086304	195.900000
749.123840	202.900000
749.161316	191.900000
749.198792	201.900000
749.236328	200.900000
749.273743	192.700000
749.311279	194.900000
749.348816	198.600000
749.386230	195.800000
749.423767	185.600000
749.461304	199.000000
749.498718	194.500000
749.536255	200.500000
749.573730	204.200000
749.611206	201.500000
749.648682	194.200000
749.686218	196.800000
749.723633	197.000000
749.761169	192.900000
749.798645	191.100000
749.836060	194.200000
749.873596	191.400000
749.911011	197.600000
749.948547	200.500000
749.986023	194.000000
750.023437	194.300000
750.060913	189.400000
750.098450	189.300000
750.135864	194.100000
750.173340	195.800000
750.210815	199.500000
750.248291	191.700000
750.285767	193.600000
750.323242	198.600000
750.360657	197.100000
750.398132	192.000000
750.435608	198.000000
750.473022	193.400000
750.510498	191.700000
750.547974	192.500000
750.585449	193.700000
750.622925	188.000000
750.660339	203.900000
750.697815	196.200000
750.735291	194.200000
750.772644	200.400000
750.810120	194.400000
750.847595	198.000000
750.885010	189.000000
750.922485	202.800000
750.959961	193.500000
750.997375	201.500000
751.034851	198.000000
751.072266	199.000000
751.109680	188.800000
751.147156	200.700000
751.184570	195.600000
751.221985	195.300000
751.259460	187.700000
751.296875	195.200000
751.334290	194.000000
751.371765	200.100000
751.409180	196.600000
751.446594	200.400000
751.484070	195.800000
751.521423	196.100000
751.558899	195.600000
751.596375	202.800000
751.633728	201.000000
751.671204	203.600000
751.708618	191.800000
751.746033	196.300000
751.783447	191.100000
751.820801	192.000000
751.858276	198.000000
751.895691	195.000000
751.933105	194.200000
751.970520	189.900000
752.007935	193.400000
752.045349	198.400000
752.082764	195.300000
752.120178	191.100000
752.157532	193.300000
752.195007	193.000000
752.232422	198.400000
752.269775	198.000000
752.307190	198.700000
752.344543	190.200000
752.382019	195.400000
752.419434	193.700000
752.456787	199.500000
752.494202	199.000000
752.531616	196.100000
752.568970	195.700000
752.606384	198.500000
752.643799	196.100000
752.681152	202.100000
752.718567	196.800000
752.755981	190.100000
752.793335	197.200000
752.830750	190.800000
752.868164	198.900000
752.905518	190.000000
752.942932	198.000000
752.980225	191.900000
753.017639	197.900000
753.055054	196.100000
753.092407	196.300000
753.129822	198.800000
753.167175	202.400000
753.204529	195.200000
753.241943	194.200000
753.279358	191.100000
753.316650	199.100000
753.354065	197.700000
753.391479	200.200000
753.428772	202.000000
753.466187	197.500000
753.503479	191.300000
753.540894	194.600000
753.578308	191.200000
753.615601	192.500000
753.653015	194.500000
753.690369	193.900000
753.727722	191.800000
753.765076	190.300000
753.802490	191.000000
753.839783	190.500000
753.877136	192.000000
753.914551	205.700000
753.951843	192.400000
753.989258	199.700000
754.026611	194.000000
754.063904	197.900000
754.101257	190.500000
754.138611	190.000000
754.175964	195.600000
754.213318	203.800000
754.250610	190.200000
754.288025	193.500000
754.325378	191.000000
754.362671	198.800000
754.400024	195.800000
754.437378	203.200000
754.474670	202.300000
754.512085	192.800000
754.549438	195.900000
754.586731	192.700000
754.624084	194.000000
754.661438	191.100000
754.698730	202.800000
754.736084	193.900000
754.773376	195.300000
754.810730	195.900000
754.848083	194.900000
754.885315	199.500000
754.922668	190.700000
754.960022	193.000000
754.997314	199.500000
755.034668	194.800000
755.072021	198.800000
755.109253	194.100000
755.146606	202.300000
755.183960	195.500000
755.221252	203.800000
755.258545	198.500000
755.295898	202.300000
755.333191	200.600000
755.370544	199.100000
755.407776	195.900000
755.445129	198.300000
755.482422	200.700000
755.519714	195.800000
755.557068	190.600000
755.594360	190.800000
755.631653	198.200000
755.668945	202.900000
755.706299	197.900000
755.743530	206.600000
755.780884	202.500000
755.818176	200.800000
755.855408	200.100000
755.892761	200.600000
755.930054	197.600000
755.967346	199.400000
756.004639	199.000000
756.041870	198.200000
756.079224	201.100000
756.116516	195.000000
756.153748	200.300000
756.191040	204.000000
756.228394	200.500000
756.265625	193.500000
756.302917	199.400000
756.340210	194.500000
756.377441	202.300000
756.414795	203.300000
756.452087	198.700000
756.489319	193.600000
756.526611	203.700000
756.563843	198.300000
756.601135	206.700000
756.638428	205.100000
756.675659	198.600000
756.712952	202.500000
756.750244	202.400000
756.787476	199.000000
756.824768	203.600000
756.862061	196.900000
756.899292	246.900000
756.936584	201.400000
756.973816	208.800000
757.011047	207.700000
757.048340	201.100000
757.085632	200.200000
757.122864	213.500000
757.160156	197.000000
757.197327	202.200000
757.234619	203.600000
757.271912	199.700000
757.309082	204.200000
757.346375	199.100000
757.383667	204.600000
757.420837	202.100000
757.458130	202.200000
757.495422	200.100000
757.532593	203.400000
757.569885	195.400000
757.607117	198.400000
757.644348	203.000000
757.681580	212.600000
757.718811	192.800000
757.756042	201.600000
757.793335	199.300000
757.830505	204.700000
757.867798	200.100000
757.905029	199.100000
757.942200	201.200000
757.979492	200.000000
758.016724	200.600000
758.053894	201.300000
758.091187	216.000000
758.128418	202.300000
758.165588	201.800000
758.202820	212.900000
758.240112	200.800000
758.277283	212.000000
758.314514	203.300000
758.351685	201.500000
758.388916	208.400000
758.426147	210.000000
758.463379	210.400000
758.500610	208.200000
758.537842	203.800000
758.575012	210.300000
758.612244	200.200000
758.649475	215.700000
758.686646	199.800000
758.723877	211.100000
758.761108	211.000000
758.798279	206.200000
758.835510	206.700000
758.872742	211.100000
758.909851	207.400000
758.947083	208.400000
758.984253	208.000000
759.021484	211.300000
759.058716	209.700000
759.095886	211.200000
759.133057	205.800000
759.170288	209.500000
759.207458	204.800000
759.244690	215.700000
759.281860	215.200000
759.319031	209.000000
759.356262	207.100000
759.393433	206.400000
759.430603	209.300000
759.467773	207.100000
759.505005	214.200000
759.542175	212.400000
759.579346	208.400000
759.616516	209.300000
759.653687	212.900000
759.690918	207.000000
759.728027	210.600000
759.765259	211.600000
759.802429	215.100000
759.839539	211.000000
759.876770	215.700000
759.913940	218.900000
759.951111	212.900000
759.988281	212.000000
760.025452	210.400000
760.062561	206.900000
760.099792	221.000000
760.136963	213.100000
760.174072	209.900000
760.211243	207.600000
760.248413	209.900000
760.285583	208.700000
760.322754	221.300000
760.359863	219.100000
760.397034	218.000000
760.434204	211.800000
760.471375	213.500000
760.508545	213.100000
760.545715	212.600000
760.582825	210.200000
760.619995	215.400000
760.657166	210.500000
760.694275	219.300000
760.731445	215.700000
760.768555	216.100000
760.805664	218.100000
760.842834	215.200000
760.879944	218.700000
760.917114	216.700000
760.954285	215.600000
760.991394	209.800000
761.028564	220.300000
761.065674	217.700000
761.102783	213.900000
761.139954	219.700000
761.177124	221.300000
761.214172	220.600000
761.251343	217.700000
761.288452	215.400000
761.325562	221.600000
761.362732	214.500000
761.399841	218.100000
761.436951	219.300000
761.474121	216.100000
761.511169	218.500000
761.548340	223.300000
761.585449	220.600000
761.622559	222.400000
761.659668	219.800000
761.696838	226.700000
761.733887	220.900000
761.771057	218.000000
761.808167	220.100000
761.845276	224.200000
761.882385	230.300000
761.919434	222.200000
761.956604	234.800000
761.993713	219.000000
762.030762	225.800000
762.067871	221.000000
762.105042	223.100000
762.142090	229.700000
762.179199	223.200000
762.216309	226.600000
762.253418	235.400000
762.290527	231.300000
762.327637	229.300000
762.364685	219.800000
762.401794	227.200000
762.438904	227.000000
762.475952	223.900000
762.513062	223.000000
762.550110	223.800000
762.587219	234.600000
762.624329	233.000000
762.661377	227.200000
762.698486	228.800000
762.735596	226.800000
762.772644	224.000000
762.809753	221.300000
762.846863	227.700000
762.883911	232.500000
762.921021	232.200000
762.958069	228.500000
762.995117	235.100000
763.032227	234.900000
763.069336	226.400000
763.106323	223.400000
763.143433	222.700000
763.180481	229.000000
763.217590	232.700000
763.254639	229.800000
763.291687	229.300000
763.328735	236.500000
763.365845	232.300000
763.402893	230.300000
763.439941	231.600000
763.477051	231.800000
763.514038	233.700000
763.551147	227.100000
763.588196	230.300000
763.625244	230.700000
763.662292	239.300000
763.699402	242.700000
763.736389	237.600000
763.773499	245.400000
763.810486	237.100000
763.847534	235.800000
763.884644	236.500000
763.921631	232.900000
763.958679	240.800000
763.995728	236.200000
764.032776	240.900000
764.069824	233.800000
764.106873	242.100000
764.143860	247.600000
764.180969	238.000000
764.218018	245.200000
764.255005	236.400000
764.292053	240.800000
764.329102	246.600000
764.366089	247.300000
764.403137	243.600000
764.440125	240.300000
764.477173	243.100000
764.514221	246.700000
764.551208	244.700000
764.588257	243.900000
764.625305	248.200000
764.662292	254.300000
764.699341	254.400000
764.736389	251.200000
764.773376	261.000000
764.810425	250.600000
764.847473	254.400000
764.884399	252.900000
764.921448	258.400000
764.958435	257.100000
764.995483	250.600000
765.032532	264.200000
765.069458	255.700000
765.106506	256.400000
765.143555	254.800000
765.180481	256.700000
765.217529	263.000000
765.254578	251.600000
765.291504	261.200000
765.328552	258.200000
765.365540	256.600000
765.402527	266.700000
765.439575	257.800000
765.476501	254.500000
765.513550	256.800000
765.550537	259.000000
765.587463	266.500000
765.624512	259.600000
765.661499	255.400000
765.698486	263.800000
765.735474	257.900000
765.772461	260.700000
765.809448	269.300000
765.846436	264.200000
765.883423	269.800000
765.920410	265.200000
765.957397	262.500000
765.994385	267.300000
766.031311	273.900000
766.068359	266.700000
766.105286	269.100000
766.142273	274.600000
766.179260	270.800000
766.216187	265.700000
766.253174	264.500000
766.290161	270.900000
766.327148	272.100000
766.364136	272.100000
766.401123	282.600000
766.438049	267.300000
766.475037	277.600000
766.512024	275.800000
766.548950	288.400000
766.585937	283.500000
766.622864	277.500000
766.659790	278.300000
766.696777	270.400000
766.733704	282.800000
766.770691	273.500000
766.807678	284.200000
766.844604	278.900000
766.881531	281.100000
766.918518	285.800000
766.955444	285.800000
766.992432	279.200000
767.029358	283.600000
767.066284	283.900000
767.103271	283.300000
767.140198	315.200000
767.177124	296.100000
767.214050	286.700000
767.251038	289.400000
767.287964	285.800000
767.324890	283.900000
767.361816	287.200000
767.398743	292.700000
767.435730	285.600000
767.472595	289.500000
767.509583	294.300000
767.546509	285.600000
767.583374	289.300000
767.620361	285.900000
767.657288	289.700000
767.694214	288.200000
767.731140	288.000000
767.768066	291.400000
767.804993	292.600000
767.841919	290.100000
767.878845	292.500000
767.915710	297.800000
767.952698	292.200000
767.989563	295.300000
768.026489	296.600000
768.063416	291.200000
768.100281	292.700000
768.137207	299.900000
768.174133	296.400000
768.211060	297.000000
768.247986	298.000000
768.284912	295.000000
768.321777	298.600000
768.358704	293.700000
768.395630	296.500000
768.432495	291.800000
768.469421	299.700000
768.506348	302.000000
768.543152	306.000000
768.580078	302.900000
768.616943	303.200000
768.653870	304.500000
768.690796	307.000000
768.727661	305.000000
768.764587	307.500000
768.801453	301.300000
768.838318	309.000000
768.875244	308.400000
768.912109	314.400000
768.948975	304.600000
768.985901	310.100000
769.022766	305.300000
769.059631	310.900000
769.096558	307.000000
769.133362	309.200000
769.170288	310.200000
769.207214	311.000000
769.244019	315.400000
769.280945	313.000000
769.317810	320.100000
769.354675	315.400000
769.391541	323.200000
769.428406	322.200000
769.465271	326.400000
769.502136	317.600000
769.539062	323.800000
769.575867	321.100000
769.612732	326.400000
769.649597	331.400000
769.686462	332.400000
769.723328	326.000000
769.760193	325.000000
769.797058	325.300000
769.833923	334.400000
769.870728	334.400000
769.907593	335.200000
769.944519	331.700000
769.981323	337.200000
770.018188	333.300000
770.055054	334.400000
770.091858	332.400000
770.128723	342.000000
770.165588	345.700000
770.202393	337.700000
770.239258	344.500000
770.276062	342.800000
770.312927	346.300000
770.349792	352.800000
770.386597	348.100000
770.423462	356.400000
770.460327	360.800000
770.497131	351.000000
770.533997	349.000000
770.570862	358.200000
770.607605	358.300000
770.644470	357.500000
770.681335	356.300000
770.718140	357.900000
770.754944	353.900000
770.791809	355.500000
770.828613	354.600000
770.865479	357.100000
770.902222	367.900000
770.939087	363.300000
770.975952	355.800000
771.012695	358.900000
771.049561	370.900000
771.086365	364.700000
771.123169	362.600000
771.159973	364.500000
771.196838	367.400000
771.233582	367.900000
771.270447	369.500000
771.307251	371.800000
771.344055	370.600000
771.380859	370.900000
771.417664	368.300000
771.454468	376.400000
771.491272	377.100000
771.528076	378.300000
771.564880	375.300000
771.601685	379.300000
771.638428	372.200000
771.675293	379.600000
771.712097	373.500000
771.748840	390.500000
771.785645	386.400000
771.822449	383.700000
771.859253	386.900000
771.896057	384.100000
771.932861	394.900000
771.969604	387.000000
772.006409	381.700000
772.043213	391.300000
772.079956	389.700000
772.116760	383.100000
772.153503	385.000000
772.190308	396.900000
772.227112	390.800000
772.263855	387.200000
772.300659	389.900000
772.337463	391.900000
772.374207	387.600000
772.411011	388.000000
772.447754	391.600000
772.484497	404.700000
772.521301	395.300000
772.558105	392.100000
772.594849	397.100000
772.631592	403.100000
772.668396	402.400000
772.705139	410.700000
772.741882	405.500000
772.778625	409.400000
772.815430	412.600000
772.852173	409.400000
772.888916	417.600000
772.925720	422.400000
772.962463	420.900000
772.999207	412.700000
773.035950	413.500000
773.072754	417.100000
773.109436	412.800000
773.146240	424.600000
773.182922	418.700000
773.219727	422.700000
773.256470	417.600000
773.293152	411.400000
773.329956	415.700000
773.366699	425.700000
773.403381	419.600000
773.440186	423.500000
773.476929	420.100000
773.513611	418.600000
773.550354	423.700000
773.587158	427.200000
773.623840	426.000000
773.660583	426.700000
773.697327	430.400000
773.734009	424.200000
773.770813	419.800000
773.807495	424.800000
773.844238	430.600000
773.880981	435.500000
773.917664	429.400000
773.954407	430.800000
773.991150	427.400000
774.027832	437.900000
774.064575	435.300000
774.101318	436.400000
774.138000	434.700000
774.174744	432.300000
774.211487	437.900000
774.248108	432.300000
774.284851	435.600000
774.321594	442.200000
774.358276	438.200000
774.395020	444.600000
774.431702	438.800000
774.468384	433.900000
774.505127	441.100000
774.541809	450.000000
774.578491	450.600000
774.615234	445.400000
774.651917	440.600000
774.688599	444.400000
774.725342	458.600000
774.762024	456.400000
774.798706	457.600000
774.835449	452.900000
774.872070	454.800000
774.908813	453.700000
774.945496	459.400000
774.982178	463.200000
775.018860	466.200000
775.055542	462.400000
775.092224	462.300000
775.128967	461.900000
775.165588	464.100000
775.202271	464.400000
775.239014	474.400000
775.275635	469.100000
775.312317	460.900000
775.349060	465.600000
775.385681	470.100000
775.422363	467.400000
775.459045	478.100000
775.495667	480.100000
775.532410	475.300000
775.569092	476.000000
775.605713	472.800000
775.642395	473.400000
775.679016	478.400000
775.715698	485.400000
775.752380	480.400000
775.789001	475.600000
775.825684	477.300000
775.862366	487.600000
775.898987	501.700000
775.935669	494.700000
775.972351	501.900000
776.008972	496.200000
776.045654	493.900000
776.082336	495.400000
776.118958	500.200000
776.155640	504.900000
776.192322	506.100000
776.228882	507.700000
776.265564	501.400000
776.302185	498.500000
776.338867	512.400000
776.375488	505.200000
776.412109	512.200000
776.448792	513.100000
776.485413	518.100000
776.522034	509.800000
776.558716	510.500000
776.595337	516.900000
776.631958	522.000000
776.668579	521.400000
776.705261	521.500000
776.741882	513.300000
776.778503	519.400000
776.815186	523.300000
776.851746	530.300000
776.888367	526.700000
776.924988	532.300000
776.961609	521.500000
776.998291	523.000000
777.034851	525.100000
777.071472	537.500000
777.108154	528.500000
777.144714	540.100000
777.181335	534.000000
777.218018	528.600000
777.254578	541.800000
777.291199	547.100000
777.327759	549.700000
777.364380	557.000000
777.401062	559.200000
777.437622	564.100000
777.474243	556.700000
777.510864	566.500000
777.547424	561.400000
777.584045	567.600000
777.620667	564.900000
777.657227	566.100000
777.693848	563.500000
777.730469	580.900000
777.767029	564.500000
777.803650	569.100000
777.840271	561.000000
777.876831	561.700000
777.913452	564.400000
777.950012	554.600000
777.986633	554.700000
778.023193	554.700000
778.059753	556.900000
778.096375	559.600000
778.132996	566.500000
778.169556	557.700000
778.206116	564.100000
778.242737	564.700000
778.279297	570.300000
778.315857	567.700000
778.352478	575.400000
778.389038	573.000000
778.425598	582.600000
778.462219	587.100000
778.498718	584.300000
778.535339	588.200000
778.571838	592.400000
778.608459	589.000000
778.645020	582.300000
778.681580	592.100000
778.718140	593.000000
778.754761	585.200000
778.791260	592.500000
778.827881	596.900000
778.864441	591.900000
778.900940	601.100000
778.937561	596.100000
778.974121	592.900000
779.010620	593.400000
779.047241	591.600000
779.083801	599.800000
779.120300	599.400000
779.156860	599.900000
779.193359	597.000000
779.229980	608.300000
779.266541	613.400000
779.303040	612.300000
779.339600	602.500000
779.376160	597.300000
779.412659	603.800000
779.449219	604.800000
779.485779	609.800000
779.522278	608.300000
779.558838	603.300000
779.595398	607.000000
779.631897	602.300000
779.668457	600.400000
779.705017	612.500000
779.741516	603.200000
779.778076	590.600000
779.814575	591.500000
779.851074	594.300000
779.887634	594.300000
779.924133	607.400000
779.960693	600.700000
779.997253	612.300000
780.033691	609.000000
780.070251	605.300000
780.106812	610.800000
780.143250	612.000000
780.179810	617.600000
780.216370	623.600000
780.252808	616.600000
780.289368	620.500000
780.325867	620.200000
780.362366	617.800000
780.398865	633.900000
780.435364	633.100000
780.471863	639.900000
780.508423	629.900000
780.544861	624.500000
780.581421	620.900000
780.617920	612.100000
780.654419	623.900000
780.690918	626.200000
780.727417	628.800000
780.763916	625.800000
780.800415	624.500000
780.836914	616.200000
780.873352	634.000000
780.909912	630.300000
780.946411	634.000000
780.982849	641.200000
781.019348	647.100000
781.055786	638.600000
781.092346	640.800000
781.128845	657.400000
781.165283	652.900000
781.201782	658.400000
781.238281	655.700000
781.274719	650.500000
781.311218	646.400000
781.347717	659.000000
781.384155	648.500000
781.420654	655.600000
781.457092	660.500000
781.493591	654.700000
781.530090	643.800000
781.566528	658.100000
781.602966	653.100000
781.639465	659.600000
781.675903	652.900000
781.712402	657.600000
781.748901	658.300000
781.785278	656.400000
781.821777	660.600000
781.858276	664.500000
781.894714	676.400000
781.931152	666.600000
781.967651	672.500000
782.004089	670.700000
782.040527	676.900000
782.076965	679.900000
782.113403	683.800000
782.149902	683.300000
782.186340	673.800000
782.222778	683.600000
782.259277	679.300000
782.295654	684.900000
782.332092	683.600000
782.368591	683.200000
782.404968	681.000000
782.441467	687.800000
782.477905	690.100000
782.514282	695.400000
782.550781	704.700000
782.587219	698.400000
782.623596	710.900000
782.660095	707.300000
782.696472	718.800000
782.732910	725.000000
782.769348	728.100000
782.805786	738.900000
782.842224	735.400000
782.878662	731.800000
782.915039	734.100000
782.951477	738.000000
782.987915	735.800000
783.024292	739.700000
783.060730	737.700000
783.097168	723.300000
783.133545	717.900000
783.169983	713.200000
783.206421	707.100000
783.242798	703.000000
783.279236	690.800000
783.315613	694.600000
783.352051	690.400000
783.388489	688.200000
783.424866	685.600000
783.461304	692.900000
783.497681	699.600000
783.534058	691.700000
783.570496	691.900000
783.606934	695.500000
783.643250	698.100000
783.679687	705.600000
783.716125	704.700000
783.752441	706.600000
783.788879	716.700000
783.825317	719.100000
783.861633	709.300000
783.898071	707.900000
783.934448	713.000000
783.970825	696.300000
784.007263	679.500000
784.043579	674.400000
784.080017	658.100000
784.116394	632.400000
784.152710	615.400000
784.189148	602.700000
784.225525	585.700000
784.261902	573.300000
784.298279	564.900000
784.334656	563.200000
784.371033	555.900000
784.407410	559.900000
784.443787	555.500000
784.480164	559.600000
784.516541	567.200000
784.552856	597.300000
784.589233	606.600000
784.625610	621.900000
784.661987	652.900000
784.698364	663.000000
784.734741	675.900000
784.771057	691.700000
784.807434	707.500000
784.843811	726.200000
784.880127	732.300000
784.916504	747.600000
784.952881	742.200000
784.989197	750.000000
785.025574	757.500000
785.061951	772.000000
785.098267	788.400000
785.134644	774.500000
785.170959	766.800000
785.207275	776.800000
785.243652	780.000000
785.279968	769.700000
785.316345	769.900000
785.352722	760.900000
785.388977	748.000000
785.425354	728.900000
785.461731	722.700000
785.498047	723.700000
785.534363	718.800000
785.570679	717.400000
785.606995	707.000000
785.643372	710.100000
785.679687	713.100000
785.716003	721.700000
785.752380	728.000000
785.788635	734.000000
785.825012	736.800000
785.861328	734.000000
785.897644	726.200000
785.933960	739.200000
785.970337	758.400000
786.006592	776.800000
786.042908	782.000000
786.079285	776.500000
786.115540	783.200000
786.151855	789.100000
786.188171	788.400000
786.224487	787.900000
786.260803	793.500000
786.297119	796.800000
786.333435	783.300000
786.369751	772.300000
786.406006	774.300000
786.442322	765.200000
786.478638	763.800000
786.514954	771.300000
786.551270	757.600000
786.587585	753.600000
786.623840	744.000000
786.660156	739.400000
786.696472	741.600000
786.732727	741.200000
786.769043	739.700000
786.805298	727.300000
786.841614	734.200000
786.877930	746.000000
786.914124	737.300000
786.950439	756.500000
786.986755	767.600000
787.023010	774.400000
787.059326	771.400000
787.095642	776.000000
787.131836	788.800000
787.168152	789.700000
787.204468	801.600000
787.240723	809.200000
787.276978	809.600000
787.313293	807.700000
787.349548	799.100000
787.385803	802.600000
787.422058	798.700000
787.458313	802.300000
787.494629	797.600000
787.530823	793.900000
787.567139	780.000000
787.603455	777.200000
787.639648	772.600000
787.675903	775.100000
787.712219	769.200000
787.748413	762.300000
787.784729	774.700000
787.820984	762.600000
787.857178	759.800000
787.893494	765.000000
787.929749	770.800000
787.965942	775.200000
788.002258	781.500000
788.038452	785.500000
788.074707	781.600000
788.110962	793.600000
788.147217	792.900000
788.183472	805.400000
788.219727	805.500000
788.255920	816.600000
788.292175	815.600000
788.328430	811.200000
788.364624	803.700000
788.400879	814.300000
788.437134	820.800000
788.473328	817.500000
788.509583	813.100000
788.545837	807.300000
788.582031	811.700000
788.618286	819.300000
788.654480	820.800000
788.690735	823.100000
788.726990	843.500000
788.763184	838.600000
788.799377	840.000000
788.835632	826.900000
788.871826	842.700000
788.908081	837.200000
788.944336	830.700000
788.980469	834.500000
789.016724	827.000000
789.052979	824.500000
789.089111	804.500000
789.125366	819.200000
789.161621	805.600000
789.197754	817.300000
789.234009	813.900000
789.270142	795.700000
789.306396	792.400000
789.342590	795.700000
789.378784	791.200000
789.414978	794.600000
789.451233	805.100000
789.487366	802.600000
789.523621	808.800000
789.559814	810.400000
789.595947	815.300000
789.632202	828.400000
789.668335	836.200000
789.704529	850.200000
789.740784	851.200000
789.776917	849.600000
789.813110	848.600000
789.849304	866.900000
789.885498	861.500000
789.921692	880.800000
789.957886	873.200000
789.994019	863.300000
790.030212	859.900000
790.066406	869.100000
790.102539	866.000000
790.138733	876.100000
790.174927	867.300000
790.211060	868.400000
790.247253	847.800000
790.283386	840.700000
790.319580	838.100000
790.355774	840.900000
790.391907	850.900000
790.428101	866.800000
790.464294	849.900000
790.500427	845.400000
790.536621	832.300000
790.572754	832.000000
790.608887	833.900000
790.645081	835.900000
790.681274	836.800000
790.717346	829.400000
790.753540	813.400000
790.789734	801.800000
790.825867	799.800000
790.862000	817.500000
790.898132	829.700000
790.934265	821.800000
790.970459	807.700000
791.006592	811.100000
791.042725	816.400000
791.078918	812.900000
791.114990	816.600000
791.151184	824.000000
791.187317	827.000000
791.223389	823.800000
791.259583	816.000000
791.295715	822.600000
791.331848	831.700000
791.367981	843.700000
791.404114	841.600000
791.440247	828.300000
791.476379	824.600000
791.512451	812.300000
791.548584	822.000000
791.584778	827.000000
791.620850	841.200000
791.656982	836.400000
791.693115	820.900000
791.729187	812.100000
791.765381	820.500000
791.801514	823.000000
791.837585	824.700000
791.873718	823.600000
791.909851	822.800000
791.945923	822.700000
791.982056	799.500000
792.018188	797.600000
792.054260	815.200000
792.090393	815.800000
792.126465	807.000000
792.162598	801.900000
792.198669	786.900000
792.234741	788.000000
792.270874	791.300000
792.307007	780.000000
792.343079	791.300000
792.379150	791.900000
792.415283	777.400000
792.451355	777.100000
792.487488	764.600000
792.523560	775.100000
792.559631	777.900000
792.595764	765.300000
792.631836	735.000000
792.667908	718.700000
792.703979	715.100000
792.740051	750.500000
792.776184	813.100000
792.812256	857.500000
792.848328	879.000000
792.884399	877.600000
792.920471	871.700000
792.956543	878.700000
792.992615	880.100000
793.028748	888.800000
793.064758	891.700000
793.100830	899.000000
793.136963	901.200000
793.172974	895.100000
793.209045	891.600000
793.245178	907.000000
793.281189	903.700000
793.317261	914.100000
793.353271	904.100000
793.389404	908.800000
793.425476	898.000000
793.461487	886.800000
793.497559	889.400000
793.533630	905.600000
793.569641	903.500000
793.605713	905.800000
793.641785	902.400000
793.677795	901.400000
793.713867	885.000000
793.749878	896.600000
793.785950	910.500000
793.822021	908.600000
793.858032	897.200000
793.894104	915.700000
793.930176	899.800000
793.966187	904.700000
794.002258	893.600000
794.038269	905.200000
794.074280	902.500000
794.110352	921.500000
794.146423	892.100000
794.182373	881.000000
794.218445	878.000000
794.254517	883.800000
794.290466	875.500000
794.326538	878.800000
794.362549	881.200000
794.398560	878.300000
794.434631	875.400000
794.470581	860.700000
794.506653	869.400000
794.542664	877.600000
794.578674	871.500000
794.614685	870.700000
794.650757	872.600000
794.686707	870.700000
794.722778	868.000000
794.758789	873.200000
794.794739	891.400000
794.830811	906.600000
794.866821	911.100000
794.902771	901.200000
794.938843	891.800000
794.974792	905.900000
795.010803	911.000000
795.046814	905.100000
795.082825	892.300000
795.118835	902.800000
795.154846	876.700000
795.190796	881.200000
795.226807	876.200000
795.262817	886.900000
795.298767	886.700000
795.334778	890.000000
795.370850	873.600000
795.406799	871.700000
795.442810	864.500000
795.478821	864.800000
795.514709	872.000000
795.550720	900.700000
795.586670	875.800000
795.622681	872.200000
795.658691	871.700000
795.694641	875.900000
795.730652	871.700000
795.766663	889.800000
795.802551	886.600000
795.838562	897.200000
795.874573	877.600000
795.910522	875.800000
795.946472	879.000000
795.982483	893.900000
796.018433	895.100000
796.054382	905.300000
796.090393	890.600000
796.126282	872.700000
796.162292	867.000000
796.198242	875.000000
796.234192	875.200000
796.270203	878.800000
796.306091	881.100000
796.342041	883.100000
796.378052	875.200000
796.413940	879.200000
796.449951	883.300000
796.485901	886.500000
796.521790	893.900000
796.557800	905.000000
796.593689	888.400000
796.629639	876.500000
796.665649	870.400000
796.701599	883.700000
796.737488	887.200000
796.773437	895.600000
796.809387	891.300000
796.845337	888.200000
796.881287	876.100000
796.917175	866.300000
796.953125	877.200000
796.989075	887.500000
797.024963	887.100000
797.060913	875.500000
797.096863	866.700000
797.132751	868.800000
797.168701	868.500000
797.204590	876.200000
797.240540	877.400000
797.276489	877.200000
797.312439	867.000000
797.348328	851.600000
797.384277	841.700000
797.420166	842.000000
797.456055	856.300000
797.492004	850.400000
797.527893	853.000000
797.563843	843.300000
797.599731	843.400000
797.635620	831.500000
797.671570	848.900000
797.707520	847.200000
797.743347	843.900000
797.779297	851.000000
797.815125	837.000000
797.851074	821.200000
797.887024	820.400000
797.922913	832.800000
797.958801	838.500000
797.994690	834.000000
798.030579	836.300000
798.066467	827.300000
798.102356	817.300000
798.138245	818.800000
798.174133	817.900000
798.210083	828.700000
798.245911	829.400000
798.281799	817.700000
798.317749	806.600000
798.353577	813.800000
798.389465	812.000000
798.425293	813.800000
798.461243	810.300000
798.497131	813.200000
798.532959	803.700000
798.568848	805.200000
798.604736	796.700000
798.640564	792.200000
798.676453	791.200000
798.712402	792.900000
798.748230	788.500000
798.784119	786.500000
798.820007	789.700000
798.855835	793.300000
798.891724	792.300000
798.927551	789.000000
798.963379	786.000000
798.999268	780.900000
799.035095	768.000000
799.070984	762.300000
799.106873	764.100000
799.142700	781.800000
799.178528	771.100000
799.214417	772.000000
799.250244	773.900000
799.286133	765.700000
799.321960	765.200000
799.357788	769.900000
799.393677	761.900000
799.429504	763.500000
799.465332	764.300000
799.501221	762.900000
799.537048	762.300000
799.572876	765.000000
799.608704	771.600000
799.644531	777.000000
799.680359	776.100000
799.716248	777.200000
799.752014	769.900000
799.787903	764.800000
799.823730	763.100000
799.859558	767.400000
799.895386	771.200000
799.931213	768.400000
799.967041	757.400000
800.002869	753.200000
800.038696	769.800000
800.074463	758.500000
800.110352	766.400000
800.146179	758.000000
800.181946	759.900000
800.217773	754.200000
800.253540	750.400000
800.289429	753.800000
800.325256	755.000000
800.361023	750.800000
800.396851	759.100000
800.432678	744.500000
800.468445	742.000000
800.504272	738.400000
800.540100	730.500000
800.575867	730.000000
800.611694	742.800000
800.647461	734.700000
800.683289	733.400000
800.719116	733.300000
800.754883	731.900000
800.790649	720.100000
800.826477	722.500000
800.862244	735.500000
800.898071	725.100000
800.933838	722.700000
800.969604	714.000000
801.005432	708.600000
801.041199	712.500000
801.076965	707.600000
801.112793	706.700000
801.148560	698.300000
801.184326	700.100000
801.220154	699.200000
801.255859	689.600000
801.291687	697.500000
801.327454	691.300000
801.363281	693.300000
801.398987	688.600000
801.434814	686.100000
801.470520	691.800000
801.506287	678.300000
801.542114	671.700000
801.577820	680.000000
801.613647	679.100000
801.649414	676.800000
801.685120	673.100000
801.720886	677.100000
801.756714	669.200000
801.792419	670.600000
801.828186	659.200000
801.863892	666.100000
801.899719	658.300000
801.935486	663.100000
801.971252	665.200000
802.006958	665.500000
802.042725	656.500000
802.078430	657.800000
802.114197	648.600000
802.149963	665.200000
802.185669	653.200000
802.221436	657.600000
802.257202	657.800000
802.292908	659.000000
802.328674	666.100000
802.364441	671.300000
802.400146	657.500000
802.435913	656.700000
802.471558	650.200000
802.507324	655.700000
802.543091	649.000000
802.578796	659.700000
802.614502	651.600000
802.650269	654.400000
802.685974	641.500000
802.721741	646.000000
802.757446	657.100000
802.793152	658.800000
802.828918	659.600000
802.864624	650.300000
802.900330	650.900000
802.936035	647.600000
802.971802	650.100000
803.007446	643.000000
803.043213	639.500000
803.078857	651.700000
803.114624	633.900000
803.150330	635.400000
803.185974	629.800000
803.221741	637.000000
803.257446	649.000000
803.293152	641.400000
803.328857	630.500000
803.364563	621.200000
803.400208	619.900000
803.435974	619.800000
803.471680	618.500000
803.507324	618.000000
803.543030	627.300000
803.578735	624.700000
803.614441	610.900000
803.650146	617.200000
803.685791	608.700000
803.721497	606.300000
803.757202	603.600000
803.792847	611.600000
803.828552	603.500000
803.864258	602.000000
803.899902	598.600000
803.935608	586.700000
803.971313	595.700000
804.006958	591.300000
804.042664	590.300000
804.078308	594.600000
804.113953	584.300000
804.149658	589.700000
804.185364	581.000000
804.221008	599.700000
804.256714	579.300000
804.292297	578.000000
804.328003	577.500000
804.363708	573.000000
804.399292	572.500000
804.434998	573.600000
804.470703	568.600000
804.506287	580.200000
804.541992	569.300000
804.577637	572.500000
804.613281	559.300000
804.648926	557.300000
804.684570	564.400000
804.720215	561.700000
804.755920	560.600000
804.791565	561.100000
804.827209	558.900000
804.862854	551.200000
804.898437	552.100000
804.934143	555.300000
804.969788	546.800000
805.005371	553.100000
805.041077	549.100000
805.076721	543.200000
805.112305	542.700000
805.147949	544.700000
805.183655	538.200000
805.219238	548.500000
805.254883	540.100000
805.290466	543.300000
805.326111	537.800000
805.361755	531.700000
805.397400	533.400000
805.432983	533.700000
805.468628	535.600000
805.504211	540.600000
805.539856	540.300000
805.575500	539.500000
805.611084	531.300000
805.646729	525.800000
805.682373	527.400000
805.717957	536.000000
805.753601	534.800000
805.789246	519.600000
805.824768	530.600000
805.860413	531.400000
805.895996	521.700000
805.931641	524.800000
805.967224	528.900000
806.002869	519.200000
806.038452	526.000000
806.074036	526.600000
806.109619	515.500000
806.145264	513.200000
806.180847	515.500000
806.216431	510.900000
806.252014	515.100000
806.287659	509.400000
806.323181	519.200000
806.358826	512.600000
806.394409	499.400000
806.429993	501.500000
806.465576	510.300000
806.501160	498.400000
806.536743	488.000000
806.572327	497.000000
806.607910	495.700000
806.643494	497.900000
806.679077	495.100000
806.714661	492.100000
806.750244	489.100000
806.785828	486.700000
806.821350	485.000000
806.856934	492.700000
806.892517	485.300000
806.928101	483.500000
806.963684	481.700000
806.999268	487.600000
807.034790	471.300000
807.070374	476.100000
807.105896	467.300000
807.141479	468.600000
807.177063	473.600000
807.212585	469.400000
807.248169	465.000000
807.283752	469.000000
807.319275	460.800000
807.354858	464.000000
807.390381	458.800000
807.425903	459.200000
807.461487	454.300000
807.497070	451.600000
807.532593	450.600000
807.568115	449.400000
807.603699	445.800000
807.639221	445.800000
807.674744	446.900000
807.710266	448.200000
807.745850	448.000000
807.781372	444.400000
807.816895	439.200000
807.852417	443.500000
807.888000	438.600000
807.923523	435.900000
807.959045	439.700000
807.994629	433.700000
808.030090	427.100000
808.065613	431.900000
808.101135	434.800000
808.136658	431.800000
808.172241	431.000000
808.207764	432.300000
808.243225	422.800000
808.278809	421.100000
808.314270	428.200000
808.349792	419.100000
808.385315	419.200000
808.420837	424.100000
808.456360	429.000000
808.491882	426.200000
808.527344	420.800000
808.562866	428.400000
808.598389	424.100000
808.633850	420.300000
808.669434	413.300000
808.704895	421.200000
808.740417	421.900000
808.775940	415.800000
808.811462	413.300000
808.846924	407.300000
808.882385	405.800000
808.917847	403.500000
808.953369	406.700000
808.988892	400.400000
809.024353	409.700000
809.059875	409.800000
809.095398	406.100000
809.130798	399.200000
809.166321	399.100000
809.201843	399.400000
809.237305	403.700000
809.272766	404.600000
809.308228	394.300000
809.343750	392.600000
809.379211	395.100000
809.414734	394.700000
809.450134	400.400000
809.485657	386.000000
809.521118	392.200000
809.556580	389.800000
809.592102	388.800000
809.627502	384.800000
809.663025	384.100000
809.698486	382.600000
809.733887	377.300000
809.769409	379.500000
809.804871	370.200000
809.840271	372.700000
809.875793	377.100000
809.911194	377.500000
809.946655	369.100000
809.982178	366.600000
810.017639	372.100000
810.053040	371.800000
810.088501	367.500000
810.123901	369.900000
810.159424	364.100000
810.194885	358.700000
810.230286	361.800000
810.265747	359.100000
810.301208	356.500000
810.336609	358.800000
810.372070	351.300000
810.407532	355.600000
810.442932	355.100000
810.478394	358.400000
810.513794	351.800000
810.549255	352.200000
810.584717	349.400000
810.620117	343.900000
810.655518	346.400000
810.690979	343.500000
810.726379	343.700000
810.761841	338.900000
810.797302	336.000000
810.832642	334.600000
810.868103	343.100000
810.903564	334.700000
810.938904	339.300000
810.974365	329.600000
811.009827	330.900000
811.045166	327.500000
811.080627	323.800000
811.115967	325.700000
811.151428	333.600000
811.186829	326.900000
811.222229	325.700000
811.257629	318.400000
811.293091	327.200000
811.328430	333.400000
811.363892	329.300000
811.399292	326.400000
811.434631	323.000000
811.470093	326.900000
811.505493	319.500000
811.540833	318.200000
811.576294	320.000000
811.611694	318.300000
811.647034	312.300000
811.682434	313.200000
811.717773	313.900000
811.753235	318.000000
811.788635	311.900000
811.823975	313.200000
811.859375	319.300000
811.894775	307.200000
811.930115	308.600000
811.965515	306.100000
812.000916	309.100000
812.036255	305.100000
812.071655	308.900000
812.106995	302.000000
812.142395	302.600000
812.177795	307.500000
812.213196	303.300000
812.248474	303.700000
812.283875	297.800000
812.319214	300.100000
812.354614	296.700000
812.390015	293.500000
812.425293	294.500000
812.460693	292.300000
812.496094	290.500000
812.531433	287.100000
812.566772	288.000000
812.602173	291.500000
812.637451	290.200000
812.672852	286.400000
812.708191	286.300000
812.743530	284.600000
812.778931	279.100000
812.814270	280.200000
812.849609	285.500000
812.884949	283.000000
812.920227	274.900000
812.955627	286.400000
812.990967	278.400000
813.026306	276.800000
813.061646	268.800000
813.096985	269.100000
813.132324	264.500000
813.167664	269.200000
813.203003	271.000000
813.238281	261.400000
813.273682	261.400000
813.308960	261.900000
813.344299	261.000000
813.379639	268.800000
813.414978	261.600000
813.450256	261.200000
813.485596	262.800000
813.520874	257.700000
813.556213	260.900000
813.591614	264.500000
813.626831	257.900000
813.662170	260.200000
813.697510	264.900000
813.732788	254.200000
813.768127	258.100000
813.803467	259.100000
813.838745	252.400000
813.874084	256.800000
813.909363	253.000000
813.944641	255.800000
813.979980	246.000000
814.015320	251.900000
814.050598	250.400000
814.085876	252.100000
814.121155	249.100000
814.156494	250.000000
814.191772	249.200000
814.227051	244.700000
814.262390	246.500000
814.297668	245.700000
814.332947	247.400000
814.368225	241.600000
814.403564	244.300000
814.438782	240.600000
814.474121	245.100000
814.509338	239.400000
814.544617	249.300000
814.579956	240.000000
814.615173	248.700000
814.650513	243.700000
814.685791	238.900000
814.721008	240.500000
814.756348	241.600000
814.791626	237.100000
814.826843	239.900000
814.862122	236.800000
814.897400	237.900000
814.932678	236.500000
814.967957	237.500000
815.003235	236.500000
815.038452	230.000000
815.073730	229.800000
815.108948	239.300000
815.144226	237.700000
815.179504	239.800000
815.214722	228.300000
815.250000	229.000000
815.285278	233.500000
815.320496	230.100000
815.355774	229.500000
815.391052	233.500000
815.426270	231.400000
815.461487	228.100000
815.496765	225.800000
815.531982	223.200000
815.567261	227.100000
815.602539	234.600000
815.637695	229.800000
815.672974	230.700000
815.708191	232.300000
815.743408	231.800000
815.778687	226.500000
815.813904	232.000000
815.849121	222.200000
815.884399	221.800000
815.919556	224.100000
815.954834	223.100000
815.990051	228.600000
816.025269	228.700000
816.060486	222.200000
816.095703	220.200000
816.130920	226.600000
816.166199	220.100000
816.201416	226.200000
816.236572	227.700000
816.271851	223.700000
816.307007	227.100000
816.342224	220.000000
816.377441	223.600000
816.412659	217.400000
816.447876	223.700000
816.483093	221.800000
816.518250	221.000000
816.553467	221.500000
816.588745	224.000000
816.623901	218.500000
816.659119	213.800000
816.694275	218.800000
816.729492	216.000000
816.764709	247.300000
816.799927	214.900000
816.835083	218.900000
816.870300	214.900000
816.905457	218.600000
816.940674	219.800000
816.975830	214.900000
817.010986	216.200000
817.046204	215.700000
817.081421	213.100000
817.116577	214.300000
817.151733	221.800000
817.186951	219.600000
817.222107	218.900000
817.257324	220.300000
817.292419	220.100000
817.327637	212.600000
817.362854	216.800000
817.398010	211.700000
817.433167	216.400000
817.468323	213.000000
817.503479	215.300000
817.538635	224.000000
817.573853	217.600000
817.608948	214.600000
817.644165	214.000000
817.679321	212.300000
817.714478	212.700000
817.749634	215.200000
817.784790	225.200000
817.819946	221.000000
817.855103	208.700000
817.890198	213.500000
817.925415	209.600000
817.960571	217.400000
817.995667	214.700000
818.030823	216.800000
818.066040	212.500000
818.101135	215.100000
818.136292	213.400000
818.171448	210.800000
818.206543	212.800000
818.241699	216.600000
818.276855	215.300000
818.311951	214.600000
818.347107	209.600000
818.382263	217.400000
818.417358	219.500000
818.452515	218.800000
818.487610	220.200000
818.522766	211.900000
818.557922	219.400000
818.593018	218.600000
818.628113	215.400000
818.663269	211.800000
818.698364	215.900000
818.733521	213.400000
818.768677	215.500000
818.803711	211.300000
818.838867	210.400000
818.874023	213.900000
818.909058	211.500000
818.944214	212.200000
818.979370	215.400000
819.014404	215.200000
819.049561	210.600000
819.084595	216.400000
819.119751	209.100000
819.154846	215.000000
819.189941	210.900000
819.225037	210.400000
819.260193	205.500000
819.295227	208.900000
819.330322	204.700000
819.365479	205.600000
819.400513	238.600000
819.435608	204.200000
819.470764	203.100000
819.505798	205.800000
819.540894	208.000000
819.575989	205.300000
819.611084	212.200000
819.646179	215.600000
819.681213	209.600000
819.716309	208.300000
819.751404	208.700000
819.786438	213.500000
819.821533	205.700000
819.856628	209.400000
819.891663	211.800000
819.926758	218.400000
819.961853	216.800000
819.996887	206.600000
820.031982	211.500000
820.067017	208.900000
820.102112	242.600000
820.137207	208.200000
820.172302	221.000000
820.207275	207.000000
820.242371	208.200000
820.277405	207.400000
820.312500	210.200000
820.347534	210.200000
820.382568	213.700000
820.417664	208.200000
820.452759	207.900000
820.487732	205.800000
820.522827	208.000000
820.557861	204.300000
820.592896	208.900000
820.627930	208.900000
820.662964	205.900000
820.698059	210.000000
820.733093	206.900000
820.768127	209.200000
820.803162	207.900000
820.838196	205.800000
820.873230	207.700000
820.908264	209.700000
820.943298	206.800000
820.978333	212.200000
821.013367	209.800000
821.048401	212.500000
821.083435	212.500000
821.118469	203.400000
821.153503	211.000000
821.188477	208.500000
821.223511	204.000000
821.258484	209.200000
821.293579	208.100000
821.328613	204.000000
821.363647	205.100000
821.398621	204.600000
821.433655	205.600000
821.468628	218.300000
821.503662	207.700000
821.538696	212.200000
821.573669	203.400000
821.608704	210.500000
821.643677	205.400000
821.678650	210.400000
821.713684	211.700000
821.748718	207.500000
821.783691	206.300000
821.818726	208.000000
821.853638	209.200000
821.888672	207.700000
821.923706	206.600000
821.958618	206.600000
821.993652	205.800000
822.028687	212.000000
822.063599	213.400000
822.098633	209.500000
822.133667	203.300000
822.168579	207.700000
822.203613	209.300000
822.238586	205.000000
822.273560	209.800000
822.308533	205.400000
822.343567	203.400000
822.378479	208.500000
822.413452	205.300000
822.448425	203.600000
822.483398	211.500000
822.518372	209.500000
822.553345	204.800000
822.588318	214.900000
822.623291	206.300000
822.658203	204.500000
822.693237	208.300000
822.728210	203.000000
822.763123	206.800000
822.798096	203.700000
822.833069	206.800000
822.867981	205.300000
822.902954	209.900000
822.937927	208.400000
822.972900	213.700000
823.007874	200.100000
823.042725	210.900000
823.077698	215.900000
823.112671	204.100000
823.147583	203.600000
823.182556	207.900000
823.217529	209.300000
823.252441	204.800000
823.287415	215.400000
823.322388	209.400000
823.357239	205.800000
823.392212	212.900000
823.427185	210.900000
823.462097	203.500000
823.497009	207.500000
823.531982	205.700000
823.566895	204.800000
823.601807	203.000000
823.636719	204.300000
823.671631	208.000000
823.706604	203.800000
823.741455	209.600000
823.776428	199.600000
823.811340	207.700000
823.846252	212.000000
823.881165	210.900000
823.916138	205.700000
823.950989	211.300000
823.985901	204.200000
824.020813	205.900000
824.055725	206.000000
824.090637	199.000000
824.125610	208.200000
824.160461	206.900000
824.195374	207.600000
824.230225	208.400000
824.265198	201.600000
824.300110	203.300000
824.334961	214.500000
824.369873	198.000000
824.404785	208.200000
824.439636	209.500000
824.474548	199.700000
824.509460	197.100000
824.544312	210.800000
824.579224	207.100000
824.614075	207.300000
824.648987	202.600000
824.683899	204.600000
824.718811	202.500000
824.753662	211.000000
824.788574	209.000000
824.823364	206.800000
824.858276	201.600000
824.893188	210.000000
824.928040	207.100000
824.962952	205.900000
824.997803	208.300000
825.032654	205.000000
825.067566	206.600000
825.102417	203.100000
825.137268	202.900000
825.172119	202.700000
825.206970	201.500000
825.241882	204.400000
825.276733	200.700000
825.311646	202.200000
825.346436	200.400000
825.381348	199.100000
825.416138	203.700000
825.450989	198.800000
825.485901	197.100000
825.520691	196.700000
825.555542	199.400000
825.590454	201.600000
825.625244	198.000000
825.660095	206.500000
825.695007	206.000000
825.729797	201.300000
825.764648	200.000000
825.799438	202.000000
825.834290	203.900000
825.869202	197.400000
825.903992	202.600000
825.938843	199.900000
825.973694	197.400000
826.008484	209.900000
826.043335	198.700000
826.078186	193.800000
826.112976	205.800000
826.147827	205.000000
826.182678	209.500000
826.217468	192.800000
826.252319	205.800000
826.287109	196.300000
826.321899	203.700000
826.356750	198.500000
826.391541	194.400000
826.426392	201.900000
826.461182	198.100000
826.495972	194.700000
826.530823	190.300000
826.565613	198.700000
826.600403	193.600000
826.635254	200.600000
826.670044	193.000000
826.704834	191.500000
826.739685	192.800000
826.774475	200.900000
826.809265	197.000000
826.844055	195.900000
826.878906	201.300000
826.913635	197.600000
826.948425	198.300000
826.983215	200.200000
827.018005	199.900000
827.052856	194.600000
827.087585	199.200000
827.122375	191.300000
827.157227	194.400000
827.191956	208.600000
827.226746	192.000000
827.261536	198.600000
827.296265	190.500000
827.331116	194.700000
827.365906	197.600000
827.400635	194.100000
827.435425	188.600000
827.470215	199.200000
827.504944	194.500000
827.539734	200.300000
827.574463	194.600000
827.609253	203.100000
827.644043	194.400000
827.678772	199.300000
827.713562	193.500000
827.748352	194.300000
827.783081	190.700000
827.817871	194.500000
827.852600	190.600000
827.887329	195.000000
827.922119	188.700000
827.956848	197.200000
827.991638	204.100000
828.026367	196.700000
828.061157	195.900000
828.095886	194.100000
828.130615	208.900000
828.165344	186.500000
828.200073	194.900000
828.234863	193.500000
828.269592	194.600000
828.304321	198.400000
828.339111	196.200000
828.373779	192.300000
828.408569	199.200000
828.443298	197.500000
828.477966	193.500000
828.512756	195.600000
828.547424	191.500000
828.582214	191.600000
828.616943	195.200000
828.651672	193.700000
828.686340	198.100000
828.721130	190.300000
828.755798	195.500000
828.790527	193.400000
828.825256	196.600000
828.859924	194.700000
828.894714	200.300000
828.929443	201.100000
828.964111	192.800000
828.998840	197.800000
829.033569	192.100000
829.068237	194.700000
829.102966	192.300000
829.137634	194.600000
829.172363	196.000000
829.207092	195.000000
829.241821	191.100000
829.276489	188.900000
829.311157	194.600000
829.345825	192.400000
829.380554	197.800000
829.415283	192.000000
829.449951	189.200000
829.484619	201.800000
829.519348	200.600000
829.554016	194.500000
829.588745	195.500000
829.623413	190.500000
829.658081	202.100000
829.692749	191.200000
829.727417	196.700000
829.762146	196.300000
829.796814	191.500000
829.831482	195.300000
829.866150	194.600000
829.900879	192.600000
829.935486	195.700000
829.970154	194.100000
830.004883	203.900000
830.039490	196.800000
830.074219	191.000000
830.108887	195.500000
830.143494	192.000000
830.178223	189.600000
830.212891	192.300000
830.247498	195.900000
830.282166	201.100000
830.316772	201.000000
830.351501	192.100000
830.386169	195.800000
830.420776	194.100000
830.455444	195.500000
830.490112	192.600000
830.524719	188.400000
830.559387	196.100000
830.594055	197.100000
830.628662	194.500000
830.663330	194.400000
830.697998	200.900000
830.732605	195.900000
830.767273	197.100000
830.801941	193.900000
830.836487	203.600000
830.871155	195.800000
830.905762	197.500000
830.940430	189.900000
830.975098	191.300000
831.009644	194.200000
831.044312	202.900000
831.078979	196.200000
831.113525	189.200000
831.148193	194.100000
831.182861	193.600000
831.217407	198.300000
831.252075	207.200000
831.286621	190.700000
831.321289	191.900000
831.355896	195.400000
831.390564	200.500000
831.425110	195.100000
831.459778	201.000000
831.494324	204.000000
831.528931	197.600000
831.563599	199.400000
831.598145	190.000000
831.632751	193.800000
831.667419	193.600000
831.701965	195.000000
831.736572	197.300000
831.771179	190.600000
831.805786	193.700000
831.840393	200.400000
831.874939	189.700000
831.909546	198.500000
831.944153	188.500000
831.978760	195.900000
832.013306	190.300000
832.047913	199.000000
832.082458	200.900000
832.117065	191.500000
832.151672	201.600000
832.186218	196.900000
832.220825	196.400000
832.255432	188.800000
832.289978	191.600000
832.324585	195.800000
832.359192	196.500000
832.393677	194.000000
832.428284	195.900000
832.462830	193.800000
832.497437	193.800000
832.531982	197.700000
832.566589	192.800000
832.601135	196.000000
832.635681	186.900000
832.670227	195.500000
832.704773	199.000000
832.739380	196.900000
832.773926	195.300000
832.808472	192.700000
832.843079	193.100000
832.877563	198.600000
832.912170	193.400000
832.946716	190.200000
832.981201	198.100000
833.015808	198.600000
833.050293	194.100000
833.084839	192.200000
833.119446	192.600000
833.153992	198.500000
833.188477	194.100000
833.223022	192.500000
833.257568	195.200000
833.292114	199.700000
833.326660	203.800000
833.361145	193.100000
833.395691	188.700000
833.430237	195.200000
833.464783	198.400000
833.499329	191.300000
833.533875	192.600000
833.568359	197.100000
833.602905	198.300000
833.637390	199.900000
833.671875	193.000000
833.706421	192.600000
833.740906	191.600000
833.775452	187.200000
833.809998	192.900000
833.844482	199.900000
833.879028	194.500000
833.913513	191.700000
833.947998	195.400000
833.982544	190.300000
834.017090	193.100000
834.051514	187.100000
834.086060	197.500000
834.120544	194.200000
834.155029	196.000000
834.189575	192.600000
834.223999	197.200000
834.258545	195.700000
834.293030	195.700000
834.327515	193.500000
834.362000	193.400000
834.396545	196.500000
834.430969	193.700000
834.465454	198.800000
834.500000	187.900000
834.534424	195.300000
834.568970	188.400000
834.603455	186.500000
834.637878	192.100000
834.672363	195.500000
834.706909	194.500000
834.741333	193.500000
834.775818	188.900000
834.810242	190.300000
834.844727	193.300000
834.879211	193.600000
834.913635	195.200000
834.948181	196.000000
834.982666	195.500000
835.017090	193.300000
835.051575	195.500000
835.086060	192.900000
835.120483	196.200000
835.154907	197.600000
835.189331	193.800000
835.223816	197.900000
835.258301	188.300000
835.292786	192.900000
835.327209	197.400000
835.361694	192.000000
835.396057	192.000000
835.430542	197.900000
835.465027	194.600000
835.499390	191.300000
835.533875	220.600000
835.568359	192.600000
835.602722	188.100000
835.637207	195.800000
835.671692	188.400000
835.706055	209.500000
835.740540	195.700000
835.774902	196.200000
835.809387	195.700000
835.843811	190.900000
835.878235	198.800000
835.912659	189.700000
835.947083	192.000000
835.981506	195.900000
836.015930	189.400000
836.050354	198.300000
836.084778	201.100000
836.119202	197.600000
836.153625	207.900000
836.187988	191.200000
836.222473	192.800000
836.256897	194.800000
836.291260	193.100000
836.325684	196.800000
836.360046	193.600000
836.394470	192.800000
836.428894	201.100000
836.463318	190.800000
836.497681	197.700000
836.532104	200.000000
836.566467	195.600000
836.600891	192.600000
836.635315	199.300000
836.669678	196.600000
836.704102	198.800000
836.738525	196.100000
836.772888	190.500000
836.807251	191.700000
836.841675	197.600000
836.876038	189.200000
836.910461	192.500000
836.944763	198.000000
836.979187	192.000000
837.013611	198.200000
837.047974	189.900000
837.082336	204.900000
837.116699	197.900000
837.151062	194.600000
837.185486	190.500000
837.219849	191.800000
837.254211	198.600000
837.288574	193.800000
837.322937	190.800000
837.357300	185.200000
837.391663	203.900000
837.426086	198.000000
837.460388	195.300000
837.494751	198.500000
837.529114	192.200000
837.563477	201.000000
837.597839	196.200000
837.632141	194.300000
837.666565	192.300000
837.700928	197.100000
837.735229	195.400000
837.769592	198.200000
837.803955	196.800000
837.838257	193.000000
837.872620	191.800000
837.906982	200.300000
837.941284	193.400000
837.975647	198.000000
838.010010	200.300000
838.044312	193.100000
838.078674	192.400000
838.112976	195.500000
838.147339	196.400000
838.181702	194.900000
838.216003	201.800000
838.250366	197.600000
838.284668	198.000000
838.318970	190.500000
838.353333	193.000000
838.387634	196.100000
838.421936	194.800000
838.456299	196.200000
838.490601	199.600000
838.524902	198.300000
838.559265	198.300000
838.593567	197.200000
838.627869	190.700000
838.662170	196.900000
838.696472	189.700000
838.730774	192.100000
838.765137	197.700000
838.799377	184.700000
838.833740	195.000000
838.868042	199.500000
838.902283	189.200000
838.936646	199.600000
838.970947	196.100000
839.005188	200.300000
839.039551	189.900000
839.073792	199.600000
839.108093	193.600000
839.142395	202.000000
839.176697	189.100000
839.210937	195.700000
839.245300	202.900000
839.279541	189.500000
839.313843	193.600000
839.348145	196.400000
839.382385	199.000000
839.416687	198.400000
839.450989	196.700000
839.485229	194.300000
839.519531	191.500000
839.553833	199.000000
839.588013	195.800000
839.622314	196.700000
839.656555	198.000000
839.690857	194.300000
839.725159	191.700000
839.759460	192.100000
839.793640	193.700000
839.827942	192.400000
839.862183	191.200000
839.896423	195.600000
839.930725	206.100000
839.964966	201.800000
839.999207	199.700000
840.033508	202.100000
840.067688	192.500000
840.101990	201.900000
840.136230	194.700000
840.170471	202.200000
840.204712	192.000000
840.238953	192.700000
840.273193	194.700000
840.307434	197.800000
840.341736	191.800000
840.375916	191.100000
840.410217	192.000000
840.444397	201.200000
840.478638	196.600000
840.512878	199.400000
840.547119	196.000000
840.581360	199.200000
840.615601	202.100000
840.649780	205.800000
840.684021	193.800000
840.718262	203.100000
840.752441	201.400000
840.786682	197.200000
840.820862	195.300000
840.855103	203.200000
840.889343	194.900000
840.923584	201.100000
840.957764	195.800000
840.992004	197.300000
841.026184	205.700000
841.060425	195.600000
841.094666	191.400000
841.128845	198.300000
841.163025	195.500000
841.197266	195.700000
841.231445	193.600000
841.265686	198.700000
841.299866	190.200000
841.334045	201.600000
841.368286	193.400000
841.402405	202.800000
841.436646	195.900000
841.470825	193.600000
841.505005	194.000000
841.539185	192.300000
841.573425	192.300000
841.607544	194.000000
841.641785	194.700000
841.675964	191.900000
841.710144	194.900000
841.744324	191.100000
841.778503	194.100000
841.812683	192.100000
841.846863	200.800000
841.881042	200.500000
841.915222	193.600000
841.949402	206.000000
841.983521	189.700000
842.017700	194.400000
842.051880	196.100000
842.086060	196.700000
842.120239	196.700000
842.154419	194.400000
842.188538	197.300000
842.222717	192.600000
842.256897	202.400000
842.291016	194.000000
842.325195	196.900000
842.359375	202.900000
842.393494	202.800000
842.427673	195.600000
842.461853	197.100000
842.495911	203.700000
842.530090	196.700000
842.564209	193.700000
842.598389	196.900000
842.632568	195.700000
842.666626	198.300000
842.700806	192.900000
842.734985	194.500000
842.769043	196.800000
842.803223	193.500000
842.837402	193.500000
842.871460	192.500000
842.905640	203.200000
842.939697	192.400000
842.973877	195.900000
843.007996	200.300000
843.042175	202.500000
843.076233	191.600000
843.110413	197.800000
843.144470	201.900000
843.178589	198.800000
843.212769	192.900000
843.246826	199.400000
843.280945	192.300000
843.315125	195.400000
843.349182	192.400000
843.383301	199.900000
843.417419	205.400000
843.451538	196.600000
843.485657	191.600000
843.519714	195.500000
843.553833	196.300000
843.587952	194.300000
843.622070	192.200000
843.656128	198.900000
843.690247	192.800000
843.724304	195.900000
843.758423	196.600000
843.792542	194.100000
843.826599	195.700000
843.860718	194.400000
843.894836	189.300000
843.928894	197.000000
843.963013	195.700000
843.997070	192.500000
844.031128	191.400000
844.065247	200.200000
844.099304	199.000000
844.133362	198.700000
844.167480	196.800000
844.201599	200.800000
844.235596	196.400000
844.269714	197.000000
844.303711	196.300000
844.337830	189.900000
844.371948	198.200000
844.405945	196.000000
844.440063	191.900000
844.474121	205.900000
844.508118	194.000000
844.542236	194.300000
844.576294	195.800000
844.610352	190.100000
844.644409	195.500000
844.678406	188.200000
844.712524	200.700000
844.746582	200.500000
844.780640	196.000000
844.814636	195.400000
844.848755	207.600000
844.882751	193.600000
844.916809	200.500000
844.950867	197.100000
844.984863	202.900000
845.018921	194.800000
845.052979	193.600000
845.086975	195.900000
845.121033	191.000000
845.155090	191.700000
845.189087	200.700000
845.223145	193.200000
845.257141	197.600000
845.291199	196.800000
845.325256	199.900000
845.359253	196.600000
845.393250	207.400000
845.427307	193.800000
845.461304	197.600000
845.495361	195.000000
845.529358	204.300000
845.563354	196.100000
845.597412	192.700000
845.631409	202.500000
845.665405	201.400000
845.699463	198.800000
845.733459	194.800000
845.767456	206.600000
845.801453	193.600000
845.835449	201.100000
845.869446	199.200000
845.903503	198.300000
845.937439	192.700000
845.971497	203.100000
846.005493	191.200000
846.039429	199.900000
846.073486	203.700000
846.107483	195.300000
846.141418	194.600000
846.175476	197.400000
846.209473	200.800000
846.243408	194.800000
846.277405	196.000000
846.311401	194.200000
846.345337	195.600000
846.379395	202.000000
846.413330	192.600000
846.447327	204.300000
846.481323	191.700000
846.515259	193.600000
846.549255	194.600000
846.583252	199.000000
846.617187	192.100000
846.651184	198.200000
846.685120	193.400000
846.719055	203.700000
846.753052	199.500000
846.786987	200.000000
846.820984	191.100000
846.854980	202.100000
846.888916	191.800000
846.922852	196.700000
846.956848	201.400000
846.990723	192.300000
847.024719	197.300000
847.058716	194.600000
847.092590	201.000000
847.126587	196.900000
847.160522	194.300000
847.194458	199.500000
847.228455	195.200000
847.262390	190.700000
847.296265	195.100000
847.330261	199.600000
847.364136	194.000000
847.398132	194.600000
847.432068	197.100000
847.466003	192.600000
847.499939	195.100000
847.533875	197.500000
847.567749	195.000000
847.601746	194.000000
847.635681	199.400000
847.669556	188.900000
847.703491	202.000000
847.737427	206.700000
847.771301	193.600000
847.805237	198.900000
847.839233	198.400000
847.873108	195.000000
847.907043	195.600000
847.940918	204.000000
847.974854	198.400000
848.008789	198.600000
848.042664	195.500000
848.076538	197.700000
848.110474	197.000000
848.144348	196.300000
848.178284	189.700000
848.212219	197.700000
848.246094	195.100000
848.279968	196.200000
848.313904	199.300000
848.347778	196.800000
848.381653	195.700000
848.415588	192.200000
848.449463	193.400000
848.483337	198.600000
848.517212	203.200000
848.551086	196.100000
848.585022	191.500000
848.618835	205.400000
848.652771	192.500000
848.686646	193.200000
848.720520	201.200000
848.754395	197.000000
848.788330	198.800000
848.822144	200.200000
848.856018	193.400000
848.889954	205.200000
848.923767	192.000000
848.957642	194.000000
848.991577	195.200000
849.025391	196.500000
849.059265	194.900000
849.093079	192.300000
849.126953	190.300000
849.160828	201.500000
849.194641	197.400000
849.228577	195.800000
849.262451	193.400000
849.296265	195.700000
849.330139	193.100000
849.364014	196.700000
849.397827	197.000000
849.431702	196.500000
849.465515	199.600000
849.499329	190.200000
849.533203	193.100000
849.567078	188.800000
849.600891	197.800000
849.634766	194.900000
849.668518	199.500000
849.702393	195.900000
849.736267	191.600000
849.770020	204.100000
849.803894	198.400000
849.837769	196.900000
849.871521	195.500000
849.905396	200.000000
849.939270	192.900000
849.973022	194.600000
850.006897	199.000000
850.040710	199.300000
850.074524	199.800000
850.108337	195.400000
850.142151	200.400000
850.175964	200.300000
850.209778	196.300000
850.243530	187.100000
850.277405	199.700000
850.311218	194.900000
850.344971	193.500000
850.378845	201.300000
850.412659	194.500000
850.446411	197.100000
850.480225	196.100000
850.514038	199.100000
850.547791	200.700000
850.581665	195.100000
850.615417	192.900000
850.649231	197.600000
850.683044	194.800000
850.716858	194.600000
850.750610	197.900000
850.784424	197.900000
850.818176	193.800000
850.851929	194.100000
850.885742	193.300000
850.919495	195.000000
850.953308	202.000000
850.987122	201.200000
851.020874	192.300000
851.054626	190.600000
851.088440	199.100000
851.122192	199.800000
851.156006	197.700000
851.189697	196.200000
851.223511	192.200000
851.257263	201.500000
851.291077	198.100000
851.324829	195.900000
851.358582	193.900000
851.392334	195.200000
851.426086	192.800000
851.459900	203.100000
851.493591	195.000000
851.527344	195.800000
851.561157	195.800000
851.594849	199.200000
851.628662	195.500000
851.662415	204.700000
851.696106	196.200000
851.729858	201.600000
851.763611	190.900000
851.797363	197.600000
851.831116	191.000000
851.864868	199.200000
851.898560	200.600000
851.932312	194.700000
851.966064	197.300000
851.999817	196.800000
852.033569	194.300000
852.067261	200.700000
852.101013	192.500000
852.134766	196.200000
852.168457	188.500000
852.202209	201.000000
852.235901	191.400000
852.269592	199.100000
852.303345	201.000000
852.337036	198.500000
852.370789	194.800000
852.404541	198.800000
852.438171	192.100000
852.471924	195.900000
852.505676	192.000000
852.539307	197.500000
852.573059	194.800000
852.606812	195.400000
852.640442	194.500000
852.674194	200.700000
852.707886	205.400000
852.741577	200.800000
852.775269	192.300000
852.809021	196.400000
852.842651	198.000000
852.876404	201.500000
852.910034	197.700000
852.943787	199.000000
852.977478	199.500000
853.011108	192.000000
853.044861	194.000000
853.078552	201.700000
853.112183	198.500000
853.145874	196.100000
853.179626	189.600000
853.213257	195.300000
853.246948	192.600000
853.280640	202.900000
853.314270	195.800000
853.347961	201.900000
853.381653	200.200000
853.415283	201.200000
853.448975	194.300000
853.482605	197.600000
853.516296	195.900000
853.549988	190.100000
853.583618	198.500000
853.617310	196.900000
853.651001	197.000000
853.684631	192.600000
853.718323	193.400000
853.751953	201.100000
853.785583	188.800000
853.819275	199.900000
853.852966	196.400000
853.886536	190.600000
853.920227	191.400000
853.953918	199.500000
853.987488	195.300000
854.021179	200.200000
854.054749	202.700000
854.088440	198.800000
854.122131	192.300000
854.155701	200.300000
854.189331	193.200000
854.223022	198.700000
854.256592	197.800000
854.290283	194.400000
854.323914	198.000000
854.357483	197.800000
854.391174	197.000000
854.424744	203.800000
854.458374	197.000000
854.492065	206.900000
854.525696	194.600000
854.559265	202.600000
854.592896	206.900000
854.626465	197.100000
854.660095	195.500000
854.693787	199.500000
854.727356	193.300000
854.760986	199.300000
854.794617	198.100000
854.828186	194.700000
854.861816	199.400000
854.895447	197.200000
854.929016	197.600000
854.962585	197.600000
854.996155	203.800000
855.029785	197.600000
855.063416	196.300000
855.097046	200.600000
855.130615	191.700000
855.164185	200.800000
855.197754	197.400000
855.231384	197.900000
855.264954	195.200000
855.298523	199.800000
855.332153	196.800000
855.365723	200.300000
855.399292	195.100000
855.432922	195.000000
855.466492	198.000000
855.500061	192.500000
855.533630	194.000000
855.567200	199.000000
855.600769	199.900000
855.634338	200.200000
855.667969	198.200000
855.701477	192.700000
855.735046	195.200000
855.768616	188.800000
855.802185	197.800000
855.835754	208.100000
855.869324	190.700000
855.902893	194.600000
855.936401	201.800000
855.969971	196.600000
856.003540	190.400000
856.037109	199.700000
856.070618	195.500000
856.104187	192.800000
856.137695	194.100000
856.171265	188.300000
856.204834	196.700000
856.238403	199.600000
856.271912	194.700000
856.305481	197.800000
856.338989	191.400000
856.372559	199.300000
856.406128	199.800000
856.439636	200.100000
856.473145	194.800000
856.506653	202.500000
856.540222	195.000000
856.573792	201.400000
856.607300	200.500000
856.640808	193.300000
856.674377	195.600000
856.707825	230.700000
856.741394	199.900000
856.774902	192.900000
856.808472	189.800000
856.841980	199.300000
856.875488	202.000000
856.908936	192.800000
856.942505	195.300000
856.976013	195.900000
857.009521	192.500000
857.043030	198.000000
857.076477	195.000000
857.110046	201.600000
857.143555	195.600000
857.177063	198.900000
857.210571	194.800000
857.244080	191.400000
857.277527	198.000000
857.311035	195.100000
857.344543	201.300000
857.378052	195.700000
857.411499	202.000000
857.445068	204.200000
857.478516	196.200000
857.512024	191.800000
857.545532	194.900000
857.578979	196.700000
857.612427	197.500000
857.645874	194.400000
857.679382	197.400000
857.712891	201.500000
857.746399	195.600000
857.779846	199.600000
857.813354	201.900000
857.846741	196.700000
857.880249	192.800000
857.913757	199.100000
857.947266	196.500000
857.980652	197.800000
858.014160	195.900000
858.047546	193.800000
858.081055	195.200000
858.114563	206.600000
858.147949	191.900000
858.181458	197.100000
858.214844	195.700000
858.248352	189.600000
858.281799	200.300000
858.315308	206.600000
858.348694	200.300000
858.382141	202.800000
858.415588	201.200000
858.449036	199.700000
858.482483	198.200000
858.515930	194.400000
858.549377	197.900000
858.582825	202.200000
858.616211	199.800000
858.649658	198.900000
858.683105	193.800000
858.716553	195.600000
858.750000	194.400000
858.783386	195.600000
858.816833	191.300000
858.850281	196.600000
858.883728	199.300000
858.917114	197.700000
858.950562	204.000000
858.983948	202.600000
859.017395	201.600000
859.050781	195.100000
859.084167	192.700000
859.117615	191.900000
859.151062	198.400000
859.184448	193.800000
859.217834	195.000000
859.251282	194.800000
859.284668	191.900000
859.318054	191.600000
859.351440	194.900000
859.384888	203.900000
859.418274	190.000000
859.451721	189.700000
859.485046	196.000000
859.518494	199.000000
859.551819	191.500000
859.585266	199.300000
859.618652	200.700000
859.652039	192.100000
859.685425	192.200000
859.718811	192.900000
859.752197	187.700000
859.785583	202.600000
859.819031	204.300000
859.852356	199.300000
859.885742	192.400000
859.919067	197.200000
859.952454	194.000000
859.985901	200.300000
860.019287	195.200000
860.052612	0.000000
860.085999	0.000000
860.119324	0.000000
860.152710	0.000000
860.186096	0.000000
860.219421	0.000000
860.252808	0.000000
860.286133	0.000000
860.319519	0.000000
860.352905	0.000000
860.386292	0.000000
860.419617	0.000000
860.452942	0.000000
860.486267	0.000000
860.519653	0.000000
860.553040	0.000000
860.586365	0.000000
860.619690	0.000000
860.653076	0.000000
860.686340	0.000000
860.719727	0.000000
860.753113	0.000000
860.786377	0.000000
860.819763	0.000000
860.853027	0.000000
860.886414	0.000000
860.919739	0.000000
860.953125	0.000000
860.986389	0.000000
861.019714	0.000000
861.053040	0.000000
861.086365	0.000000
861.119690	0.000000
861.153076	0.000000
861.186340	0.000000
861.219666	0.000000
861.252930	0.000000
861.286316	0.000000
861.319641	0.000000
861.352905	0.000000
861.386230	0.000000
861.419495	0.000000
861.452820	0.000000
861.486145	0.000000
861.519470	0.000000
861.552734	0.000000
861.586060	0.000000
861.619324	0.000000
861.652649	0.000000
861.685974	0.000000
861.719238	0.000000
861.752563	0.000000
861.785828	0.000000
861.819092	0.000000
861.852417	0.000000
861.885742	0.000000
861.918945	0.000000
861.952271	0.000000
861.985535	0.000000
862.018799	0.000000
862.052124	0.000000
862.085449	0.000000
862.118652	0.000000
862.151978	0.000000
862.185181	0.000000
862.218506	0.000000
862.251770	0.000000
862.285034	0.000000
862.318298	0.000000
862.351562	0.000000
862.384827	0.000000
862.418091	0.000000
862.451355	0.000000
862.484619	0.000000
862.517883	0.000000
862.551086	0.000000
862.584351	0.000000
862.617676	0.000000
862.650940	0.000000
862.684143	0.000000
862.717407	0.000000
862.750610	0.000000
862.783875	0.000000
862.817139	0.000000
862.850342	0.000000
862.883606	0.000000
862.916870	0.000000
862.950073	0.000000
862.983337	0.000000
863.016602	0.000000
863.049805	0.000000
863.083069	0.000000
863.116211	0.000000
863.149475	0.000000
863.182739	0.000000
863.216003	0.000000
863.249146	0.000000
863.282410	0.000000
863.315613	0.000000
863.348816	0.000000
863.382080	0.000000
863.415222	0.000000
863.448486	0.000000
863.481689	0.000000
863.514893	0.000000
863.548157	0.000000
863.581360	0.000000
863.614502	0.000000
863.647766	0.000000
863.680908	0.000000
863.714172	0.000000
863.747375	0.000000
863.780579	0.000000
863.813721	0.000000
863.846985	0.000000
863.880127	0.000000
863.913330	0.000000
863.946533	0.000000
863.979675	0.000000
864.012939	0.000000
