Model Number: SPM-001-M   
Serial Number: 10090201
Firmware Version: 004.17.6
Exposure Time: 300000.000000us
Data Taken on: 11-02-2021 11:05:25.915
Wavelength	Amplitude
733.770752	0.000000
733.808716	0.000000
733.846619	0.000000
733.884583	0.000000
733.922546	0.000000
733.960449	0.000000
733.998413	0.000000
734.036377	0.000000
734.074219	0.000000
734.112183	0.000000
734.150085	0.000000
734.188049	0.000000
734.226013	0.000000
734.263916	0.000000
734.301819	0.000000
734.339783	0.000000
734.377686	0.000000
734.415588	0.000000
734.453552	0.000000
734.491455	0.000000
734.529419	0.000000
734.567322	0.000000
734.605225	0.000000
734.643127	0.000000
734.681091	0.000000
734.718994	0.000000
734.756897	0.000000
734.794800	0.000000
734.832703	0.000000
734.870667	0.000000
734.908508	0.000000
734.946472	0.000000
734.984375	0.000000
735.022278	0.000000
735.060181	0.000000
735.098083	0.000000
735.135986	0.000000
735.173889	0.000000
735.211792	0.000000
735.249695	0.000000
735.287598	0.000000
735.325439	0.000000
735.363403	0.000000
735.401306	0.000000
735.439148	0.000000
735.477051	0.000000
735.515015	0.000000
735.552856	0.000000
735.590759	0.000000
735.628662	0.000000
735.666504	0.000000
735.704407	0.000000
735.742310	0.000000
735.780212	0.000000
735.818115	0.000000
735.856018	0.000000
735.893860	0.000000
735.931763	0.000000
735.969604	0.000000
736.007507	0.000000
736.045410	0.000000
736.083252	0.000000
736.121094	0.000000
736.158997	0.000000
736.196838	0.000000
736.234741	0.000000
736.272644	0.000000
736.310486	0.000000
736.348389	0.000000
736.386230	0.000000
736.424072	0.000000
736.461975	0.000000
736.499878	0.000000
736.537720	0.000000
736.575562	0.000000
736.613403	0.000000
736.651306	0.000000
736.689148	0.000000
736.726990	0.000000
736.764893	0.000000
736.802734	0.000000
736.840576	0.000000
736.878418	0.000000
736.916321	0.000000
736.954102	0.000000
736.992004	0.000000
737.029846	0.000000
737.067688	0.000000
737.105530	0.000000
737.143372	0.000000
737.181213	0.000000
737.219116	0.000000
737.256897	0.000000
737.294739	0.000000
737.332642	0.000000
737.370422	0.000000
737.408325	0.000000
737.446167	0.000000
737.483948	0.000000
737.521790	0.000000
737.559692	0.000000
737.597473	0.000000
737.635315	0.000000
737.673157	0.000000
737.710999	0.000000
737.748840	0.000000
737.786621	0.000000
737.824463	0.000000
737.862305	0.000000
737.900085	0.000000
737.937927	0.000000
737.975769	0.000000
738.013550	0.000000
738.051392	0.000000
738.089233	0.000000
738.127014	0.000000
738.164856	0.000000
738.202698	0.000000
738.240479	0.000000
738.278320	0.000000
738.316162	0.000000
738.353943	0.000000
738.391785	0.000000
738.429565	0.000000
738.467407	0.000000
738.505188	0.000000
738.542969	0.000000
738.580811	0.000000
738.618652	0.000000
738.656372	0.000000
738.694214	0.000000
738.732056	0.000000
738.769836	0.000000
738.807617	0.000000
738.845459	0.000000
738.883240	0.000000
738.921021	0.000000
738.958862	0.000000
738.996582	0.000000
739.034424	0.000000
739.072205	0.000000
739.109985	0.000000
739.147827	0.000000
739.185547	0.000000
739.223389	0.000000
739.261169	0.000000
739.298889	0.000000
739.336731	0.000000
739.374512	0.000000
739.412292	0.000000
739.450073	0.000000
739.487854	0.000000
739.525635	0.000000
739.563416	0.000000
739.601135	0.000000
739.638977	0.000000
739.676758	0.000000
739.714478	0.000000
739.752258	0.000000
739.790100	0.000000
739.827820	0.000000
739.865601	0.000000
739.903381	0.000000
739.941101	0.000000
739.978882	198.500000
740.016724	193.000000
740.054443	197.500000
740.092224	192.600000
740.130005	192.400000
740.167725	191.700000
740.205505	193.800000
740.243225	199.000000
740.281006	195.300000
740.318787	189.100000
740.356506	200.300000
740.394287	198.200000
740.432068	193.700000
740.469727	191.000000
740.507507	198.000000
740.545288	195.100000
740.583008	197.800000
740.620789	195.900000
740.658569	189.600000
740.696228	194.500000
740.734009	198.100000
740.771790	186.400000
740.809509	198.300000
740.847229	191.500000
740.884949	193.100000
740.922729	190.200000
740.960449	192.900000
740.998169	191.500000
741.035950	190.900000
741.073669	194.400000
741.111389	195.200000
741.149170	203.200000
741.186890	200.700000
741.224609	197.600000
741.262329	194.800000
741.300110	201.600000
741.337769	192.200000
741.375549	190.900000
741.413208	194.900000
741.450989	191.000000
741.488708	190.500000
741.526367	192.200000
741.564148	196.900000
741.601868	199.400000
741.639526	193.000000
741.677307	196.400000
741.715027	197.200000
741.752686	192.100000
741.790466	199.600000
741.828186	196.500000
741.865845	191.800000
741.903564	189.200000
741.941345	194.500000
741.979004	191.500000
742.016724	199.200000
742.054382	195.500000
742.092102	198.300000
742.129822	190.700000
742.167480	194.000000
742.205200	194.200000
742.242920	196.600000
742.280640	197.200000
742.318359	191.800000
742.356079	193.300000
742.393738	197.900000
742.431396	193.800000
742.469116	199.300000
742.506775	187.200000
742.544495	196.200000
742.582214	197.800000
742.619873	194.000000
742.657593	200.000000
742.695251	199.000000
742.732971	192.400000
742.770630	196.000000
742.808289	195.100000
742.846008	194.800000
742.883728	195.300000
742.921326	196.500000
742.959045	192.700000
742.996765	194.100000
743.034424	194.400000
743.072083	192.700000
743.109802	192.100000
743.147400	190.100000
743.185120	193.500000
743.222839	194.900000
743.260437	199.800000
743.298157	195.700000
743.335754	186.600000
743.373474	194.700000
743.411133	188.600000
743.448792	194.700000
743.486450	194.700000
743.524170	189.800000
743.561768	194.000000
743.599487	199.000000
743.637146	202.900000
743.674744	193.800000
743.712463	194.500000
743.750122	194.500000
743.787720	196.100000
743.825439	192.700000
743.863037	195.400000
743.900696	194.100000
743.938416	221.100000
743.976013	193.000000
744.013672	202.600000
744.051331	198.100000
744.088928	202.700000
744.126587	198.400000
744.164307	197.200000
744.201904	190.400000
744.239563	197.600000
744.277222	196.300000
744.314819	193.900000
744.352478	198.800000
744.390137	196.400000
744.427734	195.400000
744.465393	192.700000
744.502991	191.300000
744.540649	196.200000
744.578308	194.500000
744.615906	191.600000
744.653564	186.100000
744.691223	196.000000
744.728821	188.500000
744.766418	195.100000
744.804077	196.200000
744.841675	193.100000
744.879333	189.300000
744.916992	193.700000
744.954529	192.800000
744.992187	199.500000
745.029785	193.300000
745.067444	193.200000
745.105042	195.000000
745.142639	195.700000
745.180298	204.100000
745.217896	193.200000
745.255493	193.900000
745.293152	197.900000
745.330750	199.200000
745.368347	200.000000
745.405945	197.900000
745.443604	194.100000
745.481140	198.000000
745.518799	195.100000
745.556396	196.400000
745.593994	197.500000
745.631592	195.600000
745.669189	189.800000
745.706787	194.800000
745.744385	191.000000
745.781982	197.800000
745.819580	191.300000
745.857178	195.200000
745.894775	193.700000
745.932373	196.700000
745.969971	194.800000
746.007568	188.400000
746.045166	199.300000
746.082764	200.400000
746.120300	196.100000
746.157898	197.400000
746.195557	194.400000
746.233093	191.000000
746.270691	196.800000
746.308228	197.300000
746.345825	197.400000
746.383423	197.700000
746.420959	190.500000
746.458557	192.700000
746.496155	191.600000
746.533691	196.100000
746.571289	190.900000
746.608887	194.000000
746.646423	194.900000
746.684021	195.600000
746.721619	193.000000
746.759155	196.600000
746.796753	190.800000
746.834351	189.200000
746.871826	192.700000
746.909424	198.900000
746.946960	195.300000
746.984558	194.200000
747.022156	193.300000
747.059631	202.000000
747.097229	198.400000
747.134827	193.700000
747.172363	199.700000
747.209900	197.500000
747.247498	192.800000
747.285034	198.000000
747.322571	201.700000
747.360168	193.000000
747.397644	189.600000
747.435242	197.100000
747.472778	200.400000
747.510315	192.900000
747.547913	195.000000
747.585388	198.200000
747.622925	194.200000
747.660522	188.500000
747.697998	193.200000
747.735596	192.300000
747.773132	193.000000
747.810669	194.900000
747.848206	196.500000
747.885742	192.000000
747.923279	191.000000
747.960815	197.300000
747.998352	196.900000
748.035889	200.200000
748.073425	197.900000
748.110901	194.400000
748.148437	191.000000
748.185974	196.700000
748.223511	202.800000
748.261047	198.800000
748.298584	197.100000
748.336060	195.100000
748.373596	196.500000
748.411133	219.900000
748.448608	191.600000
748.486145	198.400000
748.523682	198.000000
748.561218	202.400000
748.598755	195.300000
748.636292	196.500000
748.673706	194.700000
748.711243	202.200000
748.748718	196.400000
748.786255	195.200000
748.823792	194.200000
748.861267	192.100000
748.898804	197.000000
748.936340	196.300000
748.973816	192.900000
749.011292	200.500000
749.048828	194.700000
749.086304	197.000000
749.123840	202.700000
749.161316	191.300000
749.198792	201.700000
749.236328	199.900000
749.273743	194.500000
749.311279	193.200000
749.348816	198.200000
749.386230	194.700000
749.423767	185.900000
749.461304	198.400000
749.498718	195.600000
749.536255	199.800000
749.573730	204.400000
749.611206	200.300000
749.648682	194.200000
749.686218	195.700000
749.723633	198.600000
749.761169	192.700000
749.798645	191.600000
749.836060	193.700000
749.873596	191.700000
749.911011	196.800000
749.948547	200.800000
749.986023	195.300000
750.023437	195.600000
750.060913	188.800000
750.098450	190.300000
750.135864	194.800000
750.173340	195.100000
750.210815	199.300000
750.248291	192.700000
750.285767	194.200000
750.323242	200.100000
750.360657	196.500000
750.398132	191.500000
750.435608	196.100000
750.473022	192.500000
750.510498	191.100000
750.547974	191.200000
750.585449	193.900000
750.622925	186.000000
750.660339	204.200000
750.697815	195.100000
750.735291	193.300000
750.772644	199.400000
750.810120	197.000000
750.847595	196.300000
750.885010	189.900000
750.922485	202.700000
750.959961	195.200000
750.997375	201.400000
751.034851	198.200000
751.072266	198.300000
751.109680	190.100000
751.147156	200.400000
751.184570	197.400000
751.221985	194.600000
751.259460	190.600000
751.296875	193.900000
751.334290	195.500000
751.371765	199.100000
751.409180	199.300000
751.446594	199.600000
751.484070	198.700000
751.521423	195.100000
751.558899	195.900000
751.596375	202.800000
751.633728	200.600000
751.671204	202.200000
751.708618	192.200000
751.746033	194.900000
751.783447	191.400000
751.820801	192.200000
751.858276	197.800000
751.895691	194.100000
751.933105	193.900000
751.970520	190.400000
752.007935	192.500000
752.045349	198.000000
752.082764	195.100000
752.120178	193.800000
752.157532	193.500000
752.195007	193.000000
752.232422	196.700000
752.269775	197.400000
752.307190	198.000000
752.344543	190.800000
752.382019	196.600000
752.419434	194.500000
752.456787	197.100000
752.494202	200.400000
752.531616	195.800000
752.568970	198.000000
752.606384	197.700000
752.643799	198.400000
752.681152	201.600000
752.718567	196.600000
752.755981	188.500000
752.793335	197.800000
752.830750	188.800000
752.868164	200.200000
752.905518	191.300000
752.942932	199.400000
752.980225	190.500000
753.017639	197.800000
753.055054	194.400000
753.092407	197.500000
753.129822	197.800000
753.167175	204.200000
753.204529	194.800000
753.241943	192.600000
753.279358	190.600000
753.316650	197.800000
753.354065	196.800000
753.391479	199.000000
753.428772	198.700000
753.466187	196.600000
753.503479	192.200000
753.540894	193.200000
753.578308	189.100000
753.615601	192.700000
753.653015	193.000000
753.690369	192.700000
753.727722	191.700000
753.765076	190.200000
753.802490	190.300000
753.839783	189.300000
753.877136	193.300000
753.914551	206.600000
753.951843	190.700000
753.989258	199.600000
754.026611	195.700000
754.063904	197.800000
754.101257	191.900000
754.138611	188.800000
754.175964	195.800000
754.213318	203.300000
754.250610	190.500000
754.288025	193.000000
754.325378	191.200000
754.362671	197.700000
754.400024	193.900000
754.437378	202.600000
754.474670	203.200000
754.512085	192.900000
754.549438	197.200000
754.586731	192.900000
754.624084	195.500000
754.661438	190.900000
754.698730	203.500000
754.736084	193.300000
754.773376	195.000000
754.810730	196.500000
754.848083	196.200000
754.885315	198.000000
754.922668	191.000000
754.960022	192.000000
754.997314	199.800000
755.034668	195.000000
755.072021	197.100000
755.109253	194.300000
755.146606	202.600000
755.183960	194.800000
755.221252	202.500000
755.258545	199.300000
755.295898	202.400000
755.333191	201.100000
755.370544	197.100000
755.407776	196.100000
755.445129	195.600000
755.482422	200.000000
755.519714	194.600000
755.557068	192.000000
755.594360	191.100000
755.631653	201.300000
755.668945	202.800000
755.706299	199.000000
755.743530	206.600000
755.780884	203.400000
755.818176	201.000000
755.855408	201.500000
755.892761	199.100000
755.930054	199.400000
755.967346	198.500000
756.004639	200.300000
756.041870	197.000000
756.079224	202.700000
756.116516	193.800000
756.153748	201.000000
756.191040	205.500000
756.228394	200.600000
756.265625	194.100000
756.302917	199.300000
756.340210	195.200000
756.377441	202.900000
756.414795	203.800000
756.452087	197.900000
756.489319	192.700000
756.526611	201.300000
756.563843	198.500000
756.601135	205.600000
756.638428	206.600000
756.675659	197.800000
756.712952	201.100000
756.750244	201.100000
756.787476	199.100000
756.824768	203.700000
756.862061	197.700000
756.899292	246.500000
756.936584	203.800000
756.973816	208.800000
757.011047	208.600000
757.048340	199.800000
757.085632	200.700000
757.122864	212.500000
757.160156	198.100000
757.197327	201.200000
757.234619	204.500000
757.271912	198.600000
757.309082	205.500000
757.346375	198.100000
757.383667	205.500000
757.420837	201.700000
757.458130	202.900000
757.495422	198.600000
757.532593	204.200000
757.569885	195.300000
757.607117	198.200000
757.644348	202.700000
757.681580	212.100000
757.718811	191.300000
757.756042	202.300000
757.793335	199.200000
757.830505	204.100000
757.867798	199.700000
757.905029	201.000000
757.942200	201.600000
757.979492	199.400000
758.016724	198.900000
758.053894	200.100000
758.091187	215.000000
758.128418	202.600000
758.165588	201.500000
758.202820	213.000000
758.240112	201.000000
758.277283	211.400000
758.314514	204.800000
758.351685	202.400000
758.388916	209.200000
758.426147	209.700000
758.463379	211.700000
758.500610	207.100000
758.537842	204.000000
758.575012	209.400000
758.612244	201.500000
758.649475	214.100000
758.686646	200.700000
758.723877	210.100000
758.761108	213.500000
758.798279	205.200000
758.835510	206.700000
758.872742	211.000000
758.909851	208.600000
758.947083	207.900000
758.984253	209.600000
759.021484	208.000000
759.058716	209.800000
759.095886	209.900000
759.133057	207.600000
759.170288	208.200000
759.207458	205.200000
759.244690	215.700000
759.281860	213.800000
759.319031	208.500000
759.356262	206.400000
759.393433	205.100000
759.430603	207.800000
759.467773	206.500000
759.505005	212.800000
759.542175	211.600000
759.579346	207.700000
759.616516	209.100000
759.653687	211.400000
759.690918	206.600000
759.728027	209.100000
759.765259	211.000000
759.802429	213.400000
759.839539	211.200000
759.876770	214.500000
759.913940	218.400000
759.951111	211.000000
759.988281	213.500000
760.025452	208.900000
760.062561	207.400000
760.099792	219.600000
760.136963	213.400000
760.174072	210.100000
760.211243	208.100000
760.248413	208.100000
760.285583	208.700000
760.322754	221.700000
760.359863	217.700000
760.397034	217.600000
760.434204	213.000000
760.471375	211.400000
760.508545	210.900000
760.545715	212.600000
760.582825	210.300000
760.619995	214.400000
760.657166	208.900000
760.694275	216.900000
760.731445	213.700000
760.768555	214.700000
760.805664	219.900000
760.842834	214.900000
760.879944	218.200000
760.917114	215.300000
760.954285	213.400000
760.991394	210.300000
761.028564	219.900000
761.065674	217.000000
761.102783	212.800000
761.139954	218.600000
761.177124	219.900000
761.214172	220.400000
761.251343	218.000000
761.288452	216.700000
761.325562	221.400000
761.362732	215.300000
761.399841	217.800000
761.436951	218.900000
761.474121	215.000000
761.511169	219.500000
761.548340	222.100000
761.585449	221.200000
761.622559	222.100000
761.659668	220.900000
761.696838	224.200000
761.733887	221.300000
761.771057	218.500000
761.808167	221.400000
761.845276	222.700000
761.882385	231.400000
761.919434	220.000000
761.956604	234.200000
761.993713	218.400000
762.030762	225.400000
762.067871	220.100000
762.105042	221.400000
762.142090	228.300000
762.179199	224.100000
762.216309	226.100000
762.253418	233.700000
762.290527	228.000000
762.327637	228.200000
762.364685	218.900000
762.401794	226.100000
762.438904	225.400000
762.475952	221.500000
762.513062	221.200000
762.550110	222.800000
762.587219	232.900000
762.624329	233.700000
762.661377	226.900000
762.698486	227.800000
762.735596	226.800000
762.772644	221.700000
762.809753	221.100000
762.846863	226.400000
762.883911	231.400000
762.921021	231.400000
762.958069	227.900000
762.995117	233.700000
763.032227	233.900000
763.069336	224.500000
763.106323	223.000000
763.143433	222.700000
763.180481	231.500000
763.217590	229.700000
763.254639	228.900000
763.291687	228.400000
763.328735	235.600000
763.365845	228.900000
763.402893	229.500000
763.439941	229.000000
763.477051	233.600000
763.514038	230.700000
763.551147	227.400000
763.588196	229.900000
763.625244	233.400000
763.662292	238.700000
763.699402	241.100000
763.736389	235.500000
763.773499	242.700000
763.810486	235.200000
763.847534	235.200000
763.884644	234.600000
763.921631	232.900000
763.958679	238.300000
763.995728	235.700000
764.032776	239.700000
764.069824	232.400000
764.106873	241.200000
764.143860	246.500000
764.180969	236.500000
764.218018	245.100000
764.255005	236.800000
764.292053	238.400000
764.329102	247.100000
764.366089	247.600000
764.403137	244.700000
764.440125	238.500000
764.477173	242.600000
764.514221	245.800000
764.551208	243.600000
764.588257	239.800000
764.625305	250.800000
764.662292	253.500000
764.699341	258.100000
764.736389	248.600000
764.773376	260.900000
764.810425	249.100000
764.847473	253.600000
764.884399	251.000000
764.921448	256.600000
764.958435	255.300000
764.995483	251.600000
765.032532	263.100000
765.069458	253.800000
765.106506	254.200000
765.143555	253.700000
765.180481	257.000000
765.217529	263.800000
765.254578	251.100000
765.291504	257.900000
765.328552	256.500000
765.365540	252.100000
765.402527	264.900000
765.439575	255.700000
765.476501	252.200000
765.513550	254.300000
765.550537	259.500000
765.587463	265.300000
765.624512	258.300000
765.661499	252.400000
765.698486	265.600000
765.735474	257.600000
765.772461	260.800000
765.809448	266.600000
765.846436	265.100000
765.883423	269.200000
765.920410	263.300000
765.957397	258.000000
765.994385	264.700000
766.031311	271.600000
766.068359	266.400000
766.105286	267.500000
766.142273	274.100000
766.179260	268.700000
766.216187	264.900000
766.253174	260.700000
766.290161	268.200000
766.327148	269.100000
766.364136	271.300000
766.401123	281.100000
766.438049	266.100000
766.475037	276.200000
766.512024	274.900000
766.548950	285.300000
766.585937	280.300000
766.622864	276.000000
766.659790	277.300000
766.696777	267.800000
766.733704	281.300000
766.770691	273.800000
766.807678	283.900000
766.844604	279.300000
766.881531	279.100000
766.918518	283.500000
766.955444	286.300000
766.992432	277.200000
767.029358	281.300000
767.066284	281.800000
767.103271	281.400000
767.140198	313.700000
767.177124	294.300000
767.214050	284.200000
767.251038	284.100000
767.287964	282.800000
767.324890	284.400000
767.361816	288.400000
767.398743	292.800000
767.435730	287.300000
767.472595	287.800000
767.509583	293.500000
767.546509	284.700000
767.583374	292.700000
767.620361	285.000000
767.657288	289.100000
767.694214	288.100000
767.731140	288.600000
767.768066	288.900000
767.804993	294.500000
767.841919	287.100000
767.878845	292.100000
767.915710	296.500000
767.952698	292.100000
767.989563	292.500000
768.026489	294.900000
768.063416	288.000000
768.100281	289.400000
768.137207	296.400000
768.174133	296.800000
768.211060	296.700000
768.247986	296.900000
768.284912	295.400000
768.321777	295.600000
768.358704	291.700000
768.395630	296.400000
768.432495	290.700000
768.469421	298.000000
768.506348	301.400000
768.543152	305.900000
768.580078	300.600000
768.616943	301.600000
768.653870	302.200000
768.690796	303.100000
768.727661	303.800000
768.764587	305.100000
768.801453	299.200000
768.838318	304.900000
768.875244	307.100000
768.912109	312.000000
768.948975	305.900000
768.985901	307.300000
769.022766	306.900000
769.059631	310.000000
769.096558	306.900000
769.133362	305.000000
769.170288	307.800000
769.207214	308.500000
769.244019	314.200000
769.280945	309.600000
769.317810	318.700000
769.354675	312.700000
769.391541	321.600000
769.428406	317.700000
769.465271	325.800000
769.502136	313.900000
769.539062	321.700000
769.575867	317.500000
769.612732	323.100000
769.649597	326.500000
769.686462	329.200000
769.723328	322.300000
769.760193	322.700000
769.797058	323.300000
769.833923	334.600000
769.870728	332.700000
769.907593	332.200000
769.944519	330.500000
769.981323	335.200000
770.018188	331.700000
770.055054	331.200000
770.091858	331.800000
770.128723	339.800000
770.165588	344.200000
770.202393	336.700000
770.239258	344.700000
770.276062	341.500000
770.312927	344.300000
770.349792	349.300000
770.386597	344.200000
770.423462	355.000000
770.460327	357.300000
770.497131	348.400000
770.533997	345.800000
770.570862	356.900000
770.607605	356.700000
770.644470	354.100000
770.681335	355.200000
770.718140	353.100000
770.754944	353.000000
770.791809	350.700000
770.828613	353.600000
770.865479	357.300000
770.902222	365.000000
770.939087	360.000000
770.975952	357.000000
771.012695	358.700000
771.049561	369.700000
771.086365	362.100000
771.123169	358.700000
771.159973	359.800000
771.196838	361.000000
771.233582	362.700000
771.270447	364.300000
771.307251	370.800000
771.344055	367.800000
771.380859	366.100000
771.417664	363.900000
771.454468	372.400000
771.491272	373.200000
771.528076	371.900000
771.564880	372.700000
771.601685	377.800000
771.638428	372.700000
771.675293	378.100000
771.712097	371.600000
771.748840	388.400000
771.785645	378.500000
771.822449	379.600000
771.859253	381.500000
771.896057	384.300000
771.932861	392.800000
771.969604	385.600000
772.006409	381.000000
772.043213	387.600000
772.079956	382.800000
772.116760	379.800000
772.153503	384.400000
772.190308	393.900000
772.227112	386.100000
772.263855	385.200000
772.300659	384.300000
772.337463	393.800000
772.374207	383.900000
772.411011	383.400000
772.447754	389.200000
772.484497	402.700000
772.521301	394.100000
772.558105	393.300000
772.594849	391.900000
772.631592	398.600000
772.668396	399.700000
772.705139	403.900000
772.741882	398.000000
772.778625	404.700000
772.815430	409.300000
772.852173	406.700000
772.888916	411.500000
772.925720	418.600000
772.962463	421.000000
772.999207	407.700000
773.035950	410.800000
773.072754	415.100000
773.109436	413.400000
773.146240	418.600000
773.182922	414.700000
773.219727	420.300000
773.256470	417.700000
773.293152	409.500000
773.329956	414.100000
773.366699	423.000000
773.403381	420.100000
773.440186	421.100000
773.476929	420.300000
773.513611	414.400000
773.550354	418.000000
773.587158	422.300000
773.623840	421.900000
773.660583	419.900000
773.697327	428.400000
773.734009	419.800000
773.770813	416.500000
773.807495	419.100000
773.844238	426.300000
773.880981	430.400000
773.917664	425.400000
773.954407	429.300000
773.991150	425.000000
774.027832	436.100000
774.064575	430.800000
774.101318	434.100000
774.138000	433.100000
774.174744	425.600000
774.211487	428.700000
774.248108	423.700000
774.284851	429.600000
774.321594	435.800000
774.358276	437.100000
774.395020	441.900000
774.431702	439.700000
774.468384	432.700000
774.505127	436.000000
774.541809	449.000000
774.578491	447.200000
774.615234	443.400000
774.651917	433.900000
774.688599	443.300000
774.725342	455.000000
774.762024	453.900000
774.798706	453.300000
774.835449	449.600000
774.872070	450.400000
774.908813	450.700000
774.945496	456.200000
774.982178	463.600000
775.018860	465.900000
775.055542	458.500000
775.092224	453.800000
775.128967	461.700000
775.165588	463.600000
775.202271	463.400000
775.239014	467.800000
775.275635	466.100000
775.312317	458.700000
775.349060	462.300000
775.385681	468.200000
775.422363	467.500000
775.459045	471.500000
775.495667	472.100000
775.532410	470.100000
775.569092	469.800000
775.605713	468.400000
775.642395	472.100000
775.679016	480.900000
775.715698	481.500000
775.752380	477.800000
775.789001	472.900000
775.825684	474.000000
775.862366	481.000000
775.898987	496.800000
775.935669	489.400000
775.972351	501.100000
776.008972	491.300000
776.045654	491.100000
776.082336	487.600000
776.118958	493.700000
776.155640	502.300000
776.192322	508.600000
776.228882	506.100000
776.265564	500.600000
776.302185	495.600000
776.338867	510.000000
776.375488	503.800000
776.412109	512.600000
776.448792	511.500000
776.485413	518.000000
776.522034	503.300000
776.558716	509.500000
776.595337	514.400000
776.631958	516.500000
776.668579	517.500000
776.705261	524.400000
776.741882	514.900000
776.778503	517.000000
776.815186	520.300000
776.851746	523.300000
776.888367	523.100000
776.924988	531.400000
776.961609	517.000000
776.998291	523.200000
777.034851	517.900000
777.071472	533.400000
777.108154	527.100000
777.144714	534.700000
777.181335	532.600000
777.218018	531.700000
777.254578	539.400000
777.291199	540.500000
777.327759	542.800000
777.364380	550.600000
777.401062	557.400000
777.437622	560.400000
777.474243	550.200000
777.510864	564.200000
777.547424	557.900000
777.584045	559.500000
777.620667	558.100000
777.657227	557.700000
777.693848	557.400000
777.730469	568.500000
777.767029	559.600000
777.803650	561.000000
777.840271	558.400000
777.876831	555.400000
777.913452	558.100000
777.950012	545.300000
777.986633	551.400000
778.023193	552.100000
778.059753	552.600000
778.096375	553.900000
778.132996	564.900000
778.169556	552.100000
778.206116	560.800000
778.242737	556.700000
778.279297	568.700000
778.315857	558.800000
778.352478	572.000000
778.389038	576.000000
778.425598	577.600000
778.462219	583.100000
778.498718	581.500000
778.535339	588.600000
778.571838	594.000000
778.608459	592.300000
778.645020	580.600000
778.681580	588.700000
778.718140	584.400000
778.754761	584.200000
778.791260	597.800000
778.827881	602.500000
778.864441	595.600000
778.900940	591.300000
778.937561	590.900000
778.974121	592.300000
779.010620	588.300000
779.047241	593.500000
779.083801	600.600000
779.120300	596.000000
779.156860	599.800000
779.193359	598.900000
779.229980	604.900000
779.266541	611.300000
779.303040	606.100000
779.339600	604.400000
779.376160	593.900000
779.412659	591.000000
779.449219	596.700000
779.485779	609.400000
779.522278	603.400000
779.558838	608.700000
779.595398	607.000000
779.631897	603.200000
779.668457	591.500000
779.705017	604.400000
779.741516	596.300000
779.778076	584.000000
779.814575	584.200000
779.851074	588.700000
779.887634	584.400000
779.924133	603.000000
779.960693	594.800000
779.997253	608.300000
780.033691	608.400000
780.070251	607.800000
780.106812	608.800000
780.143250	609.900000
780.179810	608.600000
780.216370	611.700000
780.252808	616.200000
780.289368	615.100000
780.325867	614.100000
780.362366	613.400000
780.398865	627.300000
780.435364	626.600000
780.471863	632.900000
780.508423	617.800000
780.544861	621.900000
780.581421	620.700000
780.617920	611.200000
780.654419	609.200000
780.690918	622.100000
780.727417	623.400000
780.763916	618.900000
780.800415	617.200000
780.836914	610.800000
780.873352	625.000000
780.909912	627.400000
780.946411	631.900000
780.982849	635.500000
781.019348	633.900000
781.055786	633.500000
781.092346	636.500000
781.128845	644.800000
781.165283	646.100000
781.201782	651.300000
781.238281	641.800000
781.274719	643.700000
781.311218	642.200000
781.347717	656.200000
781.384155	643.900000
781.420654	651.300000
781.457092	653.500000
781.493591	652.900000
781.530090	649.800000
781.566528	649.700000
781.602966	653.900000
781.639465	651.200000
781.675903	644.000000
781.712402	651.500000
781.748901	651.800000
781.785278	651.900000
781.821777	659.600000
781.858276	661.400000
781.894714	676.000000
781.931152	666.800000
781.967651	663.200000
782.004089	658.300000
782.040527	670.100000
782.076965	675.200000
782.113403	672.600000
782.149902	678.600000
782.186340	669.200000
782.222778	683.700000
782.259277	679.600000
782.295654	678.600000
782.332092	677.800000
782.368591	674.400000
782.404968	670.900000
782.441467	678.900000
782.477905	684.200000
782.514282	689.600000
782.550781	695.800000
782.587219	697.700000
782.623596	707.800000
782.660095	703.200000
782.696472	714.400000
782.732910	721.300000
782.769348	714.500000
782.805786	721.400000
782.842224	727.500000
782.878662	713.600000
782.915039	718.500000
782.951477	727.300000
782.987915	723.100000
783.024292	727.100000
783.060730	726.400000
783.097168	717.400000
783.133545	707.600000
783.169983	701.300000
783.206421	697.700000
783.242798	695.100000
783.279236	687.700000
783.315613	689.800000
783.352051	687.200000
783.388489	684.600000
783.424866	681.200000
783.461304	696.200000
783.497681	698.800000
783.534058	692.200000
783.570496	683.500000
783.606934	680.900000
783.643250	689.600000
783.679687	707.500000
783.716125	700.200000
783.752441	707.900000
783.788879	720.700000
783.825317	731.100000
783.861633	738.900000
783.898071	752.100000
783.934448	758.800000
783.970825	757.700000
784.007263	749.700000
784.043579	756.800000
784.080017	741.900000
784.116394	688.900000
784.152710	607.100000
784.189148	494.400000
784.225525	391.800000
784.261902	323.300000
784.298279	309.100000
784.334656	326.300000
784.371033	331.800000
784.407410	332.800000
784.443787	310.900000
784.480164	305.900000
784.516541	337.700000
784.552856	435.500000
784.589233	528.500000
784.625610	603.100000
784.661987	674.300000
784.698364	700.100000
784.734741	707.900000
784.771057	715.600000
784.807434	723.400000
784.843811	735.300000
784.880127	732.200000
784.916504	744.200000
784.952881	748.700000
784.989197	752.800000
785.025574	758.200000
785.061951	770.400000
785.098267	783.600000
785.134644	765.100000
785.170959	752.900000
785.207275	755.800000
785.243652	768.900000
785.279968	762.500000
785.316345	756.400000
785.352722	751.400000
785.388977	739.400000
785.425354	722.300000
785.461731	715.300000
785.498047	723.000000
785.534363	722.900000
785.570679	713.500000
785.606995	706.500000
785.643372	705.600000
785.679687	716.800000
785.716003	710.100000
785.752380	708.700000
785.788635	719.600000
785.825012	733.900000
785.861328	734.700000
785.897644	720.900000
785.933960	745.400000
785.970337	758.300000
786.006592	783.600000
786.042908	787.600000
786.079285	785.000000
786.115540	792.000000
786.151855	795.500000
786.188171	794.300000
786.224487	794.900000
786.260803	784.700000
786.297119	798.300000
786.333435	783.500000
786.369751	762.700000
786.406006	765.900000
786.442322	759.300000
786.478638	750.100000
786.514954	763.500000
786.551270	746.300000
786.587585	744.200000
786.623840	737.400000
786.660156	735.900000
786.696472	738.100000
786.732727	739.600000
786.769043	732.900000
786.805298	726.800000
786.841614	733.100000
786.877930	741.000000
786.914124	729.900000
786.950439	753.400000
786.986755	765.100000
787.023010	772.700000
787.059326	769.600000
787.095642	774.500000
787.131836	787.000000
787.168152	785.000000
787.204468	794.700000
787.240723	805.500000
787.276978	803.400000
787.313293	808.000000
787.349548	793.900000
787.385803	803.800000
787.422058	806.600000
787.458313	806.500000
787.494629	792.800000
787.530823	791.500000
787.567139	784.600000
787.603455	774.700000
787.639648	769.000000
787.675903	772.300000
787.712219	768.100000
787.748413	764.900000
787.784729	769.000000
787.820984	758.400000
787.857178	755.900000
787.893494	757.900000
787.929749	768.000000
787.965942	769.900000
788.002258	777.000000
788.038452	786.500000
788.074707	781.100000
788.110962	783.000000
788.147217	788.900000
788.183472	802.200000
788.219727	804.600000
788.255920	809.300000
788.292175	813.500000
788.328430	810.000000
788.364624	804.000000
788.400879	816.700000
788.437134	813.600000
788.473328	813.700000
788.509583	811.800000
788.545837	805.400000
788.582031	809.000000
788.618286	806.800000
788.654480	817.200000
788.690735	827.700000
788.726990	838.800000
788.763184	825.200000
788.799377	835.200000
788.835632	824.200000
788.871826	837.700000
788.908081	839.900000
788.944336	825.400000
788.980469	829.000000
789.016724	814.000000
789.052979	811.600000
789.089111	805.000000
789.125366	820.200000
789.161621	807.900000
789.197754	814.400000
789.234009	799.400000
789.270142	798.700000
789.306396	792.800000
789.342590	801.900000
789.378784	788.500000
789.414978	789.800000
789.451233	801.900000
789.487366	805.100000
789.523621	798.100000
789.559814	795.300000
789.595947	805.400000
789.632202	815.200000
789.668335	826.500000
789.704529	842.600000
789.740784	846.000000
789.776917	839.800000
789.813110	830.000000
789.849304	849.200000
789.885498	856.800000
789.921692	871.600000
789.957886	871.100000
789.994019	859.600000
790.030212	846.500000
790.066406	853.400000
790.102539	860.300000
790.138733	872.800000
790.174927	865.800000
790.211060	865.400000
790.247253	847.700000
790.283386	838.600000
790.319580	839.800000
790.355774	836.100000
790.391907	837.100000
790.428101	857.000000
790.464294	851.700000
790.500427	835.900000
790.536621	825.900000
790.572754	834.700000
790.608887	837.900000
790.645081	839.300000
790.681274	838.800000
790.717346	828.500000
790.753540	814.000000
790.789734	803.500000
790.825867	808.500000
790.862000	814.700000
790.898132	826.000000
790.934265	810.200000
790.970459	804.100000
791.006592	806.800000
791.042725	810.400000
791.078918	816.000000
791.114990	829.600000
791.151184	819.100000
791.187317	825.500000
791.223389	823.000000
791.259583	820.100000
791.295715	826.900000
791.331848	838.900000
791.367981	838.900000
791.404114	832.900000
791.440247	819.900000
791.476379	817.900000
791.512451	812.000000
791.548584	816.700000
791.584778	821.800000
791.620850	834.700000
791.656982	829.400000
791.693115	813.400000
791.729187	813.200000
791.765381	813.000000
791.801514	812.100000
791.837585	817.900000
791.873718	823.300000
791.909851	817.800000
791.945923	822.500000
791.982056	797.200000
792.018188	801.300000
792.054260	809.000000
792.090393	815.200000
792.126465	810.200000
792.162598	808.400000
792.198669	788.300000
792.234741	785.600000
792.270874	788.300000
792.307007	798.200000
792.343079	792.900000
792.379150	790.200000
792.415283	769.700000
792.451355	771.000000
792.487488	757.800000
792.523560	763.300000
792.559631	766.100000
792.595764	760.000000
792.631836	733.700000
792.667908	714.600000
792.703979	706.200000
792.740051	749.500000
792.776184	809.100000
792.812256	858.000000
792.848328	877.400000
792.884399	886.300000
792.920471	880.600000
792.956543	882.700000
792.992615	882.700000
793.028748	882.600000
793.064758	899.400000
793.100830	909.900000
793.136963	900.100000
793.172974	901.200000
793.209045	889.500000
793.245178	904.800000
793.281189	905.100000
793.317261	924.000000
793.353271	919.600000
793.389404	918.300000
793.425476	907.500000
793.461487	901.500000
793.497559	899.500000
793.533630	909.400000
793.569641	900.100000
793.605713	903.000000
793.641785	892.600000
793.677795	899.800000
793.713867	892.900000
793.749878	901.800000
793.785950	923.700000
793.822021	925.600000
793.858032	908.400000
793.894104	910.600000
793.930176	898.200000
793.966187	901.700000
794.002258	900.400000
794.038269	913.400000
794.074280	905.500000
794.110352	916.100000
794.146423	893.500000
794.182373	881.300000
794.218445	883.000000
794.254517	881.300000
794.290466	871.800000
794.326538	873.600000
794.362549	880.800000
794.398560	877.700000
794.434631	881.000000
794.470581	868.500000
794.506653	872.000000
794.542664	873.700000
794.578674	878.600000
794.614685	878.400000
794.650757	864.600000
794.686707	861.500000
794.722778	864.700000
794.758789	885.100000
794.794739	904.300000
794.830811	920.600000
794.866821	919.900000
794.902771	915.900000
794.938843	908.100000
794.974792	914.300000
795.010803	920.900000
795.046814	912.000000
795.082825	895.600000
795.118835	907.500000
795.154846	871.700000
795.190796	882.000000
795.226807	877.200000
795.262817	894.700000
795.298767	898.900000
795.334778	894.000000
795.370850	878.300000
795.406799	874.400000
795.442810	862.300000
795.478821	880.400000
795.514709	884.400000
795.550720	908.700000
795.586670	874.900000
795.622681	872.600000
795.658691	868.700000
795.694641	875.000000
795.730652	879.800000
795.766663	901.000000
795.802551	896.100000
795.838562	894.100000
795.874573	876.500000
795.910522	881.000000
795.946472	876.400000
795.982483	897.400000
796.018433	907.100000
796.054382	910.200000
796.090393	901.300000
796.126282	885.500000
796.162292	868.100000
796.198242	876.800000
796.234192	884.800000
796.270203	884.200000
796.306091	894.800000
796.342041	896.200000
796.378052	877.300000
796.413940	881.600000
796.449951	897.200000
796.485901	897.000000
796.521790	907.000000
796.557800	906.900000
796.593689	894.500000
796.629639	891.500000
796.665649	887.300000
796.701599	890.000000
796.737488	895.900000
796.773437	895.700000
796.809387	891.700000
796.845337	886.900000
796.881287	891.800000
796.917175	878.900000
796.953125	885.300000
796.989075	893.100000
797.024963	884.900000
797.060913	874.500000
797.096863	871.200000
797.132751	877.400000
797.168701	879.100000
797.204590	888.000000
797.240540	890.400000
797.276489	892.100000
797.312439	871.200000
797.348328	852.500000
797.384277	848.700000
797.420166	858.200000
797.456055	866.200000
797.492004	858.300000
797.527893	864.000000
797.563843	856.300000
797.599731	846.200000
797.635620	837.700000
797.671570	855.000000
797.707520	863.400000
797.743347	856.100000
797.779297	862.900000
797.815125	840.400000
797.851074	826.600000
797.887024	829.800000
797.922913	833.600000
797.958801	845.400000
797.994690	841.900000
798.030579	837.200000
798.066467	830.700000
798.102356	823.300000
798.138245	826.000000
798.174133	829.100000
798.210083	843.900000
798.245911	840.000000
798.281799	830.400000
798.317749	815.600000
798.353577	811.800000
798.389465	811.900000
798.425293	825.100000
798.461243	821.900000
798.497131	812.000000
798.532959	803.400000
798.568848	809.600000
798.604736	799.900000
798.640564	796.300000
798.676453	799.500000
798.712402	798.000000
798.748230	794.400000
798.784119	797.100000
798.820007	791.200000
798.855835	787.500000
798.891724	788.500000
798.927551	791.900000
798.963379	791.400000
798.999268	784.900000
799.035095	772.400000
799.070984	761.900000
799.106873	769.900000
799.142700	786.100000
799.178528	777.300000
799.214417	777.700000
799.250244	780.900000
799.286133	764.300000
799.321960	771.600000
799.357788	776.600000
799.393677	776.100000
799.429504	779.300000
799.465332	777.000000
799.501221	771.000000
799.537048	772.200000
799.572876	769.000000
799.608704	771.200000
799.644531	790.600000
799.680359	787.400000
799.716248	792.800000
799.752014	784.200000
799.787903	767.400000
799.823730	770.900000
799.859558	768.200000
799.895386	774.700000
799.931213	778.400000
799.967041	770.600000
800.002869	753.600000
800.038696	766.900000
800.074463	760.200000
800.110352	769.100000
800.146179	765.100000
800.181946	765.200000
800.217773	750.400000
800.253540	746.100000
800.289429	754.200000
800.325256	757.200000
800.361023	752.400000
800.396851	763.900000
800.432678	766.500000
800.468445	755.300000
800.504272	743.000000
800.540100	734.500000
800.575867	734.600000
800.611694	745.900000
800.647461	736.500000
800.683289	738.100000
800.719116	741.000000
800.754883	735.100000
800.790649	726.300000
800.826477	724.200000
800.862244	748.900000
800.898071	733.200000
800.933838	733.500000
800.969604	723.400000
801.005432	715.800000
801.041199	719.300000
801.076965	717.300000
801.112793	713.900000
801.148560	709.700000
801.184326	709.000000
801.220154	702.700000
801.255859	695.600000
801.291687	703.700000
801.327454	696.300000
801.363281	699.100000
801.398987	690.000000
801.434814	684.800000
801.470520	694.700000
801.506287	691.600000
801.542114	684.200000
801.577820	687.800000
801.613647	682.500000
801.649414	679.700000
801.685120	681.500000
801.720886	684.500000
801.756714	675.700000
801.792419	674.600000
801.828186	670.600000
801.863892	673.500000
801.899719	668.300000
801.935486	667.500000
801.971252	674.900000
802.006958	677.100000
802.042725	670.600000
802.078430	666.100000
802.114197	664.200000
802.149963	676.300000
802.185669	662.100000
802.221436	660.700000
802.257202	672.400000
802.292908	668.800000
802.328674	673.000000
802.364441	668.600000
802.400146	669.000000
802.435913	666.600000
802.471558	662.300000
802.507324	665.300000
802.543091	658.400000
802.578796	661.300000
802.614502	660.800000
802.650269	658.800000
802.685974	645.300000
802.721741	649.400000
802.757446	663.600000
802.793152	660.900000
802.828918	673.500000
802.864624	666.600000
802.900330	655.600000
802.936035	652.600000
802.971802	655.500000
803.007446	648.300000
803.043213	644.500000
803.078857	652.500000
803.114624	636.100000
803.150330	635.400000
803.185974	635.800000
803.221741	642.600000
803.257446	650.300000
803.293152	649.900000
803.328857	643.700000
803.364563	637.500000
803.400208	625.800000
803.435974	628.100000
803.471680	629.500000
803.507324	629.400000
803.543030	633.200000
803.578735	629.700000
803.614441	624.100000
803.650146	627.600000
803.685791	619.000000
803.721497	621.300000
803.757202	612.200000
803.792847	611.400000
803.828552	603.100000
803.864258	606.500000
803.899902	604.600000
803.935608	597.900000
803.971313	599.300000
804.006958	600.800000
804.042664	599.300000
804.078308	604.200000
804.113953	594.800000
804.149658	597.000000
804.185364	583.900000
804.221008	601.800000
804.256714	585.900000
804.292297	585.200000
804.328003	580.500000
804.363708	578.500000
804.399292	573.800000
804.434998	580.200000
804.470703	571.200000
804.506287	589.100000
804.541992	576.100000
804.577637	577.900000
804.613281	563.300000
804.648926	564.200000
804.684570	570.600000
804.720215	567.800000
804.755920	567.200000
804.791565	564.900000
804.827209	569.700000
804.862854	557.900000
804.898437	557.200000
804.934143	560.800000
804.969788	559.700000
805.005371	559.800000
805.041077	558.100000
805.076721	549.600000
805.112305	546.900000
805.147949	549.700000
805.183655	545.000000
805.219238	551.500000
805.254883	547.300000
805.290466	551.000000
805.326111	547.100000
805.361755	535.000000
805.397400	540.000000
805.432983	546.700000
805.468628	545.900000
805.504211	547.600000
805.539856	545.400000
805.575500	541.600000
805.611084	540.300000
805.646729	530.300000
805.682373	538.100000
805.717957	541.600000
805.753601	541.500000
805.789246	523.200000
805.824768	531.900000
805.860413	530.500000
805.895996	528.000000
805.931641	531.900000
805.967224	538.200000
806.002869	527.400000
806.038452	531.700000
806.074036	529.700000
806.109619	519.200000
806.145264	514.900000
806.180847	518.000000
806.216431	516.400000
806.252014	517.400000
806.287659	521.000000
806.323181	525.000000
806.358826	520.800000
806.394409	505.500000
806.429993	511.100000
806.465576	519.000000
806.501160	506.200000
806.536743	494.900000
806.572327	504.900000
806.607910	498.700000
806.643494	502.400000
806.679077	500.800000
806.714661	499.200000
806.750244	492.800000
806.785828	492.600000
806.821350	488.800000
806.856934	490.400000
806.892517	486.100000
806.928101	488.800000
806.963684	483.000000
806.999268	488.900000
807.034790	475.000000
807.070374	481.400000
807.105896	471.700000
807.141479	475.900000
807.177063	473.800000
807.212585	472.600000
807.248169	469.700000
807.283752	470.600000
807.319275	465.200000
807.354858	469.400000
807.390381	462.600000
807.425903	466.100000
807.461487	464.400000
807.497070	458.100000
807.532593	457.000000
807.568115	454.300000
807.603699	451.000000
807.639221	451.700000
807.674744	451.900000
807.710266	451.900000
807.745850	449.700000
807.781372	446.600000
807.816895	443.600000
807.852417	444.400000
807.888000	445.800000
807.923523	440.300000
807.959045	442.000000
807.994629	435.400000
808.030090	438.000000
808.065613	436.500000
808.101135	441.000000
808.136658	437.800000
808.172241	434.500000
808.207764	436.800000
808.243225	431.200000
808.278809	429.500000
808.314270	432.200000
808.349792	420.800000
808.385315	424.000000
808.420837	426.700000
808.456360	433.000000
808.491882	428.700000
808.527344	425.000000
808.562866	433.900000
808.598389	425.000000
808.633850	425.000000
808.669434	420.400000
808.704895	426.400000
808.740417	429.500000
808.775940	417.500000
808.811462	415.500000
808.846924	412.200000
808.882385	409.100000
808.917847	408.500000
808.953369	411.700000
808.988892	406.900000
809.024353	415.000000
809.059875	412.500000
809.095398	407.900000
809.130798	401.900000
809.166321	403.300000
809.201843	405.300000
809.237305	405.200000
809.272766	410.400000
809.308228	395.500000
809.343750	396.500000
809.379211	400.600000
809.414734	399.300000
809.450134	401.800000
809.485657	393.000000
809.521118	394.500000
809.556580	392.700000
809.592102	393.000000
809.627502	391.300000
809.663025	386.500000
809.698486	384.200000
809.733887	378.600000
809.769409	384.100000
809.804871	376.200000
809.840271	379.900000
809.875793	374.700000
809.911194	381.900000
809.946655	373.600000
809.982178	372.500000
810.017639	374.000000
810.053040	373.700000
810.088501	367.100000
810.123901	368.900000
810.159424	363.500000
810.194885	362.800000
810.230286	364.200000
810.265747	358.000000
810.301208	356.500000
810.336609	361.000000
810.372070	353.900000
810.407532	354.300000
810.442932	358.500000
810.478394	362.600000
810.513794	355.500000
810.549255	354.400000
810.584717	353.200000
810.620117	348.100000
810.655518	352.600000
810.690979	347.300000
810.726379	348.300000
810.761841	341.200000
810.797302	340.700000
810.832642	337.300000
810.868103	347.500000
810.903564	337.500000
810.938904	343.300000
810.974365	331.000000
811.009827	337.100000
811.045166	334.000000
811.080627	326.900000
811.115967	330.900000
811.151428	335.300000
811.186829	330.000000
811.222229	328.800000
811.257629	318.500000
811.293091	328.300000
811.328430	335.700000
811.363892	328.800000
811.399292	328.100000
811.434631	322.800000
811.470093	325.600000
811.505493	321.200000
811.540833	319.200000
811.576294	323.900000
811.611694	320.200000
811.647034	314.800000
811.682434	314.600000
811.717773	317.300000
811.753235	321.100000
811.788635	315.600000
811.823975	315.400000
811.859375	319.400000
811.894775	306.800000
811.930115	311.200000
811.965515	309.600000
812.000916	310.500000
812.036255	309.300000
812.071655	310.300000
812.106995	305.300000
812.142395	305.300000
812.177795	311.100000
812.213196	306.900000
812.248474	305.400000
812.283875	296.200000
812.319214	301.400000
812.354614	300.100000
812.390015	296.100000
812.425293	296.200000
812.460693	298.000000
812.496094	292.300000
812.531433	289.300000
812.566772	289.200000
812.602173	292.100000
812.637451	289.200000
812.672852	287.900000
812.708191	287.900000
812.743530	286.800000
812.778931	280.400000
812.814270	282.900000
812.849609	285.900000
812.884949	282.000000
812.920227	274.600000
812.955627	289.300000
812.990967	280.400000
813.026306	277.600000
813.061646	269.400000
813.096985	269.100000
813.132324	266.500000
813.167664	267.500000
813.203003	274.100000
813.238281	263.300000
813.273682	263.000000
813.308960	263.000000
813.344299	264.100000
813.379639	268.800000
813.414978	264.000000
813.450256	261.900000
813.485596	266.400000
813.520874	260.600000
813.556213	262.900000
813.591614	265.700000
813.626831	257.800000
813.662170	259.600000
813.697510	266.500000
813.732788	253.900000
813.768127	258.000000
813.803467	259.000000
813.838745	253.800000
813.874084	258.100000
813.909363	255.100000
813.944641	254.800000
813.979980	248.300000
814.015320	250.200000
814.050598	251.700000
814.085876	251.900000
814.121155	251.100000
814.156494	248.200000
814.191772	250.700000
814.227051	244.400000
814.262390	248.900000
814.297668	247.700000
814.332947	247.800000
814.368225	240.700000
814.403564	245.700000
814.438782	241.900000
814.474121	243.800000
814.509338	240.700000
814.544617	246.600000
814.579956	240.000000
814.615173	249.000000
814.650513	246.100000
814.685791	239.800000
814.721008	242.300000
814.756348	240.600000
814.791626	238.100000
814.826843	236.000000
814.862122	239.000000
814.897400	236.600000
814.932678	238.600000
814.967957	236.500000
815.003235	237.900000
815.038452	233.300000
815.073730	232.800000
815.108948	239.000000
815.144226	238.700000
815.179504	241.300000
815.214722	229.600000
815.250000	226.800000
815.285278	234.100000
815.320496	230.800000
815.355774	232.000000
815.391052	231.300000
815.426270	230.800000
815.461487	228.600000
815.496765	226.900000
815.531982	224.400000
815.567261	229.900000
815.602539	233.700000
815.637695	229.900000
815.672974	229.500000
815.708191	232.800000
815.743408	232.700000
815.778687	226.100000
815.813904	232.500000
815.849121	223.100000
815.884399	222.300000
815.919556	223.000000
815.954834	223.800000
815.990051	226.600000
816.025269	231.400000
816.060486	223.000000
816.095703	221.800000
816.130920	224.500000
816.166199	222.400000
816.201416	226.700000
816.236572	229.000000
816.271851	224.100000
816.307007	230.000000
816.342224	220.100000
816.377441	224.500000
816.412659	216.200000
816.447876	226.100000
816.483093	222.100000
816.518250	222.500000
816.553467	221.400000
816.588745	225.000000
816.623901	217.900000
816.659119	215.400000
816.694275	218.300000
816.729492	216.400000
816.764709	245.400000
816.799927	216.600000
816.835083	219.000000
816.870300	216.100000
816.905457	217.600000
816.940674	220.800000
816.975830	214.600000
817.010986	215.700000
817.046204	216.200000
817.081421	214.600000
817.116577	215.900000
817.151733	221.200000
817.186951	220.700000
817.222107	218.300000
817.257324	220.300000
817.292419	220.300000
817.327637	212.500000
817.362854	216.200000
817.398010	212.200000
817.433167	215.400000
817.468323	215.200000
817.503479	214.900000
817.538635	224.500000
817.573853	218.800000
817.608948	217.100000
817.644165	213.700000
817.679321	213.500000
817.714478	212.800000
817.749634	217.700000
817.784790	223.300000
817.819946	223.000000
817.855103	208.100000
817.890198	216.800000
817.925415	208.500000
817.960571	217.900000
817.995667	214.900000
818.030823	217.300000
818.066040	212.900000
818.101135	217.100000
818.136292	212.600000
818.171448	210.800000
818.206543	213.000000
818.241699	217.600000
818.276855	215.600000
818.311951	212.900000
818.347107	210.500000
818.382263	216.500000
818.417358	217.900000
818.452515	217.800000
818.487610	220.000000
818.522766	212.400000
818.557922	220.700000
818.593018	216.700000
818.628113	213.900000
818.663269	211.500000
818.698364	214.400000
818.733521	212.100000
818.768677	216.600000
818.803711	211.300000
818.838867	212.400000
818.874023	214.400000
818.909058	211.500000
818.944214	210.900000
818.979370	215.100000
819.014404	215.200000
819.049561	211.800000
819.084595	216.500000
819.119751	210.000000
819.154846	216.300000
819.189941	211.900000
819.225037	209.300000
819.260193	206.600000
819.295227	207.900000
819.330322	205.500000
819.365479	204.700000
819.400513	241.400000
819.435608	204.100000
819.470764	204.100000
819.505798	205.200000
819.540894	210.000000
819.575989	206.600000
819.611084	214.300000
819.646179	215.200000
819.681213	212.000000
819.716309	207.300000
819.751404	210.100000
819.786438	214.600000
819.821533	206.900000
819.856628	209.400000
819.891663	213.100000
819.926758	218.700000
819.961853	216.200000
819.996887	206.900000
820.031982	211.900000
820.067017	209.100000
820.102112	241.800000
820.137207	206.400000
820.172302	221.700000
820.207275	206.500000
820.242371	207.100000
820.277405	208.000000
820.312500	208.800000
820.347534	212.900000
820.382568	214.500000
820.417664	209.100000
820.452759	207.100000
820.487732	207.200000
820.522827	206.900000
820.557861	205.800000
820.592896	208.400000
820.627930	210.200000
820.662964	205.000000
820.698059	210.300000
820.733093	206.100000
820.768127	212.000000
820.803162	207.400000
820.838196	206.700000
820.873230	206.800000
820.908264	210.100000
820.943298	204.600000
820.978333	210.400000
821.013367	207.800000
821.048401	212.000000
821.083435	212.000000
821.118469	204.000000
821.153503	211.400000
821.188477	209.900000
821.223511	204.200000
821.258484	208.500000
821.293579	207.200000
821.328613	204.100000
821.363647	207.000000
821.398621	202.800000
821.433655	205.800000
821.468628	217.200000
821.503662	206.700000
821.538696	210.700000
821.573669	204.400000
821.608704	211.000000
821.643677	207.100000
821.678650	211.000000
821.713684	213.400000
821.748718	208.100000
821.783691	208.800000
821.818726	208.200000
821.853638	210.500000
821.888672	207.600000
821.923706	208.600000
821.958618	206.000000
821.993652	207.800000
822.028687	209.900000
822.063599	214.700000
822.098633	209.000000
822.133667	205.600000
822.168579	207.600000
822.203613	210.400000
822.238586	204.300000
822.273560	211.500000
822.308533	203.800000
822.343567	204.200000
822.378479	206.900000
822.413452	206.100000
822.448425	202.800000
822.483398	212.500000
822.518372	211.300000
822.553345	204.600000
822.588318	212.400000
822.623291	207.000000
822.658203	204.700000
822.693237	207.000000
822.728210	202.400000
822.763123	207.800000
822.798096	203.600000
822.833069	205.900000
822.867981	206.000000
822.902954	210.000000
822.937927	208.500000
822.972900	214.700000
823.007874	201.200000
823.042725	211.900000
823.077698	216.800000
823.112671	204.800000
823.147583	205.600000
823.182556	209.100000
823.217529	211.200000
823.252441	204.600000
823.287415	216.500000
823.322388	209.500000
823.357239	206.700000
823.392212	211.300000
823.427185	212.600000
823.462097	202.500000
823.497009	209.400000
823.531982	204.100000
823.566895	205.500000
823.601807	202.500000
823.636719	205.700000
823.671631	207.100000
823.706604	204.000000
823.741455	207.600000
823.776428	201.000000
823.811340	208.600000
823.846252	211.800000
823.881165	210.700000
823.916138	206.400000
823.950989	211.300000
823.985901	202.400000
824.020813	205.500000
824.055725	205.100000
824.090637	200.800000
824.125610	208.000000
824.160461	207.900000
824.195374	206.300000
824.230225	208.000000
824.265198	201.900000
824.300110	204.200000
824.334961	213.800000
824.369873	198.500000
824.404785	207.400000
824.439636	209.700000
824.474548	201.800000
824.509460	198.900000
824.544312	210.300000
824.579224	207.800000
824.614075	208.400000
824.648987	204.600000
824.683899	206.000000
824.718811	203.600000
824.753662	209.600000
824.788574	210.600000
824.823364	205.000000
824.858276	202.500000
824.893188	209.100000
824.928040	209.100000
824.962952	205.400000
824.997803	208.800000
825.032654	205.400000
825.067566	207.400000
825.102417	203.100000
825.137268	204.100000
825.172119	201.600000
825.206970	202.100000
825.241882	202.000000
825.276733	201.600000
825.311646	201.200000
825.346436	198.900000
825.381348	198.100000
825.416138	203.900000
825.450989	200.200000
825.485901	195.700000
825.520691	196.300000
825.555542	197.800000
825.590454	200.400000
825.625244	198.300000
825.660095	208.400000
825.695007	206.200000
825.729797	201.300000
825.764648	199.400000
825.799438	201.600000
825.834290	204.000000
825.869202	197.400000
825.903992	202.200000
825.938843	198.900000
825.973694	197.600000
826.008484	211.500000
826.043335	196.900000
826.078186	194.400000
826.112976	204.100000
826.147827	205.300000
826.182678	206.900000
826.217468	195.500000
826.252319	205.700000
826.287109	197.600000
826.321899	201.900000
826.356750	198.500000
826.391541	193.700000
826.426392	203.600000
826.461182	197.700000
826.495972	194.700000
826.530823	189.600000
826.565613	199.500000
826.600403	193.500000
826.635254	201.100000
826.670044	191.900000
826.704834	191.900000
826.739685	194.200000
826.774475	199.700000
826.809265	196.500000
826.844055	195.700000
826.878906	201.000000
826.913635	197.900000
826.948425	197.400000
826.983215	199.500000
827.018005	199.300000
827.052856	193.600000
827.087585	200.600000
827.122375	191.100000
827.157227	194.200000
827.191956	207.400000
827.226746	192.400000
827.261536	198.100000
827.296265	192.600000
827.331116	194.000000
827.365906	197.400000
827.400635	193.200000
827.435425	188.400000
827.470215	198.900000
827.504944	194.700000
827.539734	198.500000
827.574463	195.100000
827.609253	201.700000
827.644043	194.600000
827.678772	198.600000
827.713562	194.200000
827.748352	194.000000
827.783081	191.100000
827.817871	195.900000
827.852600	191.600000
827.887329	193.400000
827.922119	188.400000
827.956848	195.700000
827.991638	205.400000
828.026367	195.700000
828.061157	194.000000
828.095886	192.800000
828.130615	208.600000
828.165344	186.500000
828.200073	194.700000
828.234863	192.800000
828.269592	192.700000
828.304321	197.400000
828.339111	195.400000
828.373779	191.200000
828.408569	197.500000
828.443298	197.900000
828.477966	194.300000
828.512756	194.100000
828.547424	190.900000
828.582214	195.100000
828.616943	193.700000
828.651672	193.600000
828.686340	198.200000
828.721130	192.400000
828.755798	195.600000
828.790527	196.300000
828.825256	195.100000
828.859924	195.900000
828.894714	198.100000
828.929443	202.400000
828.964111	192.400000
828.998840	198.500000
829.033569	190.900000
829.068237	194.100000
829.102966	192.200000
829.137634	196.000000
829.172363	196.000000
829.207092	195.200000
829.241821	191.000000
829.276489	190.400000
829.311157	192.200000
829.345825	192.100000
829.380554	197.000000
829.415283	192.400000
829.449951	188.600000
829.484619	203.200000
829.519348	199.600000
829.554016	194.300000
829.588745	195.100000
829.623413	190.700000
829.658081	201.300000
829.692749	191.000000
829.727417	199.300000
829.762146	195.600000
829.796814	192.300000
829.831482	194.100000
829.866150	195.000000
829.900879	192.400000
829.935486	196.700000
829.970154	193.500000
830.004883	205.100000
830.039490	196.700000
830.074219	192.500000
830.108887	197.100000
830.143494	195.600000
830.178223	190.000000
830.212891	193.300000
830.247498	194.000000
830.282166	201.100000
830.316772	199.500000
830.351501	194.100000
830.386169	192.900000
830.420776	194.200000
830.455444	194.600000
830.490112	192.800000
830.524719	188.600000
830.559387	197.000000
830.594055	196.200000
830.628662	195.300000
830.663330	193.400000
830.697998	202.100000
830.732605	193.900000
830.767273	196.500000
830.801941	191.900000
830.836487	204.200000
830.871155	194.200000
830.905762	196.500000
830.940430	189.000000
830.975098	192.500000
831.009644	194.200000
831.044312	201.300000
831.078979	195.500000
831.113525	187.800000
831.148193	194.600000
831.182861	193.200000
831.217407	196.600000
831.252075	207.600000
831.286621	191.800000
831.321289	191.700000
831.355896	194.600000
831.390564	200.700000
831.425110	196.300000
831.459778	199.800000
831.494324	206.400000
831.528931	196.300000
831.563599	200.100000
831.598145	189.500000
831.632751	194.200000
831.667419	194.400000
831.701965	197.600000
831.736572	197.400000
831.771179	191.200000
831.805786	191.700000
831.840393	199.300000
831.874939	188.900000
831.909546	197.500000
831.944153	187.700000
831.978760	195.200000
832.013306	189.500000
832.047913	199.700000
832.082458	200.700000
832.117065	191.900000
832.151672	201.400000
832.186218	195.400000
832.220825	196.500000
832.255432	188.700000
832.289978	191.200000
832.324585	196.300000
832.359192	194.600000
832.393677	194.200000
832.428284	194.100000
832.462830	192.800000
832.497437	193.900000
832.531982	197.100000
832.566589	192.900000
832.601135	196.700000
832.635681	189.600000
832.670227	194.700000
832.704773	201.000000
832.739380	195.900000
832.773926	195.300000
832.808472	191.800000
832.843079	195.100000
832.877563	196.200000
832.912170	194.700000
832.946716	189.800000
832.981201	199.700000
833.015808	197.300000
833.050293	195.000000
833.084839	190.400000
833.119446	193.600000
833.153992	197.000000
833.188477	194.200000
833.223022	191.900000
833.257568	196.900000
833.292114	198.900000
833.326660	204.500000
833.361145	191.300000
833.395691	189.300000
833.430237	195.200000
833.464783	197.400000
833.499329	191.100000
833.533875	191.800000
833.568359	196.700000
833.602905	199.100000
833.637390	199.000000
833.671875	192.500000
833.706421	191.600000
833.740906	192.000000
833.775452	185.700000
833.809998	192.400000
833.844482	200.800000
833.879028	194.000000
833.913513	192.400000
833.947998	197.700000
833.982544	191.800000
834.017090	191.600000
834.051514	187.500000
834.086060	196.400000
834.120544	194.500000
834.155029	196.100000
834.189575	193.200000
834.223999	197.300000
834.258545	195.100000
834.293030	195.700000
834.327515	195.000000
834.362000	192.400000
834.396545	197.700000
834.430969	193.900000
834.465454	197.900000
834.500000	188.300000
834.534424	196.800000
834.568970	188.200000
834.603455	188.700000
834.637878	190.100000
834.672363	195.500000
834.706909	192.900000
834.741333	194.100000
834.775818	189.000000
834.810242	192.800000
834.844727	193.300000
834.879211	195.100000
834.913635	193.800000
834.948181	194.900000
834.982666	193.400000
835.017090	192.500000
835.051575	195.700000
835.086060	193.300000
835.120483	195.900000
835.154907	197.100000
835.189331	193.600000
835.223816	197.300000
835.258301	190.200000
835.292786	191.300000
835.327209	197.400000
835.361694	191.700000
835.396057	192.000000
835.430542	197.400000
835.465027	194.600000
835.499390	190.700000
835.533875	220.800000
835.568359	192.500000
835.602722	189.200000
835.637207	195.700000
835.671692	190.100000
835.706055	209.600000
835.740540	198.700000
835.774902	196.100000
835.809387	194.200000
835.843811	189.000000
835.878235	201.000000
835.912659	190.100000
835.947083	193.200000
835.981506	194.200000
836.015930	191.100000
836.050354	198.500000
836.084778	201.200000
836.119202	197.600000
836.153625	208.900000
836.187988	190.300000
836.222473	192.700000
836.256897	194.600000
836.291260	193.100000
836.325684	195.500000
836.360046	194.000000
836.394470	193.100000
836.428894	202.400000
836.463318	191.900000
836.497681	197.600000
836.532104	198.800000
836.566467	195.400000
836.600891	193.700000
836.635315	199.700000
836.669678	195.800000
836.704102	198.800000
836.738525	196.300000
836.772888	188.800000
836.807251	192.300000
836.841675	196.500000
836.876038	191.400000
836.910461	190.800000
836.944763	198.100000
836.979187	191.700000
837.013611	199.700000
837.047974	190.800000
837.082336	205.500000
837.116699	197.000000
837.151062	195.900000
837.185486	190.700000
837.219849	194.600000
837.254211	198.300000
837.288574	195.700000
837.322937	190.900000
837.357300	186.000000
837.391663	204.000000
837.426086	198.700000
837.460388	195.500000
837.494751	199.100000
837.529114	192.500000
837.563477	201.000000
837.597839	194.900000
837.632141	194.600000
837.666565	192.200000
837.700928	197.800000
837.735229	195.300000
837.769592	198.300000
837.803955	196.500000
837.838257	193.500000
837.872620	190.200000
837.906982	200.200000
837.941284	193.200000
837.975647	196.300000
838.010010	199.800000
838.044312	193.400000
838.078674	192.100000
838.112976	195.400000
838.147339	195.500000
838.181702	195.500000
838.216003	202.600000
838.250366	196.200000
838.284668	197.200000
838.318970	188.900000
838.353333	194.900000
838.387634	194.300000
838.421936	196.200000
838.456299	195.500000
838.490601	201.000000
838.524902	198.200000
838.559265	199.000000
838.593567	198.400000
838.627869	192.000000
838.662170	196.000000
838.696472	191.000000
838.730774	191.600000
838.765137	197.700000
838.799377	182.700000
838.833740	195.300000
838.868042	198.300000
838.902283	189.700000
838.936646	198.800000
838.970947	195.900000
839.005188	201.100000
839.039551	189.200000
839.073792	199.000000
839.108093	194.100000
839.142395	200.800000
839.176697	190.200000
839.210937	194.700000
839.245300	202.900000
839.279541	189.300000
839.313843	193.300000
839.348145	195.900000
839.382385	197.500000
839.416687	198.200000
839.450989	196.500000
839.485229	194.700000
839.519531	191.900000
839.553833	199.000000
839.588013	195.400000
839.622314	195.900000
839.656555	197.600000
839.690857	194.400000
839.725159	191.400000
839.759460	195.300000
839.793640	192.000000
839.827942	194.200000
839.862183	191.000000
839.896423	196.900000
839.930725	205.400000
839.964966	202.100000
839.999207	198.300000
840.033508	201.900000
840.067688	191.700000
840.101990	200.900000
840.136230	194.100000
840.170471	201.500000
840.204712	190.700000
840.238953	192.600000
840.273193	193.900000
840.307434	197.200000
840.341736	191.200000
840.375916	190.000000
840.410217	192.000000
840.444397	200.200000
840.478638	195.000000
840.512878	199.000000
840.547119	194.200000
840.581360	197.900000
840.615601	200.800000
840.649780	204.800000
840.684021	192.700000
840.718262	202.000000
840.752441	200.900000
840.786682	195.900000
840.820862	195.200000
840.855103	202.500000
840.889343	194.800000
840.923584	198.900000
840.957764	197.300000
840.992004	196.000000
841.026184	207.300000
841.060425	196.500000
841.094666	193.200000
841.128845	199.400000
841.163025	197.400000
841.197266	196.500000
841.231445	196.800000
841.265686	197.400000
841.299866	192.900000
841.334045	200.600000
841.368286	194.200000
841.402405	200.700000
841.436646	197.400000
841.470825	192.800000
841.505005	195.700000
841.539185	190.900000
841.573425	193.300000
841.607544	193.500000
841.641785	193.600000
841.675964	191.600000
841.710144	195.700000
841.744324	190.500000
841.778503	194.400000
841.812683	191.400000
841.846863	201.000000
841.881042	199.200000
841.915222	194.000000
841.949402	206.900000
841.983521	189.000000
842.017700	194.100000
842.051880	196.200000
842.086060	197.500000
842.120239	195.400000
842.154419	193.700000
842.188538	195.200000
842.222717	192.300000
842.256897	202.600000
842.291016	195.400000
842.325195	196.900000
842.359375	205.000000
842.393494	202.400000
842.427673	195.900000
842.461853	195.500000
842.495911	203.200000
842.530090	197.000000
842.564209	194.900000
842.598389	197.000000
842.632568	195.800000
842.666626	197.400000
842.700806	192.600000
842.734985	192.400000
842.769043	198.000000
842.803223	193.400000
842.837402	194.200000
842.871460	192.000000
842.905640	203.700000
842.939697	191.000000
842.973877	196.600000
843.007996	198.700000
843.042175	205.100000
843.076233	192.000000
843.110413	197.300000
843.144470	201.400000
843.178589	199.300000
843.212769	192.300000
843.246826	198.300000
843.280945	192.000000
843.315125	195.600000
843.349182	191.100000
843.383301	199.900000
843.417419	206.000000
843.451538	195.600000
843.485657	192.400000
843.519714	195.800000
843.553833	196.600000
843.587952	192.800000
843.622070	193.300000
843.656128	197.800000
843.690247	193.200000
843.724304	195.500000
843.758423	197.400000
843.792542	194.000000
843.826599	195.800000
843.860718	195.000000
843.894836	189.800000
843.928894	197.400000
843.963013	196.600000
843.997070	192.300000
844.031128	190.400000
844.065247	197.900000
844.099304	198.900000
844.133362	196.300000
844.167480	198.400000
844.201599	198.600000
844.235596	198.100000
844.269714	196.200000
844.303711	197.100000
844.337830	188.000000
844.371948	198.200000
844.405945	194.100000
844.440063	192.000000
844.474121	205.100000
844.508118	193.500000
844.542236	194.700000
844.576294	194.900000
844.610352	190.800000
844.644409	194.900000
844.678406	187.700000
844.712524	199.700000
844.746582	200.500000
844.780640	195.800000
844.814636	195.600000
844.848755	206.700000
844.882751	195.100000
844.916809	199.500000
844.950867	197.400000
844.984863	204.300000
845.018921	194.000000
845.052979	192.400000
845.086975	195.800000
845.121033	189.900000
845.155090	193.600000
845.189087	199.900000
845.223145	195.600000
845.257141	196.700000
845.291199	198.300000
845.325256	200.600000
845.359253	197.500000
845.393250	206.200000
845.427307	195.300000
845.461304	197.500000
845.495361	198.100000
845.529358	203.500000
845.563354	195.300000
845.597412	191.500000
845.631409	203.900000
845.665405	202.000000
845.699463	199.700000
845.733459	191.600000
845.767456	204.000000
845.801453	193.400000
845.835449	201.100000
845.869446	199.200000
845.903503	199.700000
845.937439	191.500000
845.971497	201.600000
846.005493	188.800000
846.039429	199.500000
846.073486	203.600000
846.107483	194.900000
846.141418	193.800000
846.175476	195.500000
846.209473	200.700000
846.243408	192.400000
846.277405	197.300000
846.311401	192.600000
846.345337	195.900000
846.379395	200.400000
846.413330	192.400000
846.447327	205.500000
846.481323	192.300000
846.515259	193.100000
846.549255	195.400000
846.583252	199.600000
846.617187	192.900000
846.651184	197.100000
846.685120	196.100000
846.719055	202.600000
846.753052	199.900000
846.786987	199.900000
846.820984	191.400000
846.854980	200.400000
846.888916	193.000000
846.922852	196.900000
846.956848	201.600000
846.990723	192.400000
847.024719	197.400000
847.058716	193.600000
847.092590	201.700000
847.126587	196.200000
847.160522	193.500000
847.194458	198.500000
847.228455	192.800000
847.262390	189.200000
847.296265	196.000000
847.330261	199.500000
847.364136	192.400000
847.398132	193.500000
847.432068	196.900000
847.466003	194.000000
847.499939	194.600000
847.533875	198.100000
847.567749	193.800000
847.601746	193.700000
847.635681	198.800000
847.669556	190.300000
847.703491	201.600000
847.737427	206.200000
847.771301	191.900000
847.805237	199.500000
847.839233	197.500000
847.873108	196.300000
847.907043	194.700000
847.940918	203.100000
847.974854	197.000000
848.008789	200.600000
848.042664	196.200000
848.076538	199.000000
848.110474	196.900000
848.144348	198.000000
848.178284	189.700000
848.212219	198.700000
848.246094	193.500000
848.279968	195.400000
848.313904	197.800000
848.347778	196.500000
848.381653	193.400000
848.415588	193.600000
848.449463	191.800000
848.483337	197.300000
848.517212	201.100000
848.551086	196.700000
848.585022	190.700000
848.618835	205.800000
848.652771	192.800000
848.686646	191.800000
848.720520	201.300000
848.754395	196.000000
848.788330	197.400000
848.822144	199.500000
848.856018	192.700000
848.889954	204.600000
848.923767	191.400000
848.957642	194.500000
848.991577	197.300000
849.025391	195.800000
849.059265	195.900000
849.093079	192.600000
849.126953	192.000000
849.160828	199.000000
849.194641	197.200000
849.228577	193.600000
849.262451	195.600000
849.296265	193.500000
849.330139	194.600000
849.364014	196.700000
849.397827	198.200000
849.431702	196.400000
849.465515	201.100000
849.499329	188.200000
849.533203	193.300000
849.567078	186.800000
849.600891	198.800000
849.634766	194.200000
849.668518	199.200000
849.702393	194.900000
849.736267	192.100000
849.770020	203.600000
849.803894	198.200000
849.837769	196.900000
849.871521	197.000000
849.905396	198.300000
849.939270	193.100000
849.973022	192.900000
850.006897	197.600000
850.040710	199.000000
850.074524	200.200000
850.108337	194.100000
850.142151	200.800000
850.175964	201.600000
850.209778	195.600000
850.243530	186.500000
850.277405	199.100000
850.311218	195.600000
850.344971	194.300000
850.378845	202.400000
850.412659	193.900000
850.446411	198.400000
850.480225	194.700000
850.514038	201.200000
850.547791	199.800000
850.581665	196.400000
850.615417	193.300000
850.649231	198.900000
850.683044	193.500000
850.716858	194.800000
850.750610	197.500000
850.784424	199.800000
850.818176	191.600000
850.851929	196.000000
850.885742	191.900000
850.919495	195.500000
850.953308	201.700000
850.987122	201.200000
851.020874	191.300000
851.054626	191.000000
851.088440	198.100000
851.122192	198.800000
851.156006	196.200000
851.189697	195.700000
851.223511	192.600000
851.257263	199.800000
851.291077	196.900000
851.324829	194.300000
851.358582	192.800000
851.392334	195.100000
851.426086	193.300000
851.459900	202.700000
851.493591	196.300000
851.527344	195.300000
851.561157	195.300000
851.594849	197.900000
851.628662	196.900000
851.662415	205.100000
851.696106	197.000000
851.729858	198.800000
851.763611	191.100000
851.797363	197.200000
851.831116	191.900000
851.864868	198.500000
851.898560	200.900000
851.932312	194.200000
851.966064	197.800000
851.999817	195.000000
852.033569	195.100000
852.067261	201.800000
852.101013	194.900000
852.134766	194.700000
852.168457	188.600000
852.202209	199.300000
852.235901	192.600000
852.269592	196.900000
852.303345	203.000000
852.337036	196.800000
852.370789	196.700000
852.404541	197.000000
852.438171	191.700000
852.471924	194.800000
852.505676	190.300000
852.539307	195.900000
852.573059	193.200000
852.606812	193.100000
852.640442	195.100000
852.674194	198.500000
852.707886	204.700000
852.741577	200.600000
852.775269	193.500000
852.809021	196.300000
852.842651	198.600000
852.876404	201.700000
852.910034	196.600000
852.943787	200.000000
852.977478	197.700000
853.011108	191.900000
853.044861	193.200000
853.078552	201.600000
853.112183	197.100000
853.145874	198.100000
853.179626	190.200000
853.213257	198.100000
853.246948	193.200000
853.280640	204.400000
853.314270	194.900000
853.347961	200.500000
853.381653	198.800000
853.415283	202.600000
853.448975	192.300000
853.482605	197.400000
853.516296	193.700000
853.549988	191.600000
853.583618	197.300000
853.617310	198.700000
853.651001	195.800000
853.684631	194.100000
853.718323	192.900000
853.751953	201.900000
853.785583	189.900000
853.819275	198.700000
853.852966	195.800000
853.886536	190.400000
853.920227	189.900000
853.953918	199.600000
853.987488	194.700000
854.021179	199.800000
854.054749	201.400000
854.088440	198.900000
854.122131	191.700000
854.155701	198.200000
854.189331	193.200000
854.223022	198.000000
854.256592	197.000000
854.290283	194.800000
854.323914	198.700000
854.357483	196.200000
854.391174	197.800000
854.424744	203.400000
854.458374	196.900000
854.492065	206.000000
854.525696	195.600000
854.559265	201.200000
854.592896	206.500000
854.626465	197.000000
854.660095	196.000000
854.693787	198.600000
854.727356	195.500000
854.760986	198.700000
854.794617	197.300000
854.828186	194.300000
854.861816	198.500000
854.895447	197.700000
854.929016	198.200000
854.962585	196.500000
854.996155	205.100000
855.029785	196.000000
855.063416	197.700000
855.097046	198.900000
855.130615	192.200000
855.164185	198.800000
855.197754	196.500000
855.231384	196.900000
855.264954	194.800000
855.298523	199.100000
855.332153	197.000000
855.365723	200.400000
855.399292	193.400000
855.432922	194.000000
855.466492	197.500000
855.500061	192.400000
855.533630	193.300000
855.567200	199.100000
855.600769	201.900000
855.634338	200.200000
855.667969	198.000000
855.701477	193.400000
855.735046	192.000000
855.768616	189.900000
855.802185	197.800000
855.835754	208.900000
855.869324	189.500000
855.902893	196.100000
855.936401	200.600000
855.969971	196.900000
856.003540	190.400000
856.037109	200.700000
856.070618	194.500000
856.104187	192.600000
856.137695	193.400000
856.171265	190.000000
856.204834	196.700000
856.238403	200.600000
856.271912	193.200000
856.305481	199.600000
856.338989	190.300000
856.372559	199.500000
856.406128	197.700000
856.439636	199.700000
856.473145	194.000000
856.506653	202.200000
856.540222	194.800000
856.573792	201.500000
856.607300	199.400000
856.640808	192.200000
856.674377	196.900000
856.707825	228.900000
856.741394	198.700000
856.774902	192.800000
856.808472	189.300000
856.841980	198.400000
856.875488	200.500000
856.908936	191.800000
856.942505	195.600000
856.976013	196.100000
857.009521	193.900000
857.043030	196.700000
857.076477	194.800000
857.110046	201.100000
857.143555	197.700000
857.177063	199.100000
857.210571	195.000000
857.244080	190.400000
857.277527	198.100000
857.311035	196.300000
857.344543	201.900000
857.378052	194.700000
857.411499	201.900000
857.445068	203.200000
857.478516	195.300000
857.512024	190.600000
857.545532	195.100000
857.578979	197.000000
857.612427	198.000000
857.645874	192.100000
857.679382	197.700000
857.712891	200.700000
857.746399	196.400000
857.779846	198.500000
857.813354	202.000000
857.846741	194.300000
857.880249	192.300000
857.913757	197.100000
857.947266	197.500000
857.980652	197.900000
858.014160	194.400000
858.047546	193.400000
858.081055	195.300000
858.114563	205.300000
858.147949	191.500000
858.181458	198.900000
858.214844	194.900000
858.248352	189.100000
858.281799	198.800000
858.315308	205.700000
858.348694	199.500000
858.382141	203.200000
858.415588	200.200000
858.449036	199.000000
858.482483	198.500000
858.515930	193.800000
858.549377	195.900000
858.582825	202.900000
858.616211	199.400000
858.649658	199.300000
858.683105	191.400000
858.716553	194.000000
858.750000	192.700000
858.783386	194.900000
858.816833	191.100000
858.850281	197.800000
858.883728	197.300000
858.917114	198.400000
858.950562	202.900000
858.983948	204.500000
859.017395	200.700000
859.050781	195.000000
859.084167	191.600000
859.117615	192.200000
859.151062	197.800000
859.184448	193.300000
859.217834	194.300000
859.251282	194.200000
859.284668	190.300000
859.318054	190.300000
859.351440	193.600000
859.384888	202.300000
859.418274	189.000000
859.451721	190.500000
859.485046	195.600000
859.518494	197.300000
859.551819	191.800000
859.585266	199.000000
859.618652	201.000000
859.652039	190.600000
859.685425	190.800000
859.718811	191.800000
859.752197	187.900000
859.785583	200.400000
859.819031	202.400000
859.852356	197.600000
859.885742	192.500000
859.919067	195.300000
859.952454	194.800000
859.985901	199.900000
860.019287	196.800000
860.052612	0.000000
860.085999	0.000000
860.119324	0.000000
860.152710	0.000000
860.186096	0.000000
860.219421	0.000000
860.252808	0.000000
860.286133	0.000000
860.319519	0.000000
860.352905	0.000000
860.386292	0.000000
860.419617	0.000000
860.452942	0.000000
860.486267	0.000000
860.519653	0.000000
860.553040	0.000000
860.586365	0.000000
860.619690	0.000000
860.653076	0.000000
860.686340	0.000000
860.719727	0.000000
860.753113	0.000000
860.786377	0.000000
860.819763	0.000000
860.853027	0.000000
860.886414	0.000000
860.919739	0.000000
860.953125	0.000000
860.986389	0.000000
861.019714	0.000000
861.053040	0.000000
861.086365	0.000000
861.119690	0.000000
861.153076	0.000000
861.186340	0.000000
861.219666	0.000000
861.252930	0.000000
861.286316	0.000000
861.319641	0.000000
861.352905	0.000000
861.386230	0.000000
861.419495	0.000000
861.452820	0.000000
861.486145	0.000000
861.519470	0.000000
861.552734	0.000000
861.586060	0.000000
861.619324	0.000000
861.652649	0.000000
861.685974	0.000000
861.719238	0.000000
861.752563	0.000000
861.785828	0.000000
861.819092	0.000000
861.852417	0.000000
861.885742	0.000000
861.918945	0.000000
861.952271	0.000000
861.985535	0.000000
862.018799	0.000000
862.052124	0.000000
862.085449	0.000000
862.118652	0.000000
862.151978	0.000000
862.185181	0.000000
862.218506	0.000000
862.251770	0.000000
862.285034	0.000000
862.318298	0.000000
862.351562	0.000000
862.384827	0.000000
862.418091	0.000000
862.451355	0.000000
862.484619	0.000000
862.517883	0.000000
862.551086	0.000000
862.584351	0.000000
862.617676	0.000000
862.650940	0.000000
862.684143	0.000000
862.717407	0.000000
862.750610	0.000000
862.783875	0.000000
862.817139	0.000000
862.850342	0.000000
862.883606	0.000000
862.916870	0.000000
862.950073	0.000000
862.983337	0.000000
863.016602	0.000000
863.049805	0.000000
863.083069	0.000000
863.116211	0.000000
863.149475	0.000000
863.182739	0.000000
863.216003	0.000000
863.249146	0.000000
863.282410	0.000000
863.315613	0.000000
863.348816	0.000000
863.382080	0.000000
863.415222	0.000000
863.448486	0.000000
863.481689	0.000000
863.514893	0.000000
863.548157	0.000000
863.581360	0.000000
863.614502	0.000000
863.647766	0.000000
863.680908	0.000000
863.714172	0.000000
863.747375	0.000000
863.780579	0.000000
863.813721	0.000000
863.846985	0.000000
863.880127	0.000000
863.913330	0.000000
863.946533	0.000000
863.979675	0.000000
864.012939	0.000000
