Model Number: SPM-001-M   
Serial Number: 10090201
Firmware Version: 004.17.6
Exposure Time: 300000.000000us
Data Taken on: 11-02-2021 11:07:31.613
Wavelength	Amplitude
733.770752	0.000000
733.808716	0.000000
733.846619	0.000000
733.884583	0.000000
733.922546	0.000000
733.960449	0.000000
733.998413	0.000000
734.036377	0.000000
734.074219	0.000000
734.112183	0.000000
734.150085	0.000000
734.188049	0.000000
734.226013	0.000000
734.263916	0.000000
734.301819	0.000000
734.339783	0.000000
734.377686	0.000000
734.415588	0.000000
734.453552	0.000000
734.491455	0.000000
734.529419	0.000000
734.567322	0.000000
734.605225	0.000000
734.643127	0.000000
734.681091	0.000000
734.718994	0.000000
734.756897	0.000000
734.794800	0.000000
734.832703	0.000000
734.870667	0.000000
734.908508	0.000000
734.946472	0.000000
734.984375	0.000000
735.022278	0.000000
735.060181	0.000000
735.098083	0.000000
735.135986	0.000000
735.173889	0.000000
735.211792	0.000000
735.249695	0.000000
735.287598	0.000000
735.325439	0.000000
735.363403	0.000000
735.401306	0.000000
735.439148	0.000000
735.477051	0.000000
735.515015	0.000000
735.552856	0.000000
735.590759	0.000000
735.628662	0.000000
735.666504	0.000000
735.704407	0.000000
735.742310	0.000000
735.780212	0.000000
735.818115	0.000000
735.856018	0.000000
735.893860	0.000000
735.931763	0.000000
735.969604	0.000000
736.007507	0.000000
736.045410	0.000000
736.083252	0.000000
736.121094	0.000000
736.158997	0.000000
736.196838	0.000000
736.234741	0.000000
736.272644	0.000000
736.310486	0.000000
736.348389	0.000000
736.386230	0.000000
736.424072	0.000000
736.461975	0.000000
736.499878	0.000000
736.537720	0.000000
736.575562	0.000000
736.613403	0.000000
736.651306	0.000000
736.689148	0.000000
736.726990	0.000000
736.764893	0.000000
736.802734	0.000000
736.840576	0.000000
736.878418	0.000000
736.916321	0.000000
736.954102	0.000000
736.992004	0.000000
737.029846	0.000000
737.067688	0.000000
737.105530	0.000000
737.143372	0.000000
737.181213	0.000000
737.219116	0.000000
737.256897	0.000000
737.294739	0.000000
737.332642	0.000000
737.370422	0.000000
737.408325	0.000000
737.446167	0.000000
737.483948	0.000000
737.521790	0.000000
737.559692	0.000000
737.597473	0.000000
737.635315	0.000000
737.673157	0.000000
737.710999	0.000000
737.748840	0.000000
737.786621	0.000000
737.824463	0.000000
737.862305	0.000000
737.900085	0.000000
737.937927	0.000000
737.975769	0.000000
738.013550	0.000000
738.051392	0.000000
738.089233	0.000000
738.127014	0.000000
738.164856	0.000000
738.202698	0.000000
738.240479	0.000000
738.278320	0.000000
738.316162	0.000000
738.353943	0.000000
738.391785	0.000000
738.429565	0.000000
738.467407	0.000000
738.505188	0.000000
738.542969	0.000000
738.580811	0.000000
738.618652	0.000000
738.656372	0.000000
738.694214	0.000000
738.732056	0.000000
738.769836	0.000000
738.807617	0.000000
738.845459	0.000000
738.883240	0.000000
738.921021	0.000000
738.958862	0.000000
738.996582	0.000000
739.034424	0.000000
739.072205	0.000000
739.109985	0.000000
739.147827	0.000000
739.185547	0.000000
739.223389	0.000000
739.261169	0.000000
739.298889	0.000000
739.336731	0.000000
739.374512	0.000000
739.412292	0.000000
739.450073	0.000000
739.487854	0.000000
739.525635	0.000000
739.563416	0.000000
739.601135	0.000000
739.638977	0.000000
739.676758	0.000000
739.714478	0.000000
739.752258	0.000000
739.790100	0.000000
739.827820	0.000000
739.865601	0.000000
739.903381	0.000000
739.941101	0.000000
739.978882	197.000000
740.016724	194.500000
740.054443	196.600000
740.092224	194.400000
740.130005	193.000000
740.167725	192.800000
740.205505	192.700000
740.243225	199.200000
740.281006	195.200000
740.318787	191.100000
740.356506	200.700000
740.394287	199.800000
740.432068	192.900000
740.469727	191.200000
740.507507	198.400000
740.545288	195.700000
740.583008	198.700000
740.620789	196.300000
740.658569	189.500000
740.696228	197.100000
740.734009	199.000000
740.771790	187.200000
740.809509	198.700000
740.847229	192.400000
740.884949	194.100000
740.922729	190.300000
740.960449	194.500000
740.998169	191.900000
741.035950	193.400000
741.073669	195.300000
741.111389	195.900000
741.149170	202.700000
741.186890	202.600000
741.224609	196.800000
741.262329	195.700000
741.300110	200.800000
741.337769	191.600000
741.375549	189.200000
741.413208	196.000000
741.450989	191.200000
741.488708	193.100000
741.526367	191.900000
741.564148	198.300000
741.601868	197.800000
741.639526	195.300000
741.677307	197.200000
741.715027	198.200000
741.752686	192.200000
741.790466	200.700000
741.828186	197.500000
741.865845	191.100000
741.903564	188.500000
741.941345	195.100000
741.979004	192.700000
742.016724	200.100000
742.054382	196.400000
742.092102	199.700000
742.129822	191.400000
742.167480	194.500000
742.205200	194.600000
742.242920	198.400000
742.280640	198.300000
742.318359	193.600000
742.356079	195.200000
742.393738	199.000000
742.431396	194.000000
742.469116	198.600000
742.506775	188.800000
742.544495	197.700000
742.582214	198.300000
742.619873	194.500000
742.657593	200.400000
742.695251	198.700000
742.732971	194.500000
742.770630	196.600000
742.808289	195.700000
742.846008	195.100000
742.883728	196.500000
742.921326	195.700000
742.959045	194.400000
742.996765	193.200000
743.034424	195.400000
743.072083	191.700000
743.109802	194.300000
743.147400	190.200000
743.185120	196.800000
743.222839	194.000000
743.260437	202.600000
743.298157	196.300000
743.335754	189.300000
743.373474	194.200000
743.411133	190.500000
743.448792	195.200000
743.486450	197.100000
743.524170	189.900000
743.561768	196.100000
743.599487	199.700000
743.637146	203.900000
743.674744	194.700000
743.712463	195.600000
743.750122	197.600000
743.787720	197.900000
743.825439	193.500000
743.863037	193.900000
743.900696	195.600000
743.938416	220.700000
743.976013	195.500000
744.013672	200.000000
744.051331	199.900000
744.088928	203.100000
744.126587	199.200000
744.164307	196.300000
744.201904	192.900000
744.239563	195.300000
744.277222	198.600000
744.314819	195.200000
744.352478	200.000000
744.390137	196.500000
744.427734	196.000000
744.465393	192.600000
744.502991	192.800000
744.540649	196.500000
744.578308	196.000000
744.615906	191.000000
744.653564	187.100000
744.691223	196.900000
744.728821	191.600000
744.766418	194.600000
744.804077	198.700000
744.841675	194.500000
744.879333	191.600000
744.916992	195.900000
744.954529	195.400000
744.992187	200.500000
745.029785	195.900000
745.067444	194.500000
745.105042	196.300000
745.142639	197.800000
745.180298	205.500000
745.217896	195.100000
745.255493	194.600000
745.293152	199.000000
745.330750	200.800000
745.368347	202.300000
745.405945	196.800000
745.443604	195.600000
745.481140	198.900000
745.518799	196.200000
745.556396	198.700000
745.593994	198.500000
745.631592	195.100000
745.669189	191.100000
745.706787	193.200000
745.744385	192.700000
745.781982	197.800000
745.819580	193.100000
745.857178	194.900000
745.894775	195.200000
745.932373	195.200000
745.969971	196.500000
746.007568	188.300000
746.045166	202.000000
746.082764	199.700000
746.120300	197.700000
746.157898	197.500000
746.195557	194.600000
746.233093	190.500000
746.270691	197.400000
746.308228	198.300000
746.345825	198.200000
746.383423	198.400000
746.420959	194.300000
746.458557	194.200000
746.496155	194.200000
746.533691	197.000000
746.571289	193.300000
746.608887	196.100000
746.646423	197.500000
746.684021	197.200000
746.721619	195.000000
746.759155	198.200000
746.796753	189.400000
746.834351	190.500000
746.871826	193.800000
746.909424	200.500000
746.946960	196.000000
746.984558	195.300000
747.022156	194.000000
747.059631	201.300000
747.097229	197.100000
747.134827	193.400000
747.172363	200.500000
747.209900	199.100000
747.247498	190.400000
747.285034	200.700000
747.322571	200.400000
747.360168	194.100000
747.397644	188.800000
747.435242	198.700000
747.472778	199.600000
747.510315	193.900000
747.547913	192.900000
747.585388	199.800000
747.622925	194.200000
747.660522	189.500000
747.697998	193.400000
747.735596	194.700000
747.773132	193.700000
747.810669	196.100000
747.848206	198.300000
747.885742	192.300000
747.923279	191.600000
747.960815	198.400000
747.998352	196.800000
748.035889	199.600000
748.073425	199.000000
748.110901	195.400000
748.148437	193.300000
748.185974	196.000000
748.223511	203.100000
748.261047	196.900000
748.298584	196.200000
748.336060	196.100000
748.373596	197.600000
748.411133	221.200000
748.448608	194.300000
748.486145	198.600000
748.523682	199.600000
748.561218	201.700000
748.598755	196.700000
748.636292	197.500000
748.673706	193.700000
748.711243	201.500000
748.748718	196.400000
748.786255	194.700000
748.823792	195.300000
748.861267	190.400000
748.898804	198.400000
748.936340	196.900000
748.973816	192.600000
749.011292	200.500000
749.048828	196.200000
749.086304	196.900000
749.123840	203.600000
749.161316	192.200000
749.198792	203.100000
749.236328	199.600000
749.273743	194.200000
749.311279	195.600000
749.348816	200.100000
749.386230	195.700000
749.423767	186.800000
749.461304	199.700000
749.498718	196.600000
749.536255	201.500000
749.573730	205.400000
749.611206	201.300000
749.648682	195.500000
749.686218	196.700000
749.723633	200.000000
749.761169	195.200000
749.798645	193.600000
749.836060	194.300000
749.873596	192.600000
749.911011	197.500000
749.948547	201.400000
749.986023	195.700000
750.023437	196.100000
750.060913	191.900000
750.098450	189.500000
750.135864	195.600000
750.173340	194.900000
750.210815	198.700000
750.248291	191.800000
750.285767	195.000000
750.323242	198.600000
750.360657	198.900000
750.398132	190.200000
750.435608	198.400000
750.473022	191.800000
750.510498	192.000000
750.547974	191.300000
750.585449	194.100000
750.622925	186.700000
750.660339	205.600000
750.697815	194.900000
750.735291	195.200000
750.772644	199.500000
750.810120	198.200000
750.847595	198.500000
750.885010	192.400000
750.922485	201.700000
750.959961	195.600000
750.997375	203.300000
751.034851	199.700000
751.072266	200.300000
751.109680	191.000000
751.147156	201.300000
751.184570	198.500000
751.221985	196.600000
751.259460	189.600000
751.296875	196.400000
751.334290	195.400000
751.371765	199.400000
751.409180	198.800000
751.446594	202.100000
751.484070	197.500000
751.521423	197.300000
751.558899	194.100000
751.596375	201.800000
751.633728	201.200000
751.671204	204.400000
751.708618	191.700000
751.746033	196.600000
751.783447	189.800000
751.820801	192.900000
751.858276	197.300000
751.895691	195.400000
751.933105	194.000000
751.970520	191.500000
752.007935	193.600000
752.045349	199.000000
752.082764	195.600000
752.120178	194.300000
752.157532	192.700000
752.195007	194.200000
752.232422	197.700000
752.269775	198.800000
752.307190	198.700000
752.344543	191.800000
752.382019	195.000000
752.419434	195.600000
752.456787	199.100000
752.494202	202.000000
752.531616	197.800000
752.568970	199.200000
752.606384	198.000000
752.643799	199.000000
752.681152	202.600000
752.718567	199.000000
752.755981	190.800000
752.793335	199.000000
752.830750	190.700000
752.868164	200.100000
752.905518	192.100000
752.942932	197.600000
752.980225	191.000000
753.017639	199.100000
753.055054	195.200000
753.092407	196.800000
753.129822	199.100000
753.167175	203.200000
753.204529	196.200000
753.241943	192.400000
753.279358	192.800000
753.316650	196.800000
753.354065	197.800000
753.391479	198.500000
753.428772	202.400000
753.466187	196.800000
753.503479	192.000000
753.540894	193.100000
753.578308	191.700000
753.615601	191.900000
753.653015	195.600000
753.690369	192.900000
753.727722	192.800000
753.765076	189.800000
753.802490	191.600000
753.839783	189.900000
753.877136	194.700000
753.914551	205.700000
753.951843	193.800000
753.989258	200.000000
754.026611	196.500000
754.063904	198.100000
754.101257	193.300000
754.138611	191.500000
754.175964	198.100000
754.213318	204.000000
754.250610	190.900000
754.288025	194.300000
754.325378	190.700000
754.362671	200.500000
754.400024	196.400000
754.437378	204.800000
754.474670	203.300000
754.512085	192.100000
754.549438	196.000000
754.586731	193.100000
754.624084	194.900000
754.661438	192.200000
754.698730	201.800000
754.736084	195.000000
754.773376	194.900000
754.810730	197.300000
754.848083	195.600000
754.885315	200.100000
754.922668	190.000000
754.960022	193.300000
754.997314	199.400000
755.034668	197.900000
755.072021	196.800000
755.109253	196.200000
755.146606	203.100000
755.183960	195.500000
755.221252	203.100000
755.258545	199.900000
755.295898	201.600000
755.333191	202.100000
755.370544	198.400000
755.407776	197.100000
755.445129	198.200000
755.482422	200.600000
755.519714	195.800000
755.557068	192.900000
755.594360	192.200000
755.631653	201.900000
755.668945	205.200000
755.706299	199.000000
755.743530	208.000000
755.780884	204.800000
755.818176	202.100000
755.855408	202.400000
755.892761	199.900000
755.930054	199.300000
755.967346	200.400000
756.004639	200.900000
756.041870	197.600000
756.079224	202.600000
756.116516	195.200000
756.153748	200.500000
756.191040	205.300000
756.228394	199.100000
756.265625	195.300000
756.302917	198.900000
756.340210	195.000000
756.377441	201.700000
756.414795	205.000000
756.452087	197.300000
756.489319	194.700000
756.526611	202.900000
756.563843	199.900000
756.601135	205.400000
756.638428	206.500000
756.675659	199.200000
756.712952	203.000000
756.750244	201.800000
756.787476	200.200000
756.824768	204.600000
756.862061	200.200000
756.899292	247.900000
756.936584	203.300000
756.973816	210.900000
757.011047	209.900000
757.048340	200.800000
757.085632	202.700000
757.122864	216.300000
757.160156	199.700000
757.197327	202.600000
757.234619	206.700000
757.271912	200.000000
757.309082	204.400000
757.346375	199.100000
757.383667	206.500000
757.420837	203.200000
757.458130	201.800000
757.495422	200.800000
757.532593	203.500000
757.569885	196.600000
757.607117	198.500000
757.644348	203.800000
757.681580	213.400000
757.718811	192.500000
757.756042	201.000000
757.793335	200.400000
757.830505	203.400000
757.867798	201.300000
757.905029	198.200000
757.942200	202.800000
757.979492	199.300000
758.016724	201.200000
758.053894	199.800000
758.091187	216.500000
758.128418	200.800000
758.165588	201.700000
758.202820	210.900000
758.240112	201.600000
758.277283	211.100000
758.314514	206.200000
758.351685	201.200000
758.388916	210.600000
758.426147	211.200000
758.463379	211.500000
758.500610	206.200000
758.537842	205.300000
758.575012	211.000000
758.612244	201.600000
758.649475	214.400000
758.686646	200.200000
758.723877	211.800000
758.761108	212.100000
758.798279	206.300000
758.835510	208.000000
758.872742	212.300000
758.909851	207.100000
758.947083	209.100000
758.984253	208.600000
759.021484	210.500000
759.058716	209.800000
759.095886	210.600000
759.133057	207.000000
759.170288	209.700000
759.207458	205.300000
759.244690	216.100000
759.281860	214.900000
759.319031	207.900000
759.356262	206.000000
759.393433	207.700000
759.430603	207.300000
759.467773	207.900000
759.505005	212.900000
759.542175	213.400000
759.579346	208.600000
759.616516	210.900000
759.653687	212.600000
759.690918	207.700000
759.728027	210.800000
759.765259	212.100000
759.802429	214.500000
759.839539	212.900000
759.876770	215.600000
759.913940	219.800000
759.951111	212.400000
759.988281	212.900000
760.025452	210.200000
760.062561	209.400000
760.099792	220.200000
760.136963	213.800000
760.174072	211.200000
760.211243	208.700000
760.248413	211.000000
760.285583	209.800000
760.322754	221.700000
760.359863	217.900000
760.397034	218.900000
760.434204	212.800000
760.471375	213.900000
760.508545	212.600000
760.545715	213.400000
760.582825	210.300000
760.619995	217.400000
760.657166	209.200000
760.694275	219.700000
760.731445	214.900000
760.768555	216.900000
760.805664	217.600000
760.842834	217.100000
760.879944	218.700000
760.917114	217.000000
760.954285	213.100000
760.991394	212.300000
761.028564	219.900000
761.065674	216.800000
761.102783	213.300000
761.139954	219.900000
761.177124	220.900000
761.214172	222.900000
761.251343	217.700000
761.288452	219.000000
761.325562	221.300000
761.362732	215.600000
761.399841	217.700000
761.436951	221.000000
761.474121	215.500000
761.511169	218.500000
761.548340	224.300000
761.585449	220.700000
761.622559	221.900000
761.659668	221.300000
761.696838	227.300000
761.733887	223.400000
761.771057	218.700000
761.808167	220.000000
761.845276	224.300000
761.882385	230.300000
761.919434	221.700000
761.956604	236.500000
761.993713	218.700000
762.030762	225.900000
762.067871	222.600000
762.105042	222.500000
762.142090	229.500000
762.179199	223.700000
762.216309	227.800000
762.253418	234.700000
762.290527	229.900000
762.327637	226.400000
762.364685	218.900000
762.401794	227.100000
762.438904	227.500000
762.475952	222.000000
762.513062	222.700000
762.550110	224.100000
762.587219	235.900000
762.624329	233.000000
762.661377	228.700000
762.698486	228.200000
762.735596	226.800000
762.772644	222.700000
762.809753	222.500000
762.846863	227.800000
762.883911	232.800000
762.921021	232.600000
762.958069	231.000000
762.995117	235.300000
763.032227	234.900000
763.069336	226.300000
763.106323	225.500000
763.143433	225.100000
763.180481	231.200000
763.217590	230.700000
763.254639	231.100000
763.291687	229.400000
763.328735	236.600000
763.365845	232.600000
763.402893	227.800000
763.439941	233.500000
763.477051	232.600000
763.514038	232.700000
763.551147	229.500000
763.588196	233.000000
763.625244	232.300000
763.662292	240.000000
763.699402	241.900000
763.736389	236.300000
763.773499	242.900000
763.810486	236.500000
763.847534	234.100000
763.884644	235.600000
763.921631	232.900000
763.958679	241.400000
763.995728	234.600000
764.032776	242.300000
764.069824	234.000000
764.106873	242.700000
764.143860	247.500000
764.180969	239.800000
764.218018	244.900000
764.255005	239.100000
764.292053	239.900000
764.329102	248.200000
764.366089	246.700000
764.403137	245.100000
764.440125	239.700000
764.477173	243.500000
764.514221	245.800000
764.551208	246.500000
764.588257	244.000000
764.625305	253.200000
764.662292	254.000000
764.699341	254.800000
764.736389	250.100000
764.773376	260.000000
764.810425	249.800000
764.847473	255.000000
764.884399	252.800000
764.921448	257.800000
764.958435	257.100000
764.995483	250.400000
765.032532	264.700000
765.069458	253.100000
765.106506	256.400000
765.143555	254.900000
765.180481	257.500000
765.217529	263.300000
765.254578	252.700000
765.291504	258.900000
765.328552	256.000000
765.365540	252.300000
765.402527	265.900000
765.439575	256.000000
765.476501	253.300000
765.513550	254.900000
765.550537	259.900000
765.587463	265.300000
765.624512	258.700000
765.661499	253.500000
765.698486	266.500000
765.735474	256.500000
765.772461	260.300000
765.809448	268.900000
765.846436	266.700000
765.883423	268.700000
765.920410	264.600000
765.957397	262.700000
765.994385	267.300000
766.031311	274.300000
766.068359	269.300000
766.105286	269.800000
766.142273	273.800000
766.179260	269.500000
766.216187	264.800000
766.253174	263.700000
766.290161	270.400000
766.327148	273.300000
766.364136	271.800000
766.401123	283.200000
766.438049	266.300000
766.475037	277.100000
766.512024	273.600000
766.548950	285.700000
766.585937	281.200000
766.622864	277.500000
766.659790	278.000000
766.696777	270.800000
766.733704	281.600000
766.770691	274.400000
766.807678	283.200000
766.844604	278.600000
766.881531	278.200000
766.918518	282.600000
766.955444	283.200000
766.992432	277.500000
767.029358	280.500000
767.066284	282.100000
767.103271	281.300000
767.140198	314.300000
767.177124	295.900000
767.214050	287.700000
767.251038	287.200000
767.287964	284.800000
767.324890	283.200000
767.361816	288.200000
767.398743	292.000000
767.435730	286.600000
767.472595	289.000000
767.509583	291.600000
767.546509	283.300000
767.583374	288.500000
767.620361	282.800000
767.657288	289.500000
767.694214	288.300000
767.731140	289.300000
767.768066	290.700000
767.804993	292.200000
767.841919	289.100000
767.878845	293.400000
767.915710	297.600000
767.952698	291.500000
767.989563	293.300000
768.026489	295.300000
768.063416	290.400000
768.100281	289.200000
768.137207	297.900000
768.174133	295.000000
768.211060	298.400000
768.247986	295.700000
768.284912	294.800000
768.321777	296.600000
768.358704	292.700000
768.395630	294.400000
768.432495	290.900000
768.469421	299.000000
768.506348	301.800000
768.543152	304.600000
768.580078	301.100000
768.616943	300.100000
768.653870	305.400000
768.690796	305.000000
768.727661	303.200000
768.764587	306.100000
768.801453	302.000000
768.838318	309.000000
768.875244	307.500000
768.912109	315.800000
768.948975	307.300000
768.985901	309.900000
769.022766	306.000000
769.059631	308.900000
769.096558	305.200000
769.133362	306.200000
769.170288	308.200000
769.207214	311.700000
769.244019	316.100000
769.280945	312.000000
769.317810	318.000000
769.354675	311.400000
769.391541	322.400000
769.428406	320.400000
769.465271	327.400000
769.502136	317.000000
769.539062	321.800000
769.575867	322.900000
769.612732	322.700000
769.649597	329.000000
769.686462	328.700000
769.723328	324.500000
769.760193	324.800000
769.797058	327.300000
769.833923	335.200000
769.870728	330.300000
769.907593	331.200000
769.944519	330.700000
769.981323	333.800000
770.018188	335.400000
770.055054	330.500000
770.091858	333.700000
770.128723	340.300000
770.165588	344.300000
770.202393	335.300000
770.239258	343.600000
770.276062	340.300000
770.312927	344.400000
770.349792	351.300000
770.386597	348.000000
770.423462	357.100000
770.460327	361.900000
770.497131	347.500000
770.533997	346.100000
770.570862	357.600000
770.607605	358.700000
770.644470	353.700000
770.681335	356.400000
770.718140	355.000000
770.754944	351.200000
770.791809	354.900000
770.828613	354.900000
770.865479	358.200000
770.902222	364.600000
770.939087	360.000000
770.975952	352.300000
771.012695	359.200000
771.049561	369.200000
771.086365	360.500000
771.123169	359.800000
771.159973	361.400000
771.196838	362.900000
771.233582	367.700000
771.270447	366.500000
771.307251	372.500000
771.344055	368.200000
771.380859	372.200000
771.417664	366.300000
771.454468	376.200000
771.491272	371.000000
771.528076	376.700000
771.564880	371.900000
771.601685	379.600000
771.638428	372.900000
771.675293	381.700000
771.712097	370.900000
771.748840	387.400000
771.785645	381.800000
771.822449	383.800000
771.859253	385.000000
771.896057	380.200000
771.932861	393.700000
771.969604	385.200000
772.006409	379.700000
772.043213	389.700000
772.079956	381.700000
772.116760	381.300000
772.153503	384.300000
772.190308	399.200000
772.227112	391.500000
772.263855	384.100000
772.300659	383.600000
772.337463	389.200000
772.374207	382.900000
772.411011	382.600000
772.447754	390.300000
772.484497	403.500000
772.521301	393.800000
772.558105	392.300000
772.594849	394.700000
772.631592	400.500000
772.668396	397.900000
772.705139	403.300000
772.741882	401.200000
772.778625	407.500000
772.815430	408.900000
772.852173	404.300000
772.888916	414.900000
772.925720	416.300000
772.962463	418.100000
772.999207	408.200000
773.035950	413.500000
773.072754	412.800000
773.109436	412.500000
773.146240	420.700000
773.182922	416.900000
773.219727	420.300000
773.256470	417.700000
773.293152	409.100000
773.329956	413.100000
773.366699	421.600000
773.403381	416.900000
773.440186	419.400000
773.476929	417.800000
773.513611	414.000000
773.550354	415.300000
773.587158	423.000000
773.623840	418.800000
773.660583	422.600000
773.697327	425.200000
773.734009	420.000000
773.770813	418.800000
773.807495	422.200000
773.844238	422.800000
773.880981	434.700000
773.917664	428.500000
773.954407	429.300000
773.991150	423.800000
774.027832	434.800000
774.064575	429.800000
774.101318	432.900000
774.138000	432.800000
774.174744	429.600000
774.211487	431.900000
774.248108	423.900000
774.284851	429.300000
774.321594	438.400000
774.358276	440.000000
774.395020	441.900000
774.431702	439.700000
774.468384	435.800000
774.505127	433.400000
774.541809	443.500000
774.578491	449.100000
774.615234	446.900000
774.651917	434.900000
774.688599	442.700000
774.725342	452.900000
774.762024	456.500000
774.798706	450.300000
774.835449	448.200000
774.872070	453.700000
774.908813	452.300000
774.945496	456.900000
774.982178	460.200000
775.018860	462.300000
775.055542	456.400000
775.092224	453.900000
775.128967	460.200000
775.165588	462.000000
775.202271	461.000000
775.239014	468.800000
775.275635	463.800000
775.312317	459.500000
775.349060	464.000000
775.385681	469.400000
775.422363	466.700000
775.459045	475.000000
775.495667	470.500000
775.532410	470.000000
775.569092	466.900000
775.605713	469.700000
775.642395	474.100000
775.679016	479.300000
775.715698	480.100000
775.752380	479.200000
775.789001	470.300000
775.825684	470.800000
775.862366	477.900000
775.898987	493.600000
775.935669	490.600000
775.972351	506.300000
776.008972	494.800000
776.045654	494.400000
776.082336	490.200000
776.118958	498.000000
776.155640	500.500000
776.192322	501.900000
776.228882	503.800000
776.265564	500.300000
776.302185	499.400000
776.338867	509.500000
776.375488	504.200000
776.412109	510.200000
776.448792	512.100000
776.485413	519.900000
776.522034	505.800000
776.558716	508.100000
776.595337	513.100000
776.631958	519.800000
776.668579	514.800000
776.705261	522.500000
776.741882	514.800000
776.778503	510.900000
776.815186	520.900000
776.851746	529.900000
776.888367	522.600000
776.924988	528.700000
776.961609	518.900000
776.998291	520.900000
777.034851	520.900000
777.071472	529.900000
777.108154	527.400000
777.144714	532.800000
777.181335	532.600000
777.218018	527.500000
777.254578	540.500000
777.291199	543.500000
777.327759	546.700000
777.364380	549.300000
777.401062	555.400000
777.437622	558.600000
777.474243	551.000000
777.510864	563.100000
777.547424	556.600000
777.584045	558.400000
777.620667	561.600000
777.657227	567.500000
777.693848	561.700000
777.730469	571.200000
777.767029	567.900000
777.803650	566.000000
777.840271	560.800000
777.876831	560.700000
777.913452	566.100000
777.950012	550.200000
777.986633	553.700000
778.023193	551.900000
778.059753	554.100000
778.096375	557.200000
778.132996	564.900000
778.169556	554.400000
778.206116	559.300000
778.242737	559.100000
778.279297	564.700000
778.315857	556.600000
778.352478	565.100000
778.389038	574.200000
778.425598	577.600000
778.462219	584.800000
778.498718	582.300000
778.535339	586.400000
778.571838	592.400000
778.608459	593.700000
778.645020	579.900000
778.681580	587.600000
778.718140	586.100000
778.754761	587.000000
778.791260	592.600000
778.827881	598.700000
778.864441	593.400000
778.900940	596.800000
778.937561	589.800000
778.974121	589.500000
779.010620	582.100000
779.047241	587.300000
779.083801	593.000000
779.120300	596.900000
779.156860	599.200000
779.193359	597.400000
779.229980	608.400000
779.266541	614.900000
779.303040	608.300000
779.339600	602.800000
779.376160	594.400000
779.412659	595.600000
779.449219	599.400000
779.485779	608.300000
779.522278	603.100000
779.558838	603.600000
779.595398	604.100000
779.631897	595.800000
779.668457	591.800000
779.705017	601.100000
779.741516	591.800000
779.778076	591.200000
779.814575	588.800000
779.851074	590.600000
779.887634	589.500000
779.924133	599.300000
779.960693	594.600000
779.997253	610.500000
780.033691	609.300000
780.070251	600.800000
780.106812	607.100000
780.143250	608.300000
780.179810	607.200000
780.216370	612.900000
780.252808	611.600000
780.289368	616.200000
780.325867	613.900000
780.362366	612.200000
780.398865	630.200000
780.435364	625.200000
780.471863	628.800000
780.508423	621.700000
780.544861	620.300000
780.581421	619.600000
780.617920	611.700000
780.654419	616.500000
780.690918	622.100000
780.727417	626.600000
780.763916	624.600000
780.800415	621.200000
780.836914	612.300000
780.873352	627.800000
780.909912	623.800000
780.946411	625.000000
780.982849	637.200000
781.019348	642.800000
781.055786	634.000000
781.092346	633.200000
781.128845	644.200000
781.165283	645.900000
781.201782	650.700000
781.238281	648.700000
781.274719	646.400000
781.311218	640.200000
781.347717	653.100000
781.384155	642.400000
781.420654	645.600000
781.457092	657.100000
781.493591	646.400000
781.530090	642.100000
781.566528	645.400000
781.602966	646.500000
781.639465	646.700000
781.675903	650.200000
781.712402	648.100000
781.748901	655.600000
781.785278	654.000000
781.821777	661.200000
781.858276	658.100000
781.894714	670.000000
781.931152	663.300000
781.967651	667.600000
782.004089	662.200000
782.040527	670.900000
782.076965	672.400000
782.113403	666.100000
782.149902	673.500000
782.186340	671.700000
782.222778	689.800000
782.259277	679.600000
782.295654	681.000000
782.332092	688.000000
782.368591	688.600000
782.404968	677.300000
782.441467	682.200000
782.477905	689.900000
782.514282	691.700000
782.550781	704.900000
782.587219	703.200000
782.623596	705.300000
782.660095	711.700000
782.696472	713.000000
782.732910	719.200000
782.769348	719.400000
782.805786	728.600000
782.842224	723.400000
782.878662	719.600000
782.915039	722.700000
782.951477	729.100000
782.987915	731.200000
783.024292	734.400000
783.060730	727.000000
783.097168	716.300000
783.133545	705.400000
783.169983	702.800000
783.206421	700.300000
783.242798	700.800000
783.279236	693.200000
783.315613	689.500000
783.352051	688.200000
783.388489	685.500000
783.424866	678.100000
783.461304	687.300000
783.497681	694.400000
783.534058	692.500000
783.570496	695.700000
783.606934	688.000000
783.643250	698.000000
783.679687	710.600000
783.716125	702.600000
783.752441	711.000000
783.788879	731.600000
783.825317	732.400000
783.861633	734.100000
783.898071	738.300000
783.934448	759.500000
783.970825	764.600000
784.007263	759.800000
784.043579	766.600000
784.080017	768.400000
784.116394	760.400000
784.152710	753.300000
784.189148	737.700000
784.225525	702.300000
784.261902	647.300000
784.298279	584.400000
784.334656	527.000000
784.371033	472.400000
784.407410	447.300000
784.443787	446.700000
784.480164	471.100000
784.516541	505.900000
784.552856	569.300000
784.589233	617.100000
784.625610	655.200000
784.661987	703.400000
784.698364	710.900000
784.734741	712.600000
784.771057	724.000000
784.807434	736.800000
784.843811	746.000000
784.880127	736.800000
784.916504	751.500000
784.952881	751.300000
784.989197	754.700000
785.025574	761.200000
785.061951	766.800000
785.098267	777.500000
785.134644	768.200000
785.170959	761.700000
785.207275	765.600000
785.243652	770.500000
785.279968	762.600000
785.316345	766.100000
785.352722	757.300000
785.388977	743.400000
785.425354	729.200000
785.461731	717.600000
785.498047	722.500000
785.534363	727.400000
785.570679	717.200000
785.606995	704.500000
785.643372	709.100000
785.679687	708.700000
785.716003	715.100000
785.752380	712.500000
785.788635	722.300000
785.825012	730.100000
785.861328	728.200000
785.897644	719.100000
785.933960	741.400000
785.970337	752.300000
786.006592	774.400000
786.042908	780.700000
786.079285	779.500000
786.115540	782.300000
786.151855	784.500000
786.188171	787.100000
786.224487	790.600000
786.260803	790.600000
786.297119	794.300000
786.333435	781.800000
786.369751	765.400000
786.406006	774.300000
786.442322	767.300000
786.478638	758.300000
786.514954	765.500000
786.551270	753.600000
786.587585	751.800000
786.623840	738.400000
786.660156	744.000000
786.696472	737.900000
786.732727	738.200000
786.769043	740.600000
786.805298	723.200000
786.841614	724.400000
786.877930	737.300000
786.914124	732.700000
786.950439	759.000000
786.986755	767.500000
787.023010	769.500000
787.059326	771.100000
787.095642	775.600000
787.131836	778.900000
787.168152	783.800000
787.204468	796.000000
787.240723	802.800000
787.276978	802.100000
787.313293	810.500000
787.349548	796.500000
787.385803	798.700000
787.422058	807.800000
787.458313	803.800000
787.494629	789.100000
787.530823	781.900000
787.567139	772.700000
787.603455	771.200000
787.639648	769.100000
787.675903	776.400000
787.712219	775.900000
787.748413	767.200000
787.784729	767.300000
787.820984	755.700000
787.857178	754.600000
787.893494	751.000000
787.929749	759.900000
787.965942	771.100000
788.002258	778.300000
788.038452	785.500000
788.074707	774.300000
788.110962	781.200000
788.147217	785.300000
788.183472	798.800000
788.219727	803.100000
788.255920	812.700000
788.292175	810.100000
788.328430	804.100000
788.364624	797.400000
788.400879	810.800000
788.437134	814.400000
788.473328	814.600000
788.509583	815.400000
788.545837	806.100000
788.582031	805.100000
788.618286	810.900000
788.654480	815.700000
788.690735	821.900000
788.726990	834.700000
788.763184	828.400000
788.799377	833.900000
788.835632	826.700000
788.871826	841.200000
788.908081	833.100000
788.944336	825.300000
788.980469	830.900000
789.016724	818.400000
789.052979	822.900000
789.089111	809.300000
789.125366	814.000000
789.161621	799.400000
789.197754	807.100000
789.234009	807.400000
789.270142	795.400000
789.306396	791.600000
789.342590	794.100000
789.378784	791.000000
789.414978	797.500000
789.451233	802.400000
789.487366	808.900000
789.523621	808.700000
789.559814	804.800000
789.595947	803.800000
789.632202	814.800000
789.668335	831.400000
789.704529	844.700000
789.740784	849.600000
789.776917	838.000000
789.813110	833.500000
789.849304	847.000000
789.885498	854.800000
789.921692	865.800000
789.957886	865.800000
789.994019	853.600000
790.030212	844.500000
790.066406	856.500000
790.102539	859.500000
790.138733	875.100000
790.174927	863.200000
790.211060	853.000000
790.247253	839.200000
790.283386	834.100000
790.319580	834.900000
790.355774	837.100000
790.391907	845.000000
790.428101	855.700000
790.464294	842.400000
790.500427	839.100000
790.536621	825.000000
790.572754	828.900000
790.608887	836.900000
790.645081	838.300000
790.681274	840.700000
790.717346	827.400000
790.753540	813.200000
790.789734	801.000000
790.825867	797.400000
790.862000	801.300000
790.898132	821.900000
790.934265	811.100000
790.970459	804.600000
791.006592	810.600000
791.042725	813.200000
791.078918	821.000000
791.114990	828.700000
791.151184	827.900000
791.187317	824.000000
791.223389	818.600000
791.259583	807.200000
791.295715	817.500000
791.331848	825.600000
791.367981	839.100000
791.404114	835.000000
791.440247	823.300000
791.476379	819.200000
791.512451	807.600000
791.548584	815.200000
791.584778	822.300000
791.620850	833.100000
791.656982	830.500000
791.693115	821.200000
791.729187	816.000000
791.765381	815.200000
791.801514	821.100000
791.837585	824.700000
791.873718	826.400000
791.909851	811.900000
791.945923	817.600000
791.982056	801.100000
792.018188	800.100000
792.054260	808.000000
792.090393	817.300000
792.126465	805.500000
792.162598	801.600000
792.198669	792.900000
792.234741	790.600000
792.270874	792.500000
792.307007	791.900000
792.343079	795.100000
792.379150	792.200000
792.415283	776.200000
792.451355	765.000000
792.487488	758.500000
792.523560	769.100000
792.559631	773.700000
792.595764	763.000000
792.631836	734.700000
792.667908	716.100000
792.703979	709.100000
792.740051	739.500000
792.776184	806.300000
792.812256	847.700000
792.848328	875.100000
792.884399	885.900000
792.920471	881.600000
792.956543	876.200000
792.992615	873.100000
793.028748	880.000000
793.064758	889.900000
793.100830	891.300000
793.136963	902.000000
793.172974	894.600000
793.209045	888.100000
793.245178	909.600000
793.281189	907.200000
793.317261	909.900000
793.353271	909.200000
793.389404	912.900000
793.425476	902.900000
793.461487	886.000000
793.497559	889.700000
793.533630	896.600000
793.569641	890.500000
793.605713	887.800000
793.641785	890.000000
793.677795	895.400000
793.713867	886.500000
793.749878	893.800000
793.785950	911.800000
793.822021	918.500000
793.858032	903.100000
793.894104	910.700000
793.930176	896.300000
793.966187	899.900000
794.002258	892.000000
794.038269	907.200000
794.074280	901.300000
794.110352	914.500000
794.146423	892.800000
794.182373	877.300000
794.218445	869.800000
794.254517	879.000000
794.290466	870.500000
794.326538	878.600000
794.362549	880.100000
794.398560	875.800000
794.434631	869.100000
794.470581	858.800000
794.506653	867.200000
794.542664	869.600000
794.578674	867.900000
794.614685	871.200000
794.650757	863.100000
794.686707	862.200000
794.722778	861.800000
794.758789	881.900000
794.794739	893.400000
794.830811	910.700000
794.866821	923.300000
794.902771	914.800000
794.938843	900.500000
794.974792	898.900000
795.010803	901.600000
795.046814	900.600000
795.082825	893.600000
795.118835	908.200000
795.154846	884.200000
795.190796	883.000000
795.226807	873.000000
795.262817	884.300000
795.298767	883.800000
795.334778	890.500000
795.370850	882.400000
795.406799	866.600000
795.442810	862.000000
795.478821	872.200000
795.514709	876.500000
795.550720	902.200000
795.586670	883.200000
795.622681	875.600000
795.658691	869.400000
795.694641	877.000000
795.730652	880.000000
795.766663	886.800000
795.802551	892.600000
795.838562	899.900000
795.874573	878.400000
795.910522	876.100000
795.946472	878.100000
795.982483	896.200000
796.018433	896.900000
796.054382	903.000000
796.090393	888.900000
796.126282	882.600000
796.162292	871.800000
796.198242	863.000000
796.234192	869.100000
796.270203	874.100000
796.306091	877.000000
796.342041	890.600000
796.378052	869.700000
796.413940	873.500000
796.449951	891.200000
796.485901	895.300000
796.521790	898.500000
796.557800	900.200000
796.593689	885.600000
796.629639	872.100000
796.665649	880.600000
796.701599	887.500000
796.737488	886.400000
796.773437	893.400000
796.809387	885.400000
796.845337	883.800000
796.881287	871.100000
796.917175	868.000000
796.953125	879.200000
796.989075	891.400000
797.024963	889.200000
797.060913	875.400000
797.096863	865.500000
797.132751	869.800000
797.168701	867.500000
797.204590	874.700000
797.240540	877.100000
797.276489	879.400000
797.312439	865.200000
797.348328	847.200000
797.384277	843.200000
797.420166	850.100000
797.456055	851.900000
797.492004	854.300000
797.527893	853.200000
797.563843	847.000000
797.599731	832.500000
797.635620	829.800000
797.671570	843.700000
797.707520	855.800000
797.743347	852.600000
797.779297	841.600000
797.815125	828.400000
797.851074	824.300000
797.887024	818.200000
797.922913	830.200000
797.958801	842.200000
797.994690	831.900000
798.030579	829.300000
798.066467	824.100000
798.102356	813.100000
798.138245	825.800000
798.174133	831.300000
798.210083	831.400000
798.245911	826.200000
798.281799	819.000000
798.317749	808.700000
798.353577	812.700000
798.389465	815.900000
798.425293	820.000000
798.461243	816.400000
798.497131	810.700000
798.532959	806.300000
798.568848	809.300000
798.604736	797.700000
798.640564	793.300000
798.676453	807.700000
798.712402	805.000000
798.748230	798.200000
798.784119	802.700000
798.820007	791.200000
798.855835	788.400000
798.891724	786.600000
798.927551	784.600000
798.963379	788.900000
798.999268	780.700000
799.035095	773.100000
799.070984	771.000000
799.106873	771.700000
799.142700	783.100000
799.178528	775.300000
799.214417	776.300000
799.250244	785.300000
799.286133	775.000000
799.321960	773.800000
799.357788	772.600000
799.393677	775.700000
799.429504	768.500000
799.465332	757.700000
799.501221	760.500000
799.537048	765.500000
799.572876	770.200000
799.608704	773.200000
799.644531	784.100000
799.680359	776.000000
799.716248	787.400000
799.752014	776.000000
799.787903	768.100000
799.823730	769.100000
799.859558	767.200000
799.895386	771.300000
799.931213	774.200000
799.967041	758.300000
800.002869	755.300000
800.038696	770.200000
800.074463	761.700000
800.110352	769.300000
800.146179	766.200000
800.181946	760.500000
800.217773	757.600000
800.253540	750.400000
800.289429	753.300000
800.325256	757.800000
800.361023	756.400000
800.396851	760.200000
800.432678	754.400000
800.468445	745.500000
800.504272	738.900000
800.540100	732.000000
800.575867	739.100000
800.611694	740.500000
800.647461	731.800000
800.683289	730.700000
800.719116	732.500000
800.754883	728.500000
800.790649	718.900000
800.826477	725.100000
800.862244	746.400000
800.898071	723.800000
800.933838	722.200000
800.969604	715.400000
801.005432	708.800000
801.041199	714.500000
801.076965	711.100000
801.112793	708.900000
801.148560	704.000000
801.184326	703.500000
801.220154	698.600000
801.255859	692.800000
801.291687	690.800000
801.327454	689.200000
801.363281	693.700000
801.398987	687.200000
801.434814	685.900000
801.470520	690.800000
801.506287	682.000000
801.542114	677.500000
801.577820	686.000000
801.613647	682.500000
801.649414	678.900000
801.685120	674.600000
801.720886	674.600000
801.756714	669.700000
801.792419	669.800000
801.828186	662.200000
801.863892	670.200000
801.899719	671.000000
801.935486	667.100000
801.971252	676.700000
802.006958	669.300000
802.042725	667.200000
802.078430	663.500000
802.114197	657.300000
802.149963	666.700000
802.185669	657.500000
802.221436	659.700000
802.257202	665.600000
802.292908	662.100000
802.328674	669.200000
802.364441	675.400000
802.400146	666.100000
802.435913	664.600000
802.471558	658.400000
802.507324	655.700000
802.543091	651.900000
802.578796	666.400000
802.614502	658.500000
802.650269	660.400000
802.685974	643.400000
802.721741	652.200000
802.757446	659.800000
802.793152	660.300000
802.828918	666.400000
802.864624	655.100000
802.900330	651.700000
802.936035	651.000000
802.971802	649.900000
803.007446	648.600000
803.043213	644.800000
803.078857	654.600000
803.114624	637.000000
803.150330	635.700000
803.185974	627.500000
803.221741	637.400000
803.257446	642.700000
803.293152	645.600000
803.328857	636.300000
803.364563	627.800000
803.400208	623.700000
803.435974	623.300000
803.471680	617.400000
803.507324	622.000000
803.543030	625.600000
803.578735	623.500000
803.614441	614.100000
803.650146	619.400000
803.685791	606.200000
803.721497	618.500000
803.757202	614.000000
803.792847	620.700000
803.828552	608.100000
803.864258	604.600000
803.899902	600.700000
803.935608	590.100000
803.971313	597.500000
804.006958	596.700000
804.042664	597.800000
804.078308	600.200000
804.113953	588.800000
804.149658	595.800000
804.185364	588.700000
804.221008	603.000000
804.256714	586.000000
804.292297	587.000000
804.328003	580.800000
804.363708	578.300000
804.399292	580.400000
804.434998	578.100000
804.470703	571.300000
804.506287	583.400000
804.541992	570.500000
804.577637	570.700000
804.613281	557.000000
804.648926	556.700000
804.684570	564.900000
804.720215	567.300000
804.755920	563.500000
804.791565	560.300000
804.827209	566.400000
804.862854	559.500000
804.898437	552.800000
804.934143	559.200000
804.969788	557.500000
805.005371	556.700000
805.041077	556.600000
805.076721	545.600000
805.112305	542.400000
805.147949	545.400000
805.183655	542.200000
805.219238	550.100000
805.254883	545.200000
805.290466	549.800000
805.326111	537.600000
805.361755	532.200000
805.397400	534.700000
805.432983	541.400000
805.468628	540.000000
805.504211	543.400000
805.539856	538.100000
805.575500	539.700000
805.611084	531.100000
805.646729	527.700000
805.682373	536.800000
805.717957	539.300000
805.753601	537.800000
805.789246	525.000000
805.824768	530.200000
805.860413	531.400000
805.895996	526.400000
805.931641	525.000000
805.967224	530.800000
806.002869	523.500000
806.038452	527.500000
806.074036	527.200000
806.109619	512.000000
806.145264	514.000000
806.180847	519.200000
806.216431	519.500000
806.252014	520.900000
806.287659	513.400000
806.323181	520.300000
806.358826	518.600000
806.394409	504.500000
806.429993	503.500000
806.465576	514.200000
806.501160	502.300000
806.536743	492.000000
806.572327	500.300000
806.607910	496.000000
806.643494	495.700000
806.679077	496.800000
806.714661	495.500000
806.750244	494.000000
806.785828	491.000000
806.821350	490.000000
806.856934	489.300000
806.892517	488.800000
806.928101	481.800000
806.963684	481.300000
806.999268	487.200000
807.034790	473.000000
807.070374	474.500000
807.105896	472.700000
807.141479	467.100000
807.177063	473.700000
807.212585	466.100000
807.248169	464.700000
807.283752	468.700000
807.319275	460.300000
807.354858	467.700000
807.390381	464.200000
807.425903	460.800000
807.461487	456.400000
807.497070	453.500000
807.532593	453.500000
807.568115	448.800000
807.603699	446.000000
807.639221	447.000000
807.674744	450.500000
807.710266	452.100000
807.745850	453.400000
807.781372	445.100000
807.816895	441.400000
807.852417	447.600000
807.888000	442.600000
807.923523	438.200000
807.959045	437.600000
807.994629	430.900000
808.030090	428.700000
808.065613	435.100000
808.101135	439.800000
808.136658	434.700000
808.172241	429.500000
808.207764	431.400000
808.243225	426.600000
808.278809	424.900000
808.314270	431.400000
808.349792	424.400000
808.385315	422.000000
808.420837	424.800000
808.456360	430.200000
808.491882	430.400000
808.527344	422.400000
808.562866	427.400000
808.598389	422.200000
808.633850	421.900000
808.669434	414.000000
808.704895	422.200000
808.740417	421.400000
808.775940	415.300000
808.811462	415.800000
808.846924	413.400000
808.882385	408.600000
808.917847	408.100000
808.953369	410.700000
808.988892	408.000000
809.024353	411.100000
809.059875	412.800000
809.095398	406.600000
809.130798	403.100000
809.166321	404.000000
809.201843	401.400000
809.237305	403.400000
809.272766	408.200000
809.308228	398.400000
809.343750	396.700000
809.379211	399.200000
809.414734	397.100000
809.450134	403.000000
809.485657	386.800000
809.521118	394.000000
809.556580	390.100000
809.592102	390.200000
809.627502	387.400000
809.663025	387.700000
809.698486	385.100000
809.733887	380.700000
809.769409	385.400000
809.804871	376.000000
809.840271	374.000000
809.875793	377.400000
809.911194	383.100000
809.946655	373.400000
809.982178	370.600000
810.017639	375.400000
810.053040	373.000000
810.088501	373.300000
810.123901	370.000000
810.159424	365.600000
810.194885	360.000000
810.230286	365.500000
810.265747	358.900000
810.301208	357.000000
810.336609	363.400000
810.372070	356.800000
810.407532	354.900000
810.442932	357.100000
810.478394	359.900000
810.513794	355.000000
810.549255	352.200000
810.584717	351.200000
810.620117	348.000000
810.655518	352.500000
810.690979	347.200000
810.726379	345.400000
810.761841	341.000000
810.797302	338.600000
810.832642	337.400000
810.868103	346.900000
810.903564	336.000000
810.938904	342.800000
810.974365	331.300000
811.009827	334.200000
811.045166	330.700000
811.080627	326.400000
811.115967	331.100000
811.151428	333.500000
811.186829	328.300000
811.222229	331.200000
811.257629	322.800000
811.293091	326.600000
811.328430	335.800000
811.363892	326.500000
811.399292	329.900000
811.434631	322.100000
811.470093	328.200000
811.505493	319.100000
811.540833	321.700000
811.576294	323.700000
811.611694	320.900000
811.647034	314.900000
811.682434	316.300000
811.717773	313.700000
811.753235	319.400000
811.788635	312.700000
811.823975	316.400000
811.859375	319.000000
811.894775	308.600000
811.930115	309.900000
811.965515	307.800000
812.000916	308.200000
812.036255	305.200000
812.071655	309.300000
812.106995	303.600000
812.142395	305.600000
812.177795	309.400000
812.213196	305.700000
812.248474	304.600000
812.283875	295.800000
812.319214	299.400000
812.354614	301.400000
812.390015	298.300000
812.425293	295.300000
812.460693	296.000000
812.496094	293.200000
812.531433	290.800000
812.566772	288.800000
812.602173	294.100000
812.637451	293.400000
812.672852	288.900000
812.708191	289.400000
812.743530	286.600000
812.778931	280.800000
812.814270	283.900000
812.849609	287.700000
812.884949	283.500000
812.920227	277.300000
812.955627	288.000000
812.990967	281.100000
813.026306	276.400000
813.061646	269.200000
813.096985	268.100000
813.132324	265.600000
813.167664	268.400000
813.203003	274.200000
813.238281	264.000000
813.273682	264.300000
813.308960	262.200000
813.344299	262.800000
813.379639	268.600000
813.414978	264.200000
813.450256	261.300000
813.485596	264.000000
813.520874	258.600000
813.556213	262.700000
813.591614	265.700000
813.626831	257.700000
813.662170	261.300000
813.697510	266.900000
813.732788	255.400000
813.768127	258.700000
813.803467	260.100000
813.838745	257.200000
813.874084	259.700000
813.909363	257.100000
813.944641	257.800000
813.979980	249.900000
814.015320	252.700000
814.050598	251.500000
814.085876	255.400000
814.121155	251.000000
814.156494	249.800000
814.191772	251.200000
814.227051	245.800000
814.262390	248.900000
814.297668	249.200000
814.332947	248.900000
814.368225	244.200000
814.403564	245.900000
814.438782	244.200000
814.474121	245.000000
814.509338	240.400000
814.544617	245.700000
814.579956	241.300000
814.615173	248.700000
814.650513	245.400000
814.685791	239.800000
814.721008	243.800000
814.756348	241.400000
814.791626	240.400000
814.826843	239.200000
814.862122	240.300000
814.897400	239.200000
814.932678	240.200000
814.967957	239.100000
815.003235	238.200000
815.038452	234.200000
815.073730	231.500000
815.108948	241.900000
815.144226	239.600000
815.179504	241.600000
815.214722	231.100000
815.250000	228.700000
815.285278	236.000000
815.320496	231.500000
815.355774	231.300000
815.391052	233.800000
815.426270	230.200000
815.461487	229.500000
815.496765	227.000000
815.531982	224.200000
815.567261	228.300000
815.602539	236.200000
815.637695	230.600000
815.672974	231.800000
815.708191	234.700000
815.743408	233.500000
815.778687	227.000000
815.813904	235.300000
815.849121	222.100000
815.884399	223.900000
815.919556	223.500000
815.954834	225.000000
815.990051	227.200000
816.025269	230.200000
816.060486	221.400000
816.095703	222.700000
816.130920	226.400000
816.166199	223.500000
816.201416	226.100000
816.236572	230.500000
816.271851	223.800000
816.307007	229.300000
816.342224	220.600000
816.377441	224.400000
816.412659	217.900000
816.447876	227.600000
816.483093	222.900000
816.518250	222.400000
816.553467	221.400000
816.588745	226.300000
816.623901	219.900000
816.659119	215.500000
816.694275	220.400000
816.729492	216.700000
816.764709	248.000000
816.799927	214.600000
816.835083	219.800000
816.870300	215.200000
816.905457	219.600000
816.940674	220.800000
816.975830	217.000000
817.010986	214.600000
817.046204	216.700000
817.081421	214.100000
817.116577	215.300000
817.151733	221.000000
817.186951	220.900000
817.222107	216.900000
817.257324	221.900000
817.292419	219.500000
817.327637	212.900000
817.362854	215.600000
817.398010	213.800000
817.433167	216.200000
817.468323	214.900000
817.503479	214.200000
817.538635	224.700000
817.573853	217.500000
817.608948	216.400000
817.644165	214.800000
817.679321	213.900000
817.714478	213.900000
817.749634	218.600000
817.784790	225.900000
817.819946	222.100000
817.855103	207.900000
817.890198	215.900000
817.925415	210.900000
817.960571	217.800000
817.995667	217.800000
818.030823	216.100000
818.066040	215.100000
818.101135	216.100000
818.136292	216.400000
818.171448	211.000000
818.206543	215.500000
818.241699	218.600000
818.276855	217.100000
818.311951	214.600000
818.347107	211.900000
818.382263	217.000000
818.417358	221.200000
818.452515	218.600000
818.487610	222.100000
818.522766	212.600000
818.557922	221.500000
818.593018	217.500000
818.628113	215.200000
818.663269	211.000000
818.698364	215.300000
818.733521	212.900000
818.768677	216.400000
818.803711	212.700000
818.838867	211.500000
818.874023	214.500000
818.909058	212.600000
818.944214	212.100000
818.979370	215.600000
819.014404	215.000000
819.049561	212.800000
819.084595	215.900000
819.119751	212.100000
819.154846	216.600000
819.189941	211.900000
819.225037	209.900000
819.260193	206.900000
819.295227	208.000000
819.330322	206.800000
819.365479	207.700000
819.400513	240.100000
819.435608	206.400000
819.470764	204.500000
819.505798	207.000000
819.540894	209.300000
819.575989	206.900000
819.611084	214.400000
819.646179	216.000000
819.681213	212.300000
819.716309	211.500000
819.751404	209.600000
819.786438	214.300000
819.821533	205.400000
819.856628	210.700000
819.891663	212.800000
819.926758	219.400000
819.961853	216.300000
819.996887	206.900000
820.031982	212.300000
820.067017	210.500000
820.102112	242.200000
820.137207	209.900000
820.172302	220.800000
820.207275	207.000000
820.242371	207.400000
820.277405	208.200000
820.312500	210.400000
820.347534	211.000000
820.382568	215.000000
820.417664	208.000000
820.452759	208.500000
820.487732	208.000000
820.522827	208.800000
820.557861	206.800000
820.592896	209.100000
820.627930	209.700000
820.662964	206.300000
820.698059	211.600000
820.733093	208.100000
820.768127	213.100000
820.803162	211.200000
820.838196	206.000000
820.873230	209.300000
820.908264	211.300000
820.943298	207.600000
820.978333	213.100000
821.013367	210.700000
821.048401	212.000000
821.083435	213.700000
821.118469	204.400000
821.153503	212.600000
821.188477	210.000000
821.223511	203.700000
821.258484	209.000000
821.293579	208.200000
821.328613	205.200000
821.363647	206.900000
821.398621	203.900000
821.433655	206.800000
821.468628	218.300000
821.503662	206.500000
821.538696	210.600000
821.573669	205.400000
821.608704	211.700000
821.643677	207.500000
821.678650	210.500000
821.713684	214.900000
821.748718	207.100000
821.783691	208.300000
821.818726	208.600000
821.853638	209.500000
821.888672	208.200000
821.923706	209.100000
821.958618	206.000000
821.993652	206.700000
822.028687	212.900000
822.063599	215.400000
822.098633	209.200000
822.133667	204.900000
822.168579	208.900000
822.203613	209.900000
822.238586	204.600000
822.273560	211.700000
822.308533	206.200000
822.343567	205.700000
822.378479	207.200000
822.413452	206.200000
822.448425	204.700000
822.483398	211.000000
822.518372	209.900000
822.553345	205.900000
822.588318	214.100000
822.623291	206.000000
822.658203	205.700000
822.693237	207.100000
822.728210	204.300000
822.763123	207.100000
822.798096	203.000000
822.833069	206.300000
822.867981	206.700000
822.902954	208.100000
822.937927	209.100000
822.972900	213.000000
823.007874	200.700000
823.042725	210.700000
823.077698	216.600000
823.112671	204.000000
823.147583	206.200000
823.182556	208.600000
823.217529	210.900000
823.252441	204.400000
823.287415	216.900000
823.322388	209.600000
823.357239	206.800000
823.392212	212.300000
823.427185	212.600000
823.462097	203.400000
823.497009	209.700000
823.531982	205.500000
823.566895	207.100000
823.601807	204.600000
823.636719	204.800000
823.671631	209.300000
823.706604	204.000000
823.741455	208.200000
823.776428	202.100000
823.811340	209.900000
823.846252	212.200000
823.881165	212.200000
823.916138	206.900000
823.950989	212.800000
823.985901	203.200000
824.020813	206.100000
824.055725	204.400000
824.090637	202.100000
824.125610	207.900000
824.160461	208.500000
824.195374	204.900000
824.230225	209.700000
824.265198	199.900000
824.300110	203.700000
824.334961	213.300000
824.369873	197.900000
824.404785	208.900000
824.439636	209.300000
824.474548	199.500000
824.509460	198.600000
824.544312	210.600000
824.579224	208.300000
824.614075	209.300000
824.648987	203.100000
824.683899	206.900000
824.718811	204.100000
824.753662	210.600000
824.788574	209.600000
824.823364	208.000000
824.858276	203.000000
824.893188	209.800000
824.928040	209.500000
824.962952	207.600000
824.997803	209.100000
825.032654	207.100000
825.067566	208.100000
825.102417	205.300000
825.137268	203.100000
825.172119	204.500000
825.206970	202.900000
825.241882	203.900000
825.276733	200.100000
825.311646	201.700000
825.346436	200.100000
825.381348	201.300000
825.416138	203.200000
825.450989	200.200000
825.485901	196.400000
825.520691	199.000000
825.555542	198.300000
825.590454	202.100000
825.625244	197.100000
825.660095	208.800000
825.695007	204.600000
825.729797	202.600000
825.764648	200.000000
825.799438	201.600000
825.834290	202.900000
825.869202	196.900000
825.903992	202.700000
825.938843	200.300000
825.973694	198.700000
826.008484	210.600000
826.043335	197.400000
826.078186	193.600000
826.112976	205.700000
826.147827	205.700000
826.182678	208.600000
826.217468	196.300000
826.252319	205.900000
826.287109	197.500000
826.321899	204.900000
826.356750	198.300000
826.391541	196.400000
826.426392	204.000000
826.461182	199.000000
826.495972	195.000000
826.530823	192.300000
826.565613	198.500000
826.600403	195.300000
826.635254	199.700000
826.670044	193.200000
826.704834	193.700000
826.739685	193.600000
826.774475	198.700000
826.809265	197.200000
826.844055	194.700000
826.878906	201.900000
826.913635	197.100000
826.948425	199.500000
826.983215	197.700000
827.018005	200.300000
827.052856	195.100000
827.087585	200.300000
827.122375	191.600000
827.157227	195.300000
827.191956	209.200000
827.226746	193.900000
827.261536	198.400000
827.296265	191.000000
827.331116	194.400000
827.365906	198.300000
827.400635	193.300000
827.435425	189.600000
827.470215	199.800000
827.504944	195.100000
827.539734	200.800000
827.574463	195.400000
827.609253	203.000000
827.644043	195.200000
827.678772	200.100000
827.713562	193.200000
827.748352	195.800000
827.783081	192.600000
827.817871	198.100000
827.852600	190.800000
827.887329	196.600000
827.922119	189.000000
827.956848	198.100000
827.991638	205.300000
828.026367	197.400000
828.061157	195.600000
828.095886	195.700000
828.130615	207.700000
828.165344	187.600000
828.200073	194.600000
828.234863	194.000000
828.269592	193.900000
828.304321	197.900000
828.339111	196.200000
828.373779	192.500000
828.408569	197.900000
828.443298	198.700000
828.477966	193.300000
828.512756	194.100000
828.547424	191.000000
828.582214	193.600000
828.616943	192.600000
828.651672	195.000000
828.686340	196.900000
828.721130	192.500000
828.755798	195.000000
828.790527	194.000000
828.825256	196.400000
828.859924	197.000000
828.894714	200.700000
828.929443	203.000000
828.964111	193.500000
828.998840	198.700000
829.033569	194.300000
829.068237	195.100000
829.102966	193.500000
829.137634	196.500000
829.172363	198.000000
829.207092	197.500000
829.241821	192.200000
829.276489	189.500000
829.311157	196.100000
829.345825	193.600000
829.380554	199.400000
829.415283	192.100000
829.449951	191.000000
829.484619	201.500000
829.519348	199.800000
829.554016	195.300000
829.588745	195.100000
829.623413	190.300000
829.658081	204.300000
829.692749	191.800000
829.727417	199.100000
829.762146	196.400000
829.796814	192.000000
829.831482	193.400000
829.866150	195.600000
829.900879	191.300000
829.935486	196.900000
829.970154	193.300000
830.004883	205.200000
830.039490	194.400000
830.074219	193.200000
830.108887	195.200000
830.143494	194.200000
830.178223	192.100000
830.212891	194.400000
830.247498	196.200000
830.282166	201.300000
830.316772	200.400000
830.351501	193.000000
830.386169	195.600000
830.420776	194.000000
830.455444	195.400000
830.490112	192.500000
830.524719	189.600000
830.559387	196.700000
830.594055	198.700000
830.628662	196.300000
830.663330	196.200000
830.697998	200.500000
830.732605	195.900000
830.767273	197.300000
830.801941	194.900000
830.836487	203.100000
830.871155	197.000000
830.905762	196.800000
830.940430	190.200000
830.975098	192.600000
831.009644	195.000000
831.044312	201.600000
831.078979	198.300000
831.113525	188.400000
831.148193	194.700000
831.182861	193.700000
831.217407	198.100000
831.252075	205.400000
831.286621	192.100000
831.321289	191.300000
831.355896	195.200000
831.390564	200.700000
831.425110	195.300000
831.459778	199.700000
831.494324	204.600000
831.528931	196.600000
831.563599	201.400000
831.598145	191.300000
831.632751	195.900000
831.667419	194.200000
831.701965	196.800000
831.736572	198.300000
831.771179	192.000000
831.805786	192.600000
831.840393	201.200000
831.874939	190.400000
831.909546	199.500000
831.944153	188.900000
831.978760	195.500000
832.013306	193.600000
832.047913	199.500000
832.082458	201.900000
832.117065	193.400000
832.151672	202.800000
832.186218	196.500000
832.220825	198.200000
832.255432	187.900000
832.289978	193.700000
832.324585	196.700000
832.359192	196.800000
832.393677	194.200000
832.428284	195.700000
832.462830	194.000000
832.497437	194.900000
832.531982	196.400000
832.566589	193.800000
832.601135	195.400000
832.635681	190.000000
832.670227	194.300000
832.704773	199.900000
832.739380	195.600000
832.773926	195.800000
832.808472	192.900000
832.843079	195.200000
832.877563	197.200000
832.912170	194.600000
832.946716	189.800000
832.981201	199.600000
833.015808	197.400000
833.050293	194.700000
833.084839	191.800000
833.119446	195.200000
833.153992	198.100000
833.188477	194.800000
833.223022	192.600000
833.257568	196.000000
833.292114	201.500000
833.326660	205.700000
833.361145	193.600000
833.395691	189.300000
833.430237	195.400000
833.464783	197.300000
833.499329	193.600000
833.533875	192.900000
833.568359	198.900000
833.602905	198.600000
833.637390	200.500000
833.671875	192.200000
833.706421	193.900000
833.740906	192.300000
833.775452	187.400000
833.809998	192.800000
833.844482	200.600000
833.879028	194.600000
833.913513	193.000000
833.947998	197.100000
833.982544	192.000000
834.017090	193.000000
834.051514	188.300000
834.086060	196.200000
834.120544	195.400000
834.155029	196.200000
834.189575	194.600000
834.223999	198.300000
834.258545	196.600000
834.293030	195.500000
834.327515	194.800000
834.362000	192.200000
834.396545	198.000000
834.430969	194.700000
834.465454	200.100000
834.500000	189.400000
834.534424	198.200000
834.568970	189.300000
834.603455	188.600000
834.637878	192.100000
834.672363	196.900000
834.706909	196.000000
834.741333	195.100000
834.775818	190.900000
834.810242	192.900000
834.844727	196.300000
834.879211	194.400000
834.913635	197.000000
834.948181	196.300000
834.982666	195.800000
835.017090	193.200000
835.051575	196.700000
835.086060	192.600000
835.120483	197.700000
835.154907	196.200000
835.189331	193.900000
835.223816	198.100000
835.258301	192.000000
835.292786	192.200000
835.327209	198.100000
835.361694	191.700000
835.396057	193.300000
835.430542	197.400000
835.465027	194.600000
835.499390	191.000000
835.533875	220.900000
835.568359	194.500000
835.602722	190.900000
835.637207	195.200000
835.671692	191.000000
835.706055	211.900000
835.740540	196.700000
835.774902	197.600000
835.809387	197.200000
835.843811	191.100000
835.878235	202.200000
835.912659	190.700000
835.947083	193.000000
835.981506	195.400000
836.015930	190.100000
836.050354	200.000000
836.084778	202.500000
836.119202	200.400000
836.153625	209.600000
836.187988	192.100000
836.222473	193.200000
836.256897	197.600000
836.291260	193.800000
836.325684	198.800000
836.360046	192.400000
836.394470	194.700000
836.428894	200.400000
836.463318	192.500000
836.497681	197.800000
836.532104	200.500000
836.566467	193.500000
836.600891	193.600000
836.635315	198.400000
836.669678	195.700000
836.704102	197.800000
836.738525	197.600000
836.772888	188.200000
836.807251	193.200000
836.841675	198.000000
836.876038	191.500000
836.910461	192.000000
836.944763	198.700000
836.979187	191.700000
837.013611	199.400000
837.047974	190.400000
837.082336	204.700000
837.116699	198.600000
837.151062	194.900000
837.185486	191.000000
837.219849	193.800000
837.254211	197.800000
837.288574	194.200000
837.322937	190.400000
837.357300	186.900000
837.391663	205.800000
837.426086	197.700000
837.460388	196.700000
837.494751	198.600000
837.529114	193.300000
837.563477	201.000000
837.597839	197.400000
837.632141	194.700000
837.666565	193.400000
837.700928	197.500000
837.735229	197.400000
837.769592	196.800000
837.803955	198.800000
837.838257	192.300000
837.872620	193.000000
837.906982	199.700000
837.941284	196.000000
837.975647	196.200000
838.010010	201.400000
838.044312	193.300000
838.078674	193.800000
838.112976	195.100000
838.147339	197.600000
838.181702	196.000000
838.216003	201.700000
838.250366	197.100000
838.284668	198.400000
838.318970	190.200000
838.353333	193.900000
838.387634	194.800000
838.421936	195.200000
838.456299	197.200000
838.490601	200.700000
838.524902	199.400000
838.559265	199.800000
838.593567	200.000000
838.627869	191.700000
838.662170	197.900000
838.696472	192.400000
838.730774	193.800000
838.765137	198.200000
838.799377	185.600000
838.833740	195.700000
838.868042	200.600000
838.902283	188.700000
838.936646	200.500000
838.970947	196.900000
839.005188	200.700000
839.039551	189.000000
839.073792	199.800000
839.108093	192.900000
839.142395	202.200000
839.176697	188.200000
839.210937	196.700000
839.245300	202.900000
839.279541	190.200000
839.313843	192.400000
839.348145	197.900000
839.382385	199.300000
839.416687	199.400000
839.450989	198.700000
839.485229	195.300000
839.519531	190.300000
839.553833	200.100000
839.588013	194.600000
839.622314	196.500000
839.656555	198.000000
839.690857	194.500000
839.725159	190.300000
839.759460	195.300000
839.793640	193.400000
839.827942	194.700000
839.862183	192.000000
839.896423	196.200000
839.930725	207.000000
839.964966	202.100000
839.999207	200.100000
840.033508	203.200000
840.067688	193.300000
840.101990	201.500000
840.136230	196.000000
840.170471	201.300000
840.204712	191.300000
840.238953	193.000000
840.273193	196.300000
840.307434	198.200000
840.341736	193.500000
840.375916	190.600000
840.410217	193.000000
840.444397	199.100000
840.478638	196.900000
840.512878	199.200000
840.547119	196.300000
840.581360	198.000000
840.615601	203.700000
840.649780	203.300000
840.684021	194.200000
840.718262	201.100000
840.752441	202.400000
840.786682	195.700000
840.820862	197.700000
840.855103	200.800000
840.889343	196.700000
840.923584	199.000000
840.957764	197.400000
840.992004	196.500000
841.026184	207.100000
841.060425	194.300000
841.094666	193.400000
841.128845	198.300000
841.163025	196.900000
841.197266	196.500000
841.231445	197.300000
841.265686	198.100000
841.299866	192.300000
841.334045	202.100000
841.368286	196.600000
841.402405	201.700000
841.436646	198.700000
841.470825	194.600000
841.505005	194.800000
841.539185	192.000000
841.573425	192.900000
841.607544	197.100000
841.641785	194.700000
841.675964	193.100000
841.710144	195.300000
841.744324	194.500000
841.778503	195.200000
841.812683	192.100000
841.846863	201.000000
841.881042	201.400000
841.915222	193.200000
841.949402	206.400000
841.983521	188.500000
842.017700	195.000000
842.051880	196.300000
842.086060	197.900000
842.120239	196.600000
842.154419	194.200000
842.188538	194.700000
842.222717	191.200000
842.256897	202.100000
842.291016	194.000000
842.325195	196.700000
842.359375	205.200000
842.393494	201.500000
842.427673	195.100000
842.461853	198.400000
842.495911	202.600000
842.530090	197.400000
842.564209	194.600000
842.598389	198.300000
842.632568	196.300000
842.666626	199.900000
842.700806	194.800000
842.734985	193.900000
842.769043	197.000000
842.803223	195.700000
842.837402	194.600000
842.871460	193.400000
842.905640	205.200000
842.939697	192.500000
842.973877	197.100000
843.007996	201.000000
843.042175	204.800000
843.076233	194.000000
843.110413	198.700000
843.144470	202.500000
843.178589	200.200000
843.212769	194.600000
843.246826	199.300000
843.280945	193.400000
843.315125	194.600000
843.349182	193.200000
843.383301	201.500000
843.417419	206.200000
843.451538	195.500000
843.485657	194.000000
843.519714	194.200000
843.553833	197.500000
843.587952	193.000000
843.622070	192.900000
843.656128	199.200000
843.690247	193.700000
843.724304	196.000000
843.758423	197.900000
843.792542	193.700000
843.826599	196.500000
843.860718	194.700000
843.894836	189.400000
843.928894	197.000000
843.963013	196.300000
843.997070	194.700000
844.031128	192.900000
844.065247	200.100000
844.099304	199.400000
844.133362	197.400000
844.167480	199.500000
844.201599	201.700000
844.235596	197.600000
844.269714	199.700000
844.303711	197.500000
844.337830	192.000000
844.371948	199.100000
844.405945	195.300000
844.440063	192.900000
844.474121	208.000000
844.508118	194.700000
844.542236	195.800000
844.576294	194.100000
844.610352	191.400000
844.644409	194.500000
844.678406	190.100000
844.712524	200.900000
844.746582	201.000000
844.780640	195.200000
844.814636	195.900000
844.848755	205.700000
844.882751	193.600000
844.916809	197.800000
844.950867	197.100000
844.984863	203.000000
845.018921	195.100000
845.052979	192.900000
845.086975	197.000000
845.121033	190.600000
845.155090	193.300000
845.189087	201.400000
845.223145	195.100000
845.257141	196.700000
845.291199	197.800000
845.325256	201.700000
845.359253	198.600000
845.393250	209.200000
845.427307	194.600000
845.461304	197.900000
845.495361	196.600000
845.529358	205.200000
845.563354	196.000000
845.597412	193.800000
845.631409	204.100000
845.665405	203.300000
845.699463	199.500000
845.733459	195.000000
845.767456	204.900000
845.801453	195.600000
845.835449	201.500000
845.869446	200.600000
845.903503	199.800000
845.937439	192.700000
845.971497	200.600000
846.005493	193.100000
846.039429	199.200000
846.073486	204.500000
846.107483	194.300000
846.141418	195.100000
846.175476	195.900000
846.209473	201.800000
846.243408	193.200000
846.277405	197.700000
846.311401	193.000000
846.345337	196.300000
846.379395	200.800000
846.413330	194.200000
846.447327	206.300000
846.481323	192.300000
846.515259	193.700000
846.549255	196.100000
846.583252	198.900000
846.617187	192.700000
846.651184	197.700000
846.685120	195.600000
846.719055	203.600000
846.753052	199.700000
846.786987	201.800000
846.820984	191.600000
846.854980	203.000000
846.888916	192.700000
846.922852	199.000000
846.956848	202.600000
846.990723	194.400000
847.024719	197.900000
847.058716	195.200000
847.092590	201.400000
847.126587	199.700000
847.160522	194.300000
847.194458	200.900000
847.228455	192.800000
847.262390	192.900000
847.296265	195.000000
847.330261	202.000000
847.364136	193.300000
847.398132	194.800000
847.432068	196.200000
847.466003	195.700000
847.499939	195.100000
847.533875	197.700000
847.567749	195.000000
847.601746	193.600000
847.635681	198.300000
847.669556	189.900000
847.703491	200.700000
847.737427	207.500000
847.771301	192.100000
847.805237	198.500000
847.839233	197.900000
847.873108	195.900000
847.907043	194.400000
847.940918	201.800000
847.974854	198.800000
848.008789	201.100000
848.042664	196.300000
848.076538	199.100000
848.110474	196.600000
848.144348	198.600000
848.178284	191.900000
848.212219	199.600000
848.246094	195.000000
848.279968	197.500000
848.313904	198.900000
848.347778	196.500000
848.381653	196.600000
848.415588	194.900000
848.449463	194.000000
848.483337	199.400000
848.517212	203.700000
848.551086	194.900000
848.585022	193.100000
848.618835	205.400000
848.652771	193.700000
848.686646	191.000000
848.720520	203.300000
848.754395	194.800000
848.788330	200.500000
848.822144	200.100000
848.856018	193.700000
848.889954	204.200000
848.923767	193.200000
848.957642	192.600000
848.991577	197.000000
849.025391	195.000000
849.059265	195.400000
849.093079	193.400000
849.126953	191.400000
849.160828	201.300000
849.194641	196.700000
849.228577	193.700000
849.262451	195.700000
849.296265	194.800000
849.330139	194.200000
849.364014	197.300000
849.397827	197.700000
849.431702	197.600000
849.465515	201.100000
849.499329	190.500000
849.533203	193.900000
849.567078	189.800000
849.600891	198.800000
849.634766	195.900000
849.668518	199.900000
849.702393	197.700000
849.736267	190.900000
849.770020	205.200000
849.803894	198.400000
849.837769	198.500000
849.871521	197.200000
849.905396	200.600000
849.939270	194.300000
849.973022	196.400000
850.006897	198.900000
850.040710	199.400000
850.074524	198.200000
850.108337	195.100000
850.142151	200.400000
850.175964	201.400000
850.209778	195.900000
850.243530	187.400000
850.277405	200.600000
850.311218	196.400000
850.344971	193.700000
850.378845	202.900000
850.412659	193.300000
850.446411	197.600000
850.480225	196.200000
850.514038	201.000000
850.547791	198.600000
850.581665	197.200000
850.615417	193.200000
850.649231	198.400000
850.683044	195.700000
850.716858	195.700000
850.750610	198.400000
850.784424	199.200000
850.818176	193.400000
850.851929	194.700000
850.885742	195.100000
850.919495	196.600000
850.953308	203.600000
850.987122	202.800000
851.020874	193.100000
851.054626	191.200000
851.088440	200.200000
851.122192	200.100000
851.156006	197.900000
851.189697	197.000000
851.223511	193.200000
851.257263	200.500000
851.291077	199.300000
851.324829	194.400000
851.358582	194.900000
851.392334	195.400000
851.426086	194.600000
851.459900	202.800000
851.493591	196.800000
851.527344	196.200000
851.561157	196.800000
851.594849	197.600000
851.628662	197.600000
851.662415	202.900000
851.696106	198.400000
851.729858	199.900000
851.763611	192.300000
851.797363	196.700000
851.831116	192.300000
851.864868	198.600000
851.898560	202.900000
851.932312	194.000000
851.966064	200.300000
851.999817	197.000000
852.033569	196.000000
852.067261	202.000000
852.101013	194.200000
852.134766	196.800000
852.168457	189.100000
852.202209	201.300000
852.235901	194.000000
852.269592	199.400000
852.303345	203.500000
852.337036	199.600000
852.370789	198.200000
852.404541	199.800000
852.438171	192.700000
852.471924	197.600000
852.505676	191.200000
852.539307	198.200000
852.573059	194.300000
852.606812	195.400000
852.640442	194.700000
852.674194	202.000000
852.707886	205.700000
852.741577	202.300000
852.775269	191.700000
852.809021	197.800000
852.842651	198.000000
852.876404	203.200000
852.910034	197.800000
852.943787	201.700000
852.977478	198.200000
853.011108	194.000000
853.044861	192.300000
853.078552	203.000000
853.112183	198.100000
853.145874	197.400000
853.179626	189.800000
853.213257	197.600000
853.246948	194.100000
853.280640	205.000000
853.314270	196.300000
853.347961	203.000000
853.381653	198.600000
853.415283	202.100000
853.448975	193.500000
853.482605	199.200000
853.516296	196.500000
853.549988	192.100000
853.583618	198.500000
853.617310	199.200000
853.651001	197.800000
853.684631	192.600000
853.718323	194.200000
853.751953	202.600000
853.785583	191.500000
853.819275	200.200000
853.852966	198.800000
853.886536	190.300000
853.920227	193.700000
853.953918	201.200000
853.987488	196.700000
854.021179	200.100000
854.054749	204.400000
854.088440	198.300000
854.122131	191.400000
854.155701	199.800000
854.189331	194.200000
854.223022	199.200000
854.256592	197.400000
854.290283	194.100000
854.323914	199.200000
854.357483	196.400000
854.391174	199.400000
854.424744	203.300000
854.458374	197.100000
854.492065	206.000000
854.525696	194.900000
854.559265	201.200000
854.592896	206.900000
854.626465	197.100000
854.660095	195.900000
854.693787	198.500000
854.727356	196.600000
854.760986	200.200000
854.794617	199.900000
854.828186	194.700000
854.861816	201.100000
854.895447	199.000000
854.929016	197.200000
854.962585	199.400000
854.996155	204.800000
855.029785	198.000000
855.063416	198.700000
855.097046	200.500000
855.130615	191.300000
855.164185	202.300000
855.197754	196.100000
855.231384	199.000000
855.264954	195.600000
855.298523	200.400000
855.332153	198.000000
855.365723	200.500000
855.399292	193.900000
855.432922	196.800000
855.466492	197.600000
855.500061	192.600000
855.533630	193.000000
855.567200	200.100000
855.600769	200.000000
855.634338	200.100000
855.667969	196.800000
855.701477	193.600000
855.735046	192.400000
855.768616	189.700000
855.802185	198.200000
855.835754	209.200000
855.869324	190.200000
855.902893	196.800000
855.936401	201.500000
855.969971	196.300000
856.003540	192.400000
856.037109	200.500000
856.070618	196.500000
856.104187	194.800000
856.137695	196.100000
856.171265	189.200000
856.204834	197.200000
856.238403	201.200000
856.271912	195.500000
856.305481	199.700000
856.338989	192.000000
856.372559	199.400000
856.406128	199.900000
856.439636	199.500000
856.473145	196.300000
856.506653	204.600000
856.540222	196.600000
856.573792	201.700000
856.607300	199.700000
856.640808	193.600000
856.674377	197.800000
856.707825	228.400000
856.741394	200.400000
856.774902	191.900000
856.808472	189.900000
856.841980	198.600000
856.875488	200.900000
856.908936	191.000000
856.942505	195.000000
856.976013	194.200000
857.009521	192.500000
857.043030	196.100000
857.076477	195.300000
857.110046	201.000000
857.143555	197.200000
857.177063	198.500000
857.210571	196.100000
857.244080	191.800000
857.277527	198.800000
857.311035	196.200000
857.344543	200.800000
857.378052	195.200000
857.411499	202.500000
857.445068	203.200000
857.478516	196.900000
857.512024	192.100000
857.545532	195.400000
857.578979	197.800000
857.612427	197.800000
857.645874	194.300000
857.679382	198.400000
857.712891	200.500000
857.746399	197.000000
857.779846	201.900000
857.813354	201.000000
857.846741	197.300000
857.880249	193.700000
857.913757	199.900000
857.947266	197.300000
857.980652	200.900000
858.014160	195.100000
858.047546	195.900000
858.081055	194.300000
858.114563	207.300000
858.147949	192.500000
858.181458	199.300000
858.214844	194.700000
858.248352	190.300000
858.281799	200.900000
858.315308	206.100000
858.348694	198.300000
858.382141	203.200000
858.415588	198.300000
858.449036	200.100000
858.482483	199.300000
858.515930	195.400000
858.549377	196.700000
858.582825	201.500000
858.616211	199.300000
858.649658	199.700000
858.683105	192.300000
858.716553	194.400000
858.750000	193.300000
858.783386	194.100000
858.816833	191.900000
858.850281	197.700000
858.883728	199.000000
858.917114	197.500000
858.950562	204.800000
858.983948	203.200000
859.017395	202.500000
859.050781	196.000000
859.084167	194.700000
859.117615	193.100000
859.151062	199.800000
859.184448	194.500000
859.217834	195.700000
859.251282	193.600000
859.284668	193.400000
859.318054	190.000000
859.351440	196.400000
859.384888	202.500000
859.418274	190.900000
859.451721	190.000000
859.485046	198.800000
859.518494	196.900000
859.551819	192.500000
859.585266	198.700000
859.618652	200.500000
859.652039	191.300000
859.685425	192.300000
859.718811	192.000000
859.752197	187.900000
859.785583	201.200000
859.819031	202.100000
859.852356	199.800000
859.885742	193.000000
859.919067	196.300000
859.952454	195.900000
859.985901	199.800000
860.019287	196.000000
860.052612	0.000000
860.085999	0.000000
860.119324	0.000000
860.152710	0.000000
860.186096	0.000000
860.219421	0.000000
860.252808	0.000000
860.286133	0.000000
860.319519	0.000000
860.352905	0.000000
860.386292	0.000000
860.419617	0.000000
860.452942	0.000000
860.486267	0.000000
860.519653	0.000000
860.553040	0.000000
860.586365	0.000000
860.619690	0.000000
860.653076	0.000000
860.686340	0.000000
860.719727	0.000000
860.753113	0.000000
860.786377	0.000000
860.819763	0.000000
860.853027	0.000000
860.886414	0.000000
860.919739	0.000000
860.953125	0.000000
860.986389	0.000000
861.019714	0.000000
861.053040	0.000000
861.086365	0.000000
861.119690	0.000000
861.153076	0.000000
861.186340	0.000000
861.219666	0.000000
861.252930	0.000000
861.286316	0.000000
861.319641	0.000000
861.352905	0.000000
861.386230	0.000000
861.419495	0.000000
861.452820	0.000000
861.486145	0.000000
861.519470	0.000000
861.552734	0.000000
861.586060	0.000000
861.619324	0.000000
861.652649	0.000000
861.685974	0.000000
861.719238	0.000000
861.752563	0.000000
861.785828	0.000000
861.819092	0.000000
861.852417	0.000000
861.885742	0.000000
861.918945	0.000000
861.952271	0.000000
861.985535	0.000000
862.018799	0.000000
862.052124	0.000000
862.085449	0.000000
862.118652	0.000000
862.151978	0.000000
862.185181	0.000000
862.218506	0.000000
862.251770	0.000000
862.285034	0.000000
862.318298	0.000000
862.351562	0.000000
862.384827	0.000000
862.418091	0.000000
862.451355	0.000000
862.484619	0.000000
862.517883	0.000000
862.551086	0.000000
862.584351	0.000000
862.617676	0.000000
862.650940	0.000000
862.684143	0.000000
862.717407	0.000000
862.750610	0.000000
862.783875	0.000000
862.817139	0.000000
862.850342	0.000000
862.883606	0.000000
862.916870	0.000000
862.950073	0.000000
862.983337	0.000000
863.016602	0.000000
863.049805	0.000000
863.083069	0.000000
863.116211	0.000000
863.149475	0.000000
863.182739	0.000000
863.216003	0.000000
863.249146	0.000000
863.282410	0.000000
863.315613	0.000000
863.348816	0.000000
863.382080	0.000000
863.415222	0.000000
863.448486	0.000000
863.481689	0.000000
863.514893	0.000000
863.548157	0.000000
863.581360	0.000000
863.614502	0.000000
863.647766	0.000000
863.680908	0.000000
863.714172	0.000000
863.747375	0.000000
863.780579	0.000000
863.813721	0.000000
863.846985	0.000000
863.880127	0.000000
863.913330	0.000000
863.946533	0.000000
863.979675	0.000000
864.012939	0.000000
