Model Number: SPM-001-M   
Serial Number: 10090201
Firmware Version: 004.17.6
Exposure Time: 300000.000000us
Data Taken on: 11-02-2021 11:12:37.907
Wavelength	Amplitude
733.770752	0.000000
733.808716	0.000000
733.846619	0.000000
733.884583	0.000000
733.922546	0.000000
733.960449	0.000000
733.998413	0.000000
734.036377	0.000000
734.074219	0.000000
734.112183	0.000000
734.150085	0.000000
734.188049	0.000000
734.226013	0.000000
734.263916	0.000000
734.301819	0.000000
734.339783	0.000000
734.377686	0.000000
734.415588	0.000000
734.453552	0.000000
734.491455	0.000000
734.529419	0.000000
734.567322	0.000000
734.605225	0.000000
734.643127	0.000000
734.681091	0.000000
734.718994	0.000000
734.756897	0.000000
734.794800	0.000000
734.832703	0.000000
734.870667	0.000000
734.908508	0.000000
734.946472	0.000000
734.984375	0.000000
735.022278	0.000000
735.060181	0.000000
735.098083	0.000000
735.135986	0.000000
735.173889	0.000000
735.211792	0.000000
735.249695	0.000000
735.287598	0.000000
735.325439	0.000000
735.363403	0.000000
735.401306	0.000000
735.439148	0.000000
735.477051	0.000000
735.515015	0.000000
735.552856	0.000000
735.590759	0.000000
735.628662	0.000000
735.666504	0.000000
735.704407	0.000000
735.742310	0.000000
735.780212	0.000000
735.818115	0.000000
735.856018	0.000000
735.893860	0.000000
735.931763	0.000000
735.969604	0.000000
736.007507	0.000000
736.045410	0.000000
736.083252	0.000000
736.121094	0.000000
736.158997	0.000000
736.196838	0.000000
736.234741	0.000000
736.272644	0.000000
736.310486	0.000000
736.348389	0.000000
736.386230	0.000000
736.424072	0.000000
736.461975	0.000000
736.499878	0.000000
736.537720	0.000000
736.575562	0.000000
736.613403	0.000000
736.651306	0.000000
736.689148	0.000000
736.726990	0.000000
736.764893	0.000000
736.802734	0.000000
736.840576	0.000000
736.878418	0.000000
736.916321	0.000000
736.954102	0.000000
736.992004	0.000000
737.029846	0.000000
737.067688	0.000000
737.105530	0.000000
737.143372	0.000000
737.181213	0.000000
737.219116	0.000000
737.256897	0.000000
737.294739	0.000000
737.332642	0.000000
737.370422	0.000000
737.408325	0.000000
737.446167	0.000000
737.483948	0.000000
737.521790	0.000000
737.559692	0.000000
737.597473	0.000000
737.635315	0.000000
737.673157	0.000000
737.710999	0.000000
737.748840	0.000000
737.786621	0.000000
737.824463	0.000000
737.862305	0.000000
737.900085	0.000000
737.937927	0.000000
737.975769	0.000000
738.013550	0.000000
738.051392	0.000000
738.089233	0.000000
738.127014	0.000000
738.164856	0.000000
738.202698	0.000000
738.240479	0.000000
738.278320	0.000000
738.316162	0.000000
738.353943	0.000000
738.391785	0.000000
738.429565	0.000000
738.467407	0.000000
738.505188	0.000000
738.542969	0.000000
738.580811	0.000000
738.618652	0.000000
738.656372	0.000000
738.694214	0.000000
738.732056	0.000000
738.769836	0.000000
738.807617	0.000000
738.845459	0.000000
738.883240	0.000000
738.921021	0.000000
738.958862	0.000000
738.996582	0.000000
739.034424	0.000000
739.072205	0.000000
739.109985	0.000000
739.147827	0.000000
739.185547	0.000000
739.223389	0.000000
739.261169	0.000000
739.298889	0.000000
739.336731	0.000000
739.374512	0.000000
739.412292	0.000000
739.450073	0.000000
739.487854	0.000000
739.525635	0.000000
739.563416	0.000000
739.601135	0.000000
739.638977	0.000000
739.676758	0.000000
739.714478	0.000000
739.752258	0.000000
739.790100	0.000000
739.827820	0.000000
739.865601	0.000000
739.903381	0.000000
739.941101	0.000000
739.978882	196.800000
740.016724	194.000000
740.054443	198.100000
740.092224	193.300000
740.130005	193.500000
740.167725	192.100000
740.205505	192.700000
740.243225	199.700000
740.281006	195.600000
740.318787	189.900000
740.356506	201.000000
740.394287	199.300000
740.432068	191.900000
740.469727	190.000000
740.507507	198.800000
740.545288	194.700000
740.583008	197.100000
740.620789	196.100000
740.658569	189.700000
740.696228	196.000000
740.734009	199.700000
740.771790	186.500000
740.809509	198.700000
740.847229	193.000000
740.884949	193.300000
740.922729	191.200000
740.960449	193.200000
740.998169	191.500000
741.035950	192.100000
741.073669	195.100000
741.111389	195.800000
741.149170	204.100000
741.186890	203.200000
741.224609	198.300000
741.262329	195.800000
741.300110	204.200000
741.337769	192.300000
741.375549	190.800000
741.413208	195.800000
741.450989	192.000000
741.488708	193.300000
741.526367	193.300000
741.564148	198.200000
741.601868	198.800000
741.639526	193.800000
741.677307	196.800000
741.715027	197.100000
741.752686	192.400000
741.790466	199.500000
741.828186	197.500000
741.865845	192.400000
741.903564	190.300000
741.941345	196.000000
741.979004	191.600000
742.016724	198.700000
742.054382	195.300000
742.092102	198.400000
742.129822	191.000000
742.167480	194.600000
742.205200	194.400000
742.242920	197.300000
742.280640	199.100000
742.318359	192.400000
742.356079	194.200000
742.393738	198.600000
742.431396	192.300000
742.469116	199.400000
742.506775	187.100000
742.544495	196.800000
742.582214	197.200000
742.619873	196.000000
742.657593	200.400000
742.695251	200.200000
742.732971	194.600000
742.770630	196.900000
742.808289	196.000000
742.846008	194.900000
742.883728	195.400000
742.921326	195.800000
742.959045	194.000000
742.996765	195.300000
743.034424	196.200000
743.072083	192.900000
743.109802	194.400000
743.147400	190.500000
743.185120	196.800000
743.222839	195.900000
743.260437	201.400000
743.298157	196.300000
743.335754	188.900000
743.373474	194.500000
743.411133	190.600000
743.448792	196.300000
743.486450	196.400000
743.524170	189.100000
743.561768	195.000000
743.599487	200.300000
743.637146	203.600000
743.674744	194.300000
743.712463	194.300000
743.750122	195.800000
743.787720	197.500000
743.825439	193.200000
743.863037	195.400000
743.900696	195.400000
743.938416	222.800000
743.976013	194.800000
744.013672	202.000000
744.051331	197.900000
744.088928	203.100000
744.126587	198.400000
744.164307	197.400000
744.201904	193.000000
744.239563	196.900000
744.277222	198.100000
744.314819	196.000000
744.352478	200.600000
744.390137	197.000000
744.427734	196.600000
744.465393	193.900000
744.502991	192.200000
744.540649	197.000000
744.578308	195.400000
744.615906	190.600000
744.653564	187.800000
744.691223	198.900000
744.728821	190.700000
744.766418	195.200000
744.804077	197.900000
744.841675	194.700000
744.879333	191.600000
744.916992	194.100000
744.954529	194.000000
744.992187	199.600000
745.029785	194.200000
745.067444	192.800000
745.105042	196.300000
745.142639	198.000000
745.180298	204.000000
745.217896	194.800000
745.255493	194.800000
745.293152	199.100000
745.330750	201.100000
745.368347	200.900000
745.405945	198.400000
745.443604	194.900000
745.481140	200.100000
745.518799	195.200000
745.556396	199.500000
745.593994	196.300000
745.631592	195.800000
745.669189	190.500000
745.706787	195.500000
745.744385	194.300000
745.781982	197.700000
745.819580	193.600000
745.857178	196.300000
745.894775	194.600000
745.932373	196.900000
745.969971	197.200000
746.007568	189.200000
746.045166	202.600000
746.082764	202.000000
746.120300	198.800000
746.157898	197.000000
746.195557	195.400000
746.233093	192.000000
746.270691	197.800000
746.308228	198.300000
746.345825	197.900000
746.383423	198.300000
746.420959	193.200000
746.458557	194.200000
746.496155	193.100000
746.533691	196.600000
746.571289	191.400000
746.608887	194.500000
746.646423	196.500000
746.684021	196.100000
746.721619	193.600000
746.759155	197.000000
746.796753	190.400000
746.834351	191.000000
746.871826	193.000000
746.909424	200.100000
746.946960	195.900000
746.984558	193.600000
747.022156	193.500000
747.059631	201.700000
747.097229	198.200000
747.134827	193.000000
747.172363	199.800000
747.209900	198.300000
747.247498	191.400000
747.285034	200.600000
747.322571	201.300000
747.360168	193.400000
747.397644	190.000000
747.435242	199.100000
747.472778	199.500000
747.510315	194.000000
747.547913	195.700000
747.585388	199.700000
747.622925	195.200000
747.660522	189.600000
747.697998	194.500000
747.735596	193.300000
747.773132	194.600000
747.810669	194.800000
747.848206	199.300000
747.885742	191.900000
747.923279	190.200000
747.960815	196.000000
747.998352	196.000000
748.035889	199.700000
748.073425	198.300000
748.110901	192.500000
748.148437	190.900000
748.185974	195.600000
748.223511	202.600000
748.261047	196.500000
748.298584	196.200000
748.336060	194.400000
748.373596	196.400000
748.411133	219.800000
748.448608	193.500000
748.486145	197.500000
748.523682	199.200000
748.561218	203.300000
748.598755	195.200000
748.636292	198.100000
748.673706	194.100000
748.711243	201.400000
748.748718	195.300000
748.786255	195.100000
748.823792	194.400000
748.861267	191.300000
748.898804	197.600000
748.936340	198.000000
748.973816	194.000000
749.011292	200.500000
749.048828	196.600000
749.086304	198.200000
749.123840	203.400000
749.161316	192.600000
749.198792	203.300000
749.236328	201.700000
749.273743	196.000000
749.311279	195.000000
749.348816	198.200000
749.386230	197.400000
749.423767	186.700000
749.461304	199.400000
749.498718	196.000000
749.536255	201.700000
749.573730	205.400000
749.611206	202.000000
749.648682	194.200000
749.686218	195.700000
749.723633	199.600000
749.761169	194.600000
749.798645	192.600000
749.836060	193.800000
749.873596	192.800000
749.911011	197.900000
749.948547	200.200000
749.986023	195.600000
750.023437	194.500000
750.060913	190.500000
750.098450	192.000000
750.135864	194.800000
750.173340	196.200000
750.210815	199.100000
750.248291	191.800000
750.285767	195.500000
750.323242	198.900000
750.360657	196.900000
750.398132	191.900000
750.435608	197.700000
750.473022	193.200000
750.510498	193.200000
750.547974	192.700000
750.585449	194.600000
750.622925	188.800000
750.660339	204.700000
750.697815	198.600000
750.735291	196.600000
750.772644	198.700000
750.810120	195.100000
750.847595	197.200000
750.885010	192.500000
750.922485	202.500000
750.959961	197.000000
750.997375	202.900000
751.034851	199.100000
751.072266	199.100000
751.109680	190.300000
751.147156	200.500000
751.184570	198.700000
751.221985	195.200000
751.259460	188.800000
751.296875	195.600000
751.334290	195.400000
751.371765	199.000000
751.409180	198.700000
751.446594	198.900000
751.484070	196.300000
751.521423	196.000000
751.558899	196.800000
751.596375	202.900000
751.633728	202.000000
751.671204	202.800000
751.708618	193.600000
751.746033	196.500000
751.783447	191.300000
751.820801	193.300000
751.858276	200.100000
751.895691	195.300000
751.933105	195.400000
751.970520	191.200000
752.007935	194.100000
752.045349	199.300000
752.082764	196.700000
752.120178	193.000000
752.157532	193.500000
752.195007	194.900000
752.232422	198.100000
752.269775	198.900000
752.307190	198.300000
752.344543	192.800000
752.382019	195.300000
752.419434	193.900000
752.456787	199.000000
752.494202	200.500000
752.531616	196.000000
752.568970	199.900000
752.606384	197.700000
752.643799	197.200000
752.681152	201.200000
752.718567	197.900000
752.755981	189.900000
752.793335	198.000000
752.830750	190.200000
752.868164	201.200000
752.905518	191.500000
752.942932	199.200000
752.980225	192.700000
753.017639	198.000000
753.055054	195.700000
753.092407	197.300000
753.129822	197.800000
753.167175	202.800000
753.204529	194.100000
753.241943	193.200000
753.279358	191.000000
753.316650	198.400000
753.354065	196.300000
753.391479	199.200000
753.428772	201.100000
753.466187	196.800000
753.503479	191.800000
753.540894	194.200000
753.578308	190.600000
753.615601	191.300000
753.653015	195.100000
753.690369	195.000000
753.727722	193.100000
753.765076	191.500000
753.802490	190.200000
753.839783	190.300000
753.877136	194.400000
753.914551	206.700000
753.951843	193.000000
753.989258	197.800000
754.026611	196.600000
754.063904	199.900000
754.101257	191.700000
754.138611	190.300000
754.175964	197.800000
754.213318	205.000000
754.250610	190.700000
754.288025	194.300000
754.325378	191.100000
754.362671	198.300000
754.400024	195.100000
754.437378	203.100000
754.474670	203.500000
754.512085	193.300000
754.549438	195.600000
754.586731	192.600000
754.624084	197.300000
754.661438	191.500000
754.698730	202.400000
754.736084	194.600000
754.773376	196.200000
754.810730	196.900000
754.848083	196.600000
754.885315	199.800000
754.922668	190.400000
754.960022	192.900000
754.997314	199.900000
755.034668	196.600000
755.072021	197.800000
755.109253	195.100000
755.146606	202.300000
755.183960	195.600000
755.221252	202.300000
755.258545	200.000000
755.295898	202.200000
755.333191	202.700000
755.370544	198.200000
755.407776	196.700000
755.445129	197.000000
755.482422	200.400000
755.519714	194.400000
755.557068	190.500000
755.594360	190.200000
755.631653	201.500000
755.668945	202.800000
755.706299	198.300000
755.743530	206.500000
755.780884	202.200000
755.818176	201.600000
755.855408	201.900000
755.892761	197.900000
755.930054	198.500000
755.967346	198.000000
756.004639	201.200000
756.041870	196.900000
756.079224	201.800000
756.116516	194.700000
756.153748	200.400000
756.191040	204.200000
756.228394	200.000000
756.265625	193.500000
756.302917	197.600000
756.340210	194.500000
756.377441	203.300000
756.414795	203.000000
756.452087	198.600000
756.489319	193.900000
756.526611	202.500000
756.563843	199.200000
756.601135	204.900000
756.638428	205.300000
756.675659	198.100000
756.712952	202.300000
756.750244	201.200000
756.787476	200.600000
756.824768	203.500000
756.862061	198.800000
756.899292	247.400000
756.936584	204.400000
756.973816	207.400000
757.011047	208.100000
757.048340	199.000000
757.085632	200.900000
757.122864	214.200000
757.160156	199.000000
757.197327	202.400000
757.234619	205.800000
757.271912	197.300000
757.309082	205.200000
757.346375	197.200000
757.383667	205.800000
757.420837	201.700000
757.458130	201.200000
757.495422	198.300000
757.532593	204.000000
757.569885	195.700000
757.607117	198.200000
757.644348	201.600000
757.681580	211.500000
757.718811	190.800000
757.756042	200.700000
757.793335	197.700000
757.830505	204.200000
757.867798	199.500000
757.905029	198.900000
757.942200	201.400000
757.979492	200.300000
758.016724	200.400000
758.053894	200.100000
758.091187	214.900000
758.128418	202.100000
758.165588	201.800000
758.202820	211.900000
758.240112	201.500000
758.277283	212.000000
758.314514	204.600000
758.351685	201.100000
758.388916	210.800000
758.426147	209.000000
758.463379	211.200000
758.500610	206.800000
758.537842	203.300000
758.575012	209.600000
758.612244	201.000000
758.649475	213.500000
758.686646	199.000000
758.723877	210.300000
758.761108	211.000000
758.798279	204.200000
758.835510	205.900000
758.872742	210.400000
758.909851	207.600000
758.947083	206.400000
758.984253	207.400000
759.021484	207.800000
759.058716	209.800000
759.095886	208.800000
759.133057	206.700000
759.170288	209.400000
759.207458	204.700000
759.244690	214.700000
759.281860	213.900000
759.319031	207.600000
759.356262	205.800000
759.393433	205.800000
759.430603	206.200000
759.467773	205.900000
759.505005	212.500000
759.542175	211.100000
759.579346	210.100000
759.616516	208.600000
759.653687	211.200000
759.690918	207.300000
759.728027	211.100000
759.765259	210.900000
759.802429	213.100000
759.839539	212.200000
759.876770	215.000000
759.913940	217.900000
759.951111	211.900000
759.988281	210.800000
760.025452	208.000000
760.062561	207.700000
760.099792	219.000000
760.136963	214.200000
760.174072	208.800000
760.211243	207.300000
760.248413	207.300000
760.285583	208.700000
760.322754	219.400000
760.359863	218.100000
760.397034	215.000000
760.434204	211.700000
760.471375	212.100000
760.508545	211.000000
760.545715	213.100000
760.582825	208.600000
760.619995	214.500000
760.657166	209.700000
760.694275	217.800000
760.731445	213.700000
760.768555	214.600000
760.805664	215.600000
760.842834	214.100000
760.879944	218.200000
760.917114	213.900000
760.954285	214.200000
760.991394	208.400000
761.028564	217.800000
761.065674	214.900000
761.102783	211.300000
761.139954	219.200000
761.177124	218.000000
761.214172	220.700000
761.251343	215.200000
761.288452	215.200000
761.325562	219.000000
761.362732	212.700000
761.399841	215.200000
761.436951	217.200000
761.474121	213.300000
761.511169	215.900000
761.548340	220.400000
761.585449	219.400000
761.622559	220.300000
761.659668	220.100000
761.696838	222.500000
761.733887	219.800000
761.771057	216.400000
761.808167	218.000000
761.845276	220.900000
761.882385	230.500000
761.919434	219.800000
761.956604	234.200000
761.993713	216.200000
762.030762	225.000000
762.067871	218.000000
762.105042	219.200000
762.142090	226.300000
762.179199	222.400000
762.216309	225.000000
762.253418	232.900000
762.290527	229.800000
762.327637	226.100000
762.364685	216.700000
762.401794	224.900000
762.438904	224.600000
762.475952	222.000000
762.513062	219.000000
762.550110	221.400000
762.587219	231.600000
762.624329	230.200000
762.661377	224.400000
762.698486	224.500000
762.735596	225.100000
762.772644	222.200000
762.809753	218.900000
762.846863	226.300000
762.883911	230.200000
762.921021	228.600000
762.958069	226.000000
762.995117	233.300000
763.032227	230.800000
763.069336	223.500000
763.106323	219.800000
763.143433	220.600000
763.180481	228.000000
763.217590	228.600000
763.254639	226.400000
763.291687	227.600000
763.328735	234.100000
763.365845	227.700000
763.402893	226.400000
763.439941	229.100000
763.477051	231.900000
763.514038	229.700000
763.551147	224.900000
763.588196	229.600000
763.625244	229.400000
763.662292	235.700000
763.699402	237.900000
763.736389	234.000000
763.773499	241.000000
763.810486	233.500000
763.847534	232.600000
763.884644	231.300000
763.921631	230.400000
763.958679	237.600000
763.995728	232.500000
764.032776	238.300000
764.069824	230.200000
764.106873	238.100000
764.143860	244.000000
764.180969	235.000000
764.218018	241.000000
764.255005	234.700000
764.292053	235.800000
764.329102	242.900000
764.366089	243.500000
764.403137	239.900000
764.440125	235.200000
764.477173	238.700000
764.514221	242.800000
764.551208	242.400000
764.588257	238.800000
764.625305	245.700000
764.662292	247.700000
764.699341	250.800000
764.736389	243.900000
764.773376	255.600000
764.810425	245.800000
764.847473	250.900000
764.884399	246.800000
764.921448	254.200000
764.958435	252.300000
764.995483	247.200000
765.032532	258.300000
765.069458	249.100000
765.106506	251.400000
765.143555	249.700000
765.180481	251.800000
765.217529	260.100000
765.254578	248.500000
765.291504	254.600000
765.328552	252.400000
765.365540	250.700000
765.402527	260.300000
765.439575	252.300000
765.476501	248.400000
765.513550	249.700000
765.550537	256.300000
765.587463	262.700000
765.624512	255.900000
765.661499	248.000000
765.698486	262.100000
765.735474	252.000000
765.772461	255.100000
765.809448	262.900000
765.846436	261.100000
765.883423	262.600000
765.920410	259.600000
765.957397	255.500000
765.994385	258.700000
766.031311	268.000000
766.068359	262.400000
766.105286	263.600000
766.142273	269.400000
766.179260	264.500000
766.216187	260.300000
766.253174	257.500000
766.290161	264.100000
766.327148	267.000000
766.364136	265.900000
766.401123	276.300000
766.438049	261.300000
766.475037	270.200000
766.512024	269.000000
766.548950	281.200000
766.585937	275.800000
766.622864	272.100000
766.659790	270.100000
766.696777	263.500000
766.733704	275.700000
766.770691	267.700000
766.807678	277.700000
766.844604	271.400000
766.881531	273.700000
766.918518	278.600000
766.955444	278.100000
766.992432	273.800000
767.029358	276.200000
767.066284	276.900000
767.103271	276.700000
767.140198	307.900000
767.177124	289.600000
767.214050	279.000000
767.251038	281.200000
767.287964	276.800000
767.324890	277.100000
767.361816	279.700000
767.398743	285.600000
767.435730	279.100000
767.472595	282.000000
767.509583	286.500000
767.546509	278.400000
767.583374	283.500000
767.620361	277.400000
767.657288	282.700000
767.694214	283.500000
767.731140	280.300000
767.768066	282.400000
767.804993	285.900000
767.841919	278.800000
767.878845	287.000000
767.915710	287.800000
767.952698	285.200000
767.989563	286.100000
768.026489	287.600000
768.063416	283.200000
768.100281	283.400000
768.137207	293.300000
768.174133	289.000000
768.211060	289.000000
768.247986	289.700000
768.284912	288.900000
768.321777	290.000000
768.358704	284.300000
768.395630	288.900000
768.432495	285.800000
768.469421	290.900000
768.506348	294.600000
768.543152	298.100000
768.580078	293.800000
768.616943	294.800000
768.653870	296.500000
768.690796	297.600000
768.727661	296.000000
768.764587	299.100000
768.801453	294.800000
768.838318	299.900000
768.875244	298.900000
768.912109	304.300000
768.948975	297.600000
768.985901	299.600000
769.022766	297.800000
769.059631	301.600000
769.096558	296.700000
769.133362	298.200000
769.170288	300.700000
769.207214	300.400000
769.244019	305.600000
769.280945	302.000000
769.317810	310.100000
769.354675	303.100000
769.391541	312.000000
769.428406	313.300000
769.465271	316.500000
769.502136	307.400000
769.539062	310.500000
769.575867	309.500000
769.612732	313.000000
769.649597	318.500000
769.686462	319.700000
769.723328	313.700000
769.760193	314.100000
769.797058	315.500000
769.833923	323.900000
769.870728	319.800000
769.907593	323.700000
769.944519	319.900000
769.981323	321.000000
770.018188	322.400000
770.055054	323.000000
770.091858	322.200000
770.128723	331.300000
770.165588	333.700000
770.202393	324.000000
770.239258	334.200000
770.276062	331.700000
770.312927	333.700000
770.349792	339.000000
770.386597	333.800000
770.423462	342.500000
770.460327	348.900000
770.497131	336.800000
770.533997	335.200000
770.570862	345.900000
770.607605	348.000000
770.644470	343.300000
770.681335	342.200000
770.718140	345.000000
770.754944	342.300000
770.791809	339.500000
770.828613	342.900000
770.865479	344.800000
770.902222	355.100000
770.939087	346.400000
770.975952	343.200000
771.012695	347.700000
771.049561	358.500000
771.086365	348.300000
771.123169	347.700000
771.159973	349.000000
771.196838	350.800000
771.233582	354.700000
771.270447	355.800000
771.307251	357.500000
771.344055	357.200000
771.380859	357.300000
771.417664	353.600000
771.454468	363.500000
771.491272	361.900000
771.528076	361.800000
771.564880	359.000000
771.601685	365.100000
771.638428	359.200000
771.675293	365.800000
771.712097	358.800000
771.748840	372.100000
771.785645	368.100000
771.822449	366.100000
771.859253	367.900000
771.896057	369.800000
771.932861	378.100000
771.969604	370.900000
772.006409	366.000000
772.043213	375.500000
772.079956	370.400000
772.116760	365.700000
772.153503	370.700000
772.190308	381.800000
772.227112	372.100000
772.263855	369.200000
772.300659	371.300000
772.337463	377.600000
772.374207	370.600000
772.411011	370.400000
772.447754	378.100000
772.484497	389.600000
772.521301	378.800000
772.558105	376.600000
772.594849	378.100000
772.631592	385.300000
772.668396	383.300000
772.705139	386.900000
772.741882	381.400000
772.778625	389.700000
772.815430	393.000000
772.852173	393.500000
772.888916	397.200000
772.925720	402.800000
772.962463	403.900000
772.999207	394.500000
773.035950	398.900000
773.072754	398.600000
773.109436	396.100000
773.146240	402.100000
773.182922	401.700000
773.219727	403.400000
773.256470	402.300000
773.293152	395.300000
773.329956	400.700000
773.366699	407.400000
773.403381	401.800000
773.440186	406.800000
773.476929	402.800000
773.513611	399.400000
773.550354	400.600000
773.587158	407.200000
773.623840	405.600000
773.660583	405.400000
773.697327	411.200000
773.734009	403.200000
773.770813	404.900000
773.807495	404.600000
773.844238	409.500000
773.880981	417.800000
773.917664	409.800000
773.954407	414.300000
773.991150	410.400000
774.027832	415.900000
774.064575	415.200000
774.101318	415.000000
774.138000	415.000000
774.174744	411.200000
774.211487	413.500000
774.248108	410.500000
774.284851	414.500000
774.321594	421.100000
774.358276	419.700000
774.395020	422.200000
774.431702	421.000000
774.468384	417.300000
774.505127	418.500000
774.541809	427.800000
774.578491	429.600000
774.615234	426.600000
774.651917	418.900000
774.688599	423.500000
774.725342	435.000000
774.762024	438.200000
774.798706	437.200000
774.835449	430.800000
774.872070	434.200000
774.908813	433.400000
774.945496	438.200000
774.982178	440.400000
775.018860	441.000000
775.055542	439.500000
775.092224	436.200000
775.128967	441.100000
775.165588	445.000000
775.202271	444.300000
775.239014	452.600000
775.275635	446.800000
775.312317	439.200000
775.349060	443.800000
775.385681	450.600000
775.422363	448.500000
775.459045	453.500000
775.495667	455.100000
775.532410	451.500000
775.569092	450.800000
775.605713	453.100000
775.642395	456.200000
775.679016	457.700000
775.715698	460.100000
775.752380	455.900000
775.789001	449.800000
775.825684	451.100000
775.862366	461.900000
775.898987	475.900000
775.935669	466.800000
775.972351	476.700000
776.008972	472.300000
776.045654	473.700000
776.082336	471.700000
776.118958	477.600000
776.155640	482.600000
776.192322	481.600000
776.228882	480.600000
776.265564	478.200000
776.302185	475.600000
776.338867	484.400000
776.375488	480.000000
776.412109	487.400000
776.448792	486.600000
776.485413	491.100000
776.522034	483.700000
776.558716	484.300000
776.595337	492.600000
776.631958	497.700000
776.668579	495.000000
776.705261	500.000000
776.741882	489.700000
776.778503	493.600000
776.815186	497.900000
776.851746	502.600000
776.888367	500.600000
776.924988	506.200000
776.961609	494.600000
776.998291	495.900000
777.034851	498.600000
777.071472	511.100000
777.108154	501.300000
777.144714	509.400000
777.181335	508.600000
777.218018	504.600000
777.254578	511.200000
777.291199	516.200000
777.327759	520.400000
777.364380	527.900000
777.401062	533.700000
777.437622	537.400000
777.474243	529.200000
777.510864	534.700000
777.547424	529.100000
777.584045	536.100000
777.620667	533.900000
777.657227	533.900000
777.693848	534.500000
777.730469	544.800000
777.767029	534.900000
777.803650	539.800000
777.840271	534.300000
777.876831	528.700000
777.913452	533.800000
777.950012	520.500000
777.986633	526.900000
778.023193	527.000000
778.059753	526.600000
778.096375	528.100000
778.132996	542.600000
778.169556	530.600000
778.206116	535.500000
778.242737	530.300000
778.279297	539.100000
778.315857	532.000000
778.352478	539.500000
778.389038	546.400000
778.425598	549.200000
778.462219	557.200000
778.498718	552.300000
778.535339	559.300000
778.571838	563.100000
778.608459	559.200000
778.645020	555.000000
778.681580	561.900000
778.718140	559.800000
778.754761	554.000000
778.791260	563.400000
778.827881	565.300000
778.864441	561.100000
778.900940	565.300000
778.937561	559.800000
778.974121	563.800000
779.010620	561.600000
779.047241	562.600000
779.083801	567.700000
779.120300	568.300000
779.156860	570.900000
779.193359	571.100000
779.229980	577.400000
779.266541	582.300000
779.303040	576.100000
779.339600	573.500000
779.376160	565.300000
779.412659	565.900000
779.449219	568.600000
779.485779	576.900000
779.522278	573.100000
779.558838	573.800000
779.595398	570.100000
779.631897	571.400000
779.668457	565.900000
779.705017	577.700000
779.741516	568.800000
779.778076	561.300000
779.814575	563.400000
779.851074	564.900000
779.887634	560.800000
779.924133	574.500000
779.960693	567.700000
779.997253	573.500000
780.033691	574.700000
780.070251	571.800000
780.106812	577.400000
780.143250	581.800000
780.179810	582.200000
780.216370	587.200000
780.252808	588.300000
780.289368	588.700000
780.325867	584.800000
780.362366	581.600000
780.398865	595.500000
780.435364	595.200000
780.471863	599.400000
780.508423	592.800000
780.544861	593.000000
780.581421	589.500000
780.617920	583.000000
780.654419	584.400000
780.690918	592.600000
780.727417	595.200000
780.763916	588.800000
780.800415	593.500000
780.836914	581.600000
780.873352	597.200000
780.909912	593.500000
780.946411	593.600000
780.982849	604.100000
781.019348	608.700000
781.055786	602.900000
781.092346	602.900000
781.128845	614.500000
781.165283	618.400000
781.201782	622.100000
781.238281	615.000000
781.274719	609.500000
781.311218	606.200000
781.347717	625.000000
781.384155	614.900000
781.420654	615.200000
781.457092	620.000000
781.493591	615.100000
781.530090	611.100000
781.566528	618.900000
781.602966	618.500000
781.639465	622.000000
781.675903	616.700000
781.712402	619.500000
781.748901	624.100000
781.785278	623.600000
781.821777	631.100000
781.858276	628.900000
781.894714	641.500000
781.931152	630.900000
781.967651	633.700000
782.004089	628.200000
782.040527	637.800000
782.076965	638.200000
782.113403	636.400000
782.149902	641.400000
782.186340	638.000000
782.222778	642.800000
782.259277	635.900000
782.295654	642.000000
782.332092	646.100000
782.368591	646.200000
782.404968	643.000000
782.441467	645.000000
782.477905	657.200000
782.514282	655.300000
782.550781	665.000000
782.587219	662.300000
782.623596	673.200000
782.660095	673.300000
782.696472	681.400000
782.732910	683.200000
782.769348	689.600000
782.805786	695.100000
782.842224	691.300000
782.878662	684.800000
782.915039	688.600000
782.951477	691.900000
782.987915	687.100000
783.024292	690.400000
783.060730	689.400000
783.097168	684.500000
783.133545	675.300000
783.169983	669.900000
783.206421	664.000000
783.242798	663.200000
783.279236	655.500000
783.315613	656.200000
783.352051	657.700000
783.388489	651.800000
783.424866	650.300000
783.461304	658.600000
783.497681	662.300000
783.534058	660.200000
783.570496	656.800000
783.606934	657.600000
783.643250	661.000000
783.679687	674.900000
783.716125	672.000000
783.752441	680.300000
783.788879	692.200000
783.825317	698.900000
783.861633	705.300000
783.898071	711.800000
783.934448	720.200000
783.970825	724.100000
784.007263	723.700000
784.043579	730.700000
784.080017	727.100000
784.116394	720.300000
784.152710	709.600000
784.189148	688.600000
784.225525	655.300000
784.261902	616.100000
784.298279	582.600000
784.334656	569.400000
784.371033	558.700000
784.407410	575.300000
784.443787	583.400000
784.480164	609.200000
784.516541	622.400000
784.552856	654.200000
784.589233	663.800000
784.625610	664.700000
784.661987	683.000000
784.698364	678.200000
784.734741	674.800000
784.771057	687.600000
784.807434	692.100000
784.843811	704.000000
784.880127	696.300000
784.916504	708.700000
784.952881	713.000000
784.989197	711.300000
785.025574	721.200000
785.061951	726.200000
785.098267	742.500000
785.134644	725.900000
785.170959	716.000000
785.207275	724.800000
785.243652	735.700000
785.279968	724.700000
785.316345	721.600000
785.352722	713.500000
785.388977	702.200000
785.425354	686.500000
785.461731	684.300000
785.498047	687.100000
785.534363	681.800000
785.570679	680.000000
785.606995	674.400000
785.643372	672.200000
785.679687	673.400000
785.716003	678.000000
785.752380	680.800000
785.788635	685.300000
785.825012	696.600000
785.861328	697.400000
785.897644	684.700000
785.933960	703.300000
785.970337	714.300000
786.006592	739.400000
786.042908	742.700000
786.079285	740.200000
786.115540	740.200000
786.151855	740.000000
786.188171	741.600000
786.224487	747.600000
786.260803	744.500000
786.297119	743.400000
786.333435	734.200000
786.369751	724.500000
786.406006	725.000000
786.442322	721.000000
786.478638	714.700000
786.514954	723.100000
786.551270	710.900000
786.587585	703.400000
786.623840	692.500000
786.660156	696.700000
786.696472	690.100000
786.732727	691.900000
786.769043	696.800000
786.805298	690.300000
786.841614	688.600000
786.877930	701.300000
786.914124	695.000000
786.950439	713.500000
786.986755	725.600000
787.023010	729.900000
787.059326	727.400000
787.095642	727.800000
787.131836	746.500000
787.168152	745.600000
787.204468	755.200000
787.240723	765.600000
787.276978	755.700000
787.313293	761.800000
787.349548	751.300000
787.385803	755.400000
787.422058	753.500000
787.458313	753.100000
787.494629	745.000000
787.530823	741.800000
787.567139	733.600000
787.603455	728.500000
787.639648	723.500000
787.675903	734.900000
787.712219	729.400000
787.748413	719.500000
787.784729	729.400000
787.820984	719.100000
787.857178	712.200000
787.893494	720.100000
787.929749	720.300000
787.965942	727.000000
788.002258	734.400000
788.038452	740.900000
788.074707	732.200000
788.110962	738.800000
788.147217	742.900000
788.183472	754.900000
788.219727	755.700000
788.255920	762.400000
788.292175	768.000000
788.328430	758.700000
788.364624	757.600000
788.400879	762.500000
788.437134	770.700000
788.473328	764.100000
788.509583	767.800000
788.545837	755.400000
788.582031	763.500000
788.618286	767.800000
788.654480	770.300000
788.690735	774.600000
788.726990	788.800000
788.763184	783.200000
788.799377	785.700000
788.835632	778.600000
788.871826	796.800000
788.908081	787.700000
788.944336	779.900000
788.980469	789.400000
789.016724	774.700000
789.052979	766.900000
789.089111	756.400000
789.125366	766.000000
789.161621	756.300000
789.197754	769.000000
789.234009	760.200000
789.270142	754.100000
789.306396	748.100000
789.342590	748.000000
789.378784	745.500000
789.414978	745.600000
789.451233	760.300000
789.487366	756.700000
789.523621	756.500000
789.559814	758.200000
789.595947	761.200000
789.632202	774.800000
789.668335	783.900000
789.704529	798.600000
789.740784	800.200000
789.776917	793.200000
789.813110	790.800000
789.849304	806.800000
789.885498	802.800000
789.921692	817.100000
789.957886	812.100000
789.994019	798.100000
790.030212	789.000000
790.066406	799.900000
790.102539	807.100000
790.138733	820.100000
790.174927	814.000000
790.211060	817.800000
790.247253	794.100000
790.283386	790.200000
790.319580	788.400000
790.355774	788.600000
790.391907	796.200000
790.428101	804.700000
790.464294	796.900000
790.500427	791.100000
790.536621	784.200000
790.572754	782.900000
790.608887	782.000000
790.645081	789.700000
790.681274	793.600000
790.717346	778.700000
790.753540	762.900000
790.789734	759.500000
790.825867	757.200000
790.862000	766.100000
790.898132	777.800000
790.934265	762.000000
790.970459	765.300000
791.006592	767.600000
791.042725	768.400000
791.078918	771.500000
791.114990	771.400000
791.151184	771.600000
791.187317	780.000000
791.223389	768.800000
791.259583	766.400000
791.295715	771.600000
791.331848	785.800000
791.367981	791.900000
791.404114	792.200000
791.440247	778.300000
791.476379	782.000000
791.512451	765.500000
791.548584	773.600000
791.584778	771.900000
791.620850	790.300000
791.656982	786.700000
791.693115	771.100000
791.729187	763.800000
791.765381	768.300000
791.801514	774.600000
791.837585	781.800000
791.873718	780.100000
791.909851	774.700000
791.945923	774.600000
791.982056	754.500000
792.018188	754.400000
792.054260	761.800000
792.090393	767.700000
792.126465	756.100000
792.162598	758.400000
792.198669	745.400000
792.234741	743.500000
792.270874	745.800000
792.307007	738.200000
792.343079	744.800000
792.379150	744.300000
792.415283	724.300000
792.451355	729.900000
792.487488	716.300000
792.523560	730.400000
792.559631	731.900000
792.595764	719.500000
792.631836	691.600000
792.667908	670.300000
792.703979	660.500000
792.740051	696.200000
792.776184	756.000000
792.812256	804.400000
792.848328	819.800000
792.884399	824.800000
792.920471	815.500000
792.956543	815.800000
792.992615	821.600000
793.028748	831.000000
793.064758	837.600000
793.100830	849.200000
793.136963	847.400000
793.172974	846.100000
793.209045	835.800000
793.245178	851.600000
793.281189	853.500000
793.317261	860.200000
793.353271	855.900000
793.389404	853.300000
793.425476	846.800000
793.461487	829.200000
793.497559	831.000000
793.533630	843.900000
793.569641	844.200000
793.605713	842.900000
793.641785	838.900000
793.677795	846.100000
793.713867	835.300000
793.749878	846.800000
793.785950	860.100000
793.822021	865.300000
793.858032	845.000000
793.894104	849.400000
793.930176	838.200000
793.966187	842.800000
794.002258	840.400000
794.038269	853.600000
794.074280	848.300000
794.110352	860.800000
794.146423	833.400000
794.182373	823.300000
794.218445	822.500000
794.254517	827.800000
794.290466	816.000000
794.326538	822.500000
794.362549	831.100000
794.398560	830.000000
794.434631	824.800000
794.470581	816.400000
794.506653	813.800000
794.542664	822.100000
794.578674	826.600000
794.614685	822.600000
794.650757	812.000000
794.686707	809.600000
794.722778	814.000000
794.758789	829.000000
794.794739	840.100000
794.830811	850.100000
794.866821	865.200000
794.902771	855.900000
794.938843	844.000000
794.974792	845.500000
795.010803	851.400000
795.046814	858.800000
795.082825	843.700000
795.118835	846.300000
795.154846	825.100000
795.190796	831.600000
795.226807	823.500000
795.262817	833.500000
795.298767	832.900000
795.334778	840.500000
795.370850	823.900000
795.406799	818.300000
795.442810	808.500000
795.478821	822.300000
795.514709	824.200000
795.550720	851.900000
795.586670	826.600000
795.622681	824.900000
795.658691	821.000000
795.694641	820.200000
795.730652	822.300000
795.766663	839.700000
795.802551	834.600000
795.838562	844.800000
795.874573	829.300000
795.910522	827.700000
795.946472	828.600000
795.982483	843.400000
796.018433	840.700000
796.054382	852.100000
796.090393	839.900000
796.126282	825.600000
796.162292	813.800000
796.198242	818.600000
796.234192	823.900000
796.270203	827.200000
796.306091	830.300000
796.342041	836.800000
796.378052	822.700000
796.413940	830.400000
796.449951	838.200000
796.485901	838.900000
796.521790	843.600000
796.557800	847.600000
796.593689	836.000000
796.629639	825.000000
796.665649	823.900000
796.701599	835.200000
796.737488	840.700000
796.773437	847.200000
796.809387	832.000000
796.845337	829.600000
796.881287	823.100000
796.917175	820.300000
796.953125	831.300000
796.989075	832.400000
797.024963	831.000000
797.060913	828.300000
797.096863	818.600000
797.132751	814.600000
797.168701	815.500000
797.204590	825.700000
797.240540	829.000000
797.276489	823.500000
797.312439	814.000000
797.348328	803.500000
797.384277	798.500000
797.420166	802.000000
797.456055	810.800000
797.492004	810.600000
797.527893	803.500000
797.563843	795.900000
797.599731	791.500000
797.635620	786.200000
797.671570	802.300000
797.707520	806.900000
797.743347	804.900000
797.779297	797.600000
797.815125	785.800000
797.851074	772.900000
797.887024	774.500000
797.922913	786.200000
797.958801	797.900000
797.994690	784.300000
798.030579	784.100000
798.066467	779.500000
798.102356	771.100000
798.138245	773.400000
798.174133	774.000000
798.210083	779.500000
798.245911	787.600000
798.281799	775.800000
798.317749	760.800000
798.353577	767.700000
798.389465	763.100000
798.425293	767.600000
798.461243	767.500000
798.497131	772.600000
798.532959	760.300000
798.568848	761.700000
798.604736	752.100000
798.640564	749.200000
798.676453	746.500000
798.712402	750.200000
798.748230	750.400000
798.784119	747.600000
798.820007	744.600000
798.855835	749.000000
798.891724	743.900000
798.927551	744.800000
798.963379	739.200000
798.999268	739.600000
799.035095	724.600000
799.070984	723.700000
799.106873	723.800000
799.142700	738.200000
799.178528	724.900000
799.214417	729.500000
799.250244	731.600000
799.286133	722.200000
799.321960	727.600000
799.357788	727.900000
799.393677	721.700000
799.429504	729.400000
799.465332	728.300000
799.501221	720.400000
799.537048	723.300000
799.572876	724.000000
799.608704	725.900000
799.644531	740.900000
799.680359	738.800000
799.716248	737.500000
799.752014	734.300000
799.787903	719.700000
799.823730	726.800000
799.859558	728.800000
799.895386	731.400000
799.931213	731.100000
799.967041	721.600000
800.002869	717.000000
800.038696	730.800000
800.074463	720.700000
800.110352	722.200000
800.146179	714.100000
800.181946	721.100000
800.217773	717.800000
800.253540	713.800000
800.289429	714.600000
800.325256	716.700000
800.361023	707.100000
800.396851	712.900000
800.432678	709.300000
800.468445	703.100000
800.504272	698.100000
800.540100	690.500000
800.575867	694.900000
800.611694	702.700000
800.647461	694.500000
800.683289	697.600000
800.719116	694.000000
800.754883	687.800000
800.790649	681.700000
800.826477	683.300000
800.862244	700.300000
800.898071	687.900000
800.933838	684.200000
800.969604	681.500000
801.005432	674.600000
801.041199	677.600000
801.076965	674.800000
801.112793	668.000000
801.148560	662.900000
801.184326	660.600000
801.220154	659.400000
801.255859	648.700000
801.291687	654.500000
801.327454	653.500000
801.363281	660.200000
801.398987	650.500000
801.434814	646.200000
801.470520	652.000000
801.506287	649.600000
801.542114	645.200000
801.577820	650.600000
801.613647	647.100000
801.649414	640.600000
801.685120	642.200000
801.720886	645.900000
801.756714	633.100000
801.792419	635.400000
801.828186	631.300000
801.863892	637.000000
801.899719	628.600000
801.935486	624.300000
801.971252	631.600000
802.006958	633.800000
802.042725	631.000000
802.078430	628.800000
802.114197	622.200000
802.149963	633.600000
802.185669	622.200000
802.221436	621.100000
802.257202	627.100000
802.292908	625.300000
802.328674	632.500000
802.364441	631.300000
802.400146	625.000000
802.435913	619.700000
802.471558	619.400000
802.507324	620.100000
802.543091	620.300000
802.578796	626.600000
802.614502	621.000000
802.650269	622.700000
802.685974	613.100000
802.721741	617.300000
802.757446	622.500000
802.793152	623.800000
802.828918	627.700000
802.864624	622.200000
802.900330	618.900000
802.936035	614.700000
802.971802	617.100000
803.007446	611.500000
803.043213	611.300000
803.078857	615.900000
803.114624	603.500000
803.150330	605.900000
803.185974	599.400000
803.221741	601.800000
803.257446	612.200000
803.293152	606.700000
803.328857	602.700000
803.364563	592.600000
803.400208	587.000000
803.435974	592.400000
803.471680	588.300000
803.507324	585.900000
803.543030	597.000000
803.578735	596.200000
803.614441	589.000000
803.650146	591.600000
803.685791	582.000000
803.721497	587.200000
803.757202	576.600000
803.792847	583.100000
803.828552	572.400000
803.864258	572.700000
803.899902	564.500000
803.935608	561.200000
803.971313	568.200000
804.006958	567.400000
804.042664	563.100000
804.078308	566.100000
804.113953	559.600000
804.149658	564.300000
804.185364	555.700000
804.221008	570.400000
804.256714	557.500000
804.292297	553.500000
804.328003	548.600000
804.363708	548.200000
804.399292	549.700000
804.434998	550.300000
804.470703	545.200000
804.506287	555.700000
804.541992	547.900000
804.577637	545.000000
804.613281	535.100000
804.648926	537.200000
804.684570	538.100000
804.720215	535.100000
804.755920	531.800000
804.791565	533.400000
804.827209	536.700000
804.862854	532.400000
804.898437	527.900000
804.934143	532.600000
804.969788	530.900000
805.005371	529.600000
805.041077	525.000000
805.076721	519.700000
805.112305	516.300000
805.147949	518.600000
805.183655	517.200000
805.219238	522.500000
805.254883	518.700000
805.290466	520.100000
805.326111	511.300000
805.361755	505.800000
805.397400	511.800000
805.432983	515.400000
805.468628	514.600000
805.504211	519.500000
805.539856	515.600000
805.575500	513.700000
805.611084	505.100000
805.646729	503.100000
805.682373	505.600000
805.717957	514.100000
805.753601	512.000000
805.789246	498.700000
805.824768	507.500000
805.860413	505.900000
805.895996	501.200000
805.931641	502.300000
805.967224	510.900000
806.002869	499.300000
806.038452	505.200000
806.074036	503.400000
806.109619	492.000000
806.145264	492.000000
806.180847	491.600000
806.216431	492.500000
806.252014	493.000000
806.287659	488.800000
806.323181	497.900000
806.358826	489.400000
806.394409	479.600000
806.429993	484.800000
806.465576	493.000000
806.501160	481.100000
806.536743	469.600000
806.572327	477.500000
806.607910	474.100000
806.643494	475.100000
806.679077	469.300000
806.714661	472.300000
806.750244	470.500000
806.785828	464.200000
806.821350	464.800000
806.856934	469.500000
806.892517	465.700000
806.928101	460.900000
806.963684	460.800000
806.999268	465.300000
807.034790	451.300000
807.070374	457.200000
807.105896	448.200000
807.141479	450.500000
807.177063	453.200000
807.212585	448.800000
807.248169	447.700000
807.283752	447.900000
807.319275	441.400000
807.354858	444.800000
807.390381	440.400000
807.425903	441.100000
807.461487	436.200000
807.497070	430.500000
807.532593	432.500000
807.568115	431.400000
807.603699	426.200000
807.639221	427.000000
807.674744	429.100000
807.710266	431.200000
807.745850	429.600000
807.781372	424.600000
807.816895	422.800000
807.852417	424.600000
807.888000	423.000000
807.923523	418.300000
807.959045	421.700000
807.994629	416.100000
808.030090	411.000000
808.065613	416.100000
808.101135	418.900000
808.136658	416.500000
808.172241	413.300000
808.207764	413.400000
808.243225	411.000000
808.278809	406.200000
808.314270	414.600000
808.349792	402.300000
808.385315	404.500000
808.420837	409.400000
808.456360	410.400000
808.491882	409.400000
808.527344	406.300000
808.562866	412.400000
808.598389	405.300000
808.633850	403.100000
808.669434	400.400000
808.704895	405.400000
808.740417	408.300000
808.775940	402.200000
808.811462	396.300000
808.846924	391.700000
808.882385	391.900000
808.917847	391.000000
808.953369	394.900000
808.988892	387.200000
809.024353	390.100000
809.059875	393.900000
809.095398	390.800000
809.130798	386.100000
809.166321	386.300000
809.201843	385.400000
809.237305	387.200000
809.272766	390.000000
809.308228	379.600000
809.343750	380.400000
809.379211	382.300000
809.414734	379.500000
809.450134	385.200000
809.485657	373.400000
809.521118	379.700000
809.556580	378.400000
809.592102	377.300000
809.627502	375.300000
809.663025	370.100000
809.698486	369.100000
809.733887	363.300000
809.769409	365.500000
809.804871	360.500000
809.840271	360.900000
809.875793	360.700000
809.911194	367.800000
809.946655	358.200000
809.982178	355.200000
810.017639	359.800000
810.053040	358.900000
810.088501	356.300000
810.123901	355.600000
810.159424	348.700000
810.194885	346.600000
810.230286	351.100000
810.265747	343.900000
810.301208	343.400000
810.336609	347.700000
810.372070	342.000000
810.407532	342.600000
810.442932	343.400000
810.478394	347.400000
810.513794	341.700000
810.549255	341.200000
810.584717	337.900000
810.620117	334.600000
810.655518	339.700000
810.690979	334.700000
810.726379	333.300000
810.761841	326.700000
810.797302	328.900000
810.832642	326.600000
810.868103	336.200000
810.903564	325.800000
810.938904	329.400000
810.974365	319.800000
811.009827	323.200000
811.045166	319.400000
811.080627	314.900000
811.115967	318.900000
811.151428	324.000000
811.186829	319.200000
811.222229	316.400000
811.257629	312.600000
811.293091	318.200000
811.328430	324.400000
811.363892	317.600000
811.399292	318.100000
811.434631	310.100000
811.470093	314.900000
811.505493	309.900000
811.540833	307.100000
811.576294	313.900000
811.611694	310.100000
811.647034	304.000000
811.682434	304.100000
811.717773	306.000000
811.753235	310.600000
811.788635	304.200000
811.823975	306.200000
811.859375	310.600000
811.894775	298.700000
811.930115	301.100000
811.965515	298.000000
812.000916	303.800000
812.036255	301.000000
812.071655	300.600000
812.106995	293.300000
812.142395	294.800000
812.177795	301.100000
812.213196	296.900000
812.248474	297.100000
812.283875	289.100000
812.319214	289.900000
812.354614	291.000000
812.390015	288.500000
812.425293	287.800000
812.460693	289.500000
812.496094	285.800000
812.531433	281.200000
812.566772	281.600000
812.602173	285.000000
812.637451	281.800000
812.672852	280.800000
812.708191	281.400000
812.743530	278.100000
812.778931	272.600000
812.814270	275.400000
812.849609	279.200000
812.884949	278.900000
812.920227	269.800000
812.955627	280.500000
812.990967	273.900000
813.026306	272.000000
813.061646	262.500000
813.096985	263.200000
813.132324	258.900000
813.167664	262.600000
813.203003	267.200000
813.238281	255.400000
813.273682	257.000000
813.308960	256.700000
813.344299	257.600000
813.379639	263.600000
813.414978	256.400000
813.450256	254.600000
813.485596	258.900000
813.520874	253.800000
813.556213	257.000000
813.591614	259.800000
813.626831	252.100000
813.662170	254.900000
813.697510	259.200000
813.732788	250.200000
813.768127	254.500000
813.803467	254.100000
813.838745	250.600000
813.874084	253.600000
813.909363	250.900000
813.944641	250.600000
813.979980	243.200000
814.015320	249.000000
814.050598	248.100000
814.085876	249.000000
814.121155	246.400000
814.156494	243.300000
814.191772	245.300000
814.227051	242.200000
814.262390	244.100000
814.297668	242.600000
814.332947	244.400000
814.368225	239.900000
814.403564	240.300000
814.438782	237.400000
814.474121	239.100000
814.509338	235.400000
814.544617	243.000000
814.579956	236.900000
814.615173	244.400000
814.650513	242.300000
814.685791	234.900000
814.721008	239.000000
814.756348	237.600000
814.791626	234.000000
814.826843	235.100000
814.862122	235.800000
814.897400	233.100000
814.932678	233.700000
814.967957	236.200000
815.003235	231.800000
815.038452	230.400000
815.073730	228.000000
815.108948	236.700000
815.144226	234.200000
815.179504	236.900000
815.214722	225.600000
815.250000	225.600000
815.285278	231.000000
815.320496	226.400000
815.355774	229.400000
815.391052	228.900000
815.426270	226.500000
815.461487	227.400000
815.496765	223.500000
815.531982	222.500000
815.567261	227.100000
815.602539	231.700000
815.637695	228.100000
815.672974	227.000000
815.708191	229.800000
815.743408	230.300000
815.778687	224.900000
815.813904	230.700000
815.849121	220.000000
815.884399	219.500000
815.919556	219.400000
815.954834	222.500000
815.990051	223.700000
816.025269	227.800000
816.060486	222.000000
816.095703	221.200000
816.130920	224.400000
816.166199	219.600000
816.201416	224.000000
816.236572	226.200000
816.271851	222.600000
816.307007	225.400000
816.342224	217.900000
816.377441	221.100000
816.412659	215.000000
816.447876	224.300000
816.483093	221.400000
816.518250	221.600000
816.553467	220.800000
816.588745	224.500000
816.623901	217.900000
816.659119	213.300000
816.694275	217.000000
816.729492	214.500000
816.764709	245.500000
816.799927	213.000000
816.835083	218.300000
816.870300	213.200000
816.905457	216.600000
816.940674	218.600000
816.975830	214.000000
817.010986	214.100000
817.046204	214.000000
817.081421	213.300000
817.116577	212.000000
817.151733	219.800000
817.186951	217.400000
817.222107	217.900000
817.257324	220.100000
817.292419	217.100000
817.327637	210.600000
817.362854	214.500000
817.398010	210.700000
817.433167	215.000000
817.468323	213.100000
817.503479	212.800000
817.538635	221.200000
817.573853	216.500000
817.608948	214.700000
817.644165	213.100000
817.679321	211.300000
817.714478	211.800000
817.749634	214.900000
817.784790	225.100000
817.819946	219.400000
817.855103	207.200000
817.890198	213.100000
817.925415	208.400000
817.960571	216.200000
817.995667	215.400000
818.030823	215.200000
818.066040	210.600000
818.101135	214.900000
818.136292	212.500000
818.171448	209.200000
818.206543	211.900000
818.241699	215.600000
818.276855	214.200000
818.311951	213.700000
818.347107	209.400000
818.382263	216.700000
818.417358	217.800000
818.452515	219.100000
818.487610	218.300000
818.522766	211.400000
818.557922	219.500000
818.593018	216.400000
818.628113	214.300000
818.663269	211.400000
818.698364	213.300000
818.733521	212.500000
818.768677	213.700000
818.803711	210.900000
818.838867	209.900000
818.874023	212.700000
818.909058	210.600000
818.944214	209.500000
818.979370	215.000000
819.014404	214.600000
819.049561	210.500000
819.084595	214.800000
819.119751	207.600000
819.154846	214.900000
819.189941	211.900000
819.225037	209.900000
819.260193	204.700000
819.295227	206.800000
819.330322	203.800000
819.365479	204.500000
819.400513	238.700000
819.435608	203.800000
819.470764	202.500000
819.505798	204.700000
819.540894	207.800000
819.575989	206.500000
819.611084	213.800000
819.646179	214.700000
819.681213	209.600000
819.716309	207.500000
819.751404	207.000000
819.786438	213.100000
819.821533	205.600000
819.856628	210.700000
819.891663	213.500000
819.926758	218.400000
819.961853	215.400000
819.996887	206.000000
820.031982	212.200000
820.067017	207.800000
820.102112	240.700000
820.137207	207.400000
820.172302	221.200000
820.207275	206.500000
820.242371	204.600000
820.277405	206.700000
820.312500	209.700000
820.347534	210.300000
820.382568	213.500000
820.417664	206.700000
820.452759	209.600000
820.487732	205.600000
820.522827	207.600000
820.557861	204.500000
820.592896	206.900000
820.627930	207.700000
820.662964	204.200000
820.698059	209.200000
820.733093	206.300000
820.768127	211.000000
820.803162	207.000000
820.838196	206.200000
820.873230	208.600000
820.908264	209.400000
820.943298	207.600000
820.978333	211.000000
821.013367	207.600000
821.048401	212.300000
821.083435	210.300000
821.118469	204.000000
821.153503	210.700000
821.188477	209.500000
821.223511	203.600000
821.258484	206.800000
821.293579	207.400000
821.328613	203.300000
821.363647	206.200000
821.398621	202.900000
821.433655	204.400000
821.468628	217.300000
821.503662	205.800000
821.538696	210.600000
821.573669	202.000000
821.608704	212.000000
821.643677	205.100000
821.678650	209.300000
821.713684	212.700000
821.748718	207.200000
821.783691	207.600000
821.818726	207.900000
821.853638	207.200000
821.888672	206.000000
821.923706	207.000000
821.958618	206.700000
821.993652	205.400000
822.028687	210.800000
822.063599	214.300000
822.098633	208.100000
822.133667	205.300000
822.168579	208.200000
822.203613	208.500000
822.238586	204.300000
822.273560	209.100000
822.308533	204.200000
822.343567	204.600000
822.378479	207.300000
822.413452	205.000000
822.448425	202.000000
822.483398	209.800000
822.518372	209.500000
822.553345	204.100000
822.588318	211.600000
822.623291	205.800000
822.658203	203.900000
822.693237	206.500000
822.728210	202.200000
822.763123	206.500000
822.798096	202.400000
822.833069	207.200000
822.867981	206.600000
822.902954	208.900000
822.937927	207.900000
822.972900	214.200000
823.007874	200.500000
823.042725	210.500000
823.077698	214.200000
823.112671	203.800000
823.147583	203.700000
823.182556	208.100000
823.217529	208.500000
823.252441	205.100000
823.287415	213.700000
823.322388	207.800000
823.357239	206.500000
823.392212	212.000000
823.427185	210.400000
823.462097	203.200000
823.497009	206.700000
823.531982	204.600000
823.566895	206.500000
823.601807	202.700000
823.636719	204.100000
823.671631	207.500000
823.706604	203.500000
823.741455	208.500000
823.776428	201.000000
823.811340	206.800000
823.846252	210.700000
823.881165	211.500000
823.916138	205.100000
823.950989	211.800000
823.985901	203.200000
824.020813	204.700000
824.055725	204.800000
824.090637	200.900000
824.125610	207.900000
824.160461	206.800000
824.195374	206.800000
824.230225	207.600000
824.265198	199.300000
824.300110	201.400000
824.334961	212.700000
824.369873	196.700000
824.404785	208.200000
824.439636	208.900000
824.474548	200.800000
824.509460	198.500000
824.544312	211.000000
824.579224	206.400000
824.614075	206.900000
824.648987	203.300000
824.683899	203.900000
824.718811	201.400000
824.753662	209.100000
824.788574	209.000000
824.823364	205.700000
824.858276	200.700000
824.893188	209.400000
824.928040	208.600000
824.962952	206.400000
824.997803	209.000000
825.032654	206.900000
825.067566	205.600000
825.102417	203.800000
825.137268	204.500000
825.172119	204.300000
825.206970	201.500000
825.241882	203.300000
825.276733	200.500000
825.311646	202.000000
825.346436	198.200000
825.381348	199.100000
825.416138	202.900000
825.450989	199.500000
825.485901	196.000000
825.520691	196.900000
825.555542	198.000000
825.590454	201.700000
825.625244	197.500000
825.660095	207.200000
825.695007	205.700000
825.729797	201.200000
825.764648	198.200000
825.799438	200.600000
825.834290	202.800000
825.869202	196.000000
825.903992	201.700000
825.938843	198.500000
825.973694	197.600000
826.008484	209.700000
826.043335	198.700000
826.078186	193.700000
826.112976	206.300000
826.147827	204.800000
826.182678	208.500000
826.217468	194.300000
826.252319	206.200000
826.287109	196.500000
826.321899	203.800000
826.356750	198.600000
826.391541	195.800000
826.426392	203.000000
826.461182	198.700000
826.495972	194.400000
826.530823	192.200000
826.565613	199.700000
826.600403	194.500000
826.635254	200.800000
826.670044	192.900000
826.704834	192.900000
826.739685	193.700000
826.774475	200.700000
826.809265	196.500000
826.844055	196.500000
826.878906	202.400000
826.913635	198.600000
826.948425	198.600000
826.983215	199.200000
827.018005	199.200000
827.052856	195.300000
827.087585	199.100000
827.122375	191.500000
827.157227	195.600000
827.191956	207.700000
827.226746	191.900000
827.261536	199.200000
827.296265	191.600000
827.331116	194.400000
827.365906	197.400000
827.400635	194.700000
827.435425	188.400000
827.470215	200.700000
827.504944	193.400000
827.539734	200.400000
827.574463	194.200000
827.609253	203.500000
827.644043	196.300000
827.678772	199.600000
827.713562	193.700000
827.748352	194.000000
827.783081	192.400000
827.817871	195.900000
827.852600	191.900000
827.887329	196.300000
827.922119	187.600000
827.956848	197.700000
827.991638	205.900000
828.026367	196.700000
828.061157	195.400000
828.095886	194.400000
828.130615	207.800000
828.165344	188.200000
828.200073	195.000000
828.234863	193.700000
828.269592	194.000000
828.304321	196.800000
828.339111	197.000000
828.373779	191.500000
828.408569	197.800000
828.443298	198.800000
828.477966	192.600000
828.512756	196.300000
828.547424	190.800000
828.582214	192.100000
828.616943	194.000000
828.651672	194.900000
828.686340	197.900000
828.721130	191.500000
828.755798	196.900000
828.790527	194.500000
828.825256	198.500000
828.859924	195.200000
828.894714	199.800000
828.929443	202.300000
828.964111	194.400000
828.998840	198.000000
829.033569	194.000000
829.068237	194.300000
829.102966	194.100000
829.137634	196.100000
829.172363	197.500000
829.207092	196.800000
829.241821	191.900000
829.276489	190.000000
829.311157	196.400000
829.345825	193.400000
829.380554	198.100000
829.415283	192.500000
829.449951	189.500000
829.484619	202.800000
829.519348	201.000000
829.554016	194.900000
829.588745	196.100000
829.623413	191.200000
829.658081	202.300000
829.692749	191.300000
829.727417	199.600000
829.762146	195.300000
829.796814	192.900000
829.831482	194.200000
829.866150	195.500000
829.900879	193.400000
829.935486	195.600000
829.970154	193.000000
830.004883	203.600000
830.039490	196.900000
830.074219	190.700000
830.108887	196.800000
830.143494	194.000000
830.178223	191.200000
830.212891	193.900000
830.247498	195.100000
830.282166	200.400000
830.316772	200.000000
830.351501	193.200000
830.386169	195.200000
830.420776	194.100000
830.455444	195.900000
830.490112	192.700000
830.524719	189.200000
830.559387	196.100000
830.594055	196.700000
830.628662	194.400000
830.663330	194.800000
830.697998	201.300000
830.732605	194.400000
830.767273	197.500000
830.801941	193.600000
830.836487	204.100000
830.871155	196.700000
830.905762	196.600000
830.940430	190.500000
830.975098	191.800000
831.009644	195.900000
831.044312	202.600000
831.078979	197.400000
831.113525	188.700000
831.148193	195.400000
831.182861	195.100000
831.217407	197.300000
831.252075	207.200000
831.286621	191.200000
831.321289	191.600000
831.355896	194.900000
831.390564	200.200000
831.425110	195.300000
831.459778	201.300000
831.494324	205.600000
831.528931	196.800000
831.563599	199.000000
831.598145	190.200000
831.632751	194.600000
831.667419	194.800000
831.701965	196.900000
831.736572	199.600000
831.771179	190.300000
831.805786	193.300000
831.840393	200.700000
831.874939	189.400000
831.909546	199.200000
831.944153	189.200000
831.978760	195.300000
832.013306	191.400000
832.047913	200.000000
832.082458	202.900000
832.117065	192.600000
832.151672	201.700000
832.186218	197.600000
832.220825	198.300000
832.255432	189.000000
832.289978	192.100000
832.324585	197.700000
832.359192	196.400000
832.393677	195.400000
832.428284	196.000000
832.462830	194.200000
832.497437	193.200000
832.531982	198.900000
832.566589	193.300000
832.601135	197.200000
832.635681	188.700000
832.670227	195.100000
832.704773	200.800000
832.739380	196.600000
832.773926	194.400000
832.808472	192.600000
832.843079	196.300000
832.877563	196.900000
832.912170	193.600000
832.946716	190.000000
832.981201	200.000000
833.015808	198.900000
833.050293	195.600000
833.084839	192.600000
833.119446	194.000000
833.153992	198.900000
833.188477	194.700000
833.223022	193.300000
833.257568	196.400000
833.292114	202.200000
833.326660	204.700000
833.361145	193.900000
833.395691	188.700000
833.430237	196.000000
833.464783	196.600000
833.499329	193.200000
833.533875	192.200000
833.568359	197.700000
833.602905	199.500000
833.637390	199.000000
833.671875	194.200000
833.706421	192.500000
833.740906	193.800000
833.775452	187.800000
833.809998	193.700000
833.844482	200.400000
833.879028	195.100000
833.913513	192.300000
833.947998	197.200000
833.982544	191.000000
834.017090	193.300000
834.051514	188.000000
834.086060	198.100000
834.120544	193.300000
834.155029	197.700000
834.189575	192.700000
834.223999	197.000000
834.258545	195.200000
834.293030	196.400000
834.327515	194.800000
834.362000	194.000000
834.396545	197.100000
834.430969	194.900000
834.465454	199.400000
834.500000	188.800000
834.534424	196.700000
834.568970	187.500000
834.603455	188.700000
834.637878	193.300000
834.672363	195.500000
834.706909	195.600000
834.741333	193.700000
834.775818	189.700000
834.810242	193.100000
834.844727	195.800000
834.879211	193.200000
834.913635	196.600000
834.948181	195.800000
834.982666	196.200000
835.017090	194.600000
835.051575	196.700000
835.086060	193.400000
835.120483	196.400000
835.154907	197.600000
835.189331	194.100000
835.223816	197.500000
835.258301	190.900000
835.292786	192.000000
835.327209	196.800000
835.361694	193.400000
835.396057	192.600000
835.430542	197.600000
835.465027	193.300000
835.499390	191.700000
835.533875	219.200000
835.568359	192.800000
835.602722	189.900000
835.637207	195.500000
835.671692	190.000000
835.706055	210.400000
835.740540	196.300000
835.774902	198.000000
835.809387	195.200000
835.843811	190.600000
835.878235	199.500000
835.912659	191.200000
835.947083	192.600000
835.981506	195.500000
836.015930	189.600000
836.050354	199.300000
836.084778	201.600000
836.119202	199.300000
836.153625	209.600000
836.187988	192.400000
836.222473	192.500000
836.256897	196.300000
836.291260	194.700000
836.325684	197.200000
836.360046	193.500000
836.394470	195.200000
836.428894	200.400000
836.463318	192.800000
836.497681	197.900000
836.532104	199.100000
836.566467	196.200000
836.600891	192.500000
836.635315	199.500000
836.669678	196.400000
836.704102	198.600000
836.738525	195.500000
836.772888	187.800000
836.807251	192.400000
836.841675	198.000000
836.876038	191.200000
836.910461	192.500000
836.944763	197.000000
836.979187	191.500000
837.013611	199.600000
837.047974	190.500000
837.082336	204.400000
837.116699	197.900000
837.151062	194.800000
837.185486	191.100000
837.219849	192.800000
837.254211	198.400000
837.288574	195.000000
837.322937	190.800000
837.357300	187.000000
837.391663	206.000000
837.426086	201.000000
837.460388	196.000000
837.494751	198.500000
837.529114	193.700000
837.563477	200.900000
837.597839	196.200000
837.632141	195.200000
837.666565	194.200000
837.700928	197.900000
837.735229	196.300000
837.769592	196.800000
837.803955	197.900000
837.838257	192.800000
837.872620	192.700000
837.906982	201.600000
837.941284	194.100000
837.975647	196.600000
838.010010	199.200000
838.044312	193.400000
838.078674	191.800000
838.112976	196.700000
838.147339	196.600000
838.181702	195.300000
838.216003	202.000000
838.250366	197.000000
838.284668	197.000000
838.318970	190.500000
838.353333	193.200000
838.387634	195.300000
838.421936	195.600000
838.456299	197.400000
838.490601	200.200000
838.524902	199.200000
838.559265	199.500000
838.593567	198.700000
838.627869	189.700000
838.662170	198.400000
838.696472	189.800000
838.730774	193.200000
838.765137	197.500000
838.799377	185.200000
838.833740	195.300000
838.868042	200.100000
838.902283	189.900000
838.936646	201.700000
838.970947	196.800000
839.005188	200.700000
839.039551	189.000000
839.073792	200.000000
839.108093	194.000000
839.142395	202.200000
839.176697	190.400000
839.210937	195.900000
839.245300	203.100000
839.279541	189.800000
839.313843	195.400000
839.348145	197.000000
839.382385	198.700000
839.416687	199.600000
839.450989	197.500000
839.485229	193.600000
839.519531	192.300000
839.553833	198.400000
839.588013	194.200000
839.622314	195.400000
839.656555	196.400000
839.690857	194.900000
839.725159	191.600000
839.759460	193.700000
839.793640	193.400000
839.827942	195.400000
839.862183	191.400000
839.896423	195.200000
839.930725	206.800000
839.964966	201.700000
839.999207	199.600000
840.033508	200.500000
840.067688	192.300000
840.101990	201.400000
840.136230	196.100000
840.170471	201.800000
840.204712	192.300000
840.238953	192.700000
840.273193	196.500000
840.307434	198.200000
840.341736	193.600000
840.375916	190.000000
840.410217	192.400000
840.444397	199.700000
840.478638	197.900000
840.512878	199.600000
840.547119	195.000000
840.581360	197.500000
840.615601	201.900000
840.649780	205.500000
840.684021	194.500000
840.718262	201.100000
840.752441	200.500000
840.786682	197.200000
840.820862	194.900000
840.855103	202.000000
840.889343	195.600000
840.923584	200.100000
840.957764	195.700000
840.992004	197.600000
841.026184	206.100000
841.060425	194.600000
841.094666	191.700000
841.128845	198.100000
841.163025	196.100000
841.197266	199.900000
841.231445	195.000000
841.265686	197.600000
841.299866	193.400000
841.334045	202.000000
841.368286	194.500000
841.402405	202.100000
841.436646	197.500000
841.470825	195.000000
841.505005	195.000000
841.539185	192.900000
841.573425	193.300000
841.607544	196.100000
841.641785	193.300000
841.675964	192.100000
841.710144	195.700000
841.744324	192.900000
841.778503	194.400000
841.812683	193.100000
841.846863	201.600000
841.881042	200.700000
841.915222	193.700000
841.949402	205.900000
841.983521	188.700000
842.017700	193.400000
842.051880	196.000000
842.086060	197.400000
842.120239	196.700000
842.154419	192.700000
842.188538	196.700000
842.222717	191.400000
842.256897	203.700000
842.291016	194.900000
842.325195	196.500000
842.359375	204.200000
842.393494	202.800000
842.427673	195.800000
842.461853	198.200000
842.495911	203.100000
842.530090	198.400000
842.564209	194.000000
842.598389	197.400000
842.632568	195.700000
842.666626	199.400000
842.700806	191.900000
842.734985	194.400000
842.769043	198.600000
842.803223	195.200000
842.837402	195.100000
842.871460	194.300000
842.905640	203.700000
842.939697	192.900000
842.973877	196.400000
843.007996	200.800000
843.042175	204.400000
843.076233	192.900000
843.110413	197.900000
843.144470	202.800000
843.178589	200.300000
843.212769	193.700000
843.246826	200.100000
843.280945	193.800000
843.315125	194.800000
843.349182	192.800000
843.383301	201.400000
843.417419	205.300000
843.451538	195.500000
843.485657	193.600000
843.519714	195.900000
843.553833	195.600000
843.587952	194.200000
843.622070	193.100000
843.656128	199.000000
843.690247	194.000000
843.724304	196.800000
843.758423	198.000000
843.792542	194.600000
843.826599	195.800000
843.860718	194.400000
843.894836	189.200000
843.928894	198.000000
843.963013	197.000000
843.997070	193.600000
844.031128	191.600000
844.065247	201.100000
844.099304	198.800000
844.133362	197.700000
844.167480	198.200000
844.201599	201.100000
844.235596	197.000000
844.269714	198.000000
844.303711	196.400000
844.337830	190.400000
844.371948	198.100000
844.405945	196.800000
844.440063	192.300000
844.474121	206.900000
844.508118	194.500000
844.542236	196.600000
844.576294	196.100000
844.610352	192.300000
844.644409	196.000000
844.678406	189.400000
844.712524	199.900000
844.746582	202.000000
844.780640	194.900000
844.814636	195.300000
844.848755	205.500000
844.882751	193.500000
844.916809	199.700000
844.950867	197.300000
844.984863	204.200000
845.018921	193.500000
845.052979	192.800000
845.086975	195.900000
845.121033	190.600000
845.155090	193.300000
845.189087	201.600000
845.223145	193.500000
845.257141	198.300000
845.291199	198.800000
845.325256	201.600000
845.359253	197.200000
845.393250	208.200000
845.427307	195.600000
845.461304	198.000000
845.495361	196.000000
845.529358	204.400000
845.563354	194.500000
845.597412	193.300000
845.631409	202.900000
845.665405	203.000000
845.699463	198.900000
845.733459	196.100000
845.767456	204.100000
845.801453	195.500000
845.835449	201.500000
845.869446	198.400000
845.903503	200.100000
845.937439	193.600000
845.971497	201.400000
846.005493	191.800000
846.039429	200.000000
846.073486	203.900000
846.107483	195.400000
846.141418	194.400000
846.175476	195.600000
846.209473	200.100000
846.243408	193.400000
846.277405	196.700000
846.311401	193.700000
846.345337	195.900000
846.379395	201.100000
846.413330	192.600000
846.447327	204.200000
846.481323	193.600000
846.515259	193.900000
846.549255	195.700000
846.583252	201.200000
846.617187	192.600000
846.651184	197.900000
846.685120	193.700000
846.719055	204.300000
846.753052	200.400000
846.786987	199.500000
846.820984	191.900000
846.854980	201.800000
846.888916	191.900000
846.922852	199.100000
846.956848	200.400000
846.990723	194.300000
847.024719	198.300000
847.058716	195.100000
847.092590	200.800000
847.126587	198.100000
847.160522	193.700000
847.194458	199.300000
847.228455	193.300000
847.262390	191.200000
847.296265	195.300000
847.330261	198.300000
847.364136	194.400000
847.398132	194.900000
847.432068	197.400000
847.466003	193.300000
847.499939	195.300000
847.533875	199.500000
847.567749	193.700000
847.601746	193.200000
847.635681	197.600000
847.669556	189.800000
847.703491	202.200000
847.737427	207.000000
847.771301	192.100000
847.805237	198.900000
847.839233	197.300000
847.873108	194.200000
847.907043	196.100000
847.940918	201.700000
847.974854	197.700000
848.008789	199.100000
848.042664	195.100000
848.076538	198.000000
848.110474	195.900000
848.144348	197.400000
848.178284	191.500000
848.212219	198.100000
848.246094	194.200000
848.279968	197.000000
848.313904	199.300000
848.347778	195.800000
848.381653	195.100000
848.415588	193.300000
848.449463	193.900000
848.483337	198.400000
848.517212	202.800000
848.551086	197.200000
848.585022	191.300000
848.618835	206.300000
848.652771	195.200000
848.686646	192.500000
848.720520	201.300000
848.754395	195.300000
848.788330	199.000000
848.822144	200.200000
848.856018	194.300000
848.889954	203.500000
848.923767	192.300000
848.957642	193.800000
848.991577	197.900000
849.025391	195.900000
849.059265	194.500000
849.093079	193.700000
849.126953	191.500000
849.160828	201.100000
849.194641	196.600000
849.228577	194.300000
849.262451	194.400000
849.296265	195.800000
849.330139	192.500000
849.364014	198.100000
849.397827	197.100000
849.431702	197.300000
849.465515	200.200000
849.499329	191.000000
849.533203	192.100000
849.567078	188.500000
849.600891	198.100000
849.634766	195.600000
849.668518	198.900000
849.702393	196.700000
849.736267	189.400000
849.770020	205.900000
849.803894	199.700000
849.837769	198.700000
849.871521	197.000000
849.905396	198.700000
849.939270	193.500000
849.973022	195.600000
850.006897	199.600000
850.040710	199.900000
850.074524	200.200000
850.108337	195.400000
850.142151	200.100000
850.175964	201.900000
850.209778	194.700000
850.243530	187.600000
850.277405	199.500000
850.311218	195.500000
850.344971	195.600000
850.378845	202.300000
850.412659	193.300000
850.446411	197.200000
850.480225	195.300000
850.514038	200.500000
850.547791	199.700000
850.581665	195.000000
850.615417	193.800000
850.649231	197.500000
850.683044	194.900000
850.716858	194.600000
850.750610	198.500000
850.784424	198.500000
850.818176	194.800000
850.851929	193.400000
850.885742	192.700000
850.919495	195.400000
850.953308	203.100000
850.987122	202.900000
851.020874	192.600000
851.054626	191.300000
851.088440	198.500000
851.122192	199.200000
851.156006	196.900000
851.189697	196.200000
851.223511	193.500000
851.257263	199.000000
851.291077	198.600000
851.324829	195.300000
851.358582	194.800000
851.392334	195.200000
851.426086	194.800000
851.459900	202.900000
851.493591	196.100000
851.527344	196.200000
851.561157	195.800000
851.594849	198.600000
851.628662	197.100000
851.662415	204.400000
851.696106	196.200000
851.729858	200.500000
851.763611	191.100000
851.797363	196.700000
851.831116	191.100000
851.864868	199.500000
851.898560	201.100000
851.932312	195.600000
851.966064	197.600000
851.999817	195.800000
852.033569	194.400000
852.067261	203.000000
852.101013	193.100000
852.134766	196.500000
852.168457	189.200000
852.202209	201.700000
852.235901	192.900000
852.269592	198.600000
852.303345	204.100000
852.337036	199.800000
852.370789	197.000000
852.404541	201.400000
852.438171	192.500000
852.471924	196.700000
852.505676	192.200000
852.539307	199.300000
852.573059	194.400000
852.606812	194.800000
852.640442	195.900000
852.674194	201.300000
852.707886	205.300000
852.741577	201.100000
852.775269	192.700000
852.809021	196.900000
852.842651	198.900000
852.876404	202.600000
852.910034	197.700000
852.943787	200.900000
852.977478	199.800000
853.011108	194.300000
853.044861	193.900000
853.078552	201.800000
853.112183	197.800000
853.145874	196.800000
853.179626	191.400000
853.213257	196.600000
853.246948	194.200000
853.280640	202.600000
853.314270	197.400000
853.347961	201.900000
853.381653	198.900000
853.415283	202.800000
853.448975	194.300000
853.482605	197.800000
853.516296	197.500000
853.549988	191.400000
853.583618	199.800000
853.617310	198.400000
853.651001	198.100000
853.684631	192.100000
853.718323	194.300000
853.751953	201.900000
853.785583	190.400000
853.819275	199.900000
853.852966	197.800000
853.886536	189.100000
853.920227	191.500000
853.953918	199.800000
853.987488	195.200000
854.021179	199.500000
854.054749	202.200000
854.088440	199.600000
854.122131	192.700000
854.155701	199.200000
854.189331	193.100000
854.223022	200.300000
854.256592	198.200000
854.290283	194.800000
854.323914	198.400000
854.357483	196.500000
854.391174	197.400000
854.424744	202.100000
854.458374	196.700000
854.492065	208.100000
854.525696	194.100000
854.559265	202.000000
854.592896	206.300000
854.626465	195.900000
854.660095	195.300000
854.693787	198.800000
854.727356	194.800000
854.760986	201.700000
854.794617	197.800000
854.828186	195.900000
854.861816	199.800000
854.895447	199.000000
854.929016	197.900000
854.962585	198.600000
854.996155	204.700000
855.029785	197.700000
855.063416	197.400000
855.097046	199.500000
855.130615	192.700000
855.164185	200.800000
855.197754	196.300000
855.231384	198.600000
855.264954	195.000000
855.298523	199.700000
855.332153	198.200000
855.365723	201.800000
855.399292	193.800000
855.432922	195.300000
855.466492	199.300000
855.500061	193.400000
855.533630	193.600000
855.567200	199.000000
855.600769	200.400000
855.634338	200.600000
855.667969	196.900000
855.701477	194.500000
855.735046	193.800000
855.768616	189.300000
855.802185	197.900000
855.835754	207.500000
855.869324	190.100000
855.902893	194.800000
855.936401	201.000000
855.969971	195.100000
856.003540	190.700000
856.037109	199.500000
856.070618	196.100000
856.104187	192.700000
856.137695	195.000000
856.171265	189.800000
856.204834	197.500000
856.238403	200.200000
856.271912	195.000000
856.305481	198.900000
856.338989	193.100000
856.372559	198.200000
856.406128	198.300000
856.439636	199.800000
856.473145	195.200000
856.506653	202.900000
856.540222	196.800000
856.573792	200.900000
856.607300	200.000000
856.640808	192.500000
856.674377	197.100000
856.707825	230.900000
856.741394	201.100000
856.774902	193.200000
856.808472	190.200000
856.841980	200.000000
856.875488	201.700000
856.908936	191.600000
856.942505	193.900000
856.976013	196.400000
857.009521	192.400000
857.043030	196.000000
857.076477	194.700000
857.110046	203.200000
857.143555	197.200000
857.177063	198.000000
857.210571	195.100000
857.244080	191.500000
857.277527	197.200000
857.311035	195.800000
857.344543	201.500000
857.378052	196.000000
857.411499	201.200000
857.445068	203.000000
857.478516	195.600000
857.512024	192.300000
857.545532	193.900000
857.578979	198.600000
857.612427	197.400000
857.645874	194.400000
857.679382	197.200000
857.712891	201.000000
857.746399	196.400000
857.779846	200.900000
857.813354	200.700000
857.846741	197.500000
857.880249	194.100000
857.913757	198.700000
857.947266	197.900000
857.980652	198.500000
858.014160	195.400000
858.047546	195.100000
858.081055	195.000000
858.114563	206.700000
858.147949	192.000000
858.181458	198.300000
858.214844	195.900000
858.248352	189.900000
858.281799	199.600000
858.315308	204.700000
858.348694	199.900000
858.382141	203.600000
858.415588	199.900000
858.449036	199.900000
858.482483	197.700000
858.515930	193.900000
858.549377	196.700000
858.582825	200.800000
858.616211	200.700000
858.649658	199.000000
858.683105	192.700000
858.716553	193.700000
858.750000	192.400000
858.783386	194.000000
858.816833	190.700000
858.850281	195.300000
858.883728	198.900000
858.917114	197.100000
858.950562	203.500000
858.983948	201.900000
859.017395	201.300000
859.050781	194.800000
859.084167	192.800000
859.117615	192.400000
859.151062	199.200000
859.184448	193.400000
859.217834	196.300000
859.251282	193.800000
859.284668	192.900000
859.318054	189.700000
859.351440	195.700000
859.384888	203.100000
859.418274	190.400000
859.451721	190.300000
859.485046	197.600000
859.518494	199.100000
859.551819	193.400000
859.585266	199.500000
859.618652	199.700000
859.652039	191.200000
859.685425	190.900000
859.718811	192.100000
859.752197	187.000000
859.785583	199.500000
859.819031	202.000000
859.852356	198.500000
859.885742	192.800000
859.919067	197.200000
859.952454	195.000000
859.985901	200.500000
860.019287	197.200000
860.052612	0.000000
860.085999	0.000000
860.119324	0.000000
860.152710	0.000000
860.186096	0.000000
860.219421	0.000000
860.252808	0.000000
860.286133	0.000000
860.319519	0.000000
860.352905	0.000000
860.386292	0.000000
860.419617	0.000000
860.452942	0.000000
860.486267	0.000000
860.519653	0.000000
860.553040	0.000000
860.586365	0.000000
860.619690	0.000000
860.653076	0.000000
860.686340	0.000000
860.719727	0.000000
860.753113	0.000000
860.786377	0.000000
860.819763	0.000000
860.853027	0.000000
860.886414	0.000000
860.919739	0.000000
860.953125	0.000000
860.986389	0.000000
861.019714	0.000000
861.053040	0.000000
861.086365	0.000000
861.119690	0.000000
861.153076	0.000000
861.186340	0.000000
861.219666	0.000000
861.252930	0.000000
861.286316	0.000000
861.319641	0.000000
861.352905	0.000000
861.386230	0.000000
861.419495	0.000000
861.452820	0.000000
861.486145	0.000000
861.519470	0.000000
861.552734	0.000000
861.586060	0.000000
861.619324	0.000000
861.652649	0.000000
861.685974	0.000000
861.719238	0.000000
861.752563	0.000000
861.785828	0.000000
861.819092	0.000000
861.852417	0.000000
861.885742	0.000000
861.918945	0.000000
861.952271	0.000000
861.985535	0.000000
862.018799	0.000000
862.052124	0.000000
862.085449	0.000000
862.118652	0.000000
862.151978	0.000000
862.185181	0.000000
862.218506	0.000000
862.251770	0.000000
862.285034	0.000000
862.318298	0.000000
862.351562	0.000000
862.384827	0.000000
862.418091	0.000000
862.451355	0.000000
862.484619	0.000000
862.517883	0.000000
862.551086	0.000000
862.584351	0.000000
862.617676	0.000000
862.650940	0.000000
862.684143	0.000000
862.717407	0.000000
862.750610	0.000000
862.783875	0.000000
862.817139	0.000000
862.850342	0.000000
862.883606	0.000000
862.916870	0.000000
862.950073	0.000000
862.983337	0.000000
863.016602	0.000000
863.049805	0.000000
863.083069	0.000000
863.116211	0.000000
863.149475	0.000000
863.182739	0.000000
863.216003	0.000000
863.249146	0.000000
863.282410	0.000000
863.315613	0.000000
863.348816	0.000000
863.382080	0.000000
863.415222	0.000000
863.448486	0.000000
863.481689	0.000000
863.514893	0.000000
863.548157	0.000000
863.581360	0.000000
863.614502	0.000000
863.647766	0.000000
863.680908	0.000000
863.714172	0.000000
863.747375	0.000000
863.780579	0.000000
863.813721	0.000000
863.846985	0.000000
863.880127	0.000000
863.913330	0.000000
863.946533	0.000000
863.979675	0.000000
864.012939	0.000000
