Model Number: SPM-001-M   
Serial Number: 10090201
Firmware Version: 004.17.6
Exposure Time: 300000.000000us
Data Taken on: 28-01-2021 09:43:02.913
Wavelength	Amplitude
733.770752	0.000000
733.808716	0.000000
733.846619	0.000000
733.884583	0.000000
733.922546	0.000000
733.960449	0.000000
733.998413	0.000000
734.036377	0.000000
734.074219	0.000000
734.112183	0.000000
734.150085	0.000000
734.188049	0.000000
734.226013	0.000000
734.263916	0.000000
734.301819	0.000000
734.339783	0.000000
734.377686	0.000000
734.415588	0.000000
734.453552	0.000000
734.491455	0.000000
734.529419	0.000000
734.567322	0.000000
734.605225	0.000000
734.643127	0.000000
734.681091	0.000000
734.718994	0.000000
734.756897	0.000000
734.794800	0.000000
734.832703	0.000000
734.870667	0.000000
734.908508	0.000000
734.946472	0.000000
734.984375	0.000000
735.022278	0.000000
735.060181	0.000000
735.098083	0.000000
735.135986	0.000000
735.173889	0.000000
735.211792	0.000000
735.249695	0.000000
735.287598	0.000000
735.325439	0.000000
735.363403	0.000000
735.401306	0.000000
735.439148	0.000000
735.477051	0.000000
735.515015	0.000000
735.552856	0.000000
735.590759	0.000000
735.628662	0.000000
735.666504	0.000000
735.704407	0.000000
735.742310	0.000000
735.780212	0.000000
735.818115	0.000000
735.856018	0.000000
735.893860	0.000000
735.931763	0.000000
735.969604	0.000000
736.007507	0.000000
736.045410	0.000000
736.083252	0.000000
736.121094	0.000000
736.158997	0.000000
736.196838	0.000000
736.234741	0.000000
736.272644	0.000000
736.310486	0.000000
736.348389	0.000000
736.386230	0.000000
736.424072	0.000000
736.461975	0.000000
736.499878	0.000000
736.537720	0.000000
736.575562	0.000000
736.613403	0.000000
736.651306	0.000000
736.689148	0.000000
736.726990	0.000000
736.764893	0.000000
736.802734	0.000000
736.840576	0.000000
736.878418	0.000000
736.916321	0.000000
736.954102	0.000000
736.992004	0.000000
737.029846	0.000000
737.067688	0.000000
737.105530	0.000000
737.143372	0.000000
737.181213	0.000000
737.219116	0.000000
737.256897	0.000000
737.294739	0.000000
737.332642	0.000000
737.370422	0.000000
737.408325	0.000000
737.446167	0.000000
737.483948	0.000000
737.521790	0.000000
737.559692	0.000000
737.597473	0.000000
737.635315	0.000000
737.673157	0.000000
737.710999	0.000000
737.748840	0.000000
737.786621	0.000000
737.824463	0.000000
737.862305	0.000000
737.900085	0.000000
737.937927	0.000000
737.975769	0.000000
738.013550	0.000000
738.051392	0.000000
738.089233	0.000000
738.127014	0.000000
738.164856	0.000000
738.202698	0.000000
738.240479	0.000000
738.278320	0.000000
738.316162	0.000000
738.353943	0.000000
738.391785	0.000000
738.429565	0.000000
738.467407	0.000000
738.505188	0.000000
738.542969	0.000000
738.580811	0.000000
738.618652	0.000000
738.656372	0.000000
738.694214	0.000000
738.732056	0.000000
738.769836	0.000000
738.807617	0.000000
738.845459	0.000000
738.883240	0.000000
738.921021	0.000000
738.958862	0.000000
738.996582	0.000000
739.034424	0.000000
739.072205	0.000000
739.109985	0.000000
739.147827	0.000000
739.185547	0.000000
739.223389	0.000000
739.261169	0.000000
739.298889	0.000000
739.336731	0.000000
739.374512	0.000000
739.412292	0.000000
739.450073	0.000000
739.487854	0.000000
739.525635	0.000000
739.563416	0.000000
739.601135	0.000000
739.638977	0.000000
739.676758	0.000000
739.714478	0.000000
739.752258	0.000000
739.790100	0.000000
739.827820	0.000000
739.865601	0.000000
739.903381	0.000000
739.941101	0.000000
739.978882	182.000000
740.016724	179.800000
740.054443	182.500000
740.092224	180.000000
740.130005	176.500000
740.167725	178.500000
740.205505	177.100000
740.243225	184.800000
740.281006	181.000000
740.318787	176.000000
740.356506	185.900000
740.394287	183.400000
740.432068	177.800000
740.469727	176.900000
740.507507	181.900000
740.545288	180.000000
740.583008	182.000000
740.620789	179.900000
740.658569	176.100000
740.696228	182.100000
740.734009	184.900000
740.771790	172.100000
740.809509	183.100000
740.847229	175.700000
740.884949	179.100000
740.922729	175.300000
740.960449	179.900000
740.998169	178.300000
741.035950	178.400000
741.073669	179.500000
741.111389	181.700000
741.149170	188.200000
741.186890	186.300000
741.224609	183.300000
741.262329	182.000000
741.300110	186.300000
741.337769	178.300000
741.375549	175.600000
741.413208	181.200000
741.450989	178.000000
741.488708	179.200000
741.526367	178.600000
741.564148	183.100000
741.601868	182.300000
741.639526	179.600000
741.677307	182.400000
741.715027	182.700000
741.752686	176.100000
741.790466	185.200000
741.828186	180.400000
741.865845	177.500000
741.903564	173.900000
741.941345	179.500000
741.979004	177.200000
742.016724	183.200000
742.054382	179.800000
742.092102	182.700000
742.129822	174.400000
742.167480	179.700000
742.205200	178.300000
742.242920	181.000000
742.280640	182.000000
742.318359	177.300000
742.356079	179.000000
742.393738	183.500000
742.431396	179.000000
742.469116	182.900000
742.506775	174.200000
742.544495	181.500000
742.582214	183.500000
742.619873	181.000000
742.657593	185.200000
742.695251	183.400000
742.732971	179.300000
742.770630	180.400000
742.808289	181.700000
742.846008	179.500000
742.883728	180.900000
742.921326	180.400000
742.959045	179.600000
742.996765	179.400000
743.034424	181.100000
743.072083	179.000000
743.109802	181.500000
743.147400	176.900000
743.185120	182.900000
743.222839	180.500000
743.260437	186.700000
743.298157	180.800000
743.335754	175.200000
743.373474	179.800000
743.411133	176.500000
743.448792	180.200000
743.486450	181.400000
743.524170	175.200000
743.561768	180.100000
743.599487	183.500000
743.637146	187.700000
743.674744	178.900000
743.712463	179.200000
743.750122	180.200000
743.787720	179.900000
743.825439	178.200000
743.863037	178.900000
743.900696	180.100000
743.938416	203.500000
743.976013	179.700000
744.013672	184.800000
744.051331	183.300000
744.088928	186.900000
744.126587	183.900000
744.164307	182.000000
744.201904	178.700000
744.239563	182.500000
744.277222	182.800000
744.314819	179.200000
744.352478	184.800000
744.390137	181.200000
744.427734	182.000000
744.465393	177.900000
744.502991	177.900000
744.540649	181.900000
744.578308	180.600000
744.615906	176.200000
744.653564	174.200000
744.691223	182.500000
744.728821	176.800000
744.766418	180.500000
744.804077	182.700000
744.841675	179.100000
744.879333	175.700000
744.916992	179.500000
744.954529	179.500000
744.992187	183.600000
745.029785	180.900000
745.067444	179.400000
745.105042	181.600000
745.142639	181.600000
745.180298	188.600000
745.217896	180.100000
745.255493	180.700000
745.293152	183.500000
745.330750	184.300000
745.368347	184.800000
745.405945	182.700000
745.443604	180.900000
745.481140	184.100000
745.518799	180.600000
745.556396	183.700000
745.593994	182.800000
745.631592	181.100000
745.669189	177.500000
745.706787	181.000000
745.744385	177.500000
745.781982	183.000000
745.819580	179.000000
745.857178	179.900000
745.894775	180.900000
745.932373	181.500000
745.969971	180.000000
746.007568	175.700000
746.045166	187.000000
746.082764	185.100000
746.120300	181.700000
746.157898	181.900000
746.195557	180.600000
746.233093	176.800000
746.270691	182.400000
746.308228	181.300000
746.345825	183.700000
746.383423	181.600000
746.420959	178.700000
746.458557	178.200000
746.496155	177.700000
746.533691	180.700000
746.571289	177.800000
746.608887	180.200000
746.646423	183.500000
746.684021	182.000000
746.721619	179.100000
746.759155	182.400000
746.796753	177.700000
746.834351	177.300000
746.871826	177.800000
746.909424	184.500000
746.946960	181.000000
746.984558	179.900000
747.022156	179.200000
747.059631	185.600000
747.097229	181.700000
747.134827	179.400000
747.172363	184.900000
747.209900	183.000000
747.247498	178.300000
747.285034	183.800000
747.322571	184.700000
747.360168	178.800000
747.397644	176.200000
747.435242	183.300000
747.472778	185.200000
747.510315	179.000000
747.547913	178.600000
747.585388	184.400000
747.622925	178.400000
747.660522	174.500000
747.697998	177.600000
747.735596	180.500000
747.773132	177.100000
747.810669	179.500000
747.848206	182.300000
747.885742	178.000000
747.923279	177.200000
747.960815	181.400000
747.998352	181.400000
748.035889	184.500000
748.073425	182.000000
748.110901	179.400000
748.148437	178.000000
748.185974	181.300000
748.223511	186.200000
748.261047	183.000000
748.298584	180.300000
748.336060	180.100000
748.373596	181.700000
748.411133	207.300000
748.448608	178.700000
748.486145	184.500000
748.523682	184.400000
748.561218	187.700000
748.598755	180.700000
748.636292	182.000000
748.673706	179.500000
748.711243	186.900000
748.748718	181.400000
748.786255	181.200000
748.823792	179.900000
748.861267	177.600000
748.898804	182.700000
748.936340	182.000000
748.973816	179.900000
749.011292	185.600000
749.048828	180.800000
749.086304	181.800000
749.123840	186.400000
749.161316	175.900000
749.198792	187.300000
749.236328	184.000000
749.273743	179.600000
749.311279	180.300000
749.348816	184.200000
749.386230	180.700000
749.423767	173.100000
749.461304	181.900000
749.498718	180.000000
749.536255	185.000000
749.573730	189.100000
749.611206	185.100000
749.648682	179.300000
749.686218	181.200000
749.723633	182.400000
749.761169	178.100000
749.798645	178.400000
749.836060	179.200000
749.873596	178.500000
749.911011	181.700000
749.948547	184.600000
749.986023	181.000000
750.023437	181.700000
750.060913	176.700000
750.098450	176.200000
750.135864	180.400000
750.173340	179.700000
750.210815	184.600000
750.248291	177.000000
750.285767	180.800000
750.323242	184.400000
750.360657	183.200000
750.398132	177.600000
750.435608	182.400000
750.473022	179.000000
750.510498	178.300000
750.547974	177.500000
750.585449	179.300000
750.622925	175.800000
750.660339	189.400000
750.697815	182.200000
750.735291	180.500000
750.772644	181.200000
750.810120	180.700000
750.847595	181.600000
750.885010	178.600000
750.922485	185.600000
750.959961	179.700000
750.997375	185.200000
751.034851	182.700000
751.072266	182.600000
751.109680	176.600000
751.147156	183.500000
751.184570	182.100000
751.221985	181.200000
751.259460	175.400000
751.296875	180.100000
751.334290	180.400000
751.371765	183.100000
751.409180	183.500000
751.446594	184.800000
751.484070	181.900000
751.521423	181.100000
751.558899	180.700000
751.596375	187.300000
751.633728	185.800000
751.671204	187.400000
751.708618	179.000000
751.746033	182.400000
751.783447	177.000000
751.820801	179.000000
751.858276	182.600000
751.895691	180.200000
751.933105	180.600000
751.970520	176.900000
752.007935	179.900000
752.045349	184.600000
752.082764	181.200000
752.120178	179.300000
752.157532	180.000000
752.195007	179.500000
752.232422	182.900000
752.269775	184.300000
752.307190	184.100000
752.344543	178.500000
752.382019	181.500000
752.419434	179.200000
752.456787	182.700000
752.494202	183.400000
752.531616	181.600000
752.568970	181.400000
752.606384	183.600000
752.643799	182.000000
752.681152	186.700000
752.718567	181.400000
752.755981	176.100000
752.793335	181.500000
752.830750	175.200000
752.868164	184.100000
752.905518	177.500000
752.942932	184.000000
752.980225	176.300000
753.017639	183.000000
753.055054	182.300000
753.092407	181.000000
753.129822	184.600000
753.167175	185.800000
753.204529	181.500000
753.241943	179.600000
753.279358	176.800000
753.316650	183.100000
753.354065	182.200000
753.391479	184.500000
753.428772	186.100000
753.466187	182.300000
753.503479	178.300000
753.540894	180.200000
753.578308	178.800000
753.615601	178.000000
753.653015	179.900000
753.690369	179.300000
753.727722	178.700000
753.765076	176.600000
753.802490	177.600000
753.839783	176.600000
753.877136	179.100000
753.914551	189.900000
753.951843	179.100000
753.989258	184.000000
754.026611	181.100000
754.063904	182.300000
754.101257	177.400000
754.138611	175.100000
754.175964	180.800000
754.213318	187.500000
754.250610	175.400000
754.288025	179.700000
754.325378	177.000000
754.362671	182.700000
754.400024	180.600000
754.437378	188.100000
754.474670	184.500000
754.512085	178.300000
754.549438	180.400000
754.586731	178.400000
754.624084	179.300000
754.661438	177.800000
754.698730	186.700000
754.736084	181.400000
754.773376	180.400000
754.810730	182.300000
754.848083	180.000000
754.885315	184.800000
754.922668	176.300000
754.960022	177.600000
754.997314	184.800000
755.034668	181.400000
755.072021	183.100000
755.109253	179.400000
755.146606	184.800000
755.183960	179.600000
755.221252	186.300000
755.258545	183.700000
755.295898	185.600000
755.333191	185.100000
755.370544	184.500000
755.407776	182.000000
755.445129	182.400000
755.482422	183.700000
755.519714	180.500000
755.557068	177.400000
755.594360	177.500000
755.631653	184.900000
755.668945	188.300000
755.706299	183.000000
755.743530	190.600000
755.780884	186.500000
755.818176	186.100000
755.855408	186.000000
755.892761	184.300000
755.930054	182.700000
755.967346	183.500000
756.004639	185.000000
756.041870	181.900000
756.079224	185.500000
756.116516	180.900000
756.153748	184.900000
756.191040	188.800000
756.228394	184.200000
756.265625	181.500000
756.302917	183.800000
756.340210	181.500000
756.377441	185.000000
756.414795	187.500000
756.452087	181.900000
756.489319	179.300000
756.526611	185.300000
756.563843	184.600000
756.601135	190.000000
756.638428	189.000000
756.675659	183.500000
756.712952	185.500000
756.750244	186.700000
756.787476	184.100000
756.824768	187.900000
756.862061	183.300000
756.899292	227.900000
756.936584	186.600000
756.973816	191.700000
757.011047	192.000000
757.048340	183.900000
757.085632	183.600000
757.122864	197.300000
757.160156	183.100000
757.197327	186.400000
757.234619	188.000000
757.271912	183.100000
757.309082	189.200000
757.346375	183.900000
757.383667	187.700000
757.420837	186.100000
757.458130	184.800000
757.495422	184.500000
757.532593	187.500000
757.569885	180.300000
757.607117	182.900000
757.644348	186.900000
757.681580	195.800000
757.718811	177.700000
757.756042	185.200000
757.793335	184.700000
757.830505	190.600000
757.867798	184.700000
757.905029	184.300000
757.942200	187.700000
757.979492	184.000000
758.016724	185.800000
758.053894	184.800000
758.091187	198.700000
758.128418	188.100000
758.165588	186.200000
758.202820	194.400000
758.240112	186.800000
758.277283	192.900000
758.314514	187.800000
758.351685	185.200000
758.388916	193.000000
758.426147	191.500000
758.463379	194.200000
758.500610	190.700000
758.537842	187.800000
758.575012	191.000000
758.612244	185.300000
758.649475	196.300000
758.686646	184.700000
758.723877	195.400000
758.761108	194.100000
758.798279	190.000000
758.835510	190.400000
758.872742	194.000000
758.909851	190.100000
758.947083	192.600000
758.984253	191.600000
759.021484	193.400000
759.058716	193.800000
759.095886	194.300000
759.133057	190.400000
759.170288	193.400000
759.207458	189.600000
759.244690	201.000000
759.281860	197.800000
759.319031	194.100000
759.356262	189.400000
759.393433	191.600000
759.430603	190.600000
759.467773	191.600000
759.505005	195.200000
759.542175	196.900000
759.579346	192.000000
759.616516	192.900000
759.653687	194.600000
759.690918	191.500000
759.728027	193.100000
759.765259	194.800000
759.802429	196.700000
759.839539	195.100000
759.876770	196.600000
759.913940	200.200000
759.951111	193.800000
759.988281	194.000000
760.025452	191.200000
760.062561	191.100000
760.099792	201.000000
760.136963	196.500000
760.174072	191.900000
760.211243	190.000000
760.248413	191.400000
760.285583	190.700000
760.322754	201.800000
760.359863	198.600000
760.397034	199.800000
760.434204	194.300000
760.471375	195.600000
760.508545	193.600000
760.545715	196.300000
760.582825	192.800000
760.619995	198.800000
760.657166	192.400000
760.694275	200.900000
760.731445	196.100000
760.768555	197.100000
760.805664	199.300000
760.842834	198.900000
760.879944	199.700000
760.917114	199.000000
760.954285	196.900000
760.991394	194.200000
761.028564	200.500000
761.065674	199.900000
761.102783	194.900000
761.139954	202.300000
761.177124	200.400000
761.214172	202.600000
761.251343	197.200000
761.288452	199.100000
761.325562	200.800000
761.362732	197.500000
761.399841	199.100000
761.436951	199.900000
761.474121	195.900000
761.511169	199.600000
761.548340	203.000000
761.585449	202.600000
761.622559	202.500000
761.659668	201.000000
761.696838	205.400000
761.733887	200.600000
761.771057	199.400000
761.808167	200.500000
761.845276	203.400000
761.882385	208.700000
761.919434	202.200000
761.956604	213.200000
761.993713	198.600000
762.030762	206.700000
762.067871	202.700000
762.105042	201.500000
762.142090	209.500000
762.179199	203.800000
762.216309	206.900000
762.253418	213.700000
762.290527	211.700000
762.327637	208.000000
762.364685	201.000000
762.401794	207.500000
762.438904	208.100000
762.475952	202.300000
762.513062	202.200000
762.550110	203.500000
762.587219	212.600000
762.624329	212.200000
762.661377	208.800000
762.698486	207.000000
762.735596	207.300000
762.772644	202.200000
762.809753	202.100000
762.846863	205.500000
762.883911	210.300000
762.921021	208.400000
762.958069	207.400000
762.995117	212.700000
763.032227	213.800000
763.069336	206.400000
763.106323	206.400000
763.143433	204.100000
763.180481	210.200000
763.217590	210.700000
763.254639	208.300000
763.291687	208.500000
763.328735	216.500000
763.365845	209.800000
763.402893	207.700000
763.439941	211.300000
763.477051	213.400000
763.514038	212.200000
763.551147	210.400000
763.588196	211.700000
763.625244	212.400000
763.662292	215.500000
763.699402	218.300000
763.736389	215.600000
763.773499	220.600000
763.810486	214.900000
763.847534	213.400000
763.884644	217.600000
763.921631	214.400000
763.958679	220.800000
763.995728	216.200000
764.032776	222.300000
764.069824	212.800000
764.106873	220.300000
764.143860	223.800000
764.180969	217.300000
764.218018	222.600000
764.255005	218.400000
764.292053	219.500000
764.329102	226.100000
764.366089	225.200000
764.403137	223.200000
764.440125	219.900000
764.477173	221.000000
764.514221	224.000000
764.551208	223.600000
764.588257	219.200000
764.625305	227.000000
764.662292	230.700000
764.699341	230.600000
764.736389	225.000000
764.773376	235.700000
764.810425	227.100000
764.847473	233.100000
764.884399	229.900000
764.921448	235.800000
764.958435	233.700000
764.995483	228.700000
765.032532	238.700000
765.069458	229.200000
765.106506	230.500000
765.143555	229.500000
765.180481	233.200000
765.217529	236.500000
765.254578	227.500000
765.291504	233.800000
765.328552	232.500000
765.365540	232.300000
765.402527	239.900000
765.439575	230.500000
765.476501	229.600000
765.513550	230.200000
765.550537	234.400000
765.587463	238.600000
765.624512	233.500000
765.661499	228.000000
765.698486	239.400000
765.735474	231.800000
765.772461	234.700000
765.809448	239.300000
765.846436	239.800000
765.883423	243.100000
765.920410	239.000000
765.957397	236.200000
765.994385	239.900000
766.031311	244.700000
766.068359	241.600000
766.105286	242.000000
766.142273	246.200000
766.179260	243.400000
766.216187	239.800000
766.253174	236.900000
766.290161	243.300000
766.327148	244.800000
766.364136	245.600000
766.401123	255.100000
766.438049	243.600000
766.475037	248.400000
766.512024	250.400000
766.548950	257.600000
766.585937	255.200000
766.622864	251.800000
766.659790	250.200000
766.696777	242.000000
766.733704	253.100000
766.770691	247.100000
766.807678	255.300000
766.844604	253.400000
766.881531	252.600000
766.918518	255.900000
766.955444	256.800000
766.992432	250.800000
767.029358	255.100000
767.066284	257.300000
767.103271	254.100000
767.140198	284.300000
767.177124	263.800000
767.214050	257.900000
767.251038	260.000000
767.287964	255.700000
767.324890	256.300000
767.361816	258.100000
767.398743	261.900000
767.435730	258.900000
767.472595	261.500000
767.509583	264.900000
767.546509	256.600000
767.583374	261.500000
767.620361	255.800000
767.657288	260.800000
767.694214	260.500000
767.731140	260.300000
767.768066	260.400000
767.804993	263.000000
767.841919	259.200000
767.878845	263.800000
767.915710	266.800000
767.952698	262.000000
767.989563	264.400000
768.026489	266.300000
768.063416	261.700000
768.100281	261.200000
768.137207	269.600000
768.174133	267.700000
768.211060	268.500000
768.247986	268.100000
768.284912	265.500000
768.321777	268.900000
768.358704	264.900000
768.395630	266.900000
768.432495	262.800000
768.469421	270.300000
768.506348	272.400000
768.543152	276.900000
768.580078	272.400000
768.616943	275.000000
768.653870	276.500000
768.690796	276.000000
768.727661	274.100000
768.764587	275.100000
768.801453	272.600000
768.838318	277.100000
768.875244	276.300000
768.912109	281.500000
768.948975	274.900000
768.985901	277.500000
769.022766	277.200000
769.059631	279.800000
769.096558	277.200000
769.133362	278.900000
769.170288	281.000000
769.207214	280.700000
769.244019	285.000000
769.280945	282.800000
769.317810	290.400000
769.354675	286.100000
769.391541	292.300000
769.428406	288.600000
769.465271	295.300000
769.502136	288.100000
769.539062	292.200000
769.575867	292.400000
769.612732	294.500000
769.649597	295.900000
769.686462	299.200000
769.723328	296.000000
769.760193	296.000000
769.797058	294.400000
769.833923	301.300000
769.870728	297.700000
769.907593	302.300000
769.944519	302.700000
769.981323	302.900000
770.018188	304.000000
770.055054	303.100000
770.091858	303.800000
770.128723	308.800000
770.165588	314.600000
770.202393	302.200000
770.239258	312.000000
770.276062	310.500000
770.312927	311.100000
770.349792	317.500000
770.386597	315.100000
770.423462	321.400000
770.460327	327.000000
770.497131	317.700000
770.533997	315.500000
770.570862	322.000000
770.607605	323.300000
770.644470	321.800000
770.681335	323.900000
770.718140	324.400000
770.754944	318.900000
770.791809	321.500000
770.828613	322.100000
770.865479	323.700000
770.902222	330.500000
770.939087	327.300000
770.975952	320.200000
771.012695	327.600000
771.049561	338.000000
771.086365	328.900000
771.123169	326.300000
771.159973	327.600000
771.196838	328.600000
771.233582	331.000000
771.270447	330.100000
771.307251	336.100000
771.344055	333.000000
771.380859	335.600000
771.417664	335.800000
771.454468	339.200000
771.491272	340.400000
771.528076	341.300000
771.564880	339.200000
771.601685	344.500000
771.638428	339.000000
771.675293	341.300000
771.712097	336.700000
771.748840	348.700000
771.785645	343.700000
771.822449	347.700000
771.859253	349.500000
771.896057	346.400000
771.932861	354.000000
771.969604	348.300000
772.006409	346.100000
772.043213	353.300000
772.079956	348.400000
772.116760	344.600000
772.153503	349.400000
772.190308	357.100000
772.227112	352.100000
772.263855	350.600000
772.300659	353.600000
772.337463	357.900000
772.374207	351.500000
772.411011	351.000000
772.447754	353.800000
772.484497	367.300000
772.521301	361.500000
772.558105	357.400000
772.594849	357.400000
772.631592	362.000000
772.668396	363.500000
772.705139	364.700000
772.741882	365.400000
772.778625	372.700000
772.815430	370.900000
772.852173	371.400000
772.888916	373.700000
772.925720	377.100000
772.962463	380.900000
772.999207	371.300000
773.035950	375.200000
773.072754	378.800000
773.109436	370.800000
773.146240	376.200000
773.182922	375.000000
773.219727	381.700000
773.256470	375.800000
773.293152	369.400000
773.329956	374.100000
773.366699	378.200000
773.403381	373.600000
773.440186	380.400000
773.476929	379.200000
773.513611	379.200000
773.550354	376.700000
773.587158	380.500000
773.623840	378.000000
773.660583	383.200000
773.697327	388.200000
773.734009	382.300000
773.770813	380.300000
773.807495	380.800000
773.844238	384.100000
773.880981	397.100000
773.917664	391.300000
773.954407	392.500000
773.991150	386.800000
774.027832	392.800000
774.064575	386.900000
774.101318	396.500000
774.138000	396.100000
774.174744	392.500000
774.211487	393.300000
774.248108	388.300000
774.284851	388.200000
774.321594	398.000000
774.358276	394.500000
774.395020	403.200000
774.431702	396.200000
774.468384	393.400000
774.505127	392.800000
774.541809	400.700000
774.578491	407.400000
774.615234	406.600000
774.651917	397.700000
774.688599	404.600000
774.725342	411.600000
774.762024	409.400000
774.798706	413.500000
774.835449	414.500000
774.872070	417.900000
774.908813	416.200000
774.945496	416.500000
774.982178	415.200000
775.018860	420.100000
775.055542	419.400000
775.092224	423.000000
775.128967	428.900000
775.165588	426.900000
775.202271	423.900000
775.239014	432.100000
775.275635	431.600000
775.312317	427.900000
775.349060	429.900000
775.385681	429.500000
775.422363	426.500000
775.459045	434.000000
775.495667	435.800000
775.532410	440.100000
775.569092	439.200000
775.605713	440.000000
775.642395	439.900000
775.679016	444.900000
775.715698	444.300000
775.752380	445.000000
775.789001	442.700000
775.825684	439.200000
775.862366	445.000000
775.898987	457.900000
775.935669	452.400000
775.972351	465.900000
776.008972	461.600000
776.045654	460.300000
776.082336	457.200000
776.118958	459.500000
776.155640	461.600000
776.192322	470.700000
776.228882	470.400000
776.265564	471.000000
776.302185	465.100000
776.338867	470.200000
776.375488	466.800000
776.412109	477.800000
776.448792	484.100000
776.485413	489.500000
776.522034	478.500000
776.558716	477.500000
776.595337	479.600000
776.631958	484.500000
776.668579	486.600000
776.705261	491.700000
776.741882	485.000000
776.778503	487.900000
776.815186	492.700000
776.851746	492.900000
776.888367	496.800000
776.924988	500.100000
776.961609	496.900000
776.998291	494.400000
777.034851	492.300000
777.071472	505.000000
777.108154	499.900000
777.144714	508.900000
777.181335	506.500000
777.218018	498.900000
777.254578	508.400000
777.291199	506.300000
777.327759	510.700000
777.364380	517.100000
777.401062	519.900000
777.437622	526.300000
777.474243	515.300000
777.510864	517.700000
777.547424	518.400000
777.584045	519.300000
777.620667	526.900000
777.657227	524.700000
777.693848	521.400000
777.730469	531.100000
777.767029	527.000000
777.803650	534.000000
777.840271	530.300000
777.876831	528.800000
777.913452	534.000000
777.950012	519.200000
777.986633	523.900000
778.023193	524.100000
778.059753	526.500000
778.096375	528.000000
778.132996	536.900000
778.169556	530.200000
778.206116	530.000000
778.242737	532.200000
778.279297	539.200000
778.315857	532.000000
778.352478	534.000000
778.389038	542.000000
778.425598	542.400000
778.462219	548.700000
778.498718	542.500000
778.535339	549.300000
778.571838	548.900000
778.608459	553.500000
778.645020	543.600000
778.681580	550.600000
778.718140	550.800000
778.754761	547.100000
778.791260	549.600000
778.827881	559.500000
778.864441	555.300000
778.900940	560.900000
778.937561	561.500000
778.974121	559.900000
779.010620	552.300000
779.047241	554.600000
779.083801	563.000000
779.120300	559.500000
779.156860	562.000000
779.193359	564.100000
779.229980	563.000000
779.266541	567.000000
779.303040	568.400000
779.339600	561.600000
779.376160	558.700000
779.412659	556.500000
779.449219	551.700000
779.485779	559.800000
779.522278	560.900000
779.558838	562.500000
779.595398	567.600000
779.631897	563.100000
779.668457	565.300000
779.705017	569.100000
779.741516	564.400000
779.778076	563.400000
779.814575	568.000000
779.851074	568.100000
779.887634	563.900000
779.924133	571.600000
779.960693	567.000000
779.997253	574.100000
780.033691	574.200000
780.070251	578.300000
780.106812	587.100000
780.143250	581.300000
780.179810	584.300000
780.216370	591.100000
780.252808	593.000000
780.289368	594.600000
780.325867	591.900000
780.362366	588.200000
780.398865	601.300000
780.435364	594.700000
780.471863	602.800000
780.508423	599.000000
780.544861	602.500000
780.581421	600.800000
780.617920	594.500000
780.654419	594.800000
780.690918	598.200000
780.727417	606.100000
780.763916	605.500000
780.800415	609.000000
780.836914	605.000000
780.873352	604.200000
780.909912	602.000000
780.946411	608.400000
780.982849	613.500000
781.019348	623.700000
781.055786	618.400000
781.092346	614.800000
781.128845	623.900000
781.165283	629.300000
781.201782	638.900000
781.238281	639.600000
781.274719	643.900000
781.311218	636.900000
781.347717	646.000000
781.384155	638.100000
781.420654	644.600000
781.457092	643.200000
781.493591	637.500000
781.530090	636.200000
781.566528	638.700000
781.602966	639.500000
781.639465	642.400000
781.675903	644.500000
781.712402	653.400000
781.748901	653.900000
781.785278	641.300000
781.821777	653.400000
781.858276	654.600000
781.894714	661.100000
781.931152	656.000000
781.967651	667.800000
782.004089	662.400000
782.040527	667.600000
782.076965	669.800000
782.113403	670.700000
782.149902	671.000000
782.186340	670.700000
782.222778	680.900000
782.259277	672.300000
782.295654	675.200000
782.332092	683.400000
782.368591	682.900000
782.404968	683.500000
782.441467	682.900000
782.477905	683.300000
782.514282	684.200000
782.550781	696.500000
782.587219	695.300000
782.623596	701.900000
782.660095	702.000000
782.696472	706.400000
782.732910	711.900000
782.769348	717.200000
782.805786	726.600000
782.842224	730.200000
782.878662	724.000000
782.915039	729.100000
782.951477	733.800000
782.987915	732.100000
783.024292	731.500000
783.060730	733.000000
783.097168	728.500000
783.133545	718.200000
783.169983	716.000000
783.206421	710.200000
783.242798	712.000000
783.279236	703.300000
783.315613	706.000000
783.352051	703.800000
783.388489	706.300000
783.424866	695.400000
783.461304	697.200000
783.497681	708.500000
783.534058	707.200000
783.570496	700.600000
783.606934	698.500000
783.643250	704.100000
783.679687	717.800000
783.716125	718.400000
783.752441	724.500000
783.788879	739.300000
783.825317	747.400000
783.861633	755.000000
783.898071	755.800000
783.934448	770.800000
783.970825	773.400000
784.007263	766.200000
784.043579	767.900000
784.080017	771.900000
784.116394	768.700000
784.152710	774.900000
784.189148	772.200000
784.225525	760.200000
784.261902	752.700000
784.298279	749.800000
784.334656	756.100000
784.371033	746.000000
784.407410	743.700000
784.443787	733.600000
784.480164	724.100000
784.516541	715.800000
784.552856	727.200000
784.589233	731.100000
784.625610	727.400000
784.661987	745.100000
784.698364	737.300000
784.734741	731.100000
784.771057	731.800000
784.807434	744.700000
784.843811	760.300000
784.880127	760.900000
784.916504	772.900000
784.952881	771.900000
784.989197	771.400000
785.025574	783.500000
785.061951	790.800000
785.098267	800.700000
785.134644	795.600000
785.170959	791.700000
785.207275	781.400000
785.243652	778.900000
785.279968	769.200000
785.316345	773.800000
785.352722	764.400000
785.388977	757.400000
785.425354	741.600000
785.461731	725.800000
785.498047	722.300000
785.534363	728.400000
785.570679	728.100000
785.606995	732.800000
785.643372	729.000000
785.679687	731.100000
785.716003	717.100000
785.752380	725.000000
785.788635	735.400000
785.825012	747.900000
785.861328	752.300000
785.897644	744.700000
785.933960	755.200000
785.970337	763.700000
786.006592	785.200000
786.042908	793.000000
786.079285	799.700000
786.115540	802.200000
786.151855	797.500000
786.188171	798.800000
786.224487	803.300000
786.260803	799.000000
786.297119	800.800000
786.333435	794.700000
786.369751	785.500000
786.406006	785.000000
786.442322	778.100000
786.478638	766.600000
786.514954	770.800000
786.551270	763.900000
786.587585	772.500000
786.623840	751.800000
786.660156	746.800000
786.696472	745.600000
786.732727	749.400000
786.769043	753.300000
786.805298	748.000000
786.841614	748.800000
786.877930	762.400000
786.914124	754.900000
786.950439	773.100000
786.986755	785.300000
787.023010	803.200000
787.059326	802.900000
787.095642	803.600000
787.131836	818.000000
787.168152	814.300000
787.204468	824.500000
787.240723	843.000000
787.276978	840.800000
787.313293	844.700000
787.349548	841.400000
787.385803	843.600000
787.422058	833.800000
787.458313	836.100000
787.494629	826.500000
787.530823	816.900000
787.567139	809.500000
787.603455	804.800000
787.639648	791.000000
787.675903	794.100000
787.712219	789.600000
787.748413	788.900000
787.784729	793.300000
787.820984	785.000000
787.857178	786.500000
787.893494	786.100000
787.929749	789.300000
787.965942	801.400000
788.002258	812.500000
788.038452	822.300000
788.074707	816.500000
788.110962	818.800000
788.147217	820.500000
788.183472	836.900000
788.219727	850.200000
788.255920	863.400000
788.292175	864.100000
788.328430	853.000000
788.364624	840.500000
788.400879	838.600000
788.437134	853.900000
788.473328	851.600000
788.509583	851.300000
788.545837	849.400000
788.582031	845.200000
788.618286	842.400000
788.654480	849.500000
788.690735	853.700000
788.726990	867.600000
788.763184	861.700000
788.799377	872.400000
788.835632	865.100000
788.871826	875.900000
788.908081	879.200000
788.944336	873.300000
788.980469	880.100000
789.016724	876.200000
789.052979	882.100000
789.089111	873.300000
789.125366	876.100000
789.161621	866.400000
789.197754	868.700000
789.234009	869.100000
789.270142	863.800000
789.306396	857.000000
789.342590	851.800000
789.378784	833.800000
789.414978	835.700000
789.451233	849.900000
789.487366	848.400000
789.523621	851.900000
789.559814	844.400000
789.595947	849.500000
789.632202	859.200000
789.668335	862.400000
789.704529	881.200000
789.740784	894.300000
789.776917	900.000000
789.813110	887.600000
789.849304	897.800000
789.885498	913.800000
789.921692	918.000000
789.957886	916.500000
789.994019	922.400000
790.030212	922.300000
790.066406	928.100000
790.102539	921.600000
790.138733	937.700000
790.174927	934.200000
790.211060	948.800000
790.247253	933.400000
790.283386	920.900000
790.319580	909.600000
790.355774	904.200000
790.391907	902.800000
790.428101	928.100000
790.464294	922.700000
790.500427	912.700000
790.536621	902.200000
790.572754	891.800000
790.608887	885.700000
790.645081	888.300000
790.681274	901.600000
790.717346	899.600000
790.753540	895.400000
790.789734	878.100000
790.825867	870.300000
790.862000	877.800000
790.898132	890.200000
790.934265	893.100000
790.970459	884.200000
791.006592	881.300000
791.042725	877.400000
791.078918	872.000000
791.114990	877.500000
791.151184	880.200000
791.187317	893.000000
791.223389	883.100000
791.259583	876.900000
791.295715	879.000000
791.331848	884.900000
791.367981	888.600000
791.404114	899.500000
791.440247	891.700000
791.476379	896.500000
791.512451	874.800000
791.548584	866.500000
791.584778	862.700000
791.620850	877.400000
791.656982	891.600000
791.693115	889.900000
791.729187	880.300000
791.765381	877.100000
791.801514	876.300000
791.837585	881.800000
791.873718	887.700000
791.909851	894.900000
791.945923	900.900000
791.982056	880.200000
792.018188	874.900000
792.054260	872.300000
792.090393	879.600000
792.126465	878.300000
792.162598	882.400000
792.198669	874.700000
792.234741	860.100000
792.270874	853.900000
792.307007	848.600000
792.343079	852.700000
792.379150	859.500000
792.415283	847.300000
792.451355	841.900000
792.487488	828.000000
792.523560	813.700000
792.559631	798.400000
792.595764	756.100000
792.631836	726.600000
792.667908	714.400000
792.703979	709.300000
792.740051	744.300000
792.776184	775.400000
792.812256	788.400000
792.848328	799.300000
792.884399	797.400000
792.920471	799.600000
792.956543	793.400000
792.992615	794.600000
793.028748	798.700000
793.064758	811.500000
793.100830	823.000000
793.136963	834.400000
793.172974	832.400000
793.209045	820.600000
793.245178	832.000000
793.281189	823.500000
793.317261	830.800000
793.353271	827.800000
793.389404	833.000000
793.425476	827.200000
793.461487	814.800000
793.497559	812.800000
793.533630	815.000000
793.569641	816.300000
793.605713	815.700000
793.641785	819.900000
793.677795	827.700000
793.713867	817.200000
793.749878	831.800000
793.785950	841.200000
793.822021	850.800000
793.858032	834.400000
793.894104	843.800000
793.930176	838.000000
793.966187	836.800000
794.002258	836.300000
794.038269	842.400000
794.074280	847.000000
794.110352	864.600000
794.146423	842.800000
794.182373	836.100000
794.218445	829.700000
794.254517	824.200000
794.290466	816.100000
794.326538	821.100000
794.362549	822.400000
794.398560	825.800000
794.434631	821.900000
794.470581	804.200000
794.506653	801.500000
794.542664	807.300000
794.578674	813.000000
794.614685	810.800000
794.650757	816.000000
794.686707	817.000000
794.722778	812.500000
794.758789	826.200000
794.794739	831.000000
794.830811	856.600000
794.866821	862.200000
794.902771	862.800000
794.938843	852.400000
794.974792	851.400000
795.010803	851.900000
795.046814	854.000000
795.082825	842.800000
795.118835	856.200000
795.154846	847.100000
795.190796	843.900000
795.226807	823.200000
795.262817	831.700000
795.298767	841.200000
795.334778	844.800000
795.370850	831.600000
795.406799	832.300000
795.442810	813.600000
795.478821	817.100000
795.514709	823.000000
795.550720	849.000000
795.586670	829.800000
795.622681	835.400000
795.658691	840.100000
795.694641	831.500000
795.730652	825.600000
795.766663	834.500000
795.802551	841.900000
795.838562	850.500000
795.874573	842.000000
795.910522	834.300000
795.946472	823.000000
795.982483	834.800000
796.018433	834.400000
796.054382	840.100000
796.090393	842.100000
796.126282	826.900000
796.162292	818.900000
796.198242	816.800000
796.234192	814.400000
796.270203	812.500000
796.306091	812.800000
796.342041	827.100000
796.378052	815.600000
796.413940	818.000000
796.449951	814.500000
796.485901	816.500000
796.521790	823.500000
796.557800	838.300000
796.593689	839.000000
796.629639	829.200000
796.665649	821.400000
796.701599	818.600000
796.737488	819.200000
796.773437	837.300000
796.809387	846.000000
796.845337	835.100000
796.881287	819.400000
796.917175	807.200000
796.953125	810.300000
796.989075	823.500000
797.024963	827.400000
797.060913	816.500000
797.096863	815.800000
797.132751	807.600000
797.168701	797.200000
797.204590	800.600000
797.240540	799.500000
797.276489	809.500000
797.312439	811.800000
797.348328	806.200000
797.384277	803.300000
797.420166	803.500000
797.456055	801.200000
797.492004	800.000000
797.527893	807.800000
797.563843	811.700000
797.599731	809.300000
797.635620	797.500000
797.671570	797.400000
797.707520	798.500000
797.743347	799.600000
797.779297	806.900000
797.815125	805.000000
797.851074	791.500000
797.887024	784.000000
797.922913	775.000000
797.958801	777.800000
797.994690	779.100000
798.030579	790.600000
798.066467	792.200000
798.102356	778.000000
798.138245	777.400000
798.174133	773.500000
798.210083	777.100000
798.245911	792.800000
798.281799	793.400000
798.317749	781.900000
798.353577	780.900000
798.389465	777.600000
798.425293	776.000000
798.461243	776.100000
798.497131	782.900000
798.532959	783.100000
798.568848	786.200000
798.604736	770.200000
798.640564	759.000000
798.676453	762.100000
798.712402	772.700000
798.748230	775.300000
798.784119	774.100000
798.820007	767.800000
798.855835	765.900000
798.891724	757.900000
798.927551	758.800000
798.963379	762.500000
798.999268	752.900000
799.035095	747.000000
799.070984	737.700000
799.106873	735.900000
799.142700	749.400000
799.178528	741.300000
799.214417	739.200000
799.250244	748.000000
799.286133	747.300000
799.321960	746.200000
799.357788	736.100000
799.393677	740.000000
799.429504	742.800000
799.465332	740.600000
799.501221	745.700000
799.537048	740.800000
799.572876	734.500000
799.608704	730.800000
799.644531	752.900000
799.680359	747.700000
799.716248	753.900000
799.752014	760.700000
799.787903	750.600000
799.823730	747.700000
799.859558	738.600000
799.895386	745.600000
799.931213	749.100000
799.967041	735.200000
800.002869	738.400000
800.038696	743.700000
800.074463	728.100000
800.110352	735.500000
800.146179	729.300000
800.181946	735.700000
800.217773	738.500000
800.253540	729.800000
800.289429	724.200000
800.325256	721.900000
800.361023	721.000000
800.396851	729.300000
800.432678	730.100000
800.468445	732.900000
800.504272	726.900000
800.540100	712.300000
800.575867	711.600000
800.611694	718.700000
800.647461	718.800000
800.683289	719.100000
800.719116	715.600000
800.754883	711.400000
800.790649	702.300000
800.826477	701.100000
800.862244	726.800000
800.898071	712.200000
800.933838	711.600000
800.969604	708.800000
801.005432	707.600000
801.041199	701.800000
801.076965	698.600000
801.112793	688.200000
801.148560	690.500000
801.184326	689.600000
801.220154	689.700000
801.255859	686.300000
801.291687	687.400000
801.327454	680.800000
801.363281	689.500000
801.398987	679.300000
801.434814	685.200000
801.470520	692.100000
801.506287	676.900000
801.542114	666.800000
801.577820	666.700000
801.613647	671.600000
801.649414	671.300000
801.685120	669.000000
801.720886	671.500000
801.756714	662.500000
801.792419	657.400000
801.828186	652.900000
801.863892	664.600000
801.899719	663.600000
801.935486	660.000000
801.971252	668.100000
802.006958	657.700000
802.042725	651.200000
802.078430	653.000000
802.114197	652.600000
802.149963	666.300000
802.185669	652.100000
802.221436	655.300000
802.257202	655.800000
802.292908	646.500000
802.328674	654.800000
802.364441	655.300000
802.400146	653.800000
802.435913	654.000000
802.471558	652.000000
802.507324	647.400000
802.543091	644.500000
802.578796	654.700000
802.614502	655.500000
802.650269	656.800000
802.685974	649.500000
802.721741	645.400000
802.757446	644.700000
802.793152	647.400000
802.828918	659.500000
802.864624	656.600000
802.900330	650.900000
802.936035	647.800000
802.971802	646.900000
803.007446	638.100000
803.043213	637.900000
803.078857	650.200000
803.114624	638.000000
803.150330	637.100000
803.185974	628.100000
803.221741	629.600000
803.257446	639.600000
803.293152	637.700000
803.328857	635.800000
803.364563	630.000000
803.400208	625.800000
803.435974	625.000000
803.471680	619.500000
803.507324	618.700000
803.543030	632.900000
803.578735	632.300000
803.614441	624.700000
803.650146	633.600000
803.685791	621.300000
803.721497	619.200000
803.757202	610.000000
803.792847	621.000000
803.828552	613.400000
803.864258	614.500000
803.899902	608.500000
803.935608	598.900000
803.971313	598.400000
804.006958	601.800000
804.042664	600.500000
804.078308	607.700000
804.113953	598.200000
804.149658	599.000000
804.185364	595.300000
804.221008	609.700000
804.256714	590.500000
804.292297	591.500000
804.328003	586.200000
804.363708	591.800000
804.399292	583.700000
804.434998	584.800000
804.470703	576.300000
804.506287	590.800000
804.541992	579.800000
804.577637	581.900000
804.613281	572.200000
804.648926	571.800000
804.684570	573.300000
804.720215	573.000000
804.755920	573.000000
804.791565	575.600000
804.827209	574.100000
804.862854	570.400000
804.898437	562.300000
804.934143	567.900000
804.969788	566.900000
805.005371	564.700000
805.041077	560.700000
805.076721	562.900000
805.112305	555.600000
805.147949	553.300000
805.183655	551.600000
805.219238	559.500000
805.254883	554.200000
805.290466	556.000000
805.326111	551.800000
805.361755	543.600000
805.397400	544.800000
805.432983	549.600000
805.468628	547.100000
805.504211	552.500000
805.539856	553.700000
805.575500	552.800000
805.611084	543.600000
805.646729	537.200000
805.682373	542.400000
805.717957	546.600000
805.753601	549.400000
805.789246	539.200000
805.824768	544.500000
805.860413	545.200000
805.895996	537.900000
805.931641	538.400000
805.967224	544.400000
806.002869	538.000000
806.038452	546.100000
806.074036	545.200000
806.109619	529.600000
806.145264	527.800000
806.180847	527.900000
806.216431	525.300000
806.252014	532.400000
806.287659	530.100000
806.323181	537.800000
806.358826	526.900000
806.394409	515.300000
806.429993	515.300000
806.465576	527.300000
806.501160	515.900000
806.536743	514.800000
806.572327	520.200000
806.607910	513.800000
806.643494	515.600000
806.679077	512.600000
806.714661	509.600000
806.750244	509.600000
806.785828	505.600000
806.821350	504.700000
806.856934	510.400000
806.892517	502.000000
806.928101	503.800000
806.963684	501.300000
806.999268	508.500000
807.034790	499.700000
807.070374	502.100000
807.105896	494.600000
807.141479	491.900000
807.177063	496.600000
807.212585	492.100000
807.248169	490.500000
807.283752	494.700000
807.319275	493.400000
807.354858	493.200000
807.390381	490.500000
807.425903	485.500000
807.461487	484.100000
807.497070	479.800000
807.532593	480.300000
807.568115	480.100000
807.603699	477.600000
807.639221	474.600000
807.674744	476.600000
807.710266	479.500000
807.745850	480.300000
807.781372	478.600000
807.816895	476.100000
807.852417	475.800000
807.888000	473.500000
807.923523	469.900000
807.959045	473.200000
807.994629	468.300000
808.030090	464.700000
808.065613	471.100000
808.101135	471.200000
808.136658	468.700000
808.172241	462.600000
808.207764	465.500000
808.243225	462.600000
808.278809	457.900000
808.314270	465.100000
808.349792	455.000000
808.385315	454.500000
808.420837	457.700000
808.456360	463.000000
808.491882	462.400000
808.527344	457.200000
808.562866	463.000000
808.598389	455.200000
808.633850	457.700000
808.669434	449.300000
808.704895	456.900000
808.740417	460.900000
808.775940	453.000000
808.811462	449.100000
808.846924	445.700000
808.882385	445.000000
808.917847	445.900000
808.953369	445.100000
808.988892	443.800000
809.024353	452.100000
809.059875	449.500000
809.095398	448.300000
809.130798	438.200000
809.166321	436.100000
809.201843	434.300000
809.237305	437.600000
809.272766	441.500000
809.308228	432.400000
809.343750	433.900000
809.379211	431.200000
809.414734	430.600000
809.450134	436.400000
809.485657	426.300000
809.521118	433.500000
809.556580	424.500000
809.592102	424.700000
809.627502	426.700000
809.663025	424.300000
809.698486	422.300000
809.733887	422.700000
809.769409	422.000000
809.804871	416.700000
809.840271	413.500000
809.875793	416.700000
809.911194	419.700000
809.946655	415.700000
809.982178	409.900000
810.017639	414.500000
810.053040	412.000000
810.088501	409.100000
810.123901	405.200000
810.159424	407.400000
810.194885	402.100000
810.230286	404.300000
810.265747	398.000000
810.301208	396.400000
810.336609	399.600000
810.372070	393.300000
810.407532	395.100000
810.442932	396.800000
810.478394	400.000000
810.513794	393.700000
810.549255	391.100000
810.584717	392.000000
810.620117	386.900000
810.655518	391.600000
810.690979	387.100000
810.726379	382.700000
810.761841	375.600000
810.797302	377.600000
810.832642	379.000000
810.868103	387.400000
810.903564	378.000000
810.938904	382.000000
810.974365	373.100000
811.009827	376.400000
811.045166	371.400000
811.080627	365.500000
811.115967	369.500000
811.151428	374.800000
811.186829	370.200000
811.222229	369.100000
811.257629	365.400000
811.293091	371.300000
811.328430	374.700000
811.363892	371.200000
811.399292	370.000000
811.434631	367.500000
811.470093	371.800000
811.505493	361.900000
811.540833	362.200000
811.576294	364.300000
811.611694	360.800000
811.647034	357.700000
811.682434	360.500000
811.717773	362.800000
811.753235	365.300000
811.788635	356.400000
811.823975	357.500000
811.859375	362.000000
811.894775	353.600000
811.930115	356.200000
811.965515	352.200000
812.000916	356.500000
812.036255	351.800000
812.071655	355.400000
812.106995	351.000000
812.142395	351.100000
812.177795	356.500000
812.213196	351.600000
812.248474	351.300000
812.283875	344.800000
812.319214	348.800000
812.354614	350.500000
812.390015	347.200000
812.425293	346.600000
812.460693	346.200000
812.496094	340.800000
812.531433	339.000000
812.566772	339.400000
812.602173	338.700000
812.637451	340.800000
812.672852	335.100000
812.708191	338.500000
812.743530	333.000000
812.778931	327.700000
812.814270	329.200000
812.849609	334.700000
812.884949	332.100000
812.920227	325.300000
812.955627	336.500000
812.990967	330.800000
813.026306	323.300000
813.061646	317.100000
813.096985	315.500000
813.132324	314.500000
813.167664	317.000000
813.203003	320.100000
813.238281	309.200000
813.273682	311.200000
813.308960	307.200000
813.344299	308.200000
813.379639	310.000000
813.414978	306.200000
813.450256	306.000000
813.485596	309.800000
813.520874	305.100000
813.556213	307.800000
813.591614	309.000000
813.626831	299.000000
813.662170	305.500000
813.697510	310.100000
813.732788	302.800000
813.768127	304.200000
813.803467	305.300000
813.838745	300.100000
813.874084	304.700000
813.909363	300.400000
813.944641	301.800000
813.979980	295.300000
814.015320	298.600000
814.050598	294.600000
814.085876	295.900000
814.121155	293.600000
814.156494	294.900000
814.191772	293.800000
814.227051	291.400000
814.262390	290.900000
814.297668	291.300000
814.332947	291.300000
814.368225	288.400000
814.403564	289.900000
814.438782	287.900000
814.474121	288.000000
814.509338	285.700000
814.544617	291.200000
814.579956	287.300000
814.615173	291.000000
814.650513	288.900000
814.685791	284.000000
814.721008	285.200000
814.756348	282.900000
814.791626	282.800000
814.826843	279.000000
814.862122	280.900000
814.897400	279.100000
814.932678	280.500000
814.967957	278.500000
815.003235	280.000000
815.038452	275.100000
815.073730	273.900000
815.108948	280.900000
815.144226	280.300000
815.179504	281.300000
815.214722	270.300000
815.250000	268.400000
815.285278	272.500000
815.320496	270.800000
815.355774	270.600000
815.391052	272.300000
815.426270	270.300000
815.461487	271.200000
815.496765	266.100000
815.531982	263.000000
815.567261	267.400000
815.602539	272.600000
815.637695	269.700000
815.672974	268.900000
815.708191	268.200000
815.743408	271.800000
815.778687	264.700000
815.813904	271.700000
815.849121	260.500000
815.884399	261.300000
815.919556	258.700000
815.954834	259.900000
815.990051	260.300000
816.025269	262.300000
816.060486	256.200000
816.095703	256.900000
816.130920	257.900000
816.166199	255.600000
816.201416	255.600000
816.236572	259.200000
816.271851	254.700000
816.307007	258.300000
816.342224	252.000000
816.377441	252.300000
816.412659	246.800000
816.447876	254.500000
816.483093	249.400000
816.518250	249.500000
816.553467	245.600000
816.588745	251.900000
816.623901	244.900000
816.659119	242.100000
816.694275	245.200000
816.729492	242.600000
816.764709	268.600000
816.799927	240.400000
816.835083	242.900000
816.870300	238.000000
816.905457	239.900000
816.940674	241.400000
816.975830	237.400000
817.010986	238.300000
817.046204	235.700000
817.081421	232.900000
817.116577	234.600000
817.151733	242.300000
817.186951	239.000000
817.222107	237.400000
817.257324	239.600000
817.292419	236.800000
817.327637	230.300000
817.362854	234.200000
817.398010	229.100000
817.433167	231.200000
817.468323	230.300000
817.503479	233.600000
817.538635	240.000000
817.573853	235.000000
817.608948	231.200000
817.644165	228.700000
817.679321	227.100000
817.714478	224.700000
817.749634	227.900000
817.784790	234.700000
817.819946	233.700000
817.855103	221.700000
817.890198	226.300000
817.925415	222.200000
817.960571	228.200000
817.995667	226.500000
818.030823	226.800000
818.066040	222.700000
818.101135	224.500000
818.136292	223.400000
818.171448	220.300000
818.206543	220.700000
818.241699	224.600000
818.276855	222.700000
818.311951	220.700000
818.347107	217.100000
818.382263	222.400000
818.417358	224.500000
818.452515	223.900000
818.487610	226.900000
818.522766	217.500000
818.557922	225.100000
818.593018	221.200000
818.628113	218.700000
818.663269	215.600000
818.698364	218.500000
818.733521	213.900000
818.768677	218.700000
818.803711	213.000000
818.838867	214.400000
818.874023	214.400000
818.909058	210.600000
818.944214	211.500000
818.979370	215.000000
819.014404	213.300000
819.049561	210.000000
819.084595	214.800000
819.119751	208.300000
819.154846	212.500000
819.189941	209.700000
819.225037	207.100000
819.260193	204.500000
819.295227	204.000000
819.330322	202.200000
819.365479	201.200000
819.400513	237.400000
819.435608	200.600000
819.470764	199.900000
819.505798	201.700000
819.540894	204.900000
819.575989	201.800000
819.611084	207.100000
819.646179	206.700000
819.681213	205.200000
819.716309	201.200000
819.751404	203.200000
819.786438	205.200000
819.821533	198.800000
819.856628	200.500000
819.891663	205.100000
819.926758	209.800000
819.961853	205.800000
819.996887	198.300000
820.031982	202.700000
820.067017	199.700000
820.102112	233.400000
820.137207	198.100000
820.172302	209.300000
820.207275	197.800000
820.242371	196.800000
820.277405	196.800000
820.312500	198.900000
820.347534	198.300000
820.382568	201.900000
820.417664	196.700000
820.452759	195.400000
820.487732	194.700000
820.522827	196.500000
820.557861	192.300000
820.592896	194.500000
820.627930	196.800000
820.662964	191.500000
820.698059	196.800000
820.733093	193.700000
820.768127	197.700000
820.803162	194.800000
820.838196	193.100000
820.873230	193.500000
820.908264	195.700000
820.943298	192.200000
820.978333	196.700000
821.013367	193.400000
821.048401	198.000000
821.083435	196.400000
821.118469	189.000000
821.153503	194.400000
821.188477	193.800000
821.223511	186.800000
821.258484	193.000000
821.293579	193.200000
821.328613	188.900000
821.363647	191.400000
821.398621	190.400000
821.433655	190.000000
821.468628	201.400000
821.503662	190.600000
821.538696	195.200000
821.573669	188.200000
821.608704	195.400000
821.643677	191.100000
821.678650	193.800000
821.713684	196.400000
821.748718	191.500000
821.783691	190.800000
821.818726	191.800000
821.853638	192.200000
821.888672	188.700000
821.923706	190.200000
821.958618	188.800000
821.993652	189.000000
822.028687	193.200000
822.063599	194.600000
822.098633	191.900000
822.133667	187.900000
822.168579	190.000000
822.203613	191.200000
822.238586	187.700000
822.273560	191.700000
822.308533	187.300000
822.343567	188.100000
822.378479	190.200000
822.413452	189.300000
822.448425	186.500000
822.483398	193.100000
822.518372	191.700000
822.553345	187.500000
822.588318	195.300000
822.623291	188.200000
822.658203	186.200000
822.693237	189.800000
822.728210	184.900000
822.763123	190.700000
822.798096	183.500000
822.833069	189.000000
822.867981	187.100000
822.902954	190.900000
822.937927	189.000000
822.972900	195.400000
823.007874	182.700000
823.042725	191.800000
823.077698	195.500000
823.112671	188.300000
823.147583	187.400000
823.182556	190.700000
823.217529	190.500000
823.252441	188.000000
823.287415	197.100000
823.322388	191.100000
823.357239	188.600000
823.392212	194.300000
823.427185	192.800000
823.462097	186.600000
823.497009	190.100000
823.531982	187.400000
823.566895	188.000000
823.601807	185.000000
823.636719	186.500000
823.671631	190.400000
823.706604	185.800000
823.741455	189.300000
823.776428	183.800000
823.811340	190.600000
823.846252	192.600000
823.881165	192.400000
823.916138	188.600000
823.950989	193.400000
823.985901	187.000000
824.020813	187.700000
824.055725	186.800000
824.090637	182.400000
824.125610	189.900000
824.160461	187.900000
824.195374	189.800000
824.230225	190.800000
824.265198	183.500000
824.300110	184.800000
824.334961	194.200000
824.369873	180.900000
824.404785	189.400000
824.439636	189.800000
824.474548	183.200000
824.509460	179.700000
824.544312	191.800000
824.579224	188.000000
824.614075	189.200000
824.648987	185.500000
824.683899	188.700000
824.718811	185.100000
824.753662	190.700000
824.788574	188.000000
824.823364	187.900000
824.858276	183.200000
824.893188	190.200000
824.928040	188.800000
824.962952	187.300000
824.997803	188.200000
825.032654	187.300000
825.067566	186.200000
825.102417	184.300000
825.137268	185.700000
825.172119	184.900000
825.206970	182.500000
825.241882	184.700000
825.276733	183.400000
825.311646	184.600000
825.346436	180.600000
825.381348	179.900000
825.416138	184.400000
825.450989	181.900000
825.485901	178.200000
825.520691	179.000000
825.555542	179.800000
825.590454	182.300000
825.625244	179.300000
825.660095	187.400000
825.695007	185.900000
825.729797	181.900000
825.764648	180.900000
825.799438	182.600000
825.834290	184.400000
825.869202	177.300000
825.903992	184.400000
825.938843	179.400000
825.973694	179.100000
826.008484	188.900000
826.043335	178.700000
826.078186	175.700000
826.112976	186.100000
826.147827	185.400000
826.182678	187.600000
826.217468	176.600000
826.252319	186.600000
826.287109	177.000000
826.321899	185.200000
826.356750	178.800000
826.391541	178.900000
826.426392	184.500000
826.461182	181.500000
826.495972	176.400000
826.530823	174.500000
826.565613	181.400000
826.600403	177.600000
826.635254	181.900000
826.670044	175.400000
826.704834	174.500000
826.739685	178.100000
826.774475	180.400000
826.809265	181.300000
826.844055	177.700000
826.878906	182.800000
826.913635	180.000000
826.948425	181.400000
826.983215	180.800000
827.018005	182.600000
827.052856	178.900000
827.087585	182.900000
827.122375	175.000000
827.157227	179.900000
827.191956	189.300000
827.226746	177.000000
827.261536	182.800000
827.296265	176.400000
827.331116	179.000000
827.365906	181.300000
827.400635	178.800000
827.435425	173.300000
827.470215	183.700000
827.504944	178.600000
827.539734	184.900000
827.574463	179.300000
827.609253	185.900000
827.644043	179.200000
827.678772	183.900000
827.713562	178.600000
827.748352	179.700000
827.783081	176.800000
827.817871	182.600000
827.852600	176.900000
827.887329	180.500000
827.922119	173.400000
827.956848	182.500000
827.991638	189.500000
828.026367	181.700000
828.061157	178.300000
828.095886	181.500000
828.130615	190.900000
828.165344	174.600000
828.200073	180.100000
828.234863	179.900000
828.269592	178.400000
828.304321	182.800000
828.339111	179.500000
828.373779	177.700000
828.408569	183.100000
828.443298	183.700000
828.477966	177.800000
828.512756	180.500000
828.547424	176.700000
828.582214	177.600000
828.616943	178.300000
828.651672	179.400000
828.686340	181.500000
828.721130	177.500000
828.755798	180.300000
828.790527	179.700000
828.825256	179.300000
828.859924	181.200000
828.894714	183.100000
828.929443	186.100000
828.964111	177.500000
828.998840	182.600000
829.033569	177.900000
829.068237	178.500000
829.102966	178.900000
829.137634	179.000000
829.172363	181.400000
829.207092	180.700000
829.241821	179.200000
829.276489	174.000000
829.311157	179.400000
829.345825	178.200000
829.380554	184.200000
829.415283	177.700000
829.449951	175.900000
829.484619	184.400000
829.519348	185.600000
829.554016	180.600000
829.588745	181.100000
829.623413	175.300000
829.658081	188.900000
829.692749	174.800000
829.727417	183.500000
829.762146	180.700000
829.796814	179.300000
829.831482	178.400000
829.866150	180.000000
829.900879	178.000000
829.935486	181.500000
829.970154	177.400000
830.004883	189.400000
830.039490	179.600000
830.074219	177.000000
830.108887	179.400000
830.143494	179.400000
830.178223	176.300000
830.212891	178.500000
830.247498	179.800000
830.282166	184.100000
830.316772	181.900000
830.351501	177.600000
830.386169	179.200000
830.420776	177.400000
830.455444	180.100000
830.490112	177.100000
830.524719	174.500000
830.559387	181.900000
830.594055	181.200000
830.628662	180.000000
830.663330	180.700000
830.697998	184.900000
830.732605	179.900000
830.767273	180.300000
830.801941	179.800000
830.836487	185.300000
830.871155	180.200000
830.905762	180.000000
830.940430	175.700000
830.975098	176.200000
831.009644	180.700000
831.044312	185.100000
831.078979	183.000000
831.113525	173.900000
831.148193	180.600000
831.182861	176.900000
831.217407	183.400000
831.252075	189.600000
831.286621	179.000000
831.321289	176.500000
831.355896	180.400000
831.390564	182.700000
831.425110	181.100000
831.459778	183.200000
831.494324	188.100000
831.528931	180.700000
831.563599	185.300000
831.598145	174.500000
831.632751	179.700000
831.667419	178.400000
831.701965	181.600000
831.736572	182.100000
831.771179	176.000000
831.805786	178.400000
831.840393	184.900000
831.874939	174.400000
831.909546	182.300000
831.944153	172.800000
831.978760	179.900000
832.013306	176.700000
832.047913	182.400000
832.082458	186.000000
832.117065	176.700000
832.151672	186.800000
832.186218	180.300000
832.220825	181.400000
832.255432	174.500000
832.289978	178.900000
832.324585	181.800000
832.359192	180.600000
832.393677	179.100000
832.428284	181.400000
832.462830	177.900000
832.497437	179.500000
832.531982	181.800000
832.566589	178.000000
832.601135	181.300000
832.635681	174.800000
832.670227	179.400000
832.704773	186.200000
832.739380	180.600000
832.773926	180.800000
832.808472	176.600000
832.843079	181.100000
832.877563	181.700000
832.912170	178.000000
832.946716	173.300000
832.981201	184.600000
833.015808	182.500000
833.050293	179.300000
833.084839	176.900000
833.119446	179.300000
833.153992	182.700000
833.188477	180.000000
833.223022	177.500000
833.257568	181.700000
833.292114	185.000000
833.326660	188.900000
833.361145	176.900000
833.395691	175.900000
833.430237	180.300000
833.464783	181.800000
833.499329	177.600000
833.533875	176.500000
833.568359	182.100000
833.602905	182.400000
833.637390	181.900000
833.671875	176.900000
833.706421	179.000000
833.740906	176.900000
833.775452	173.700000
833.809998	177.700000
833.844482	185.000000
833.879028	178.900000
833.913513	178.500000
833.947998	180.800000
833.982544	177.200000
834.017090	177.700000
834.051514	173.700000
834.086060	182.500000
834.120544	180.200000
834.155029	181.300000
834.189575	179.100000
834.223999	180.900000
834.258545	180.400000
834.293030	179.800000
834.327515	178.800000
834.362000	176.300000
834.396545	182.600000
834.430969	177.800000
834.465454	183.100000
834.500000	174.600000
834.534424	182.900000
834.568970	172.700000
834.603455	174.700000
834.637878	176.600000
834.672363	181.600000
834.706909	179.300000
834.741333	181.000000
834.775818	175.700000
834.810242	177.800000
834.844727	179.300000
834.879211	179.200000
834.913635	179.000000
834.948181	180.100000
834.982666	180.500000
835.017090	179.200000
835.051575	180.200000
835.086060	178.400000
835.120483	181.700000
835.154907	181.400000
835.189331	178.200000
835.223816	181.700000
835.258301	174.900000
835.292786	177.500000
835.327209	183.200000
835.361694	176.900000
835.396057	177.400000
835.430542	183.300000
835.465027	180.500000
835.499390	176.300000
835.533875	206.700000
835.568359	178.200000
835.602722	175.600000
835.637207	181.500000
835.671692	175.800000
835.706055	194.100000
835.740540	182.600000
835.774902	181.300000
835.809387	181.000000
835.843811	175.200000
835.878235	183.400000
835.912659	176.200000
835.947083	178.800000
835.981506	180.500000
836.015930	175.100000
836.050354	182.700000
836.084778	185.200000
836.119202	182.400000
836.153625	192.800000
836.187988	176.800000
836.222473	178.800000
836.256897	180.700000
836.291260	179.800000
836.325684	181.100000
836.360046	179.200000
836.394470	178.600000
836.428894	185.500000
836.463318	176.700000
836.497681	182.700000
836.532104	184.100000
836.566467	181.100000
836.600891	178.400000
836.635315	183.400000
836.669678	181.400000
836.704102	184.000000
836.738525	182.500000
836.772888	173.900000
836.807251	178.300000
836.841675	182.000000
836.876038	175.900000
836.910461	177.600000
836.944763	181.700000
836.979187	177.700000
837.013611	183.200000
837.047974	175.100000
837.082336	188.200000
837.116699	181.800000
837.151062	179.800000
837.185486	174.600000
837.219849	179.300000
837.254211	182.200000
837.288574	180.000000
837.322937	175.800000
837.357300	171.900000
837.391663	187.700000
837.426086	183.100000
837.460388	181.200000
837.494751	183.700000
837.529114	177.200000
837.563477	186.100000
837.597839	180.500000
837.632141	180.100000
837.666565	178.400000
837.700928	181.800000
837.735229	181.000000
837.769592	183.500000
837.803955	181.900000
837.838257	178.800000
837.872620	176.700000
837.906982	186.600000
837.941284	178.700000
837.975647	182.000000
838.010010	183.400000
838.044312	177.900000
838.078674	179.100000
838.112976	180.700000
838.147339	181.700000
838.181702	179.800000
838.216003	185.000000
838.250366	182.400000
838.284668	180.700000
838.318970	175.100000
838.353333	178.700000
838.387634	178.600000
838.421936	180.700000
838.456299	182.100000
838.490601	184.600000
838.524902	183.000000
838.559265	183.300000
838.593567	184.000000
838.627869	175.900000
838.662170	181.000000
838.696472	175.800000
838.730774	178.000000
838.765137	182.700000
838.799377	170.900000
838.833740	179.900000
838.868042	182.600000
838.902283	174.200000
838.936646	185.400000
838.970947	180.700000
839.005188	184.700000
839.039551	176.300000
839.073792	185.200000
839.108093	180.000000
839.142395	185.200000
839.176697	177.000000
839.210937	181.000000
839.245300	188.300000
839.279541	175.900000
839.313843	179.200000
839.348145	181.600000
839.382385	183.900000
839.416687	183.600000
839.450989	182.400000
839.485229	180.000000
839.519531	176.600000
839.553833	183.800000
839.588013	180.900000
839.622314	180.400000
839.656555	182.500000
839.690857	180.600000
839.725159	176.400000
839.759460	179.400000
839.793640	178.700000
839.827942	179.100000
839.862183	176.400000
839.896423	182.200000
839.930725	189.700000
839.964966	186.500000
839.999207	184.300000
840.033508	184.200000
840.067688	177.100000
840.101990	185.800000
840.136230	180.300000
840.170471	185.400000
840.204712	176.000000
840.238953	177.600000
840.273193	179.500000
840.307434	182.100000
840.341736	177.700000
840.375916	175.700000
840.410217	176.200000
840.444397	183.400000
840.478638	182.600000
840.512878	184.800000
840.547119	179.500000
840.581360	184.000000
840.615601	184.900000
840.649780	188.900000
840.684021	179.700000
840.718262	186.900000
840.752441	186.300000
840.786682	182.400000
840.820862	181.100000
840.855103	187.500000
840.889343	178.400000
840.923584	185.200000
840.957764	181.500000
840.992004	182.500000
841.026184	189.400000
841.060425	180.500000
841.094666	176.000000
841.128845	182.900000
841.163025	181.100000
841.197266	182.500000
841.231445	180.300000
841.265686	181.500000
841.299866	175.800000
841.334045	185.800000
841.368286	179.300000
841.402405	186.000000
841.436646	182.500000
841.470825	180.000000
841.505005	179.800000
841.539185	178.000000
841.573425	176.600000
841.607544	180.200000
841.641785	180.600000
841.675964	178.400000
841.710144	180.500000
841.744324	178.800000
841.778503	179.100000
841.812683	177.800000
841.846863	184.100000
841.881042	185.100000
841.915222	178.700000
841.949402	189.800000
841.983521	174.500000
842.017700	179.800000
842.051880	181.300000
842.086060	183.100000
842.120239	181.300000
842.154419	179.200000
842.188538	180.900000
842.222717	179.200000
842.256897	187.100000
842.291016	180.900000
842.325195	181.900000
842.359375	188.000000
842.393494	187.200000
842.427673	179.800000
842.461853	181.900000
842.495911	186.500000
842.530090	182.100000
842.564209	179.700000
842.598389	182.000000
842.632568	181.600000
842.666626	183.400000
842.700806	178.600000
842.734985	179.400000
842.769043	182.100000
842.803223	181.200000
842.837402	178.600000
842.871460	179.100000
842.905640	187.600000
842.939697	176.400000
842.973877	181.100000
843.007996	186.000000
843.042175	188.400000
843.076233	179.300000
843.110413	182.000000
843.144470	187.300000
843.178589	184.100000
843.212769	179.400000
843.246826	183.400000
843.280945	179.700000
843.315125	179.500000
843.349182	176.900000
843.383301	185.700000
843.417419	190.800000
843.451538	180.600000
843.485657	178.000000
843.519714	179.700000
843.553833	181.400000
843.587952	179.300000
843.622070	178.100000
843.656128	183.000000
843.690247	178.400000
843.724304	182.000000
843.758423	182.400000
843.792542	179.500000
843.826599	180.700000
843.860718	179.500000
843.894836	176.200000
843.928894	182.000000
843.963013	181.300000
843.997070	179.200000
844.031128	175.800000
844.065247	184.500000
844.099304	184.000000
844.133362	183.300000
844.167480	183.100000
844.201599	184.800000
844.235596	182.200000
844.269714	182.700000
844.303711	180.200000
844.337830	176.100000
844.371948	181.200000
844.405945	180.900000
844.440063	177.200000
844.474121	191.800000
844.508118	179.800000
844.542236	180.900000
844.576294	178.900000
844.610352	177.100000
844.644409	178.300000
844.678406	175.500000
844.712524	185.100000
844.746582	185.400000
844.780640	179.800000
844.814636	180.700000
844.848755	189.200000
844.882751	180.200000
844.916809	182.600000
844.950867	182.300000
844.984863	187.800000
845.018921	179.700000
845.052979	178.500000
845.086975	181.800000
845.121033	175.900000
845.155090	178.000000
845.189087	185.000000
845.223145	179.500000
845.257141	182.000000
845.291199	182.400000
845.325256	184.200000
845.359253	182.000000
845.393250	192.900000
845.427307	179.700000
845.461304	181.700000
845.495361	181.800000
845.529358	187.900000
845.563354	179.300000
845.597412	179.300000
845.631409	187.200000
845.665405	187.200000
845.699463	182.500000
845.733459	179.500000
845.767456	188.900000
845.801453	180.900000
845.835449	185.300000
845.869446	184.600000
845.903503	183.300000
845.937439	178.000000
845.971497	185.700000
846.005493	176.600000
846.039429	185.200000
846.073486	190.000000
846.107483	178.800000
846.141418	180.100000
846.175476	181.900000
846.209473	186.500000
846.243408	179.200000
846.277405	183.000000
846.311401	179.300000
846.345337	182.100000
846.379395	184.700000
846.413330	180.100000
846.447327	190.700000
846.481323	178.600000
846.515259	178.900000
846.549255	180.400000
846.583252	183.700000
846.617187	178.300000
846.651184	181.900000
846.685120	180.800000
846.719055	187.800000
846.753052	183.300000
846.786987	183.500000
846.820984	176.200000
846.854980	187.200000
846.888916	177.600000
846.922852	183.300000
846.956848	185.200000
846.990723	179.500000
847.024719	182.100000
847.058716	181.500000
847.092590	185.400000
847.126587	183.700000
847.160522	178.600000
847.194458	184.400000
847.228455	178.500000
847.262390	179.500000
847.296265	180.800000
847.330261	186.200000
847.364136	178.700000
847.398132	180.900000
847.432068	180.600000
847.466003	180.100000
847.499939	180.700000
847.533875	184.500000
847.567749	179.600000
847.601746	180.300000
847.635681	182.700000
847.669556	177.100000
847.703491	185.000000
847.737427	192.000000
847.771301	178.100000
847.805237	183.000000
847.839233	180.800000
847.873108	181.000000
847.907043	179.800000
847.940918	187.800000
847.974854	182.600000
848.008789	183.800000
848.042664	181.200000
848.076538	183.900000
848.110474	180.500000
848.144348	181.900000
848.178284	175.600000
848.212219	183.300000
848.246094	178.300000
848.279968	182.700000
848.313904	182.300000
848.347778	181.500000
848.381653	180.400000
848.415588	178.600000
848.449463	178.800000
848.483337	182.500000
848.517212	186.500000
848.551086	182.400000
848.585022	178.500000
848.618835	189.200000
848.652771	180.000000
848.686646	178.300000
848.720520	186.100000
848.754395	180.800000
848.788330	184.400000
848.822144	184.000000
848.856018	180.400000
848.889954	188.100000
848.923767	179.800000
848.957642	178.300000
848.991577	184.300000
849.025391	180.200000
849.059265	179.900000
849.093079	178.100000
849.126953	178.400000
849.160828	183.700000
849.194641	182.200000
849.228577	178.500000
849.262451	180.800000
849.296265	179.900000
849.330139	179.900000
849.364014	181.200000
849.397827	182.500000
849.431702	181.600000
849.465515	185.500000
849.499329	175.900000
849.533203	178.600000
849.567078	174.400000
849.600891	183.400000
849.634766	180.100000
849.668518	184.700000
849.702393	181.000000
849.736267	177.000000
849.770020	187.400000
849.803894	183.400000
849.837769	181.700000
849.871521	181.400000
849.905396	184.000000
849.939270	178.000000
849.973022	180.100000
850.006897	183.500000
850.040710	184.500000
850.074524	184.000000
850.108337	180.900000
850.142151	185.300000
850.175964	185.100000
850.209778	181.300000
850.243530	174.500000
850.277405	184.300000
850.311218	180.900000
850.344971	179.400000
850.378845	186.700000
850.412659	178.200000
850.446411	183.400000
850.480225	181.100000
850.514038	184.700000
850.547791	184.200000
850.581665	181.900000
850.615417	178.000000
850.649231	182.700000
850.683044	179.000000
850.716858	180.500000
850.750610	181.500000
850.784424	184.800000
850.818176	176.600000
850.851929	181.200000
850.885742	177.700000
850.919495	180.800000
850.953308	186.200000
850.987122	186.200000
851.020874	176.500000
851.054626	177.000000
851.088440	183.900000
851.122192	183.900000
851.156006	181.300000
851.189697	180.900000
851.223511	177.500000
851.257263	184.300000
851.291077	182.100000
851.324829	179.300000
851.358582	180.100000
851.392334	181.700000
851.426086	179.900000
851.459900	188.000000
851.493591	181.700000
851.527344	181.200000
851.561157	181.000000
851.594849	182.400000
851.628662	182.200000
851.662415	188.200000
851.696106	183.200000
851.729858	185.600000
851.763611	178.000000
851.797363	181.400000
851.831116	178.800000
851.864868	185.700000
851.898560	184.500000
851.932312	178.700000
851.966064	184.100000
851.999817	181.200000
852.033569	181.400000
852.067261	186.200000
852.101013	179.500000
852.134766	179.300000
852.168457	175.100000
852.202209	185.300000
852.235901	178.700000
852.269592	183.000000
852.303345	187.600000
852.337036	184.000000
852.370789	182.300000
852.404541	183.300000
852.438171	180.200000
852.471924	180.800000
852.505676	177.300000
852.539307	182.300000
852.573059	181.000000
852.606812	179.800000
852.640442	180.600000
852.674194	183.900000
852.707886	190.200000
852.741577	187.300000
852.775269	180.400000
852.809021	181.300000
852.842651	183.800000
852.876404	187.600000
852.910034	184.000000
852.943787	185.000000
852.977478	183.300000
853.011108	178.800000
853.044861	178.400000
853.078552	186.300000
853.112183	182.700000
853.145874	182.900000
853.179626	174.900000
853.213257	183.000000
853.246948	179.600000
853.280640	188.000000
853.314270	180.900000
853.347961	185.300000
853.381653	183.000000
853.415283	186.900000
853.448975	178.500000
853.482605	182.200000
853.516296	182.200000
853.549988	177.600000
853.583618	183.700000
853.617310	183.000000
853.651001	181.800000
853.684631	179.800000
853.718323	179.600000
853.751953	187.200000
853.785583	175.500000
853.819275	185.100000
853.852966	181.100000
853.886536	176.400000
853.920227	177.000000
853.953918	185.600000
853.987488	180.400000
854.021179	186.800000
854.054749	187.800000
854.088440	185.000000
854.122131	178.100000
854.155701	183.000000
854.189331	177.800000
854.223022	184.300000
854.256592	182.700000
854.290283	180.600000
854.323914	183.400000
854.357483	183.500000
854.391174	182.800000
854.424744	187.200000
854.458374	181.300000
854.492065	191.400000
854.525696	183.600000
854.559265	186.000000
854.592896	190.600000
854.626465	182.300000
854.660095	180.900000
854.693787	184.800000
854.727356	179.300000
854.760986	185.600000
854.794617	182.700000
854.828186	180.400000
854.861816	182.600000
854.895447	182.400000
854.929016	182.700000
854.962585	184.300000
854.996155	189.700000
855.029785	183.000000
855.063416	182.500000
855.097046	185.100000
855.130615	178.500000
855.164185	186.200000
855.197754	183.400000
855.231384	183.200000
855.264954	180.200000
855.298523	185.300000
855.332153	183.600000
855.365723	187.500000
855.399292	179.100000
855.432922	180.700000
855.466492	183.200000
855.500061	177.900000
855.533630	178.600000
855.567200	183.600000
855.600769	185.700000
855.634338	185.000000
855.667969	182.400000
855.701477	179.100000
855.735046	178.700000
855.768616	175.200000
855.802185	183.300000
855.835754	191.000000
855.869324	176.200000
855.902893	181.400000
855.936401	186.100000
855.969971	181.800000
856.003540	177.500000
856.037109	184.200000
856.070618	181.900000
856.104187	177.200000
856.137695	179.400000
856.171265	176.000000
856.204834	182.700000
856.238403	185.300000
856.271912	180.200000
856.305481	182.700000
856.338989	179.100000
856.372559	183.200000
856.406128	183.100000
856.439636	185.600000
856.473145	180.100000
856.506653	186.800000
856.540222	181.700000
856.573792	185.900000
856.607300	184.100000
856.640808	177.600000
856.674377	181.900000
856.707825	214.800000
856.741394	186.300000
856.774902	179.300000
856.808472	175.900000
856.841980	185.300000
856.875488	185.300000
856.908936	177.400000
856.942505	180.500000
856.976013	181.900000
857.009521	179.300000
857.043030	183.100000
857.076477	181.300000
857.110046	187.900000
857.143555	181.700000
857.177063	184.200000
857.210571	180.300000
857.244080	177.300000
857.277527	183.900000
857.311035	181.800000
857.344543	185.800000
857.378052	181.200000
857.411499	186.000000
857.445068	188.500000
857.478516	180.400000
857.512024	179.200000
857.545532	179.900000
857.578979	183.200000
857.612427	182.500000
857.645874	179.200000
857.679382	183.400000
857.712891	187.100000
857.746399	182.200000
857.779846	185.300000
857.813354	185.400000
857.846741	181.700000
857.880249	179.000000
857.913757	183.500000
857.947266	181.500000
857.980652	184.900000
858.014160	180.800000
858.047546	179.800000
858.081055	181.200000
858.114563	192.100000
858.147949	177.800000
858.181458	184.600000
858.214844	180.000000
858.248352	177.100000
858.281799	184.100000
858.315308	190.800000
858.348694	185.600000
858.382141	186.900000
858.415588	184.400000
858.449036	186.100000
858.482483	183.800000
858.515930	181.300000
858.549377	183.900000
858.582825	186.500000
858.616211	184.300000
858.649658	182.400000
858.683105	180.500000
858.716553	179.000000
858.750000	177.800000
858.783386	180.400000
858.816833	177.300000
858.850281	181.200000
858.883728	182.900000
858.917114	183.200000
858.950562	189.400000
858.983948	186.400000
859.017395	185.300000
859.050781	179.500000
859.084167	180.100000
859.117615	178.200000
859.151062	184.600000
859.184448	179.000000
859.217834	181.400000
859.251282	179.400000
859.284668	178.800000
859.318054	175.300000
859.351440	181.500000
859.384888	187.400000
859.418274	176.900000
859.451721	175.600000
859.485046	182.700000
859.518494	182.200000
859.551819	179.100000
859.585266	183.500000
859.618652	186.300000
859.652039	177.900000
859.685425	178.300000
859.718811	176.500000
859.752197	175.300000
859.785583	186.000000
859.819031	185.800000
859.852356	184.100000
859.885742	177.700000
859.919067	181.100000
859.952454	179.800000
859.985901	185.300000
860.019287	180.300000
860.052612	0.000000
860.085999	0.000000
860.119324	0.000000
860.152710	0.000000
860.186096	0.000000
860.219421	0.000000
860.252808	0.000000
860.286133	0.000000
860.319519	0.000000
860.352905	0.000000
860.386292	0.000000
860.419617	0.000000
860.452942	0.000000
860.486267	0.000000
860.519653	0.000000
860.553040	0.000000
860.586365	0.000000
860.619690	0.000000
860.653076	0.000000
860.686340	0.000000
860.719727	0.000000
860.753113	0.000000
860.786377	0.000000
860.819763	0.000000
860.853027	0.000000
860.886414	0.000000
860.919739	0.000000
860.953125	0.000000
860.986389	0.000000
861.019714	0.000000
861.053040	0.000000
861.086365	0.000000
861.119690	0.000000
861.153076	0.000000
861.186340	0.000000
861.219666	0.000000
861.252930	0.000000
861.286316	0.000000
861.319641	0.000000
861.352905	0.000000
861.386230	0.000000
861.419495	0.000000
861.452820	0.000000
861.486145	0.000000
861.519470	0.000000
861.552734	0.000000
861.586060	0.000000
861.619324	0.000000
861.652649	0.000000
861.685974	0.000000
861.719238	0.000000
861.752563	0.000000
861.785828	0.000000
861.819092	0.000000
861.852417	0.000000
861.885742	0.000000
861.918945	0.000000
861.952271	0.000000
861.985535	0.000000
862.018799	0.000000
862.052124	0.000000
862.085449	0.000000
862.118652	0.000000
862.151978	0.000000
862.185181	0.000000
862.218506	0.000000
862.251770	0.000000
862.285034	0.000000
862.318298	0.000000
862.351562	0.000000
862.384827	0.000000
862.418091	0.000000
862.451355	0.000000
862.484619	0.000000
862.517883	0.000000
862.551086	0.000000
862.584351	0.000000
862.617676	0.000000
862.650940	0.000000
862.684143	0.000000
862.717407	0.000000
862.750610	0.000000
862.783875	0.000000
862.817139	0.000000
862.850342	0.000000
862.883606	0.000000
862.916870	0.000000
862.950073	0.000000
862.983337	0.000000
863.016602	0.000000
863.049805	0.000000
863.083069	0.000000
863.116211	0.000000
863.149475	0.000000
863.182739	0.000000
863.216003	0.000000
863.249146	0.000000
863.282410	0.000000
863.315613	0.000000
863.348816	0.000000
863.382080	0.000000
863.415222	0.000000
863.448486	0.000000
863.481689	0.000000
863.514893	0.000000
863.548157	0.000000
863.581360	0.000000
863.614502	0.000000
863.647766	0.000000
863.680908	0.000000
863.714172	0.000000
863.747375	0.000000
863.780579	0.000000
863.813721	0.000000
863.846985	0.000000
863.880127	0.000000
863.913330	0.000000
863.946533	0.000000
863.979675	0.000000
864.012939	0.000000
