Model Number: SPM-001-M   
Serial Number: 10090201
Firmware Version: 004.17.6
Exposure Time: 300000.000000us
Data Taken on: 28-01-2021 10:18:50.295
Wavelength	Amplitude
733.770752	0.000000
733.808716	0.000000
733.846619	0.000000
733.884583	0.000000
733.922546	0.000000
733.960449	0.000000
733.998413	0.000000
734.036377	0.000000
734.074219	0.000000
734.112183	0.000000
734.150085	0.000000
734.188049	0.000000
734.226013	0.000000
734.263916	0.000000
734.301819	0.000000
734.339783	0.000000
734.377686	0.000000
734.415588	0.000000
734.453552	0.000000
734.491455	0.000000
734.529419	0.000000
734.567322	0.000000
734.605225	0.000000
734.643127	0.000000
734.681091	0.000000
734.718994	0.000000
734.756897	0.000000
734.794800	0.000000
734.832703	0.000000
734.870667	0.000000
734.908508	0.000000
734.946472	0.000000
734.984375	0.000000
735.022278	0.000000
735.060181	0.000000
735.098083	0.000000
735.135986	0.000000
735.173889	0.000000
735.211792	0.000000
735.249695	0.000000
735.287598	0.000000
735.325439	0.000000
735.363403	0.000000
735.401306	0.000000
735.439148	0.000000
735.477051	0.000000
735.515015	0.000000
735.552856	0.000000
735.590759	0.000000
735.628662	0.000000
735.666504	0.000000
735.704407	0.000000
735.742310	0.000000
735.780212	0.000000
735.818115	0.000000
735.856018	0.000000
735.893860	0.000000
735.931763	0.000000
735.969604	0.000000
736.007507	0.000000
736.045410	0.000000
736.083252	0.000000
736.121094	0.000000
736.158997	0.000000
736.196838	0.000000
736.234741	0.000000
736.272644	0.000000
736.310486	0.000000
736.348389	0.000000
736.386230	0.000000
736.424072	0.000000
736.461975	0.000000
736.499878	0.000000
736.537720	0.000000
736.575562	0.000000
736.613403	0.000000
736.651306	0.000000
736.689148	0.000000
736.726990	0.000000
736.764893	0.000000
736.802734	0.000000
736.840576	0.000000
736.878418	0.000000
736.916321	0.000000
736.954102	0.000000
736.992004	0.000000
737.029846	0.000000
737.067688	0.000000
737.105530	0.000000
737.143372	0.000000
737.181213	0.000000
737.219116	0.000000
737.256897	0.000000
737.294739	0.000000
737.332642	0.000000
737.370422	0.000000
737.408325	0.000000
737.446167	0.000000
737.483948	0.000000
737.521790	0.000000
737.559692	0.000000
737.597473	0.000000
737.635315	0.000000
737.673157	0.000000
737.710999	0.000000
737.748840	0.000000
737.786621	0.000000
737.824463	0.000000
737.862305	0.000000
737.900085	0.000000
737.937927	0.000000
737.975769	0.000000
738.013550	0.000000
738.051392	0.000000
738.089233	0.000000
738.127014	0.000000
738.164856	0.000000
738.202698	0.000000
738.240479	0.000000
738.278320	0.000000
738.316162	0.000000
738.353943	0.000000
738.391785	0.000000
738.429565	0.000000
738.467407	0.000000
738.505188	0.000000
738.542969	0.000000
738.580811	0.000000
738.618652	0.000000
738.656372	0.000000
738.694214	0.000000
738.732056	0.000000
738.769836	0.000000
738.807617	0.000000
738.845459	0.000000
738.883240	0.000000
738.921021	0.000000
738.958862	0.000000
738.996582	0.000000
739.034424	0.000000
739.072205	0.000000
739.109985	0.000000
739.147827	0.000000
739.185547	0.000000
739.223389	0.000000
739.261169	0.000000
739.298889	0.000000
739.336731	0.000000
739.374512	0.000000
739.412292	0.000000
739.450073	0.000000
739.487854	0.000000
739.525635	0.000000
739.563416	0.000000
739.601135	0.000000
739.638977	0.000000
739.676758	0.000000
739.714478	0.000000
739.752258	0.000000
739.790100	0.000000
739.827820	0.000000
739.865601	0.000000
739.903381	0.000000
739.941101	0.000000
739.978882	183.800000
740.016724	180.800000
740.054443	183.300000
740.092224	178.500000
740.130005	180.000000
740.167725	178.700000
740.205505	179.600000
740.243225	184.700000
740.281006	181.500000
740.318787	176.100000
740.356506	185.600000
740.394287	184.600000
740.432068	178.900000
740.469727	178.000000
740.507507	184.000000
740.545288	182.700000
740.583008	183.100000
740.620789	182.200000
740.658569	175.700000
740.696228	182.800000
740.734009	183.800000
740.771790	174.400000
740.809509	184.400000
740.847229	178.000000
740.884949	178.500000
740.922729	177.000000
740.960449	179.000000
740.998169	178.400000
741.035950	177.500000
741.073669	182.000000
741.111389	181.600000
741.149170	188.400000
741.186890	187.600000
741.224609	184.600000
741.262329	180.400000
741.300110	187.000000
741.337769	177.300000
741.375549	177.700000
741.413208	181.300000
741.450989	179.300000
741.488708	180.000000
741.526367	180.200000
741.564148	183.700000
741.601868	183.500000
741.639526	180.900000
741.677307	184.300000
741.715027	183.600000
741.752686	178.400000
741.790466	186.200000
741.828186	182.000000
741.865845	176.700000
741.903564	178.100000
741.941345	181.400000
741.979004	178.700000
742.016724	183.300000
742.054382	182.100000
742.092102	184.900000
742.129822	177.400000
742.167480	179.200000
742.205200	180.400000
742.242920	183.100000
742.280640	183.800000
742.318359	178.100000
742.356079	182.200000
742.393738	185.100000
742.431396	179.400000
742.469116	185.600000
742.506775	175.200000
742.544495	182.700000
742.582214	183.700000
742.619873	180.900000
742.657593	187.100000
742.695251	185.700000
742.732971	179.400000
742.770630	182.400000
742.808289	182.500000
742.846008	180.500000
742.883728	181.600000
742.921326	181.600000
742.959045	178.500000
742.996765	180.300000
743.034424	180.500000
743.072083	179.600000
743.109802	181.000000
743.147400	178.500000
743.185120	181.100000
743.222839	179.900000
743.260437	185.200000
743.298157	182.300000
743.335754	175.400000
743.373474	180.700000
743.411133	176.500000
743.448792	181.900000
743.486450	180.700000
743.524170	176.200000
743.561768	180.300000
743.599487	186.300000
743.637146	187.000000
743.674744	180.500000
743.712463	180.200000
743.750122	182.600000
743.787720	182.100000
743.825439	179.400000
743.863037	179.600000
743.900696	181.900000
743.938416	205.200000
743.976013	181.100000
744.013672	187.200000
744.051331	185.300000
744.088928	187.400000
744.126587	185.000000
744.164307	183.400000
744.201904	180.100000
744.239563	183.300000
744.277222	183.200000
744.314819	182.300000
744.352478	186.700000
744.390137	183.500000
744.427734	183.300000
744.465393	180.400000
744.502991	178.900000
744.540649	182.600000
744.578308	180.200000
744.615906	178.700000
744.653564	174.100000
744.691223	183.500000
744.728821	177.700000
744.766418	181.500000
744.804077	182.600000
744.841675	180.400000
744.879333	176.800000
744.916992	180.500000
744.954529	179.900000
744.992187	185.600000
745.029785	180.000000
745.067444	180.500000
745.105042	181.900000
745.142639	183.300000
745.180298	187.900000
745.217896	180.000000
745.255493	180.400000
745.293152	184.300000
745.330750	184.700000
745.368347	186.100000
745.405945	183.400000
745.443604	182.400000
745.481140	184.000000
745.518799	182.500000
745.556396	184.200000
745.593994	183.800000
745.631592	181.500000
745.669189	179.100000
745.706787	181.500000
745.744385	179.300000
745.781982	184.500000
745.819580	180.400000
745.857178	182.000000
745.894775	181.000000
745.932373	182.400000
745.969971	182.700000
746.007568	177.300000
746.045166	187.400000
746.082764	186.300000
746.120300	183.300000
746.157898	184.700000
746.195557	182.100000
746.233093	177.600000
746.270691	183.400000
746.308228	184.100000
746.345825	183.400000
746.383423	184.100000
746.420959	179.000000
746.458557	180.100000
746.496155	178.300000
746.533691	182.900000
746.571289	177.900000
746.608887	181.800000
746.646423	181.200000
746.684021	182.600000
746.721619	177.200000
746.759155	184.300000
746.796753	177.200000
746.834351	178.300000
746.871826	177.100000
746.909424	187.100000
746.946960	180.700000
746.984558	181.400000
747.022156	179.000000
747.059631	188.100000
747.097229	182.500000
747.134827	180.400000
747.172363	185.300000
747.209900	185.300000
747.247498	178.500000
747.285034	186.000000
747.322571	186.200000
747.360168	180.700000
747.397644	176.900000
747.435242	184.800000
747.472778	186.300000
747.510315	181.000000
747.547913	181.200000
747.585388	184.700000
747.622925	181.100000
747.660522	176.200000
747.697998	180.100000
747.735596	181.200000
747.773132	179.400000
747.810669	181.500000
747.848206	183.500000
747.885742	178.900000
747.923279	176.000000
747.960815	182.800000
747.998352	182.300000
748.035889	183.300000
748.073425	184.200000
748.110901	179.600000
748.148437	178.100000
748.185974	181.200000
748.223511	188.900000
748.261047	184.000000
748.298584	182.400000
748.336060	181.100000
748.373596	183.100000
748.411133	206.400000
748.448608	180.200000
748.486145	183.200000
748.523682	184.800000
748.561218	187.100000
748.598755	182.900000
748.636292	182.200000
748.673706	180.400000
748.711243	186.300000
748.748718	182.200000
748.786255	181.700000
748.823792	181.700000
748.861267	177.400000
748.898804	184.000000
748.936340	182.400000
748.973816	179.000000
749.011292	186.100000
749.048828	182.100000
749.086304	182.500000
749.123840	188.800000
749.161316	178.200000
749.198792	188.000000
749.236328	184.800000
749.273743	181.300000
749.311279	181.700000
749.348816	186.100000
749.386230	181.400000
749.423767	174.400000
749.461304	185.900000
749.498718	182.000000
749.536255	186.500000
749.573730	189.500000
749.611206	186.100000
749.648682	181.700000
749.686218	182.100000
749.723633	183.300000
749.761169	182.000000
749.798645	178.100000
749.836060	180.100000
749.873596	178.100000
749.911011	183.500000
749.948547	185.400000
749.986023	181.300000
750.023437	181.200000
750.060913	177.700000
750.098450	176.600000
750.135864	181.400000
750.173340	179.900000
750.210815	184.700000
750.248291	178.100000
750.285767	180.700000
750.323242	183.500000
750.360657	182.900000
750.398132	177.600000
750.435608	184.200000
750.473022	178.000000
750.510498	178.200000
750.547974	177.800000
750.585449	181.600000
750.622925	174.400000
750.660339	191.000000
750.697815	180.800000
750.735291	181.600000
750.772644	180.700000
750.810120	183.700000
750.847595	182.400000
750.885010	178.300000
750.922485	186.200000
750.959961	180.400000
750.997375	185.400000
751.034851	184.900000
751.072266	183.100000
751.109680	177.800000
751.147156	185.700000
751.184570	183.700000
751.221985	180.300000
751.259460	177.000000
751.296875	181.400000
751.334290	181.600000
751.371765	186.800000
751.409180	183.900000
751.446594	185.900000
751.484070	183.200000
751.521423	182.200000
751.558899	181.800000
751.596375	189.300000
751.633728	185.800000
751.671204	189.500000
751.708618	179.400000
751.746033	183.100000
751.783447	178.100000
751.820801	180.000000
751.858276	185.200000
751.895691	180.500000
751.933105	180.000000
751.970520	178.700000
752.007935	180.300000
752.045349	185.400000
752.082764	181.400000
752.120178	180.400000
752.157532	178.500000
752.195007	181.000000
752.232422	182.200000
752.269775	184.200000
752.307190	182.000000
752.344543	177.800000
752.382019	181.000000
752.419434	180.600000
752.456787	182.800000
752.494202	185.500000
752.531616	183.600000
752.568970	185.200000
752.606384	182.600000
752.643799	182.200000
752.681152	185.600000
752.718567	183.000000
752.755981	176.500000
752.793335	184.300000
752.830750	176.300000
752.868164	185.700000
752.905518	179.000000
752.942932	183.700000
752.980225	178.100000
753.017639	182.900000
753.055054	184.900000
753.092407	182.200000
753.129822	184.300000
753.167175	187.800000
753.204529	181.000000
753.241943	177.700000
753.279358	179.300000
753.316650	183.400000
753.354065	182.900000
753.391479	184.600000
753.428772	186.700000
753.466187	181.900000
753.503479	178.200000
753.540894	179.000000
753.578308	178.200000
753.615601	176.600000
753.653015	180.900000
753.690369	180.800000
753.727722	178.900000
753.765076	176.300000
753.802490	178.100000
753.839783	175.800000
753.877136	180.900000
753.914551	189.200000
753.951843	178.800000
753.989258	183.900000
754.026611	182.600000
754.063904	183.400000
754.101257	180.100000
754.138611	175.600000
754.175964	183.300000
754.213318	186.600000
754.250610	178.600000
754.288025	179.900000
754.325378	178.800000
754.362671	183.500000
754.400024	182.700000
754.437378	188.600000
754.474670	188.300000
754.512085	181.400000
754.549438	181.800000
754.586731	180.600000
754.624084	181.900000
754.661438	179.400000
754.698730	187.800000
754.736084	181.900000
754.773376	179.300000
754.810730	183.200000
754.848083	181.400000
754.885315	184.900000
754.922668	176.900000
754.960022	179.600000
754.997314	184.400000
755.034668	181.400000
755.072021	183.000000
755.109253	180.700000
755.146606	186.800000
755.183960	182.000000
755.221252	187.100000
755.258545	185.100000
755.295898	188.100000
755.333191	185.400000
755.370544	184.300000
755.407776	182.400000
755.445129	183.500000
755.482422	185.900000
755.519714	179.400000
755.557068	178.700000
755.594360	176.100000
755.631653	185.100000
755.668945	188.900000
755.706299	183.200000
755.743530	190.000000
755.780884	189.000000
755.818176	184.800000
755.855408	187.000000
755.892761	183.500000
755.930054	182.900000
755.967346	185.100000
756.004639	184.100000
756.041870	183.100000
756.079224	187.400000
756.116516	180.600000
756.153748	186.400000
756.191040	189.900000
756.228394	184.600000
756.265625	179.700000
756.302917	184.200000
756.340210	180.200000
756.377441	187.800000
756.414795	189.600000
756.452087	183.100000
756.489319	180.700000
756.526611	187.900000
756.563843	185.100000
756.601135	189.900000
756.638428	191.000000
756.675659	184.200000
756.712952	186.900000
756.750244	187.400000
756.787476	185.700000
756.824768	189.000000
756.862061	184.700000
756.899292	229.300000
756.936584	187.700000
756.973816	193.300000
757.011047	194.400000
757.048340	183.800000
757.085632	185.900000
757.122864	196.800000
757.160156	182.500000
757.197327	186.400000
757.234619	189.900000
757.271912	183.400000
757.309082	190.600000
757.346375	183.400000
757.383667	190.600000
757.420837	185.600000
757.458130	186.800000
757.495422	183.700000
757.532593	187.900000
757.569885	180.800000
757.607117	184.200000
757.644348	187.200000
757.681580	197.000000
757.718811	177.500000
757.756042	186.900000
757.793335	184.300000
757.830505	193.100000
757.867798	185.000000
757.905029	184.500000
757.942200	186.300000
757.979492	185.800000
758.016724	186.500000
758.053894	186.000000
758.091187	197.900000
758.128418	187.700000
758.165588	187.600000
758.202820	195.900000
758.240112	187.400000
758.277283	195.300000
758.314514	188.900000
758.351685	186.800000
758.388916	193.900000
758.426147	192.700000
758.463379	194.100000
758.500610	189.700000
758.537842	189.700000
758.575012	193.700000
758.612244	188.000000
758.649475	197.100000
758.686646	185.300000
758.723877	193.700000
758.761108	195.200000
758.798279	189.400000
758.835510	190.800000
758.872742	194.600000
758.909851	192.200000
758.947083	190.400000
758.984253	193.500000
759.021484	193.600000
759.058716	194.000000
759.095886	195.100000
759.133057	190.900000
759.170288	193.400000
759.207458	190.400000
759.244690	198.100000
759.281860	198.100000
759.319031	191.900000
759.356262	191.700000
759.393433	190.200000
759.430603	192.100000
759.467773	191.700000
759.505005	196.600000
759.542175	195.900000
759.579346	192.200000
759.616516	192.800000
759.653687	196.900000
759.690918	191.600000
759.728027	193.800000
759.765259	195.900000
759.802429	196.700000
759.839539	195.800000
759.876770	197.600000
759.913940	199.600000
759.951111	195.000000
759.988281	196.200000
760.025452	192.900000
760.062561	192.400000
760.099792	203.000000
760.136963	197.700000
760.174072	194.800000
760.211243	192.700000
760.248413	191.500000
760.285583	193.200000
760.322754	202.700000
760.359863	199.500000
760.397034	201.400000
760.434204	196.300000
760.471375	195.800000
760.508545	196.100000
760.545715	196.100000
760.582825	194.300000
760.619995	198.600000
760.657166	193.600000
760.694275	200.500000
760.731445	198.500000
760.768555	197.800000
760.805664	200.100000
760.842834	198.200000
760.879944	201.400000
760.917114	197.300000
760.954285	197.100000
760.991394	194.100000
761.028564	202.600000
761.065674	198.100000
761.102783	198.100000
761.139954	201.900000
761.177124	200.000000
761.214172	203.200000
761.251343	198.000000
761.288452	197.800000
761.325562	202.000000
761.362732	197.100000
761.399841	200.100000
761.436951	200.700000
761.474121	197.300000
761.511169	199.800000
761.548340	203.000000
761.585449	203.000000
761.622559	204.600000
761.659668	202.700000
761.696838	205.600000
761.733887	203.200000
761.771057	200.700000
761.808167	201.500000
761.845276	205.100000
761.882385	212.400000
761.919434	203.100000
761.956604	216.300000
761.993713	200.700000
762.030762	207.400000
762.067871	203.000000
762.105042	203.800000
762.142090	208.500000
762.179199	204.900000
762.216309	207.700000
762.253418	215.300000
762.290527	211.400000
762.327637	208.600000
762.364685	201.400000
762.401794	209.400000
762.438904	206.200000
762.475952	203.700000
762.513062	201.900000
762.550110	205.100000
762.587219	214.200000
762.624329	211.600000
762.661377	209.100000
762.698486	207.900000
762.735596	207.400000
762.772644	204.500000
762.809753	202.500000
762.846863	205.600000
762.883911	210.800000
762.921021	208.900000
762.958069	207.900000
762.995117	215.200000
763.032227	215.000000
763.069336	208.100000
763.106323	203.300000
763.143433	204.800000
763.180481	210.000000
763.217590	211.100000
763.254639	209.000000
763.291687	209.700000
763.328735	216.400000
763.365845	211.500000
763.402893	210.000000
763.439941	213.200000
763.477051	213.200000
763.514038	213.100000
763.551147	210.500000
763.588196	211.600000
763.625244	212.600000
763.662292	218.500000
763.699402	221.800000
763.736389	216.400000
763.773499	222.900000
763.810486	217.100000
763.847534	216.600000
763.884644	216.900000
763.921631	214.500000
763.958679	222.400000
763.995728	216.600000
764.032776	222.000000
764.069824	213.500000
764.106873	219.900000
764.143860	224.800000
764.180969	219.100000
764.218018	224.300000
764.255005	218.100000
764.292053	220.500000
764.329102	226.500000
764.366089	226.700000
764.403137	224.000000
764.440125	220.800000
764.477173	221.800000
764.514221	225.600000
764.551208	223.100000
764.588257	222.300000
764.625305	225.900000
764.662292	230.200000
764.699341	232.100000
764.736389	228.200000
764.773376	236.900000
764.810425	228.700000
764.847473	233.100000
764.884399	230.500000
764.921448	235.200000
764.958435	235.200000
764.995483	228.100000
765.032532	241.100000
765.069458	230.600000
765.106506	234.200000
765.143555	230.700000
765.180481	234.500000
765.217529	238.400000
765.254578	229.400000
765.291504	235.300000
765.328552	236.200000
765.365540	231.600000
765.402527	242.200000
765.439575	232.900000
765.476501	229.500000
765.513550	231.900000
765.550537	235.100000
765.587463	241.200000
765.624512	235.600000
765.661499	230.600000
765.698486	239.600000
765.735474	234.100000
765.772461	237.500000
765.809448	240.700000
765.846436	239.700000
765.883423	245.000000
765.920410	240.000000
765.957397	237.300000
765.994385	241.200000
766.031311	244.800000
766.068359	240.300000
766.105286	243.400000
766.142273	247.300000
766.179260	243.600000
766.216187	240.100000
766.253174	239.200000
766.290161	243.400000
766.327148	247.900000
766.364136	245.700000
766.401123	256.800000
766.438049	241.000000
766.475037	250.700000
766.512024	247.000000
766.548950	259.700000
766.585937	255.100000
766.622864	252.100000
766.659790	249.900000
766.696777	245.400000
766.733704	254.000000
766.770691	249.500000
766.807678	256.900000
766.844604	256.000000
766.881531	254.400000
766.918518	257.800000
766.955444	258.600000
766.992432	255.400000
767.029358	255.700000
767.066284	259.000000
767.103271	256.600000
767.140198	288.500000
767.177124	268.500000
767.214050	259.100000
767.251038	260.900000
767.287964	258.900000
767.324890	258.400000
767.361816	258.500000
767.398743	263.500000
767.435730	260.200000
767.472595	262.100000
767.509583	264.800000
767.546509	259.100000
767.583374	261.700000
767.620361	258.800000
767.657288	261.100000
767.694214	261.500000
767.731140	260.000000
767.768066	262.900000
767.804993	265.600000
767.841919	259.700000
767.878845	263.500000
767.915710	269.800000
767.952698	262.800000
767.989563	267.000000
768.026489	266.300000
768.063416	263.000000
768.100281	262.500000
768.137207	269.800000
768.174133	266.600000
768.211060	270.200000
768.247986	268.100000
768.284912	267.800000
768.321777	268.700000
768.358704	268.600000
768.395630	267.500000
768.432495	265.300000
768.469421	270.700000
768.506348	273.800000
768.543152	278.300000
768.580078	276.700000
768.616943	276.800000
768.653870	277.700000
768.690796	276.000000
768.727661	275.500000
768.764587	278.500000
768.801453	272.600000
768.838318	281.000000
768.875244	279.700000
768.912109	285.300000
768.948975	278.400000
768.985901	281.100000
769.022766	279.200000
769.059631	285.200000
769.096558	279.900000
769.133362	282.000000
769.170288	281.900000
769.207214	282.900000
769.244019	287.000000
769.280945	288.400000
769.317810	291.100000
769.354675	288.400000
769.391541	295.100000
769.428406	293.500000
769.465271	298.200000
769.502136	292.200000
769.539062	293.600000
769.575867	294.500000
769.612732	293.800000
769.649597	299.700000
769.686462	299.600000
769.723328	297.700000
769.760193	295.200000
769.797058	298.200000
769.833923	303.000000
769.870728	300.600000
769.907593	303.600000
769.944519	304.500000
769.981323	303.800000
770.018188	307.100000
770.055054	304.900000
770.091858	306.100000
770.128723	313.400000
770.165588	318.500000
770.202393	308.300000
770.239258	315.700000
770.276062	312.800000
770.312927	315.800000
770.349792	319.500000
770.386597	318.400000
770.423462	323.300000
770.460327	328.800000
770.497131	317.900000
770.533997	315.300000
770.570862	327.100000
770.607605	329.000000
770.644470	324.900000
770.681335	323.500000
770.718140	326.800000
770.754944	322.100000
770.791809	322.000000
770.828613	322.700000
770.865479	328.100000
770.902222	333.400000
770.939087	330.300000
770.975952	322.800000
771.012695	327.600000
771.049561	337.600000
771.086365	333.300000
771.123169	330.200000
771.159973	333.100000
771.196838	332.000000
771.233582	335.000000
771.270447	335.100000
771.307251	340.000000
771.344055	335.400000
771.380859	341.700000
771.417664	333.000000
771.454468	341.300000
771.491272	339.700000
771.528076	344.100000
771.564880	339.200000
771.601685	348.100000
771.638428	342.200000
771.675293	349.100000
771.712097	340.700000
771.748840	353.700000
771.785645	349.300000
771.822449	350.300000
771.859253	348.400000
771.896057	347.400000
771.932861	354.700000
771.969604	353.900000
772.006409	348.300000
772.043213	354.900000
772.079956	353.400000
772.116760	347.900000
772.153503	353.000000
772.190308	362.000000
772.227112	355.000000
772.263855	355.100000
772.300659	355.900000
772.337463	359.700000
772.374207	354.400000
772.411011	353.200000
772.447754	358.000000
772.484497	368.900000
772.521301	364.800000
772.558105	362.600000
772.594849	361.600000
772.631592	368.100000
772.668396	364.600000
772.705139	369.000000
772.741882	369.000000
772.778625	374.700000
772.815430	375.300000
772.852173	372.200000
772.888916	376.500000
772.925720	379.700000
772.962463	385.000000
772.999207	378.000000
773.035950	377.800000
773.072754	379.400000
773.109436	376.000000
773.146240	375.300000
773.182922	378.100000
773.219727	386.300000
773.256470	377.600000
773.293152	372.300000
773.329956	377.700000
773.366699	379.000000
773.403381	377.200000
773.440186	383.500000
773.476929	381.800000
773.513611	378.000000
773.550354	380.400000
773.587158	381.200000
773.623840	380.600000
773.660583	384.900000
773.697327	392.200000
773.734009	385.500000
773.770813	387.700000
773.807495	384.700000
773.844238	388.000000
773.880981	398.800000
773.917664	393.300000
773.954407	399.000000
773.991150	388.900000
774.027832	395.900000
774.064575	393.500000
774.101318	394.800000
774.138000	397.800000
774.174744	397.900000
774.211487	397.000000
774.248108	389.800000
774.284851	392.000000
774.321594	401.300000
774.358276	398.300000
774.395020	405.000000
774.431702	401.800000
774.468384	400.000000
774.505127	396.100000
774.541809	405.800000
774.578491	411.000000
774.615234	411.000000
774.651917	401.500000
774.688599	408.500000
774.725342	410.900000
774.762024	412.500000
774.798706	416.200000
774.835449	417.100000
774.872070	419.400000
774.908813	418.700000
774.945496	420.900000
774.982178	420.800000
775.018860	424.300000
775.055542	427.200000
775.092224	426.100000
775.128967	430.000000
775.165588	431.100000
775.202271	430.200000
775.239014	436.000000
775.275635	437.100000
775.312317	434.000000
775.349060	435.500000
775.385681	438.400000
775.422363	435.300000
775.459045	437.200000
775.495667	441.900000
775.532410	444.700000
775.569092	444.500000
775.605713	441.000000
775.642395	441.200000
775.679016	444.100000
775.715698	448.700000
775.752380	448.000000
775.789001	445.700000
775.825684	447.400000
775.862366	448.200000
775.898987	459.600000
775.935669	453.900000
775.972351	471.000000
776.008972	465.200000
776.045654	462.900000
776.082336	461.800000
776.118958	464.600000
776.155640	467.800000
776.192322	475.700000
776.228882	475.700000
776.265564	475.100000
776.302185	470.400000
776.338867	476.200000
776.375488	473.800000
776.412109	483.200000
776.448792	483.700000
776.485413	492.800000
776.522034	482.100000
776.558716	477.400000
776.595337	481.600000
776.631958	486.700000
776.668579	488.400000
776.705261	493.800000
776.741882	488.100000
776.778503	487.600000
776.815186	488.400000
776.851746	496.700000
776.888367	498.900000
776.924988	506.200000
776.961609	496.900000
776.998291	500.600000
777.034851	498.200000
777.071472	504.200000
777.108154	501.100000
777.144714	512.900000
777.181335	513.500000
777.218018	506.200000
777.254578	512.000000
777.291199	512.900000
777.327759	516.900000
777.364380	520.600000
777.401062	524.400000
777.437622	533.800000
777.474243	522.600000
777.510864	529.000000
777.547424	524.300000
777.584045	528.100000
777.620667	528.700000
777.657227	530.400000
777.693848	530.400000
777.730469	541.400000
777.767029	533.300000
777.803650	537.700000
777.840271	533.000000
777.876831	534.000000
777.913452	539.800000
777.950012	523.300000
777.986633	527.200000
778.023193	531.500000
778.059753	528.300000
778.096375	530.600000
778.132996	542.600000
778.169556	534.100000
778.206116	535.800000
778.242737	530.500000
778.279297	540.500000
778.315857	533.700000
778.352478	542.900000
778.389038	546.800000
778.425598	547.500000
778.462219	552.700000
778.498718	548.300000
778.535339	550.900000
778.571838	549.500000
778.608459	557.400000
778.645020	550.900000
778.681580	553.200000
778.718140	552.700000
778.754761	548.200000
778.791260	554.600000
778.827881	564.300000
778.864441	561.300000
778.900940	564.200000
778.937561	561.800000
778.974121	562.000000
779.010620	561.000000
779.047241	567.200000
779.083801	572.100000
779.120300	566.000000
779.156860	567.800000
779.193359	570.000000
779.229980	569.300000
779.266541	574.700000
779.303040	573.700000
779.339600	566.000000
779.376160	560.500000
779.412659	563.100000
779.449219	562.800000
779.485779	566.800000
779.522278	566.400000
779.558838	575.300000
779.595398	572.500000
779.631897	572.800000
779.668457	564.700000
779.705017	572.500000
779.741516	566.400000
779.778076	567.000000
779.814575	569.100000
779.851074	573.000000
779.887634	569.700000
779.924133	576.100000
779.960693	565.500000
779.997253	579.700000
780.033691	582.400000
780.070251	584.400000
780.106812	588.800000
780.143250	585.800000
780.179810	583.500000
780.216370	591.600000
780.252808	596.900000
780.289368	599.900000
780.325867	595.500000
780.362366	591.200000
780.398865	598.200000
780.435364	594.500000
780.471863	602.900000
780.508423	598.600000
780.544861	601.400000
780.581421	601.400000
780.617920	599.700000
780.654419	599.300000
780.690918	605.000000
780.727417	610.800000
780.763916	610.100000
780.800415	610.900000
780.836914	601.600000
780.873352	610.000000
780.909912	608.800000
780.946411	611.600000
780.982849	625.000000
781.019348	630.000000
781.055786	624.800000
781.092346	623.500000
781.128845	631.300000
781.165283	635.600000
781.201782	644.600000
781.238281	644.300000
781.274719	640.400000
781.311218	638.300000
781.347717	652.300000
781.384155	641.800000
781.420654	647.300000
781.457092	651.700000
781.493591	649.600000
781.530090	643.500000
781.566528	644.200000
781.602966	648.100000
781.639465	651.100000
781.675903	644.500000
781.712402	655.000000
781.748901	657.700000
781.785278	651.000000
781.821777	653.800000
781.858276	656.700000
781.894714	664.400000
781.931152	661.800000
781.967651	665.200000
782.004089	660.500000
782.040527	669.700000
782.076965	676.700000
782.113403	676.400000
782.149902	678.600000
782.186340	679.600000
782.222778	683.900000
782.259277	677.900000
782.295654	680.700000
782.332092	684.600000
782.368591	685.400000
782.404968	686.300000
782.441467	691.000000
782.477905	689.600000
782.514282	687.100000
782.550781	698.100000
782.587219	695.900000
782.623596	708.600000
782.660095	714.200000
782.696472	713.700000
782.732910	716.600000
782.769348	721.600000
782.805786	731.900000
782.842224	731.500000
782.878662	730.500000
782.915039	730.000000
782.951477	730.500000
782.987915	726.400000
783.024292	734.300000
783.060730	738.700000
783.097168	728.500000
783.133545	720.700000
783.169983	718.000000
783.206421	711.100000
783.242798	711.300000
783.279236	708.900000
783.315613	701.500000
783.352051	702.200000
783.388489	698.800000
783.424866	689.900000
783.461304	700.600000
783.497681	710.700000
783.534058	705.300000
783.570496	704.000000
783.606934	700.900000
783.643250	707.500000
783.679687	716.100000
783.716125	715.100000
783.752441	724.100000
783.788879	739.800000
783.825317	746.300000
783.861633	748.400000
783.898071	751.800000
783.934448	763.100000
783.970825	761.500000
784.007263	749.500000
784.043579	744.400000
784.080017	729.900000
784.116394	699.500000
784.152710	680.100000
784.189148	660.000000
784.225525	632.000000
784.261902	608.900000
784.298279	599.800000
784.334656	596.100000
784.371033	593.500000
784.407410	599.700000
784.443787	598.100000
784.480164	602.600000
784.516541	611.300000
784.552856	635.200000
784.589233	650.200000
784.625610	663.000000
784.661987	692.000000
784.698364	701.800000
784.734741	713.500000
784.771057	725.700000
784.807434	740.200000
784.843811	758.300000
784.880127	755.700000
784.916504	771.700000
784.952881	769.800000
784.989197	769.300000
785.025574	774.600000
785.061951	782.800000
785.098267	800.500000
785.134644	795.000000
785.170959	784.800000
785.207275	784.100000
785.243652	779.300000
785.279968	770.400000
785.316345	774.600000
785.352722	770.700000
785.388977	759.500000
785.425354	738.700000
785.461731	730.500000
785.498047	727.600000
785.534363	725.500000
785.570679	732.500000
785.606995	728.400000
785.643372	736.800000
785.679687	731.500000
785.716003	724.200000
785.752380	726.500000
785.788635	740.600000
785.825012	747.400000
785.861328	753.800000
785.897644	747.300000
785.933960	764.300000
785.970337	767.300000
786.006592	785.800000
786.042908	796.800000
786.079285	800.900000
786.115540	810.200000
786.151855	802.900000
786.188171	796.700000
786.224487	802.500000
786.260803	799.600000
786.297119	806.000000
786.333435	804.500000
786.369751	787.100000
786.406006	781.200000
786.442322	773.400000
786.478638	767.200000
786.514954	775.200000
786.551270	771.000000
786.587585	771.700000
786.623840	759.200000
786.660156	752.800000
786.696472	745.200000
786.732727	748.000000
786.769043	757.800000
786.805298	749.500000
786.841614	754.000000
786.877930	765.700000
786.914124	761.400000
786.950439	775.800000
786.986755	790.200000
787.023010	802.600000
787.059326	805.300000
787.095642	809.500000
787.131836	816.100000
787.168152	814.100000
787.204468	830.700000
787.240723	841.800000
787.276978	844.200000
787.313293	848.000000
787.349548	841.500000
787.385803	841.100000
787.422058	839.100000
787.458313	838.500000
787.494629	832.000000
787.530823	828.100000
787.567139	816.200000
787.603455	808.600000
787.639648	801.600000
787.675903	799.900000
787.712219	798.900000
787.748413	794.800000
787.784729	802.300000
787.820984	793.000000
787.857178	792.500000
787.893494	787.800000
787.929749	795.500000
787.965942	809.800000
788.002258	819.400000
788.038452	827.100000
788.074707	819.300000
788.110962	823.700000
788.147217	825.200000
788.183472	845.300000
788.219727	847.500000
788.255920	862.100000
788.292175	862.000000
788.328430	855.500000
788.364624	849.600000
788.400879	851.700000
788.437134	857.700000
788.473328	859.400000
788.509583	855.600000
788.545837	856.800000
788.582031	852.200000
788.618286	849.300000
788.654480	849.200000
788.690735	867.700000
788.726990	875.200000
788.763184	869.400000
788.799377	873.100000
788.835632	869.900000
788.871826	877.100000
788.908081	882.800000
788.944336	875.000000
788.980469	887.800000
789.016724	880.900000
789.052979	883.500000
789.089111	865.000000
789.125366	873.700000
789.161621	865.500000
789.197754	876.100000
789.234009	872.100000
789.270142	866.400000
789.306396	861.900000
789.342590	856.400000
789.378784	840.000000
789.414978	842.100000
789.451233	853.400000
789.487366	861.200000
789.523621	860.300000
789.559814	846.100000
789.595947	850.500000
789.632202	857.500000
789.668335	871.600000
789.704529	893.400000
789.740784	904.200000
789.776917	904.400000
789.813110	900.100000
789.849304	910.300000
789.885498	910.300000
789.921692	925.600000
789.957886	929.300000
789.994019	932.900000
790.030212	931.500000
790.066406	931.700000
790.102539	931.500000
790.138733	936.200000
790.174927	937.000000
790.211060	946.200000
790.247253	947.900000
790.283386	925.000000
790.319580	913.900000
790.355774	904.800000
790.391907	912.800000
790.428101	920.500000
790.464294	922.000000
790.500427	920.500000
790.536621	900.500000
790.572754	889.800000
790.608887	892.600000
790.645081	898.500000
790.681274	906.100000
790.717346	902.900000
790.753540	895.900000
790.789734	876.500000
790.825867	874.500000
790.862000	878.900000
790.898132	889.100000
790.934265	883.100000
790.970459	884.300000
791.006592	879.300000
791.042725	878.500000
791.078918	875.800000
791.114990	882.300000
791.151184	886.700000
791.187317	899.800000
791.223389	892.000000
791.259583	885.500000
791.295715	879.800000
791.331848	879.900000
791.367981	895.500000
791.404114	901.100000
791.440247	899.900000
791.476379	891.500000
791.512451	879.700000
791.548584	874.000000
791.584778	869.200000
791.620850	878.400000
791.656982	889.500000
791.693115	882.200000
791.729187	880.100000
791.765381	876.400000
791.801514	880.000000
791.837585	885.400000
791.873718	893.000000
791.909851	899.900000
791.945923	907.100000
791.982056	884.000000
792.018188	875.100000
792.054260	882.600000
792.090393	890.400000
792.126465	877.400000
792.162598	883.400000
792.198669	873.100000
792.234741	864.800000
792.270874	854.700000
792.307007	852.000000
792.343079	859.000000
792.379150	867.600000
792.415283	857.400000
792.451355	856.100000
792.487488	827.200000
792.523560	822.200000
792.559631	803.500000
792.595764	761.800000
792.631836	730.100000
792.667908	729.600000
792.703979	728.600000
792.740051	764.400000
792.776184	797.900000
792.812256	808.900000
792.848328	812.700000
792.884399	816.500000
792.920471	814.300000
792.956543	822.400000
792.992615	820.700000
793.028748	818.300000
793.064758	832.300000
793.100830	842.000000
793.136963	853.200000
793.172974	853.500000
793.209045	845.200000
793.245178	849.300000
793.281189	841.000000
793.317261	847.900000
793.353271	848.300000
793.389404	858.900000
793.425476	852.000000
793.461487	837.300000
793.497559	833.600000
793.533630	837.500000
793.569641	840.600000
793.605713	843.500000
793.641785	846.200000
793.677795	853.400000
793.713867	846.700000
793.749878	846.400000
793.785950	857.900000
793.822021	870.900000
793.858032	852.900000
793.894104	869.000000
793.930176	863.500000
793.966187	856.900000
794.002258	853.300000
794.038269	864.100000
794.074280	864.400000
794.110352	885.300000
794.146423	873.100000
794.182373	866.300000
794.218445	853.800000
794.254517	855.200000
794.290466	845.100000
794.326538	850.600000
794.362549	848.700000
794.398560	846.100000
794.434631	847.400000
794.470581	828.100000
794.506653	823.800000
794.542664	829.300000
794.578674	834.100000
794.614685	835.600000
794.650757	833.500000
794.686707	832.300000
794.722778	826.000000
794.758789	838.900000
794.794739	859.300000
794.830811	883.800000
794.866821	893.200000
794.902771	889.300000
794.938843	881.500000
794.974792	880.600000
795.010803	880.300000
795.046814	881.700000
795.082825	875.100000
795.118835	884.300000
795.154846	857.600000
795.190796	859.200000
795.226807	844.800000
795.262817	856.100000
795.298767	856.500000
795.334778	867.000000
795.370850	858.200000
795.406799	852.500000
795.442810	836.400000
795.478821	839.600000
795.514709	841.600000
795.550720	869.300000
795.586670	845.900000
795.622681	850.800000
795.658691	852.000000
795.694641	848.400000
795.730652	841.800000
795.766663	855.800000
795.802551	862.900000
795.838562	869.700000
795.874573	854.200000
795.910522	858.900000
795.946472	845.500000
795.982483	855.900000
796.018433	860.900000
796.054382	864.600000
796.090393	854.400000
796.126282	849.400000
796.162292	835.800000
796.198242	834.900000
796.234192	835.100000
796.270203	834.300000
796.306091	840.400000
796.342041	845.600000
796.378052	832.300000
796.413940	831.300000
796.449951	834.700000
796.485901	840.300000
796.521790	854.300000
796.557800	865.900000
796.593689	871.100000
796.629639	857.000000
796.665649	849.200000
796.701599	844.900000
796.737488	846.800000
796.773437	855.300000
796.809387	857.300000
796.845337	857.200000
796.881287	848.600000
796.917175	833.600000
796.953125	836.100000
796.989075	841.600000
797.024963	846.800000
797.060913	839.100000
797.096863	835.900000
797.132751	826.700000
797.168701	817.400000
797.204590	825.900000
797.240540	833.000000
797.276489	835.200000
797.312439	835.700000
797.348328	824.000000
797.384277	818.400000
797.420166	817.000000
797.456055	818.700000
797.492004	816.800000
797.527893	823.000000
797.563843	831.500000
797.599731	826.700000
797.635620	809.600000
797.671570	818.100000
797.707520	822.100000
797.743347	821.300000
797.779297	828.600000
797.815125	822.400000
797.851074	811.100000
797.887024	801.500000
797.922913	792.900000
797.958801	802.700000
797.994690	806.000000
798.030579	810.400000
798.066467	803.400000
798.102356	796.400000
798.138245	791.100000
798.174133	789.500000
798.210083	804.400000
798.245911	814.000000
798.281799	813.800000
798.317749	807.300000
798.353577	799.300000
798.389465	796.300000
798.425293	798.600000
798.461243	799.100000
798.497131	804.100000
798.532959	800.400000
798.568848	806.200000
798.604736	788.900000
798.640564	776.100000
798.676453	779.200000
798.712402	786.900000
798.748230	785.200000
798.784119	785.900000
798.820007	783.700000
798.855835	780.600000
798.891724	777.900000
798.927551	776.100000
798.963379	780.400000
798.999268	781.000000
799.035095	770.600000
799.070984	763.400000
799.106873	750.400000
799.142700	763.300000
799.178528	757.900000
799.214417	761.700000
799.250244	768.200000
799.286133	765.200000
799.321960	762.700000
799.357788	758.100000
799.393677	753.000000
799.429504	756.300000
799.465332	759.000000
799.501221	762.500000
799.537048	762.500000
799.572876	754.800000
799.608704	754.300000
799.644531	766.200000
799.680359	768.200000
799.716248	777.300000
799.752014	781.600000
799.787903	771.600000
799.823730	764.300000
799.859558	756.700000
799.895386	765.300000
799.931213	766.400000
799.967041	758.100000
800.002869	757.700000
800.038696	764.400000
800.074463	750.200000
800.110352	759.700000
800.146179	747.900000
800.181946	756.100000
800.217773	757.200000
800.253540	750.700000
800.289429	748.100000
800.325256	742.700000
800.361023	736.900000
800.396851	747.000000
800.432678	748.800000
800.468445	753.500000
800.504272	747.000000
800.540100	728.600000
800.575867	729.300000
800.611694	736.300000
800.647461	732.400000
800.683289	737.800000
800.719116	744.900000
800.754883	738.100000
800.790649	726.300000
800.826477	724.100000
800.862244	738.900000
800.898071	732.900000
800.933838	730.900000
800.969604	725.500000
801.005432	715.300000
801.041199	719.100000
801.076965	715.500000
801.112793	712.500000
801.148560	708.800000
801.184326	711.400000
801.220154	711.800000
801.255859	705.000000
801.291687	700.500000
801.327454	698.600000
801.363281	696.000000
801.398987	695.400000
801.434814	698.000000
801.470520	702.900000
801.506287	693.800000
801.542114	688.400000
801.577820	693.200000
801.613647	693.000000
801.649414	691.300000
801.685120	689.700000
801.720886	690.400000
801.756714	679.700000
801.792419	676.400000
801.828186	673.300000
801.863892	681.500000
801.899719	675.400000
801.935486	677.600000
801.971252	680.400000
802.006958	677.000000
802.042725	670.200000
802.078430	677.200000
802.114197	675.300000
802.149963	681.000000
802.185669	672.400000
802.221436	669.500000
802.257202	668.300000
802.292908	664.600000
802.328674	673.700000
802.364441	673.900000
802.400146	673.200000
802.435913	676.400000
802.471558	667.900000
802.507324	664.800000
802.543091	658.800000
802.578796	669.400000
802.614502	665.600000
802.650269	672.900000
802.685974	658.600000
802.721741	665.300000
802.757446	668.300000
802.793152	669.200000
802.828918	676.100000
802.864624	669.400000
802.900330	659.700000
802.936035	660.500000
802.971802	656.800000
803.007446	655.000000
803.043213	646.600000
803.078857	662.400000
803.114624	647.600000
803.150330	653.300000
803.185974	641.200000
803.221741	646.300000
803.257446	655.100000
803.293152	657.800000
803.328857	650.000000
803.364563	644.000000
803.400208	641.600000
803.435974	643.200000
803.471680	638.400000
803.507324	636.700000
803.543030	649.300000
803.578735	649.600000
803.614441	641.500000
803.650146	649.200000
803.685791	638.300000
803.721497	635.300000
803.757202	628.300000
803.792847	638.300000
803.828552	633.400000
803.864258	628.800000
803.899902	623.800000
803.935608	615.400000
803.971313	619.800000
804.006958	617.000000
804.042664	619.200000
804.078308	626.400000
804.113953	611.700000
804.149658	614.400000
804.185364	607.100000
804.221008	622.400000
804.256714	608.500000
804.292297	608.500000
804.328003	608.000000
804.363708	600.700000
804.399292	601.600000
804.434998	597.400000
804.470703	594.600000
804.506287	605.000000
804.541992	598.800000
804.577637	601.700000
804.613281	589.700000
804.648926	582.800000
804.684570	587.100000
804.720215	582.100000
804.755920	584.200000
804.791565	587.700000
804.827209	590.000000
804.862854	582.600000
804.898437	581.300000
804.934143	581.300000
804.969788	578.700000
805.005371	579.700000
805.041077	578.800000
805.076721	577.100000
805.112305	572.100000
805.147949	568.100000
805.183655	565.600000
805.219238	568.300000
805.254883	567.200000
805.290466	573.200000
805.326111	566.100000
805.361755	561.500000
805.397400	560.600000
805.432983	562.000000
805.468628	560.800000
805.504211	563.700000
805.539856	563.800000
805.575500	565.600000
805.611084	562.600000
805.646729	553.200000
805.682373	554.300000
805.717957	563.900000
805.753601	564.800000
805.789246	549.000000
805.824768	557.100000
805.860413	560.900000
805.895996	549.700000
805.931641	550.400000
805.967224	556.700000
806.002869	550.900000
806.038452	555.400000
806.074036	562.100000
806.109619	549.200000
806.145264	544.100000
806.180847	546.100000
806.216431	542.700000
806.252014	544.800000
806.287659	547.500000
806.323181	549.700000
806.358826	545.600000
806.394409	535.900000
806.429993	535.900000
806.465576	540.700000
806.501160	534.300000
806.536743	527.100000
806.572327	530.800000
806.607910	529.000000
806.643494	527.500000
806.679077	526.000000
806.714661	524.300000
806.750244	525.700000
806.785828	521.700000
806.821350	522.500000
806.856934	524.100000
806.892517	522.000000
806.928101	518.100000
806.963684	512.500000
806.999268	519.600000
807.034790	513.500000
807.070374	515.900000
807.105896	509.500000
807.141479	507.300000
807.177063	509.400000
807.212585	505.400000
807.248169	510.000000
807.283752	510.600000
807.319275	503.700000
807.354858	504.300000
807.390381	501.200000
807.425903	499.000000
807.461487	498.100000
807.497070	493.300000
807.532593	493.500000
807.568115	491.400000
807.603699	490.200000
807.639221	486.000000
807.674744	490.400000
807.710266	493.800000
807.745850	493.000000
807.781372	490.400000
807.816895	483.800000
807.852417	484.300000
807.888000	481.200000
807.923523	481.700000
807.959045	486.900000
807.994629	476.900000
808.030090	477.500000
808.065613	480.600000
808.101135	484.700000
808.136658	483.600000
808.172241	477.900000
808.207764	477.400000
808.243225	477.400000
808.278809	473.300000
808.314270	474.000000
808.349792	469.700000
808.385315	466.200000
808.420837	470.800000
808.456360	473.900000
808.491882	475.200000
808.527344	470.000000
808.562866	476.700000
808.598389	470.000000
808.633850	471.300000
808.669434	462.100000
808.704895	466.100000
808.740417	467.900000
808.775940	466.000000
808.811462	460.500000
808.846924	459.800000
808.882385	460.500000
808.917847	460.100000
808.953369	458.600000
808.988892	454.600000
809.024353	458.500000
809.059875	459.300000
809.095398	455.900000
809.130798	452.500000
809.166321	451.000000
809.201843	446.100000
809.237305	450.600000
809.272766	455.700000
809.308228	444.600000
809.343750	443.300000
809.379211	445.000000
809.414734	443.000000
809.450134	447.500000
809.485657	438.100000
809.521118	443.400000
809.556580	441.000000
809.592102	439.200000
809.627502	435.900000
809.663025	434.700000
809.698486	433.700000
809.733887	430.000000
809.769409	435.100000
809.804871	424.700000
809.840271	425.700000
809.875793	426.700000
809.911194	429.400000
809.946655	421.300000
809.982178	424.000000
810.017639	423.200000
810.053040	424.100000
810.088501	422.800000
810.123901	420.800000
810.159424	415.700000
810.194885	413.000000
810.230286	418.400000
810.265747	410.200000
810.301208	407.900000
810.336609	410.500000
810.372070	404.200000
810.407532	403.500000
810.442932	407.000000
810.478394	406.900000
810.513794	405.900000
810.549255	401.600000
810.584717	400.000000
810.620117	396.400000
810.655518	401.800000
810.690979	396.400000
810.726379	394.800000
810.761841	387.100000
810.797302	388.400000
810.832642	386.000000
810.868103	393.600000
810.903564	388.600000
810.938904	393.000000
810.974365	382.000000
811.009827	386.500000
811.045166	379.300000
811.080627	376.900000
811.115967	378.600000
811.151428	385.000000
811.186829	377.600000
811.222229	376.700000
811.257629	372.500000
811.293091	377.200000
811.328430	382.900000
811.363892	376.600000
811.399292	377.300000
811.434631	374.800000
811.470093	378.800000
811.505493	373.100000
811.540833	370.200000
811.576294	374.300000
811.611694	369.700000
811.647034	366.500000
811.682434	367.400000
811.717773	371.500000
811.753235	372.300000
811.788635	366.100000
811.823975	368.400000
811.859375	371.200000
811.894775	362.300000
811.930115	365.500000
811.965515	362.600000
812.000916	366.000000
812.036255	361.900000
812.071655	363.200000
812.106995	357.300000
812.142395	358.000000
812.177795	364.100000
812.213196	361.300000
812.248474	361.700000
812.283875	352.900000
812.319214	357.300000
812.354614	355.400000
812.390015	351.100000
812.425293	351.400000
812.460693	351.300000
812.496094	348.600000
812.531433	344.400000
812.566772	342.800000
812.602173	346.200000
812.637451	346.100000
812.672852	341.900000
812.708191	342.900000
812.743530	338.500000
812.778931	333.300000
812.814270	338.000000
812.849609	339.100000
812.884949	338.100000
812.920227	332.700000
812.955627	343.300000
812.990967	332.900000
813.026306	329.600000
813.061646	324.000000
813.096985	322.500000
813.132324	321.800000
813.167664	325.500000
813.203003	325.400000
813.238281	318.200000
813.273682	316.700000
813.308960	315.400000
813.344299	315.900000
813.379639	320.000000
813.414978	315.000000
813.450256	314.100000
813.485596	315.500000
813.520874	311.000000
813.556213	312.700000
813.591614	314.000000
813.626831	309.500000
813.662170	312.700000
813.697510	319.400000
813.732788	309.200000
813.768127	313.300000
813.803467	308.900000
813.838745	308.700000
813.874084	309.000000
813.909363	309.000000
813.944641	305.200000
813.979980	300.100000
814.015320	302.300000
814.050598	301.500000
814.085876	301.400000
814.121155	302.300000
814.156494	300.400000
814.191772	300.200000
814.227051	294.900000
814.262390	298.100000
814.297668	295.600000
814.332947	299.100000
814.368225	293.900000
814.403564	295.400000
814.438782	292.300000
814.474121	295.000000
814.509338	290.600000
814.544617	296.000000
814.579956	290.000000
814.615173	297.700000
814.650513	292.300000
814.685791	290.800000
814.721008	290.000000
814.756348	289.200000
814.791626	287.100000
814.826843	287.800000
814.862122	287.100000
814.897400	284.600000
814.932678	285.700000
814.967957	285.900000
815.003235	284.000000
815.038452	281.400000
815.073730	279.700000
815.108948	286.100000
815.144226	285.500000
815.179504	289.000000
815.214722	277.300000
815.250000	277.600000
815.285278	280.400000
815.320496	277.000000
815.355774	277.500000
815.391052	277.600000
815.426270	276.700000
815.461487	274.800000
815.496765	273.100000
815.531982	270.400000
815.567261	272.800000
815.602539	277.400000
815.637695	275.900000
815.672974	274.500000
815.708191	275.900000
815.743408	277.000000
815.778687	271.600000
815.813904	274.600000
815.849121	265.100000
815.884399	263.800000
815.919556	263.500000
815.954834	265.100000
815.990051	266.600000
816.025269	269.300000
816.060486	263.100000
816.095703	262.000000
816.130920	263.600000
816.166199	261.100000
816.201416	262.400000
816.236572	263.800000
816.271851	259.400000
816.307007	263.600000
816.342224	254.500000
816.377441	258.800000
816.412659	251.600000
816.447876	258.600000
816.483093	256.100000
816.518250	256.200000
816.553467	253.600000
816.588745	256.200000
816.623901	250.400000
816.659119	245.700000
816.694275	251.400000
816.729492	248.300000
816.764709	274.800000
816.799927	246.100000
816.835083	247.000000
816.870300	241.400000
816.905457	246.400000
816.940674	247.600000
816.975830	242.500000
817.010986	241.600000
817.046204	240.100000
817.081421	239.000000
817.116577	240.100000
817.151733	245.100000
817.186951	244.000000
817.222107	243.200000
817.257324	243.800000
817.292419	242.600000
817.327637	235.500000
817.362854	238.400000
817.398010	233.100000
817.433167	236.500000
817.468323	234.600000
817.503479	237.200000
817.538635	242.000000
817.573853	237.000000
817.608948	234.600000
817.644165	234.100000
817.679321	230.600000
817.714478	229.700000
817.749634	232.600000
817.784790	239.700000
817.819946	237.300000
817.855103	226.300000
817.890198	229.200000
817.925415	226.200000
817.960571	231.600000
817.995667	230.900000
818.030823	229.700000
818.066040	226.100000
818.101135	228.900000
818.136292	227.700000
818.171448	224.100000
818.206543	226.700000
818.241699	227.300000
818.276855	227.100000
818.311951	226.700000
818.347107	223.000000
818.382263	227.600000
818.417358	229.700000
818.452515	229.700000
818.487610	230.400000
818.522766	221.300000
818.557922	228.100000
818.593018	224.200000
818.628113	222.600000
818.663269	219.200000
818.698364	223.200000
818.733521	219.200000
818.768677	221.900000
818.803711	217.200000
818.838867	214.700000
818.874023	218.200000
818.909058	214.700000
818.944214	215.100000
818.979370	217.000000
819.014404	218.800000
819.049561	212.100000
819.084595	218.700000
819.119751	211.700000
819.154846	216.300000
819.189941	213.700000
819.225037	212.000000
819.260193	206.500000
819.295227	207.000000
819.330322	206.800000
819.365479	204.800000
819.400513	239.500000
819.435608	206.300000
819.470764	203.300000
819.505798	205.500000
819.540894	205.100000
819.575989	205.200000
819.611084	209.100000
819.646179	212.300000
819.681213	207.100000
819.716309	205.500000
819.751404	205.300000
819.786438	210.300000
819.821533	201.400000
819.856628	205.000000
819.891663	207.600000
819.926758	214.000000
819.961853	209.600000
819.996887	201.500000
820.031982	205.500000
820.067017	202.400000
820.102112	235.300000
820.137207	201.100000
820.172302	211.700000
820.207275	200.300000
820.242371	197.700000
820.277405	200.500000
820.312500	200.500000
820.347534	201.400000
820.382568	205.000000
820.417664	198.100000
820.452759	197.300000
820.487732	198.000000
820.522827	198.100000
820.557861	195.900000
820.592896	198.500000
820.627930	196.700000
820.662964	196.100000
820.698059	198.300000
820.733093	196.300000
820.768127	200.000000
820.803162	199.400000
820.838196	194.300000
820.873230	197.300000
820.908264	197.800000
820.943298	195.900000
820.978333	199.400000
821.013367	198.600000
821.048401	199.600000
821.083435	199.600000
821.118469	190.900000
821.153503	198.100000
821.188477	196.500000
821.223511	191.700000
821.258484	194.600000
821.293579	196.200000
821.328613	189.800000
821.363647	194.800000
821.398621	189.900000
821.433655	192.400000
821.468628	203.500000
821.503662	193.900000
821.538696	196.800000
821.573669	190.500000
821.608704	196.000000
821.643677	192.900000
821.678650	195.200000
821.713684	199.700000
821.748718	192.700000
821.783691	191.700000
821.818726	193.300000
821.853638	194.500000
821.888672	190.900000
821.923706	192.100000
821.958618	191.500000
821.993652	191.200000
822.028687	195.600000
822.063599	197.300000
822.098633	194.400000
822.133667	189.200000
822.168579	191.100000
822.203613	191.600000
822.238586	189.300000
822.273560	193.100000
822.308533	188.700000
822.343567	189.800000
822.378479	191.300000
822.413452	189.800000
822.448425	187.600000
822.483398	194.200000
822.518372	193.100000
822.553345	188.000000
822.588318	197.300000
822.623291	188.800000
822.658203	188.100000
822.693237	188.600000
822.728210	187.000000
822.763123	189.300000
822.798096	187.400000
822.833069	189.500000
822.867981	190.000000
822.902954	191.600000
822.937927	193.100000
822.972900	196.000000
823.007874	185.900000
823.042725	193.100000
823.077698	199.100000
823.112671	187.200000
823.147583	189.500000
823.182556	191.800000
823.217529	194.700000
823.252441	187.700000
823.287415	196.600000
823.322388	191.700000
823.357239	189.500000
823.392212	194.200000
823.427185	195.200000
823.462097	186.600000
823.497009	191.700000
823.531982	189.500000
823.566895	189.600000
823.601807	187.800000
823.636719	187.400000
823.671631	190.800000
823.706604	187.000000
823.741455	190.900000
823.776428	184.400000
823.811340	191.400000
823.846252	194.800000
823.881165	194.100000
823.916138	189.600000
823.950989	196.500000
823.985901	186.200000
824.020813	189.500000
824.055725	188.000000
824.090637	185.100000
824.125610	190.600000
824.160461	191.700000
824.195374	188.800000
824.230225	192.400000
824.265198	182.800000
824.300110	187.300000
824.334961	195.400000
824.369873	182.900000
824.404785	190.800000
824.439636	194.100000
824.474548	183.100000
824.509460	182.400000
824.544312	193.000000
824.579224	190.000000
824.614075	191.000000
824.648987	187.400000
824.683899	187.100000
824.718811	187.100000
824.753662	191.400000
824.788574	192.000000
824.823364	188.900000
824.858276	183.500000
824.893188	191.100000
824.928040	190.300000
824.962952	188.300000
824.997803	190.100000
825.032654	187.900000
825.067566	189.100000
825.102417	185.800000
825.137268	184.300000
825.172119	185.700000
825.206970	184.200000
825.241882	185.100000
825.276733	184.700000
825.311646	185.300000
825.346436	182.000000
825.381348	182.500000
825.416138	184.400000
825.450989	183.300000
825.485901	178.100000
825.520691	182.500000
825.555542	180.900000
825.590454	184.300000
825.625244	178.200000
825.660095	189.300000
825.695007	185.900000
825.729797	184.200000
825.764648	180.700000
825.799438	182.600000
825.834290	184.200000
825.869202	180.000000
825.903992	184.300000
825.938843	182.300000
825.973694	179.900000
826.008484	191.200000
826.043335	179.800000
826.078186	176.700000
826.112976	186.700000
826.147827	186.700000
826.182678	189.500000
826.217468	177.700000
826.252319	187.500000
826.287109	179.300000
826.321899	185.800000
826.356750	181.500000
826.391541	177.600000
826.426392	185.300000
826.461182	179.400000
826.495972	176.700000
826.530823	175.800000
826.565613	182.500000
826.600403	178.400000
826.635254	184.900000
826.670044	176.000000
826.704834	178.000000
826.739685	177.800000
826.774475	183.800000
826.809265	181.200000
826.844055	177.700000
826.878906	185.300000
826.913635	182.500000
826.948425	183.300000
826.983215	182.500000
827.018005	184.400000
827.052856	179.800000
827.087585	183.100000
827.122375	175.800000
827.157227	181.400000
827.191956	190.300000
827.226746	177.700000
827.261536	183.300000
827.296265	177.800000
827.331116	178.600000
827.365906	182.600000
827.400635	178.600000
827.435425	175.700000
827.470215	185.200000
827.504944	181.200000
827.539734	184.600000
827.574463	179.900000
827.609253	185.800000
827.644043	179.900000
827.678772	183.000000
827.713562	180.200000
827.748352	180.200000
827.783081	178.300000
827.817871	182.300000
827.852600	178.200000
827.887329	180.700000
827.922119	175.900000
827.956848	182.900000
827.991638	190.400000
828.026367	181.500000
828.061157	181.000000
828.095886	180.100000
828.130615	193.800000
828.165344	174.200000
828.200073	180.100000
828.234863	179.600000
828.269592	181.000000
828.304321	184.100000
828.339111	180.800000
828.373779	179.600000
828.408569	184.200000
828.443298	183.600000
828.477966	178.600000
828.512756	180.600000
828.547424	177.100000
828.582214	179.400000
828.616943	178.300000
828.651672	180.900000
828.686340	182.900000
828.721130	178.200000
828.755798	178.900000
828.790527	181.700000
828.825256	181.400000
828.859924	181.700000
828.894714	184.600000
828.929443	186.900000
828.964111	178.400000
828.998840	184.200000
829.033569	178.000000
829.068237	181.700000
829.102966	177.500000
829.137634	181.700000
829.172363	181.800000
829.207092	181.700000
829.241821	177.200000
829.276489	177.400000
829.311157	179.500000
829.345825	179.800000
829.380554	184.200000
829.415283	177.600000
829.449951	175.100000
829.484619	186.900000
829.519348	186.100000
829.554016	181.700000
829.588745	181.000000
829.623413	176.700000
829.658081	187.600000
829.692749	178.400000
829.727417	183.200000
829.762146	183.700000
829.796814	178.400000
829.831482	180.000000
829.866150	181.400000
829.900879	179.400000
829.935486	181.800000
829.970154	180.100000
830.004883	188.600000
830.039490	182.600000
830.074219	178.200000
830.108887	182.900000
830.143494	181.500000
830.178223	177.200000
830.212891	180.200000
830.247498	179.800000
830.282166	186.600000
830.316772	185.600000
830.351501	179.900000
830.386169	180.000000
830.420776	179.500000
830.455444	180.200000
830.490112	178.600000
830.524719	176.200000
830.559387	181.600000
830.594055	182.500000
830.628662	182.100000
830.663330	179.700000
830.697998	187.600000
830.732605	180.400000
830.767273	182.800000
830.801941	180.100000
830.836487	188.400000
830.871155	180.800000
830.905762	183.700000
830.940430	176.200000
830.975098	178.400000
831.009644	181.400000
831.044312	187.600000
831.078979	183.600000
831.113525	175.000000
831.148193	181.700000
831.182861	180.300000
831.217407	182.800000
831.252075	191.700000
831.286621	180.400000
831.321289	178.500000
831.355896	180.800000
831.390564	185.400000
831.425110	181.300000
831.459778	188.300000
831.494324	190.200000
831.528931	182.000000
831.563599	185.400000
831.598145	176.400000
831.632751	181.100000
831.667419	181.200000
831.701965	182.900000
831.736572	181.700000
831.771179	177.000000
831.805786	179.200000
831.840393	186.300000
831.874939	175.800000
831.909546	183.400000
831.944153	174.200000
831.978760	181.100000
832.013306	177.500000
832.047913	185.300000
832.082458	187.400000
832.117065	178.200000
832.151672	187.200000
832.186218	183.200000
832.220825	182.300000
832.255432	176.400000
832.289978	179.300000
832.324585	181.400000
832.359192	181.000000
832.393677	181.200000
832.428284	181.000000
832.462830	180.200000
832.497437	179.400000
832.531982	184.100000
832.566589	179.700000
832.601135	183.000000
832.635681	174.700000
832.670227	182.300000
832.704773	185.300000
832.739380	182.600000
832.773926	181.000000
832.808472	179.500000
832.843079	181.700000
832.877563	183.100000
832.912170	180.500000
832.946716	176.100000
832.981201	185.000000
833.015808	184.900000
833.050293	181.500000
833.084839	178.200000
833.119446	178.500000
833.153992	183.900000
833.188477	180.600000
833.223022	180.000000
833.257568	181.500000
833.292114	185.400000
833.326660	189.400000
833.361145	179.900000
833.395691	175.800000
833.430237	180.200000
833.464783	184.700000
833.499329	177.900000
833.533875	177.600000
833.568359	182.400000
833.602905	184.700000
833.637390	183.800000
833.671875	178.800000
833.706421	180.100000
833.740906	179.000000
833.775452	173.800000
833.809998	179.800000
833.844482	186.000000
833.879028	180.900000
833.913513	178.500000
833.947998	183.600000
833.982544	178.100000
834.017090	179.100000
834.051514	173.700000
834.086060	182.500000
834.120544	179.900000
834.155029	184.000000
834.189575	179.300000
834.223999	183.000000
834.258545	180.900000
834.293030	181.700000
834.327515	181.200000
834.362000	179.400000
834.396545	182.400000
834.430969	180.200000
834.465454	184.000000
834.500000	177.300000
834.534424	183.000000
834.568970	176.200000
834.603455	175.400000
834.637878	177.700000
834.672363	183.000000
834.706909	181.900000
834.741333	181.300000
834.775818	176.800000
834.810242	180.200000
834.844727	181.600000
834.879211	180.000000
834.913635	182.100000
834.948181	182.600000
834.982666	181.800000
835.017090	180.300000
835.051575	181.600000
835.086060	179.100000
835.120483	183.100000
835.154907	182.500000
835.189331	181.100000
835.223816	184.200000
835.258301	176.200000
835.292786	178.700000
835.327209	182.700000
835.361694	178.500000
835.396057	179.700000
835.430542	182.700000
835.465027	180.500000
835.499390	179.000000
835.533875	206.500000
835.568359	179.600000
835.602722	176.700000
835.637207	182.600000
835.671692	176.300000
835.706055	195.200000
835.740540	181.700000
835.774902	181.200000
835.809387	181.000000
835.843811	176.800000
835.878235	183.900000
835.912659	178.600000
835.947083	177.400000
835.981506	181.300000
836.015930	176.500000
836.050354	185.800000
836.084778	187.000000
836.119202	184.600000
836.153625	191.300000
836.187988	178.500000
836.222473	177.600000
836.256897	183.200000
836.291260	179.900000
836.325684	182.500000
836.360046	178.600000
836.394470	180.300000
836.428894	187.500000
836.463318	179.300000
836.497681	183.700000
836.532104	186.400000
836.566467	182.000000
836.600891	180.200000
836.635315	184.300000
836.669678	182.600000
836.704102	184.700000
836.738525	182.900000
836.772888	174.800000
836.807251	179.900000
836.841675	184.400000
836.876038	177.600000
836.910461	178.300000
836.944763	184.000000
836.979187	178.100000
837.013611	184.500000
837.047974	178.300000
837.082336	188.900000
837.116699	183.500000
837.151062	180.200000
837.185486	177.400000
837.219849	180.000000
837.254211	184.700000
837.288574	180.500000
837.322937	178.500000
837.357300	173.500000
837.391663	189.700000
837.426086	183.700000
837.460388	183.200000
837.494751	183.100000
837.529114	179.200000
837.563477	186.000000
837.597839	181.900000
837.632141	180.400000
837.666565	180.100000
837.700928	182.600000
837.735229	182.300000
837.769592	184.000000
837.803955	185.300000
837.838257	179.700000
837.872620	179.200000
837.906982	186.100000
837.941284	181.800000
837.975647	183.500000
838.010010	185.900000
838.044312	179.200000
838.078674	180.400000
838.112976	182.600000
838.147339	184.200000
838.181702	181.300000
838.216003	186.400000
838.250366	182.900000
838.284668	183.400000
838.318970	175.900000
838.353333	180.300000
838.387634	180.900000
838.421936	180.400000
838.456299	181.400000
838.490601	184.500000
838.524902	184.100000
838.559265	184.900000
838.593567	184.900000
838.627869	175.800000
838.662170	183.600000
838.696472	176.300000
838.730774	179.000000
838.765137	182.700000
838.799377	171.900000
838.833740	180.800000
838.868042	185.700000
838.902283	174.700000
838.936646	186.200000
838.970947	180.700000
839.005188	187.000000
839.039551	175.900000
839.073792	186.100000
839.108093	180.600000
839.142395	188.500000
839.176697	175.000000
839.210937	182.600000
839.245300	188.600000
839.279541	177.500000
839.313843	179.900000
839.348145	183.800000
839.382385	185.000000
839.416687	184.900000
839.450989	183.800000
839.485229	180.700000
839.519531	178.200000
839.553833	183.500000
839.588013	181.600000
839.622314	182.600000
839.656555	182.600000
839.690857	181.500000
839.725159	177.900000
839.759460	181.100000
839.793640	179.300000
839.827942	182.400000
839.862183	178.700000
839.896423	183.600000
839.930725	192.200000
839.964966	187.900000
839.999207	185.600000
840.033508	187.000000
840.067688	179.800000
840.101990	187.200000
840.136230	180.400000
840.170471	187.500000
840.204712	178.200000
840.238953	178.300000
840.273193	182.400000
840.307434	183.700000
840.341736	180.100000
840.375916	176.700000
840.410217	178.400000
840.444397	183.000000
840.478638	182.600000
840.512878	183.600000
840.547119	182.300000
840.581360	182.300000
840.615601	188.200000
840.649780	190.700000
840.684021	181.400000
840.718262	187.100000
840.752441	187.200000
840.786682	183.100000
840.820862	183.600000
840.855103	188.300000
840.889343	182.300000
840.923584	186.100000
840.957764	184.200000
840.992004	183.600000
841.026184	192.800000
841.060425	181.400000
841.094666	180.100000
841.128845	182.900000
841.163025	183.500000
841.197266	183.300000
841.231445	181.600000
841.265686	183.600000
841.299866	177.700000
841.334045	186.500000
841.368286	181.600000
841.402405	186.800000
841.436646	184.600000
841.470825	179.600000
841.505005	180.700000
841.539185	178.900000
841.573425	179.600000
841.607544	182.200000
841.641785	181.400000
841.675964	179.100000
841.710144	181.500000
841.744324	179.800000
841.778503	180.800000
841.812683	179.300000
841.846863	187.700000
841.881042	186.900000
841.915222	179.100000
841.949402	191.900000
841.983521	175.500000
842.017700	180.100000
842.051880	180.300000
842.086060	184.900000
842.120239	182.000000
842.154419	180.200000
842.188538	181.400000
842.222717	180.200000
842.256897	186.700000
842.291016	181.400000
842.325195	181.200000
842.359375	188.800000
842.393494	187.300000
842.427673	182.100000
842.461853	183.700000
842.495911	189.900000
842.530090	182.900000
842.564209	181.900000
842.598389	182.500000
842.632568	182.700000
842.666626	183.800000
842.700806	180.100000
842.734985	181.100000
842.769043	183.600000
842.803223	181.100000
842.837402	182.000000
842.871460	179.600000
842.905640	190.500000
842.939697	178.400000
842.973877	182.400000
843.007996	186.200000
843.042175	189.600000
843.076233	179.600000
843.110413	186.300000
843.144470	188.100000
843.178589	186.300000
843.212769	180.300000
843.246826	185.400000
843.280945	180.900000
843.315125	182.200000
843.349182	179.100000
843.383301	186.500000
843.417419	191.800000
843.451538	181.100000
843.485657	179.200000
843.519714	182.600000
843.553833	182.500000
843.587952	179.500000
843.622070	181.000000
843.656128	183.600000
843.690247	180.500000
843.724304	182.100000
843.758423	184.300000
843.792542	179.800000
843.826599	182.700000
843.860718	180.400000
843.894836	178.600000
843.928894	182.700000
843.963013	183.000000
843.997070	179.200000
844.031128	179.400000
844.065247	185.800000
844.099304	186.100000
844.133362	182.400000
844.167480	185.000000
844.201599	185.600000
844.235596	184.000000
844.269714	183.400000
844.303711	183.700000
844.337830	177.600000
844.371948	183.600000
844.405945	183.000000
844.440063	179.200000
844.474121	192.800000
844.508118	181.100000
844.542236	181.000000
844.576294	182.400000
844.610352	178.300000
844.644409	182.300000
844.678406	177.100000
844.712524	186.200000
844.746582	186.800000
844.780640	182.300000
844.814636	183.100000
844.848755	192.100000
844.882751	180.500000
844.916809	184.900000
844.950867	183.800000
844.984863	187.100000
845.018921	180.700000
845.052979	178.700000
845.086975	182.900000
845.121033	177.000000
845.155090	179.500000
845.189087	185.500000
845.223145	179.900000
845.257141	183.300000
845.291199	185.200000
845.325256	186.200000
845.359253	184.900000
845.393250	191.600000
845.427307	180.800000
845.461304	183.100000
845.495361	182.700000
845.529358	190.100000
845.563354	182.400000
845.597412	177.500000
845.631409	189.400000
845.665405	186.600000
845.699463	185.000000
845.733459	179.800000
845.767456	192.200000
845.801453	181.700000
845.835449	186.100000
845.869446	184.800000
845.903503	185.100000
845.937439	179.700000
845.971497	187.800000
846.005493	178.300000
846.039429	186.300000
846.073486	189.600000
846.107483	182.200000
846.141418	181.100000
846.175476	182.900000
846.209473	189.200000
846.243408	180.200000
846.277405	183.000000
846.311401	180.600000
846.345337	182.200000
846.379395	186.400000
846.413330	180.900000
846.447327	191.500000
846.481323	180.300000
846.515259	181.100000
846.549255	181.900000
846.583252	185.700000
846.617187	179.000000
846.651184	183.000000
846.685120	182.500000
846.719055	189.000000
846.753052	186.500000
846.786987	185.500000
846.820984	177.300000
846.854980	186.500000
846.888916	179.800000
846.922852	182.900000
846.956848	187.200000
846.990723	181.200000
847.024719	184.200000
847.058716	181.200000
847.092590	188.500000
847.126587	182.900000
847.160522	182.900000
847.194458	185.100000
847.228455	179.900000
847.262390	177.700000
847.296265	182.100000
847.330261	185.000000
847.364136	180.900000
847.398132	181.500000
847.432068	183.500000
847.466003	180.200000
847.499939	181.900000
847.533875	184.900000
847.567749	183.100000
847.601746	181.800000
847.635681	185.600000
847.669556	177.800000
847.703491	187.900000
847.737427	192.000000
847.771301	178.700000
847.805237	183.900000
847.839233	183.100000
847.873108	182.000000
847.907043	183.200000
847.940918	188.800000
847.974854	183.400000
848.008789	185.200000
848.042664	182.500000
848.076538	183.700000
848.110474	183.600000
848.144348	183.200000
848.178284	177.400000
848.212219	184.600000
848.246094	179.800000
848.279968	184.500000
848.313904	183.600000
848.347778	183.400000
848.381653	181.700000
848.415588	180.800000
848.449463	179.600000
848.483337	185.200000
848.517212	188.500000
848.551086	182.400000
848.585022	177.900000
848.618835	191.500000
848.652771	179.900000
848.686646	179.900000
848.720520	188.200000
848.754395	182.700000
848.788330	184.500000
848.822144	185.900000
848.856018	181.000000
848.889954	191.100000
848.923767	179.400000
848.957642	179.600000
848.991577	183.000000
849.025391	183.000000
849.059265	182.300000
849.093079	179.700000
849.126953	177.800000
849.160828	186.800000
849.194641	183.100000
849.228577	182.400000
849.262451	181.400000
849.296265	181.000000
849.330139	180.000000
849.364014	182.700000
849.397827	184.400000
849.431702	183.800000
849.465515	186.900000
849.499329	177.400000
849.533203	179.200000
849.567078	176.500000
849.600891	183.600000
849.634766	182.600000
849.668518	185.600000
849.702393	183.700000
849.736267	178.000000
849.770020	189.600000
849.803894	184.400000
849.837769	184.100000
849.871521	182.900000
849.905396	185.000000
849.939270	182.100000
849.973022	181.000000
850.006897	184.700000
850.040710	184.500000
850.074524	186.300000
850.108337	180.700000
850.142151	186.700000
850.175964	185.100000
850.209778	182.300000
850.243530	175.400000
850.277405	185.700000
850.311218	181.500000
850.344971	180.500000
850.378845	187.400000
850.412659	180.100000
850.446411	183.100000
850.480225	182.000000
850.514038	185.500000
850.547791	185.200000
850.581665	182.100000
850.615417	180.700000
850.649231	183.300000
850.683044	180.500000
850.716858	180.900000
850.750610	183.700000
850.784424	184.300000
850.818176	179.800000
850.851929	180.300000
850.885742	181.100000
850.919495	181.800000
850.953308	188.900000
850.987122	188.300000
851.020874	179.800000
851.054626	178.000000
851.088440	185.400000
851.122192	185.400000
851.156006	183.500000
851.189697	183.100000
851.223511	178.000000
851.257263	185.600000
851.291077	184.200000
851.324829	181.200000
851.358582	182.800000
851.392334	182.600000
851.426086	180.800000
851.459900	189.000000
851.493591	182.700000
851.527344	182.900000
851.561157	182.800000
851.594849	184.700000
851.628662	182.900000
851.662415	190.900000
851.696106	182.300000
851.729858	186.700000
851.763611	178.900000
851.797363	183.800000
851.831116	177.400000
851.864868	185.300000
851.898560	184.300000
851.932312	182.300000
851.966064	184.600000
851.999817	182.700000
852.033569	181.500000
852.067261	188.300000
852.101013	179.700000
852.134766	182.400000
852.168457	175.600000
852.202209	187.700000
852.235901	178.800000
852.269592	184.700000
852.303345	188.600000
852.337036	185.100000
852.370789	181.500000
852.404541	186.600000
852.438171	179.600000
852.471924	183.900000
852.505676	179.100000
852.539307	183.500000
852.573059	181.400000
852.606812	181.700000
852.640442	181.000000
852.674194	186.800000
852.707886	191.900000
852.741577	188.200000
852.775269	180.600000
852.809021	182.400000
852.842651	185.000000
852.876404	189.000000
852.910034	185.700000
852.943787	185.700000
852.977478	184.500000
853.011108	180.900000
853.044861	181.800000
853.078552	188.500000
853.112183	184.300000
853.145874	182.400000
853.179626	178.600000
853.213257	182.600000
853.246948	180.300000
853.280640	188.900000
853.314270	182.100000
853.347961	187.100000
853.381653	185.700000
853.415283	186.200000
853.448975	180.800000
853.482605	183.300000
853.516296	182.900000
853.549988	178.900000
853.583618	185.300000
853.617310	183.700000
853.651001	184.800000
853.684631	180.500000
853.718323	181.200000
853.751953	186.400000
853.785583	177.900000
853.819275	184.500000
853.852966	185.600000
853.886536	179.200000
853.920227	180.000000
853.953918	187.000000
853.987488	182.500000
854.021179	186.100000
854.054749	188.300000
854.088440	183.700000
854.122131	180.500000
854.155701	185.300000
854.189331	181.800000
854.223022	185.700000
854.256592	186.000000
854.290283	181.000000
854.323914	184.900000
854.357483	184.400000
854.391174	185.900000
854.424744	188.600000
854.458374	183.600000
854.492065	191.900000
854.525696	181.600000
854.559265	186.800000
854.592896	192.200000
854.626465	184.400000
854.660095	183.800000
854.693787	183.900000
854.727356	180.200000
854.760986	187.300000
854.794617	185.100000
854.828186	182.700000
854.861816	184.900000
854.895447	185.700000
854.929016	183.000000
854.962585	184.600000
854.996155	190.800000
855.029785	182.300000
855.063416	182.400000
855.097046	185.800000
855.130615	177.400000
855.164185	187.900000
855.197754	181.800000
855.231384	184.900000
855.264954	180.600000
855.298523	186.900000
855.332153	183.200000
855.365723	187.500000
855.399292	180.200000
855.432922	185.500000
855.466492	184.500000
855.500061	181.800000
855.533630	179.800000
855.567200	185.900000
855.600769	184.500000
855.634338	188.600000
855.667969	183.600000
855.701477	180.400000
855.735046	181.300000
855.768616	178.300000
855.802185	185.000000
855.835754	195.000000
855.869324	178.700000
855.902893	183.100000
855.936401	187.900000
855.969971	184.600000
856.003540	179.000000
856.037109	185.000000
856.070618	181.800000
856.104187	179.800000
856.137695	181.200000
856.171265	175.000000
856.204834	183.500000
856.238403	186.000000
856.271912	180.200000
856.305481	184.400000
856.338989	178.500000
856.372559	184.900000
856.406128	186.400000
856.439636	184.700000
856.473145	183.000000
856.506653	187.200000
856.540222	183.700000
856.573792	185.800000
856.607300	185.300000
856.640808	178.900000
856.674377	183.900000
856.707825	216.700000
856.741394	186.300000
856.774902	178.400000
856.808472	178.000000
856.841980	184.900000
856.875488	187.500000
856.908936	178.100000
856.942505	181.800000
856.976013	181.300000
857.009521	180.900000
857.043030	183.100000
857.076477	182.700000
857.110046	186.500000
857.143555	185.200000
857.177063	186.000000
857.210571	183.400000
857.244080	177.500000
857.277527	185.700000
857.311035	182.700000
857.344543	187.500000
857.378052	180.800000
857.411499	188.000000
857.445068	189.800000
857.478516	181.600000
857.512024	179.000000
857.545532	180.700000
857.578979	184.600000
857.612427	183.900000
857.645874	179.600000
857.679382	183.500000
857.712891	187.400000
857.746399	182.900000
857.779846	187.200000
857.813354	186.600000
857.846741	182.300000
857.880249	178.300000
857.913757	185.200000
857.947266	183.400000
857.980652	185.400000
858.014160	182.100000
858.047546	181.200000
858.081055	181.400000
858.114563	193.200000
858.147949	178.200000
858.181458	184.900000
858.214844	182.300000
858.248352	176.700000
858.281799	184.700000
858.315308	193.400000
858.348694	183.600000
858.382141	189.000000
858.415588	185.600000
858.449036	186.400000
858.482483	184.300000
858.515930	182.900000
858.549377	183.200000
858.582825	188.000000
858.616211	183.800000
858.649658	185.700000
858.683105	178.800000
858.716553	181.600000
858.750000	178.700000
858.783386	182.600000
858.816833	176.900000
858.850281	184.600000
858.883728	185.200000
858.917114	184.500000
858.950562	189.700000
858.983948	189.400000
859.017395	188.300000
859.050781	183.100000
859.084167	180.500000
859.117615	180.400000
859.151062	186.100000
859.184448	181.400000
859.217834	181.500000
859.251282	182.100000
859.284668	179.400000
859.318054	178.000000
859.351440	181.400000
859.384888	188.300000
859.418274	179.000000
859.451721	176.400000
859.485046	185.300000
859.518494	184.600000
859.551819	180.100000
859.585266	184.400000
859.618652	187.400000
859.652039	178.700000
859.685425	178.500000
859.718811	179.100000
859.752197	175.600000
859.785583	185.400000
859.819031	189.700000
859.852356	184.500000
859.885742	179.700000
859.919067	183.700000
859.952454	181.300000
859.985901	185.500000
860.019287	183.800000
860.052612	0.000000
860.085999	0.000000
860.119324	0.000000
860.152710	0.000000
860.186096	0.000000
860.219421	0.000000
860.252808	0.000000
860.286133	0.000000
860.319519	0.000000
860.352905	0.000000
860.386292	0.000000
860.419617	0.000000
860.452942	0.000000
860.486267	0.000000
860.519653	0.000000
860.553040	0.000000
860.586365	0.000000
860.619690	0.000000
860.653076	0.000000
860.686340	0.000000
860.719727	0.000000
860.753113	0.000000
860.786377	0.000000
860.819763	0.000000
860.853027	0.000000
860.886414	0.000000
860.919739	0.000000
860.953125	0.000000
860.986389	0.000000
861.019714	0.000000
861.053040	0.000000
861.086365	0.000000
861.119690	0.000000
861.153076	0.000000
861.186340	0.000000
861.219666	0.000000
861.252930	0.000000
861.286316	0.000000
861.319641	0.000000
861.352905	0.000000
861.386230	0.000000
861.419495	0.000000
861.452820	0.000000
861.486145	0.000000
861.519470	0.000000
861.552734	0.000000
861.586060	0.000000
861.619324	0.000000
861.652649	0.000000
861.685974	0.000000
861.719238	0.000000
861.752563	0.000000
861.785828	0.000000
861.819092	0.000000
861.852417	0.000000
861.885742	0.000000
861.918945	0.000000
861.952271	0.000000
861.985535	0.000000
862.018799	0.000000
862.052124	0.000000
862.085449	0.000000
862.118652	0.000000
862.151978	0.000000
862.185181	0.000000
862.218506	0.000000
862.251770	0.000000
862.285034	0.000000
862.318298	0.000000
862.351562	0.000000
862.384827	0.000000
862.418091	0.000000
862.451355	0.000000
862.484619	0.000000
862.517883	0.000000
862.551086	0.000000
862.584351	0.000000
862.617676	0.000000
862.650940	0.000000
862.684143	0.000000
862.717407	0.000000
862.750610	0.000000
862.783875	0.000000
862.817139	0.000000
862.850342	0.000000
862.883606	0.000000
862.916870	0.000000
862.950073	0.000000
862.983337	0.000000
863.016602	0.000000
863.049805	0.000000
863.083069	0.000000
863.116211	0.000000
863.149475	0.000000
863.182739	0.000000
863.216003	0.000000
863.249146	0.000000
863.282410	0.000000
863.315613	0.000000
863.348816	0.000000
863.382080	0.000000
863.415222	0.000000
863.448486	0.000000
863.481689	0.000000
863.514893	0.000000
863.548157	0.000000
863.581360	0.000000
863.614502	0.000000
863.647766	0.000000
863.680908	0.000000
863.714172	0.000000
863.747375	0.000000
863.780579	0.000000
863.813721	0.000000
863.846985	0.000000
863.880127	0.000000
863.913330	0.000000
863.946533	0.000000
863.979675	0.000000
864.012939	0.000000
