Model Number: SPM-001-M   
Serial Number: 10090201
Firmware Version: 004.17.6
Exposure Time: 300000.000000us
Data Taken on: 28-01-2021 10:25:55.983
Wavelength	Amplitude
733.770752	0.000000
733.808716	0.000000
733.846619	0.000000
733.884583	0.000000
733.922546	0.000000
733.960449	0.000000
733.998413	0.000000
734.036377	0.000000
734.074219	0.000000
734.112183	0.000000
734.150085	0.000000
734.188049	0.000000
734.226013	0.000000
734.263916	0.000000
734.301819	0.000000
734.339783	0.000000
734.377686	0.000000
734.415588	0.000000
734.453552	0.000000
734.491455	0.000000
734.529419	0.000000
734.567322	0.000000
734.605225	0.000000
734.643127	0.000000
734.681091	0.000000
734.718994	0.000000
734.756897	0.000000
734.794800	0.000000
734.832703	0.000000
734.870667	0.000000
734.908508	0.000000
734.946472	0.000000
734.984375	0.000000
735.022278	0.000000
735.060181	0.000000
735.098083	0.000000
735.135986	0.000000
735.173889	0.000000
735.211792	0.000000
735.249695	0.000000
735.287598	0.000000
735.325439	0.000000
735.363403	0.000000
735.401306	0.000000
735.439148	0.000000
735.477051	0.000000
735.515015	0.000000
735.552856	0.000000
735.590759	0.000000
735.628662	0.000000
735.666504	0.000000
735.704407	0.000000
735.742310	0.000000
735.780212	0.000000
735.818115	0.000000
735.856018	0.000000
735.893860	0.000000
735.931763	0.000000
735.969604	0.000000
736.007507	0.000000
736.045410	0.000000
736.083252	0.000000
736.121094	0.000000
736.158997	0.000000
736.196838	0.000000
736.234741	0.000000
736.272644	0.000000
736.310486	0.000000
736.348389	0.000000
736.386230	0.000000
736.424072	0.000000
736.461975	0.000000
736.499878	0.000000
736.537720	0.000000
736.575562	0.000000
736.613403	0.000000
736.651306	0.000000
736.689148	0.000000
736.726990	0.000000
736.764893	0.000000
736.802734	0.000000
736.840576	0.000000
736.878418	0.000000
736.916321	0.000000
736.954102	0.000000
736.992004	0.000000
737.029846	0.000000
737.067688	0.000000
737.105530	0.000000
737.143372	0.000000
737.181213	0.000000
737.219116	0.000000
737.256897	0.000000
737.294739	0.000000
737.332642	0.000000
737.370422	0.000000
737.408325	0.000000
737.446167	0.000000
737.483948	0.000000
737.521790	0.000000
737.559692	0.000000
737.597473	0.000000
737.635315	0.000000
737.673157	0.000000
737.710999	0.000000
737.748840	0.000000
737.786621	0.000000
737.824463	0.000000
737.862305	0.000000
737.900085	0.000000
737.937927	0.000000
737.975769	0.000000
738.013550	0.000000
738.051392	0.000000
738.089233	0.000000
738.127014	0.000000
738.164856	0.000000
738.202698	0.000000
738.240479	0.000000
738.278320	0.000000
738.316162	0.000000
738.353943	0.000000
738.391785	0.000000
738.429565	0.000000
738.467407	0.000000
738.505188	0.000000
738.542969	0.000000
738.580811	0.000000
738.618652	0.000000
738.656372	0.000000
738.694214	0.000000
738.732056	0.000000
738.769836	0.000000
738.807617	0.000000
738.845459	0.000000
738.883240	0.000000
738.921021	0.000000
738.958862	0.000000
738.996582	0.000000
739.034424	0.000000
739.072205	0.000000
739.109985	0.000000
739.147827	0.000000
739.185547	0.000000
739.223389	0.000000
739.261169	0.000000
739.298889	0.000000
739.336731	0.000000
739.374512	0.000000
739.412292	0.000000
739.450073	0.000000
739.487854	0.000000
739.525635	0.000000
739.563416	0.000000
739.601135	0.000000
739.638977	0.000000
739.676758	0.000000
739.714478	0.000000
739.752258	0.000000
739.790100	0.000000
739.827820	0.000000
739.865601	0.000000
739.903381	0.000000
739.941101	0.000000
739.978882	184.300000
740.016724	178.700000
740.054443	183.000000
740.092224	178.600000
740.130005	178.500000
740.167725	178.300000
740.205505	177.700000
740.243225	184.400000
740.281006	180.800000
740.318787	177.000000
740.356506	186.000000
740.394287	184.100000
740.432068	178.200000
740.469727	176.300000
740.507507	183.100000
740.545288	180.600000
740.583008	182.200000
740.620789	180.900000
740.658569	176.600000
740.696228	180.500000
740.734009	182.900000
740.771790	173.000000
740.809509	183.400000
740.847229	176.900000
740.884949	179.100000
740.922729	176.400000
740.960449	179.000000
740.998169	177.600000
741.035950	178.000000
741.073669	182.100000
741.111389	180.200000
741.149170	188.200000
741.186890	187.100000
741.224609	183.900000
741.262329	181.000000
741.300110	186.900000
741.337769	177.800000
741.375549	177.300000
741.413208	180.800000
741.450989	177.300000
741.488708	179.200000
741.526367	178.800000
741.564148	182.800000
741.601868	183.100000
741.639526	180.100000
741.677307	181.300000
741.715027	182.300000
741.752686	178.400000
741.790466	184.900000
741.828186	182.200000
741.865845	176.900000
741.903564	176.100000
741.941345	180.400000
741.979004	179.600000
742.016724	184.300000
742.054382	180.700000
742.092102	184.100000
742.129822	175.900000
742.167480	179.800000
742.205200	180.000000
742.242920	181.700000
742.280640	181.700000
742.318359	178.600000
742.356079	179.500000
742.393738	182.500000
742.431396	179.200000
742.469116	183.300000
742.506775	173.900000
742.544495	182.500000
742.582214	182.800000
742.619873	179.900000
742.657593	184.400000
742.695251	184.500000
742.732971	179.500000
742.770630	183.100000
742.808289	181.500000
742.846008	180.600000
742.883728	181.600000
742.921326	181.700000
742.959045	178.400000
742.996765	179.000000
743.034424	181.800000
743.072083	177.800000
743.109802	179.700000
743.147400	176.900000
743.185120	180.800000
743.222839	180.400000
743.260437	184.400000
743.298157	181.500000
743.335754	173.500000
743.373474	180.200000
743.411133	175.400000
743.448792	181.600000
743.486450	180.500000
743.524170	176.200000
743.561768	180.500000
743.599487	185.700000
743.637146	186.700000
743.674744	180.700000
743.712463	179.500000
743.750122	181.200000
743.787720	182.300000
743.825439	179.900000
743.863037	178.800000
743.900696	180.300000
743.938416	205.800000
743.976013	180.000000
744.013672	185.400000
744.051331	182.900000
744.088928	185.500000
744.126587	183.900000
744.164307	182.200000
744.201904	178.400000
744.239563	182.700000
744.277222	182.800000
744.314819	180.600000
744.352478	185.100000
744.390137	181.600000
744.427734	181.800000
744.465393	178.900000
744.502991	177.300000
744.540649	183.600000
744.578308	180.600000
744.615906	177.600000
744.653564	172.700000
744.691223	183.300000
744.728821	176.100000
744.766418	181.200000
744.804077	182.400000
744.841675	180.400000
744.879333	176.500000
744.916992	181.700000
744.954529	179.100000
744.992187	183.400000
745.029785	180.600000
745.067444	178.500000
745.105042	179.700000
745.142639	182.500000
745.180298	187.700000
745.217896	178.500000
745.255493	179.100000
745.293152	182.600000
745.330750	184.700000
745.368347	186.300000
745.405945	184.100000
745.443604	180.900000
745.481140	183.900000
745.518799	181.700000
745.556396	183.200000
745.593994	183.900000
745.631592	181.600000
745.669189	178.100000
745.706787	181.600000
745.744385	178.300000
745.781982	182.200000
745.819580	179.200000
745.857178	180.900000
745.894775	179.700000
745.932373	181.700000
745.969971	181.600000
746.007568	175.500000
746.045166	185.900000
746.082764	185.100000
746.120300	183.300000
746.157898	183.100000
746.195557	178.800000
746.233093	177.400000
746.270691	182.400000
746.308228	182.900000
746.345825	183.500000
746.383423	182.700000
746.420959	177.400000
746.458557	179.000000
746.496155	177.700000
746.533691	181.600000
746.571289	177.100000
746.608887	182.100000
746.646423	181.800000
746.684021	182.000000
746.721619	176.800000
746.759155	182.300000
746.796753	175.000000
746.834351	178.400000
746.871826	178.400000
746.909424	185.500000
746.946960	180.400000
746.984558	181.000000
747.022156	178.600000
747.059631	187.500000
747.097229	182.300000
747.134827	179.500000
747.172363	184.700000
747.209900	184.500000
747.247498	177.600000
747.285034	184.900000
747.322571	186.200000
747.360168	181.200000
747.397644	175.600000
747.435242	183.600000
747.472778	184.900000
747.510315	180.200000
747.547913	179.500000
747.585388	184.400000
747.622925	179.600000
747.660522	175.300000
747.697998	179.000000
747.735596	179.700000
747.773132	180.500000
747.810669	181.400000
747.848206	183.600000
747.885742	175.600000
747.923279	177.800000
747.960815	182.100000
747.998352	182.300000
748.035889	184.400000
748.073425	183.100000
748.110901	178.100000
748.148437	178.000000
748.185974	180.300000
748.223511	187.500000
748.261047	182.400000
748.298584	181.600000
748.336060	180.100000
748.373596	184.200000
748.411133	206.300000
748.448608	178.600000
748.486145	183.700000
748.523682	183.300000
748.561218	186.100000
748.598755	181.400000
748.636292	183.100000
748.673706	180.900000
748.711243	186.500000
748.748718	182.500000
748.786255	181.300000
748.823792	181.300000
748.861267	176.900000
748.898804	183.600000
748.936340	181.600000
748.973816	178.800000
749.011292	185.800000
749.048828	182.500000
749.086304	182.800000
749.123840	188.100000
749.161316	177.900000
749.198792	187.500000
749.236328	186.100000
749.273743	180.600000
749.311279	180.200000
749.348816	184.400000
749.386230	181.300000
749.423767	174.000000
749.461304	184.100000
749.498718	180.900000
749.536255	185.500000
749.573730	187.200000
749.611206	185.900000
749.648682	178.900000
749.686218	180.300000
749.723633	182.800000
749.761169	180.100000
749.798645	179.400000
749.836060	180.200000
749.873596	177.100000
749.911011	183.600000
749.948547	185.200000
749.986023	182.300000
750.023437	178.800000
750.060913	176.800000
750.098450	175.500000
750.135864	181.000000
750.173340	179.600000
750.210815	185.000000
750.248291	177.200000
750.285767	181.800000
750.323242	183.900000
750.360657	183.100000
750.398132	176.700000
750.435608	181.600000
750.473022	178.200000
750.510498	177.600000
750.547974	178.500000
750.585449	179.300000
750.622925	174.100000
750.660339	191.500000
750.697815	182.000000
750.735291	180.900000
750.772644	180.000000
750.810120	184.700000
750.847595	182.600000
750.885010	178.400000
750.922485	186.500000
750.959961	181.100000
750.997375	185.800000
751.034851	182.800000
751.072266	183.900000
751.109680	176.300000
751.147156	186.600000
751.184570	182.800000
751.221985	181.600000
751.259460	176.400000
751.296875	181.300000
751.334290	180.200000
751.371765	184.500000
751.409180	183.600000
751.446594	185.300000
751.484070	181.500000
751.521423	182.300000
751.558899	181.700000
751.596375	187.700000
751.633728	185.200000
751.671204	189.200000
751.708618	178.000000
751.746033	181.800000
751.783447	175.700000
751.820801	178.400000
751.858276	183.600000
751.895691	182.700000
751.933105	179.300000
751.970520	178.600000
752.007935	180.100000
752.045349	185.200000
752.082764	180.900000
752.120178	179.500000
752.157532	179.700000
752.195007	180.100000
752.232422	181.300000
752.269775	184.500000
752.307190	182.500000
752.344543	177.800000
752.382019	181.800000
752.419434	180.400000
752.456787	183.900000
752.494202	185.100000
752.531616	182.300000
752.568970	183.600000
752.606384	183.200000
752.643799	182.500000
752.681152	186.500000
752.718567	183.300000
752.755981	175.300000
752.793335	184.300000
752.830750	176.600000
752.868164	185.700000
752.905518	177.900000
752.942932	184.800000
752.980225	179.000000
753.017639	183.900000
753.055054	183.600000
753.092407	182.600000
753.129822	184.400000
753.167175	186.200000
753.204529	181.200000
753.241943	179.100000
753.279358	178.500000
753.316650	182.900000
753.354065	183.700000
753.391479	184.800000
753.428772	186.400000
753.466187	182.100000
753.503479	179.500000
753.540894	181.100000
753.578308	177.400000
753.615601	177.300000
753.653015	181.600000
753.690369	179.600000
753.727722	178.700000
753.765076	175.100000
753.802490	177.800000
753.839783	174.700000
753.877136	179.300000
753.914551	189.100000
753.951843	178.400000
753.989258	184.000000
754.026611	181.600000
754.063904	181.800000
754.101257	179.100000
754.138611	176.800000
754.175964	182.500000
754.213318	188.200000
754.250610	176.500000
754.288025	180.500000
754.325378	178.000000
754.362671	183.800000
754.400024	180.900000
754.437378	188.700000
754.474670	186.400000
754.512085	178.800000
754.549438	182.300000
754.586731	179.800000
754.624084	180.200000
754.661438	178.200000
754.698730	189.500000
754.736084	181.100000
754.773376	180.500000
754.810730	182.000000
754.848083	181.500000
754.885315	184.200000
754.922668	176.700000
754.960022	177.600000
754.997314	185.200000
755.034668	180.800000
755.072021	181.500000
755.109253	180.400000
755.146606	185.200000
755.183960	181.800000
755.221252	187.300000
755.258545	185.500000
755.295898	186.400000
755.333191	187.000000
755.370544	184.300000
755.407776	182.200000
755.445129	181.800000
755.482422	185.700000
755.519714	180.300000
755.557068	178.200000
755.594360	177.000000
755.631653	185.700000
755.668945	187.400000
755.706299	183.200000
755.743530	188.400000
755.780884	187.600000
755.818176	185.000000
755.855408	186.200000
755.892761	183.700000
755.930054	183.500000
755.967346	183.300000
756.004639	185.300000
756.041870	182.700000
756.079224	188.300000
756.116516	181.400000
756.153748	185.000000
756.191040	189.700000
756.228394	184.900000
756.265625	180.600000
756.302917	183.500000
756.340210	181.600000
756.377441	186.300000
756.414795	188.600000
756.452087	182.900000
756.489319	178.900000
756.526611	187.300000
756.563843	184.000000
756.601135	188.700000
756.638428	191.900000
756.675659	184.100000
756.712952	186.100000
756.750244	186.900000
756.787476	185.700000
756.824768	187.800000
756.862061	183.700000
756.899292	229.700000
756.936584	188.200000
756.973816	190.300000
757.011047	192.900000
757.048340	183.900000
757.085632	186.700000
757.122864	197.900000
757.160156	183.200000
757.197327	186.100000
757.234619	188.800000
757.271912	184.200000
757.309082	188.900000
757.346375	183.600000
757.383667	190.100000
757.420837	185.800000
757.458130	186.700000
757.495422	184.400000
757.532593	187.800000
757.569885	180.500000
757.607117	183.800000
757.644348	187.500000
757.681580	196.100000
757.718811	178.100000
757.756042	186.900000
757.793335	184.100000
757.830505	189.700000
757.867798	186.700000
757.905029	184.200000
757.942200	188.000000
757.979492	184.800000
758.016724	187.500000
758.053894	186.900000
758.091187	198.000000
758.128418	188.000000
758.165588	186.900000
758.202820	194.100000
758.240112	189.100000
758.277283	194.700000
758.314514	188.400000
758.351685	186.300000
758.388916	193.100000
758.426147	193.500000
758.463379	194.500000
758.500610	190.200000
758.537842	189.600000
758.575012	192.600000
758.612244	186.800000
758.649475	197.900000
758.686646	184.600000
758.723877	193.200000
758.761108	194.700000
758.798279	189.500000
758.835510	190.600000
758.872742	194.100000
758.909851	191.800000
758.947083	190.900000
758.984253	192.400000
759.021484	192.300000
759.058716	193.500000
759.095886	193.700000
759.133057	192.100000
759.170288	193.800000
759.207458	189.400000
759.244690	196.900000
759.281860	198.500000
759.319031	191.800000
759.356262	190.600000
759.393433	191.300000
759.430603	190.600000
759.467773	192.200000
759.505005	195.400000
759.542175	197.000000
759.579346	193.000000
759.616516	193.200000
759.653687	195.900000
759.690918	191.100000
759.728027	193.600000
759.765259	195.500000
759.802429	196.200000
759.839539	195.600000
759.876770	197.800000
759.913940	201.100000
759.951111	194.400000
759.988281	195.400000
760.025452	193.800000
760.062561	192.000000
760.099792	201.600000
760.136963	196.900000
760.174072	193.800000
760.211243	191.000000
760.248413	190.900000
760.285583	194.600000
760.322754	202.400000
760.359863	200.500000
760.397034	198.400000
760.434204	195.900000
760.471375	195.800000
760.508545	194.700000
760.545715	197.200000
760.582825	193.900000
760.619995	199.100000
760.657166	193.200000
760.694275	201.200000
760.731445	199.400000
760.768555	197.800000
760.805664	200.200000
760.842834	199.100000
760.879944	199.900000
760.917114	197.700000
760.954285	197.100000
760.991394	193.300000
761.028564	202.300000
761.065674	200.100000
761.102783	197.200000
761.139954	202.400000
761.177124	201.800000
761.214172	203.400000
761.251343	198.500000
761.288452	198.800000
761.325562	201.100000
761.362732	196.700000
761.399841	199.500000
761.436951	201.600000
761.474121	196.800000
761.511169	199.700000
761.548340	203.800000
761.585449	203.200000
761.622559	203.100000
761.659668	202.400000
761.696838	206.100000
761.733887	201.800000
761.771057	201.800000
761.808167	201.700000
761.845276	205.200000
761.882385	210.500000
761.919434	203.300000
761.956604	214.900000
761.993713	201.500000
762.030762	207.100000
762.067871	203.100000
762.105042	203.500000
762.142090	208.400000
762.179199	206.000000
762.216309	208.200000
762.253418	215.200000
762.290527	211.300000
762.327637	209.400000
762.364685	200.900000
762.401794	208.300000
762.438904	207.800000
762.475952	203.900000
762.513062	201.800000
762.550110	203.900000
762.587219	213.400000
762.624329	212.900000
762.661377	207.900000
762.698486	208.000000
762.735596	207.000000
762.772644	204.600000
762.809753	202.800000
762.846863	207.100000
762.883911	211.300000
762.921021	210.500000
762.958069	208.200000
762.995117	213.300000
763.032227	212.800000
763.069336	208.000000
763.106323	205.600000
763.143433	204.200000
763.180481	211.000000
763.217590	211.100000
763.254639	207.500000
763.291687	210.500000
763.328735	216.500000
763.365845	209.500000
763.402893	208.800000
763.439941	212.900000
763.477051	214.200000
763.514038	213.700000
763.551147	210.500000
763.588196	212.500000
763.625244	212.100000
763.662292	217.100000
763.699402	219.700000
763.736389	215.000000
763.773499	222.300000
763.810486	216.800000
763.847534	214.400000
763.884644	216.000000
763.921631	214.700000
763.958679	221.600000
763.995728	217.400000
764.032776	222.100000
764.069824	214.100000
764.106873	219.800000
764.143860	225.800000
764.180969	218.300000
764.218018	224.000000
764.255005	217.700000
764.292053	221.200000
764.329102	226.700000
764.366089	227.700000
764.403137	224.800000
764.440125	219.000000
764.477173	221.000000
764.514221	224.400000
764.551208	221.500000
764.588257	221.700000
764.625305	226.300000
764.662292	231.000000
764.699341	232.100000
764.736389	228.100000
764.773376	236.800000
764.810425	230.000000
764.847473	232.300000
764.884399	229.700000
764.921448	237.100000
764.958435	234.000000
764.995483	231.100000
765.032532	241.100000
765.069458	230.400000
765.106506	231.100000
765.143555	229.800000
765.180481	233.100000
765.217529	240.500000
765.254578	230.300000
765.291504	235.900000
765.328552	234.300000
765.365540	231.600000
765.402527	241.000000
765.439575	233.100000
765.476501	229.300000
765.513550	230.300000
765.550537	233.600000
765.587463	239.400000
765.624512	233.900000
765.661499	230.400000
765.698486	240.100000
765.735474	234.000000
765.772461	235.100000
765.809448	241.800000
765.846436	240.700000
765.883423	244.200000
765.920410	239.600000
765.957397	237.200000
765.994385	239.900000
766.031311	247.500000
766.068359	241.200000
766.105286	243.400000
766.142273	246.800000
766.179260	242.300000
766.216187	237.800000
766.253174	239.200000
766.290161	244.800000
766.327148	247.200000
766.364136	246.800000
766.401123	256.300000
766.438049	242.300000
766.475037	251.700000
766.512024	248.500000
766.548950	258.200000
766.585937	254.000000
766.622864	252.200000
766.659790	251.100000
766.696777	245.700000
766.733704	254.900000
766.770691	248.500000
766.807678	257.700000
766.844604	253.900000
766.881531	254.500000
766.918518	257.400000
766.955444	259.200000
766.992432	254.000000
767.029358	255.300000
767.066284	259.900000
767.103271	257.900000
767.140198	290.100000
767.177124	266.200000
767.214050	259.100000
767.251038	261.900000
767.287964	258.500000
767.324890	256.600000
767.361816	261.900000
767.398743	265.700000
767.435730	257.800000
767.472595	262.900000
767.509583	266.200000
767.546509	259.600000
767.583374	262.200000
767.620361	258.600000
767.657288	260.700000
767.694214	263.200000
767.731140	262.000000
767.768066	262.400000
767.804993	265.600000
767.841919	259.600000
767.878845	263.400000
767.915710	270.500000
767.952698	263.000000
767.989563	265.500000
768.026489	266.500000
768.063416	264.200000
768.100281	262.300000
768.137207	272.000000
768.174133	269.600000
768.211060	269.600000
768.247986	268.200000
768.284912	266.500000
768.321777	269.400000
768.358704	266.100000
768.395630	269.700000
768.432495	266.800000
768.469421	273.100000
768.506348	274.600000
768.543152	278.200000
768.580078	275.400000
768.616943	275.800000
768.653870	277.000000
768.690796	276.900000
768.727661	277.700000
768.764587	277.800000
768.801453	272.500000
768.838318	280.500000
768.875244	277.000000
768.912109	284.700000
768.948975	277.000000
768.985901	281.000000
769.022766	279.700000
769.059631	282.800000
769.096558	280.400000
769.133362	281.900000
769.170288	282.600000
769.207214	282.900000
769.244019	286.600000
769.280945	287.000000
769.317810	291.400000
769.354675	285.400000
769.391541	292.000000
769.428406	290.000000
769.465271	298.200000
769.502136	292.600000
769.539062	293.000000
769.575867	293.800000
769.612732	293.900000
769.649597	297.700000
769.686462	301.000000
769.723328	297.800000
769.760193	296.400000
769.797058	297.800000
769.833923	303.100000
769.870728	302.600000
769.907593	304.000000
769.944519	303.800000
769.981323	305.600000
770.018188	307.000000
770.055054	304.000000
770.091858	304.200000
770.128723	313.300000
770.165588	316.600000
770.202393	306.900000
770.239258	315.500000
770.276062	312.700000
770.312927	314.200000
770.349792	323.800000
770.386597	319.100000
770.423462	326.100000
770.460327	330.200000
770.497131	319.700000
770.533997	317.000000
770.570862	327.000000
770.607605	326.900000
770.644470	325.300000
770.681335	326.700000
770.718140	327.300000
770.754944	322.600000
770.791809	324.300000
770.828613	324.300000
770.865479	324.900000
770.902222	333.800000
770.939087	329.800000
770.975952	325.000000
771.012695	329.700000
771.049561	337.800000
771.086365	332.500000
771.123169	329.800000
771.159973	333.200000
771.196838	331.500000
771.233582	335.700000
771.270447	335.000000
771.307251	338.400000
771.344055	335.100000
771.380859	341.700000
771.417664	335.300000
771.454468	342.900000
771.491272	342.300000
771.528076	343.100000
771.564880	342.100000
771.601685	348.400000
771.638428	339.400000
771.675293	343.800000
771.712097	337.300000
771.748840	353.600000
771.785645	348.100000
771.822449	350.400000
771.859253	349.800000
771.896057	347.000000
771.932861	355.700000
771.969604	352.100000
772.006409	345.100000
772.043213	355.300000
772.079956	354.800000
772.116760	349.100000
772.153503	351.800000
772.190308	361.400000
772.227112	354.600000
772.263855	355.900000
772.300659	356.900000
772.337463	361.700000
772.374207	353.700000
772.411011	353.400000
772.447754	355.800000
772.484497	368.300000
772.521301	364.900000
772.558105	362.800000
772.594849	361.900000
772.631592	365.900000
772.668396	366.500000
772.705139	369.400000
772.741882	369.100000
772.778625	374.200000
772.815430	374.800000
772.852173	373.200000
772.888916	376.200000
772.925720	377.900000
772.962463	384.300000
772.999207	375.200000
773.035950	378.600000
773.072754	377.000000
773.109436	377.400000
773.146240	376.500000
773.182922	379.700000
773.219727	382.800000
773.256470	380.000000
773.293152	371.600000
773.329956	378.500000
773.366699	381.700000
773.403381	376.900000
773.440186	384.900000
773.476929	384.300000
773.513611	382.000000
773.550354	381.800000
773.587158	380.900000
773.623840	380.400000
773.660583	385.800000
773.697327	393.400000
773.734009	388.400000
773.770813	384.800000
773.807495	384.400000
773.844238	389.400000
773.880981	397.500000
773.917664	395.800000
773.954407	395.900000
773.991150	390.700000
774.027832	395.700000
774.064575	391.100000
774.101318	397.500000
774.138000	399.600000
774.174744	397.900000
774.211487	399.300000
774.248108	392.400000
774.284851	392.700000
774.321594	399.400000
774.358276	402.000000
774.395020	405.900000
774.431702	399.000000
774.468384	398.100000
774.505127	394.400000
774.541809	404.000000
774.578491	409.900000
774.615234	410.200000
774.651917	403.200000
774.688599	407.200000
774.725342	413.900000
774.762024	416.000000
774.798706	417.400000
774.835449	418.900000
774.872070	420.800000
774.908813	418.300000
774.945496	417.900000
774.982178	420.300000
775.018860	421.000000
775.055542	423.700000
775.092224	424.400000
775.128967	429.900000
775.165588	427.800000
775.202271	426.000000
775.239014	434.500000
775.275635	435.800000
775.312317	429.600000
775.349060	437.100000
775.385681	436.400000
775.422363	434.200000
775.459045	438.300000
775.495667	441.300000
775.532410	442.300000
775.569092	441.300000
775.605713	441.900000
775.642395	441.000000
775.679016	444.600000
775.715698	446.200000
775.752380	449.900000
775.789001	447.100000
775.825684	448.800000
775.862366	449.500000
775.898987	459.800000
775.935669	455.000000
775.972351	469.200000
776.008972	463.700000
776.045654	465.100000
776.082336	464.900000
776.118958	463.400000
776.155640	469.600000
776.192322	475.700000
776.228882	473.100000
776.265564	475.700000
776.302185	470.300000
776.338867	476.900000
776.375488	475.900000
776.412109	481.900000
776.448792	482.900000
776.485413	489.000000
776.522034	482.700000
776.558716	480.300000
776.595337	481.800000
776.631958	486.900000
776.668579	488.600000
776.705261	494.400000
776.741882	488.400000
776.778503	490.500000
776.815186	491.000000
776.851746	496.200000
776.888367	494.700000
776.924988	504.300000
776.961609	500.200000
776.998291	501.200000
777.034851	493.300000
777.071472	504.100000
777.108154	503.900000
777.144714	515.200000
777.181335	511.500000
777.218018	510.100000
777.254578	512.000000
777.291199	511.400000
777.327759	516.600000
777.364380	523.700000
777.401062	525.900000
777.437622	532.900000
777.474243	528.800000
777.510864	529.700000
777.547424	526.300000
777.584045	524.000000
777.620667	526.900000
777.657227	528.900000
777.693848	531.100000
777.730469	540.800000
777.767029	535.700000
777.803650	536.700000
777.840271	535.000000
777.876831	534.000000
777.913452	540.300000
777.950012	526.200000
777.986633	528.500000
778.023193	528.500000
778.059753	529.700000
778.096375	533.100000
778.132996	542.100000
778.169556	532.500000
778.206116	536.900000
778.242737	534.700000
778.279297	541.900000
778.315857	531.300000
778.352478	538.600000
778.389038	545.400000
778.425598	545.500000
778.462219	549.500000
778.498718	550.600000
778.535339	556.100000
778.571838	555.000000
778.608459	557.100000
778.645020	547.900000
778.681580	554.800000
778.718140	554.500000
778.754761	552.100000
778.791260	556.800000
778.827881	561.900000
778.864441	562.500000
778.900940	567.700000
778.937561	560.100000
778.974121	562.000000
779.010620	560.300000
779.047241	563.900000
779.083801	568.300000
779.120300	568.300000
779.156860	570.300000
779.193359	569.200000
779.229980	570.200000
779.266541	571.400000
779.303040	576.300000
779.339600	567.700000
779.376160	562.600000
779.412659	565.600000
779.449219	562.300000
779.485779	571.100000
779.522278	571.100000
779.558838	577.000000
779.595398	573.000000
779.631897	570.600000
779.668457	567.600000
779.705017	575.700000
779.741516	569.300000
779.778076	567.000000
779.814575	570.100000
779.851074	575.900000
779.887634	570.200000
779.924133	579.700000
779.960693	569.000000
779.997253	579.000000
780.033691	583.200000
780.070251	585.400000
780.106812	592.300000
780.143250	590.700000
780.179810	584.100000
780.216370	589.400000
780.252808	592.800000
780.289368	594.600000
780.325867	592.100000
780.362366	589.900000
780.398865	601.000000
780.435364	596.400000
780.471863	603.200000
780.508423	601.600000
780.544861	604.500000
780.581421	605.700000
780.617920	595.500000
780.654419	596.000000
780.690918	602.200000
780.727417	603.600000
780.763916	606.900000
780.800415	611.000000
780.836914	605.100000
780.873352	611.500000
780.909912	606.200000
780.946411	612.000000
780.982849	617.900000
781.019348	628.500000
781.055786	620.800000
781.092346	617.500000
781.128845	628.500000
781.165283	633.200000
781.201782	643.400000
781.238281	648.300000
781.274719	645.900000
781.311218	642.700000
781.347717	650.400000
781.384155	638.300000
781.420654	643.400000
781.457092	647.700000
781.493591	647.300000
781.530090	641.200000
781.566528	645.300000
781.602966	650.100000
781.639465	649.500000
781.675903	645.000000
781.712402	648.800000
781.748901	650.400000
781.785278	647.700000
781.821777	650.000000
781.858276	656.500000
781.894714	668.000000
781.931152	663.600000
781.967651	669.000000
782.004089	666.700000
782.040527	673.600000
782.076965	673.300000
782.113403	675.400000
782.149902	677.100000
782.186340	678.700000
782.222778	685.700000
782.259277	680.200000
782.295654	683.800000
782.332092	690.900000
782.368591	686.300000
782.404968	683.000000
782.441467	686.600000
782.477905	692.100000
782.514282	689.300000
782.550781	701.200000
782.587219	700.200000
782.623596	709.600000
782.660095	710.400000
782.696472	711.300000
782.732910	712.300000
782.769348	716.500000
782.805786	731.100000
782.842224	730.400000
782.878662	729.700000
782.915039	725.200000
782.951477	727.900000
782.987915	722.500000
783.024292	723.000000
783.060730	729.500000
783.097168	722.500000
783.133545	714.100000
783.169983	705.000000
783.206421	697.000000
783.242798	695.300000
783.279236	687.100000
783.315613	682.800000
783.352051	679.600000
783.388489	674.800000
783.424866	665.000000
783.461304	660.900000
783.497681	669.400000
783.534058	658.900000
783.570496	652.600000
783.606934	638.800000
783.643250	641.500000
783.679687	643.000000
783.716125	633.800000
783.752441	633.600000
783.788879	638.200000
783.825317	638.900000
783.861633	633.900000
783.898071	625.100000
783.934448	632.200000
783.970825	630.600000
784.007263	622.800000
784.043579	620.800000
784.080017	621.200000
784.116394	612.800000
784.152710	606.000000
784.189148	603.400000
784.225525	598.100000
784.261902	589.800000
784.298279	586.800000
784.334656	585.000000
784.371033	584.600000
784.407410	589.500000
784.443787	579.100000
784.480164	575.900000
784.516541	568.700000
784.552856	575.900000
784.589233	583.100000
784.625610	586.100000
784.661987	607.200000
784.698364	603.100000
784.734741	602.500000
784.771057	610.800000
784.807434	619.700000
784.843811	637.300000
784.880127	642.700000
784.916504	666.000000
784.952881	669.100000
784.989197	677.400000
785.025574	684.500000
785.061951	695.000000
785.098267	712.400000
785.134644	717.400000
785.170959	714.400000
785.207275	717.500000
785.243652	721.600000
785.279968	718.200000
785.316345	723.500000
785.352722	727.700000
785.388977	723.600000
785.425354	714.900000
785.461731	706.200000
785.498047	706.500000
785.534363	712.200000
785.570679	714.500000
785.606995	714.200000
785.643372	721.100000
785.679687	720.300000
785.716003	716.700000
785.752380	720.600000
785.788635	730.700000
785.825012	747.000000
785.861328	752.800000
785.897644	745.400000
785.933960	762.600000
785.970337	770.900000
786.006592	790.800000
786.042908	796.600000
786.079285	801.300000
786.115540	807.600000
786.151855	805.000000
786.188171	802.000000
786.224487	803.900000
786.260803	801.600000
786.297119	802.200000
786.333435	798.300000
786.369751	788.800000
786.406006	790.700000
786.442322	777.900000
786.478638	764.300000
786.514954	774.100000
786.551270	768.200000
786.587585	768.200000
786.623840	755.400000
786.660156	751.200000
786.696472	748.100000
786.732727	747.800000
786.769043	757.800000
786.805298	748.300000
786.841614	752.000000
786.877930	763.300000
786.914124	759.600000
786.950439	775.600000
786.986755	784.600000
787.023010	799.200000
787.059326	805.300000
787.095642	810.000000
787.131836	821.800000
787.168152	819.700000
787.204468	831.600000
787.240723	839.900000
787.276978	843.900000
787.313293	845.000000
787.349548	839.400000
787.385803	840.000000
787.422058	830.600000
787.458313	830.800000
787.494629	826.100000
787.530823	822.100000
787.567139	814.700000
787.603455	804.800000
787.639648	797.300000
787.675903	799.500000
787.712219	798.900000
787.748413	798.500000
787.784729	800.200000
787.820984	793.200000
787.857178	790.900000
787.893494	785.200000
787.929749	789.400000
787.965942	800.200000
788.002258	811.800000
788.038452	824.200000
788.074707	821.900000
788.110962	828.800000
788.147217	823.100000
788.183472	836.000000
788.219727	849.400000
788.255920	858.600000
788.292175	866.100000
788.328430	859.700000
788.364624	844.500000
788.400879	847.000000
788.437134	854.700000
788.473328	854.000000
788.509583	855.100000
788.545837	851.800000
788.582031	850.800000
788.618286	850.700000
788.654480	854.400000
788.690735	863.500000
788.726990	874.400000
788.763184	868.400000
788.799377	875.100000
788.835632	865.200000
788.871826	880.600000
788.908081	882.000000
788.944336	880.900000
788.980469	887.500000
789.016724	885.500000
789.052979	887.000000
789.089111	867.100000
789.125366	877.600000
789.161621	867.400000
789.197754	876.100000
789.234009	873.000000
789.270142	865.200000
789.306396	860.800000
789.342590	855.000000
789.378784	842.700000
789.414978	845.700000
789.451233	857.900000
789.487366	855.300000
789.523621	858.300000
789.559814	853.500000
789.595947	848.900000
789.632202	859.300000
789.668335	878.000000
789.704529	887.000000
789.740784	902.300000
789.776917	904.000000
789.813110	896.100000
789.849304	908.900000
789.885498	908.100000
789.921692	921.200000
789.957886	925.900000
789.994019	921.200000
790.030212	922.900000
790.066406	927.400000
790.102539	934.000000
790.138733	938.200000
790.174927	934.000000
790.211060	945.000000
790.247253	945.100000
790.283386	928.500000
790.319580	921.300000
790.355774	908.400000
790.391907	908.100000
790.428101	919.700000
790.464294	918.800000
790.500427	910.800000
790.536621	897.000000
790.572754	889.400000
790.608887	889.700000
790.645081	891.100000
790.681274	903.000000
790.717346	905.600000
790.753540	889.500000
790.789734	883.100000
790.825867	872.100000
790.862000	880.400000
790.898132	890.900000
790.934265	895.600000
790.970459	888.000000
791.006592	875.900000
791.042725	872.800000
791.078918	868.000000
791.114990	879.300000
791.151184	888.700000
791.187317	901.500000
791.223389	891.800000
791.259583	879.400000
791.295715	886.600000
791.331848	888.000000
791.367981	897.300000
791.404114	897.500000
791.440247	897.900000
791.476379	893.600000
791.512451	872.900000
791.548584	873.000000
791.584778	869.100000
791.620850	888.000000
791.656982	890.600000
791.693115	884.400000
791.729187	883.800000
791.765381	880.500000
791.801514	878.600000
791.837585	887.300000
791.873718	899.300000
791.909851	903.100000
791.945923	908.100000
791.982056	883.700000
792.018188	874.600000
792.054260	878.300000
792.090393	883.500000
792.126465	878.800000
792.162598	883.600000
792.198669	870.800000
792.234741	857.600000
792.270874	853.700000
792.307007	851.100000
792.343079	856.100000
792.379150	862.300000
792.415283	854.000000
792.451355	855.300000
792.487488	829.100000
792.523560	818.700000
792.559631	800.000000
792.595764	763.900000
792.631836	745.200000
792.667908	748.800000
792.703979	757.600000
792.740051	800.200000
792.776184	824.000000
792.812256	837.800000
792.848328	850.200000
792.884399	852.700000
792.920471	852.500000
792.956543	845.800000
792.992615	850.300000
793.028748	853.500000
793.064758	858.800000
793.100830	879.400000
793.136963	888.400000
793.172974	881.600000
793.209045	877.100000
793.245178	877.100000
793.281189	874.200000
793.317261	885.500000
793.353271	885.100000
793.389404	889.900000
793.425476	881.200000
793.461487	867.800000
793.497559	864.800000
793.533630	865.800000
793.569641	865.100000
793.605713	869.900000
793.641785	877.800000
793.677795	884.300000
793.713867	881.700000
793.749878	884.300000
793.785950	895.100000
793.822021	905.600000
793.858032	895.300000
793.894104	909.600000
793.930176	898.800000
793.966187	896.500000
794.002258	887.600000
794.038269	900.100000
794.074280	904.100000
794.110352	927.000000
794.146423	914.700000
794.182373	900.100000
794.218445	888.600000
794.254517	886.400000
794.290466	879.700000
794.326538	885.000000
794.362549	884.000000
794.398560	879.700000
794.434631	876.000000
794.470581	857.700000
794.506653	861.100000
794.542664	866.200000
794.578674	874.000000
794.614685	870.400000
794.650757	869.600000
794.686707	869.500000
794.722778	862.100000
794.758789	876.400000
794.794739	890.200000
794.830811	915.900000
794.866821	928.200000
794.902771	930.600000
794.938843	916.500000
794.974792	910.300000
795.010803	914.300000
795.046814	917.200000
795.082825	904.900000
795.118835	920.300000
795.154846	904.000000
795.190796	902.400000
795.226807	884.800000
795.262817	892.100000
795.298767	895.300000
795.334778	907.100000
795.370850	898.300000
795.406799	891.100000
795.442810	874.800000
795.478821	875.900000
795.514709	873.500000
795.550720	907.700000
795.586670	887.600000
795.622681	891.000000
795.658691	886.600000
795.694641	885.200000
795.730652	882.200000
795.766663	891.000000
795.802551	891.600000
795.838562	910.000000
795.874573	895.700000
795.910522	890.000000
795.946472	882.200000
795.982483	887.600000
796.018433	886.800000
796.054382	898.800000
796.090393	889.800000
796.126282	883.300000
796.162292	871.200000
796.198242	864.200000
796.234192	864.400000
796.270203	867.900000
796.306091	878.000000
796.342041	884.500000
796.378052	872.700000
796.413940	871.100000
796.449951	872.000000
796.485901	876.500000
796.521790	886.900000
796.557800	895.500000
796.593689	896.200000
796.629639	881.700000
796.665649	876.700000
796.701599	876.800000
796.737488	884.600000
796.773437	894.400000
796.809387	896.500000
796.845337	892.100000
796.881287	879.600000
796.917175	861.600000
796.953125	865.400000
796.989075	873.100000
797.024963	877.400000
797.060913	877.800000
797.096863	867.100000
797.132751	855.400000
797.168701	849.000000
797.204590	854.100000
797.240540	862.600000
797.276489	867.200000
797.312439	868.100000
797.348328	859.800000
797.384277	852.700000
797.420166	842.100000
797.456055	849.400000
797.492004	847.600000
797.527893	862.000000
797.563843	868.900000
797.599731	858.600000
797.635620	843.800000
797.671570	845.100000
797.707520	849.700000
797.743347	850.600000
797.779297	857.300000
797.815125	851.000000
797.851074	835.800000
797.887024	824.700000
797.922913	822.000000
797.958801	835.300000
797.994690	831.100000
798.030579	844.600000
798.066467	843.800000
798.102356	830.500000
798.138245	827.300000
798.174133	820.900000
798.210083	832.700000
798.245911	838.300000
798.281799	838.500000
798.317749	829.400000
798.353577	828.100000
798.389465	826.600000
798.425293	828.500000
798.461243	826.900000
798.497131	840.000000
798.532959	829.000000
798.568848	833.400000
798.604736	816.700000
798.640564	808.400000
798.676453	804.900000
798.712402	812.200000
798.748230	815.800000
798.784119	815.900000
798.820007	812.400000
798.855835	809.300000
798.891724	802.600000
798.927551	801.600000
798.963379	803.900000
798.999268	807.000000
799.035095	795.100000
799.070984	789.300000
799.106873	780.300000
799.142700	789.900000
799.178528	786.600000
799.214417	792.300000
799.250244	799.800000
799.286133	791.500000
799.321960	784.500000
799.357788	785.700000
799.393677	780.300000
799.429504	784.700000
799.465332	787.400000
799.501221	791.000000
799.537048	786.500000
799.572876	780.700000
799.608704	785.300000
799.644531	796.900000
799.680359	796.400000
799.716248	808.500000
799.752014	811.500000
799.787903	793.300000
799.823730	793.500000
799.859558	791.500000
799.895386	787.500000
799.931213	790.700000
799.967041	788.000000
800.002869	785.100000
800.038696	787.200000
800.074463	774.700000
800.110352	785.500000
800.146179	776.500000
800.181946	783.400000
800.217773	786.000000
800.253540	781.200000
800.289429	771.800000
800.325256	770.200000
800.361023	766.700000
800.396851	774.700000
800.432678	773.800000
800.468445	773.100000
800.504272	774.000000
800.540100	761.400000
800.575867	756.500000
800.611694	763.400000
800.647461	758.000000
800.683289	767.300000
800.719116	765.400000
800.754883	765.400000
800.790649	746.500000
800.826477	750.100000
800.862244	763.900000
800.898071	755.100000
800.933838	755.100000
800.969604	755.200000
801.005432	743.400000
801.041199	744.800000
801.076965	744.700000
801.112793	739.200000
801.148560	734.300000
801.184326	736.200000
801.220154	738.100000
801.255859	733.900000
801.291687	727.100000
801.327454	725.500000
801.363281	725.600000
801.398987	724.900000
801.434814	724.500000
801.470520	730.400000
801.506287	717.000000
801.542114	706.600000
801.577820	710.900000
801.613647	715.200000
801.649414	713.300000
801.685120	713.900000
801.720886	716.600000
801.756714	705.500000
801.792419	702.700000
801.828186	697.100000
801.863892	703.500000
801.899719	697.900000
801.935486	698.000000
801.971252	705.700000
802.006958	697.000000
802.042725	693.700000
802.078430	695.900000
802.114197	691.500000
802.149963	701.700000
802.185669	688.300000
802.221436	690.100000
802.257202	689.700000
802.292908	688.600000
802.328674	698.500000
802.364441	700.500000
802.400146	691.700000
802.435913	689.500000
802.471558	687.300000
802.507324	688.100000
802.543091	682.400000
802.578796	692.700000
802.614502	692.000000
802.650269	695.700000
802.685974	680.700000
802.721741	683.000000
802.757446	688.900000
802.793152	691.100000
802.828918	697.300000
802.864624	690.700000
802.900330	686.800000
802.936035	682.200000
802.971802	680.800000
803.007446	674.400000
803.043213	669.300000
803.078857	683.500000
803.114624	667.600000
803.150330	666.900000
803.185974	665.900000
803.221741	665.800000
803.257446	671.300000
803.293152	672.400000
803.328857	670.800000
803.364563	663.500000
803.400208	660.800000
803.435974	663.100000
803.471680	659.500000
803.507324	657.300000
803.543030	667.500000
803.578735	668.100000
803.614441	664.500000
803.650146	667.400000
803.685791	658.000000
803.721497	653.100000
803.757202	648.100000
803.792847	654.600000
803.828552	647.100000
803.864258	648.500000
803.899902	640.000000
803.935608	631.900000
803.971313	635.300000
804.006958	639.100000
804.042664	638.500000
804.078308	644.600000
804.113953	634.100000
804.149658	638.800000
804.185364	623.900000
804.221008	638.900000
804.256714	623.400000
804.292297	623.500000
804.328003	621.800000
804.363708	620.600000
804.399292	616.700000
804.434998	618.700000
804.470703	612.600000
804.506287	620.400000
804.541992	617.200000
804.577637	621.400000
804.613281	608.500000
804.648926	605.400000
804.684570	604.200000
804.720215	599.100000
804.755920	603.300000
804.791565	602.900000
804.827209	607.100000
804.862854	598.200000
804.898437	593.900000
804.934143	596.500000
804.969788	593.000000
805.005371	596.200000
805.041077	594.500000
805.076721	592.200000
805.112305	586.800000
805.147949	584.200000
805.183655	576.500000
805.219238	582.400000
805.254883	579.700000
805.290466	587.000000
805.326111	580.300000
805.361755	574.900000
805.397400	574.700000
805.432983	577.700000
805.468628	576.100000
805.504211	580.200000
805.539856	582.300000
805.575500	585.000000
805.611084	573.900000
805.646729	566.400000
805.682373	569.100000
805.717957	578.300000
805.753601	578.100000
805.789246	568.900000
805.824768	574.500000
805.860413	574.100000
805.895996	563.200000
805.931641	567.400000
805.967224	571.400000
806.002869	566.900000
806.038452	572.700000
806.074036	575.600000
806.109619	564.200000
806.145264	559.800000
806.180847	557.900000
806.216431	556.400000
806.252014	558.900000
806.287659	559.400000
806.323181	566.600000
806.358826	560.900000
806.394409	547.100000
806.429993	545.700000
806.465576	555.900000
806.501160	546.600000
806.536743	539.300000
806.572327	548.200000
806.607910	543.800000
806.643494	544.600000
806.679077	540.000000
806.714661	540.500000
806.750244	539.600000
806.785828	537.100000
806.821350	536.800000
806.856934	539.400000
806.892517	533.200000
806.928101	532.800000
806.963684	532.200000
806.999268	533.600000
807.034790	523.100000
807.070374	526.300000
807.105896	521.900000
807.141479	517.900000
807.177063	523.000000
807.212585	518.700000
807.248169	520.300000
807.283752	523.100000
807.319275	518.100000
807.354858	516.700000
807.390381	513.800000
807.425903	510.100000
807.461487	509.800000
807.497070	505.500000
807.532593	504.000000
807.568115	505.500000
807.603699	497.900000
807.639221	495.700000
807.674744	500.600000
807.710266	504.300000
807.745850	505.500000
807.781372	499.100000
807.816895	496.000000
807.852417	498.400000
807.888000	498.300000
807.923523	495.700000
807.959045	499.400000
807.994629	492.000000
808.030090	490.000000
808.065613	495.200000
808.101135	496.300000
808.136658	491.200000
808.172241	488.300000
808.207764	485.600000
808.243225	481.700000
808.278809	483.400000
808.314270	487.300000
808.349792	480.700000
808.385315	476.500000
808.420837	484.900000
808.456360	486.500000
808.491882	485.400000
808.527344	479.400000
808.562866	487.100000
808.598389	481.500000
808.633850	478.900000
808.669434	472.100000
808.704895	479.600000
808.740417	483.500000
808.775940	478.300000
808.811462	470.400000
808.846924	467.000000
808.882385	466.700000
808.917847	466.700000
808.953369	466.900000
808.988892	464.800000
809.024353	469.700000
809.059875	467.900000
809.095398	467.500000
809.130798	459.700000
809.166321	457.600000
809.201843	458.300000
809.237305	461.300000
809.272766	463.200000
809.308228	453.500000
809.343750	453.300000
809.379211	455.100000
809.414734	456.500000
809.450134	457.600000
809.485657	448.300000
809.521118	451.600000
809.556580	450.100000
809.592102	448.200000
809.627502	446.500000
809.663025	445.000000
809.698486	440.600000
809.733887	437.900000
809.769409	444.000000
809.804871	435.800000
809.840271	433.300000
809.875793	436.100000
809.911194	440.700000
809.946655	433.300000
809.982178	429.900000
810.017639	432.200000
810.053040	428.700000
810.088501	427.800000
810.123901	428.600000
810.159424	426.700000
810.194885	421.600000
810.230286	422.600000
810.265747	417.400000
810.301208	412.200000
810.336609	416.300000
810.372070	411.300000
810.407532	413.400000
810.442932	415.900000
810.478394	414.900000
810.513794	412.000000
810.549255	408.800000
810.584717	408.000000
810.620117	404.200000
810.655518	409.900000
810.690979	406.200000
810.726379	404.200000
810.761841	394.900000
810.797302	395.400000
810.832642	392.300000
810.868103	402.900000
810.903564	393.700000
810.938904	395.600000
810.974365	388.400000
811.009827	393.000000
811.045166	388.000000
811.080627	380.900000
811.115967	384.800000
811.151428	394.500000
811.186829	387.600000
811.222229	384.500000
811.257629	379.500000
811.293091	384.400000
811.328430	389.800000
811.363892	383.900000
811.399292	385.600000
811.434631	383.000000
811.470093	385.800000
811.505493	378.200000
811.540833	377.900000
811.576294	380.200000
811.611694	378.600000
811.647034	372.600000
811.682434	377.100000
811.717773	375.600000
811.753235	380.300000
811.788635	372.800000
811.823975	374.000000
811.859375	377.200000
811.894775	369.500000
811.930115	371.800000
811.965515	369.500000
812.000916	368.700000
812.036255	367.200000
812.071655	370.100000
812.106995	363.900000
812.142395	363.500000
812.177795	372.400000
812.213196	365.200000
812.248474	368.200000
812.283875	359.200000
812.319214	363.000000
812.354614	363.700000
812.390015	357.800000
812.425293	357.100000
812.460693	358.300000
812.496094	354.800000
812.531433	349.800000
812.566772	350.700000
812.602173	351.400000
812.637451	350.800000
812.672852	349.000000
812.708191	348.800000
812.743530	343.700000
812.778931	338.400000
812.814270	339.900000
812.849609	345.900000
812.884949	341.000000
812.920227	336.100000
812.955627	349.700000
812.990967	342.500000
813.026306	334.500000
813.061646	327.400000
813.096985	326.200000
813.132324	323.700000
813.167664	329.200000
813.203003	332.200000
813.238281	320.900000
813.273682	321.400000
813.308960	320.700000
813.344299	318.600000
813.379639	325.700000
813.414978	320.700000
813.450256	317.400000
813.485596	321.800000
813.520874	312.800000
813.556213	317.000000
813.591614	317.300000
813.626831	313.400000
813.662170	318.000000
813.697510	323.700000
813.732788	311.900000
813.768127	314.500000
813.803467	312.600000
813.838745	311.900000
813.874084	312.100000
813.909363	311.800000
813.944641	311.800000
813.979980	304.300000
814.015320	305.600000
814.050598	303.500000
814.085876	304.000000
814.121155	303.000000
814.156494	301.500000
814.191772	304.400000
814.227051	300.700000
814.262390	302.400000
814.297668	299.500000
814.332947	302.400000
814.368225	296.600000
814.403564	298.400000
814.438782	295.500000
814.474121	296.000000
814.509338	295.100000
814.544617	300.400000
814.579956	292.100000
814.615173	301.000000
814.650513	297.600000
814.685791	290.800000
814.721008	294.600000
814.756348	293.300000
814.791626	291.600000
814.826843	288.800000
814.862122	289.900000
814.897400	289.200000
814.932678	289.700000
814.967957	287.000000
815.003235	288.200000
815.038452	285.200000
815.073730	281.100000
815.108948	289.900000
815.144226	289.200000
815.179504	291.100000
815.214722	280.500000
815.250000	276.300000
815.285278	283.400000
815.320496	278.600000
815.355774	279.600000
815.391052	281.900000
815.426270	279.200000
815.461487	277.000000
815.496765	273.600000
815.531982	270.900000
815.567261	273.000000
815.602539	279.900000
815.637695	277.300000
815.672974	275.400000
815.708191	278.300000
815.743408	279.100000
815.778687	270.200000
815.813904	278.000000
815.849121	267.400000
815.884399	267.400000
815.919556	268.000000
815.954834	269.100000
815.990051	270.200000
816.025269	271.300000
816.060486	265.000000
816.095703	264.300000
816.130920	264.200000
816.166199	261.300000
816.201416	263.400000
816.236572	264.800000
816.271851	261.300000
816.307007	264.200000
816.342224	257.400000
816.377441	260.900000
816.412659	254.600000
816.447876	260.700000
816.483093	256.600000
816.518250	256.100000
816.553467	253.500000
816.588745	258.200000
816.623901	250.900000
816.659119	249.100000
816.694275	253.600000
816.729492	249.300000
816.764709	277.600000
816.799927	245.600000
816.835083	249.400000
816.870300	244.200000
816.905457	247.100000
816.940674	247.900000
816.975830	243.400000
817.010986	242.200000
817.046204	241.100000
817.081421	239.800000
817.116577	240.500000
817.151733	246.300000
817.186951	244.900000
817.222107	243.500000
817.257324	245.800000
817.292419	245.200000
817.327637	234.600000
817.362854	239.600000
817.398010	234.700000
817.433167	238.700000
817.468323	235.200000
817.503479	238.300000
817.538635	241.500000
817.573853	237.600000
817.608948	235.800000
817.644165	233.700000
817.679321	232.300000
817.714478	232.600000
817.749634	235.000000
817.784790	240.600000
817.819946	236.000000
817.855103	226.400000
817.890198	230.300000
817.925415	226.000000
817.960571	232.200000
817.995667	231.400000
818.030823	230.500000
818.066040	227.300000
818.101135	230.400000
818.136292	228.500000
818.171448	223.400000
818.206543	225.100000
818.241699	228.300000
818.276855	226.700000
818.311951	225.800000
818.347107	223.400000
818.382263	228.400000
818.417358	229.900000
818.452515	227.700000
818.487610	228.800000
818.522766	222.000000
818.557922	226.700000
818.593018	225.400000
818.628113	223.900000
818.663269	220.800000
818.698364	222.100000
818.733521	219.000000
818.768677	220.600000
818.803711	217.500000
818.838867	217.000000
818.874023	219.700000
818.909058	215.600000
818.944214	215.700000
818.979370	219.500000
819.014404	218.200000
819.049561	213.600000
819.084595	217.000000
819.119751	212.300000
819.154846	218.000000
819.189941	212.000000
819.225037	211.600000
819.260193	207.100000
819.295227	208.200000
819.330322	204.700000
819.365479	204.300000
819.400513	240.800000
819.435608	204.200000
819.470764	202.700000
819.505798	204.500000
819.540894	207.300000
819.575989	205.100000
819.611084	210.300000
819.646179	211.900000
819.681213	207.900000
819.716309	207.000000
819.751404	205.200000
819.786438	210.600000
819.821533	202.700000
819.856628	204.900000
819.891663	207.500000
819.926758	213.600000
819.961853	209.200000
819.996887	202.000000
820.031982	203.900000
820.067017	202.000000
820.102112	237.800000
820.137207	200.300000
820.172302	210.800000
820.207275	199.700000
820.242371	198.400000
820.277405	199.800000
820.312500	199.700000
820.347534	199.600000
820.382568	205.300000
820.417664	198.300000
820.452759	199.400000
820.487732	196.700000
820.522827	199.700000
820.557861	195.100000
820.592896	198.600000
820.627930	196.400000
820.662964	196.200000
820.698059	199.200000
820.733093	195.400000
820.768127	199.700000
820.803162	196.700000
820.838196	192.900000
820.873230	197.300000
820.908264	196.200000
820.943298	194.200000
820.978333	197.200000
821.013367	196.200000
821.048401	198.200000
821.083435	199.600000
821.118469	191.000000
821.153503	198.300000
821.188477	196.100000
821.223511	191.300000
821.258484	194.000000
821.293579	195.700000
821.328613	190.100000
821.363647	194.400000
821.398621	189.800000
821.433655	192.600000
821.468628	202.900000
821.503662	193.100000
821.538696	195.900000
821.573669	189.300000
821.608704	196.400000
821.643677	190.800000
821.678650	195.800000
821.713684	198.200000
821.748718	194.200000
821.783691	193.500000
821.818726	192.700000
821.853638	193.200000
821.888672	192.000000
821.923706	192.200000
821.958618	190.800000
821.993652	190.200000
822.028687	195.800000
822.063599	197.500000
822.098633	192.900000
822.133667	187.700000
822.168579	191.900000
822.203613	192.700000
822.238586	189.500000
822.273560	192.900000
822.308533	189.600000
822.343567	188.900000
822.378479	191.100000
822.413452	189.900000
822.448425	188.400000
822.483398	193.200000
822.518372	195.000000
822.553345	187.600000
822.588318	196.500000
822.623291	190.300000
822.658203	188.800000
822.693237	189.300000
822.728210	187.300000
822.763123	189.900000
822.798096	187.700000
822.833069	189.900000
822.867981	189.900000
822.902954	190.400000
822.937927	192.200000
822.972900	195.400000
823.007874	185.000000
823.042725	193.900000
823.077698	197.100000
823.112671	186.900000
823.147583	189.700000
823.182556	191.900000
823.217529	191.800000
823.252441	187.600000
823.287415	195.900000
823.322388	192.800000
823.357239	189.100000
823.392212	193.900000
823.427185	193.300000
823.462097	186.800000
823.497009	190.600000
823.531982	187.600000
823.566895	189.400000
823.601807	186.400000
823.636719	187.200000
823.671631	190.700000
823.706604	188.800000
823.741455	191.500000
823.776428	182.900000
823.811340	190.200000
823.846252	193.700000
823.881165	194.000000
823.916138	189.500000
823.950989	195.100000
823.985901	186.300000
824.020813	189.800000
824.055725	185.600000
824.090637	186.000000
824.125610	190.500000
824.160461	190.900000
824.195374	189.100000
824.230225	191.900000
824.265198	183.700000
824.300110	186.400000
824.334961	195.700000
824.369873	181.800000
824.404785	190.700000
824.439636	191.000000
824.474548	181.600000
824.509460	180.600000
824.544312	192.600000
824.579224	190.700000
824.614075	189.600000
824.648987	186.700000
824.683899	187.000000
824.718811	185.800000
824.753662	191.100000
824.788574	189.700000
824.823364	187.800000
824.858276	184.100000
824.893188	190.900000
824.928040	190.700000
824.962952	188.800000
824.997803	190.000000
825.032654	186.500000
825.067566	187.300000
825.102417	185.900000
825.137268	184.100000
825.172119	185.800000
825.206970	183.200000
825.241882	185.800000
825.276733	182.300000
825.311646	182.900000
825.346436	180.000000
825.381348	182.200000
825.416138	184.300000
825.450989	181.700000
825.485901	178.000000
825.520691	180.000000
825.555542	179.300000
825.590454	184.300000
825.625244	178.500000
825.660095	188.100000
825.695007	184.700000
825.729797	182.200000
825.764648	179.600000
825.799438	182.900000
825.834290	182.900000
825.869202	179.000000
825.903992	184.000000
825.938843	180.500000
825.973694	178.200000
826.008484	190.000000
826.043335	179.600000
826.078186	176.900000
826.112976	184.200000
826.147827	185.200000
826.182678	188.000000
826.217468	176.200000
826.252319	187.000000
826.287109	179.000000
826.321899	184.100000
826.356750	179.700000
826.391541	177.300000
826.426392	184.500000
826.461182	181.900000
826.495972	178.100000
826.530823	173.800000
826.565613	182.200000
826.600403	177.300000
826.635254	181.000000
826.670044	175.000000
826.704834	175.300000
826.739685	176.500000
826.774475	181.600000
826.809265	180.600000
826.844055	178.300000
826.878906	185.000000
826.913635	180.600000
826.948425	182.700000
826.983215	182.800000
827.018005	182.900000
827.052856	178.300000
827.087585	183.900000
827.122375	174.400000
827.157227	180.000000
827.191956	189.100000
827.226746	177.200000
827.261536	182.000000
827.296265	176.400000
827.331116	178.800000
827.365906	182.700000
827.400635	177.000000
827.435425	174.900000
827.470215	183.800000
827.504944	179.700000
827.539734	183.500000
827.574463	180.200000
827.609253	185.600000
827.644043	178.900000
827.678772	183.300000
827.713562	179.400000
827.748352	179.100000
827.783081	178.200000
827.817871	180.900000
827.852600	178.000000
827.887329	179.500000
827.922119	174.000000
827.956848	181.900000
827.991638	189.900000
828.026367	181.200000
828.061157	180.300000
828.095886	181.800000
828.130615	192.700000
828.165344	174.500000
828.200073	179.900000
828.234863	180.100000
828.269592	180.200000
828.304321	182.700000
828.339111	179.000000
828.373779	178.100000
828.408569	183.000000
828.443298	184.300000
828.477966	179.300000
828.512756	180.700000
828.547424	176.200000
828.582214	178.700000
828.616943	177.800000
828.651672	179.100000
828.686340	182.200000
828.721130	177.700000
828.755798	179.400000
828.790527	179.800000
828.825256	180.300000
828.859924	181.700000
828.894714	182.800000
828.929443	187.800000
828.964111	177.700000
828.998840	183.200000
829.033569	177.900000
829.068237	180.000000
829.102966	178.500000
829.137634	180.000000
829.172363	182.000000
829.207092	181.200000
829.241821	178.000000
829.276489	176.400000
829.311157	179.800000
829.345825	179.400000
829.380554	184.700000
829.415283	178.700000
829.449951	175.500000
829.484619	186.800000
829.519348	185.100000
829.554016	180.900000
829.588745	181.000000
829.623413	177.700000
829.658081	188.100000
829.692749	176.700000
829.727417	184.000000
829.762146	180.700000
829.796814	178.700000
829.831482	179.300000
829.866150	179.600000
829.900879	177.500000
829.935486	183.300000
829.970154	178.200000
830.004883	189.000000
830.039490	181.000000
830.074219	177.500000
830.108887	180.900000
830.143494	178.800000
830.178223	175.800000
830.212891	179.700000
830.247498	179.000000
830.282166	186.500000
830.316772	183.900000
830.351501	178.400000
830.386169	179.400000
830.420776	180.900000
830.455444	179.000000
830.490112	178.600000
830.524719	174.800000
830.559387	181.300000
830.594055	180.300000
830.628662	180.300000
830.663330	180.000000
830.697998	186.600000
830.732605	179.700000
830.767273	181.900000
830.801941	179.600000
830.836487	187.000000
830.871155	181.900000
830.905762	180.700000
830.940430	176.400000
830.975098	178.000000
831.009644	180.600000
831.044312	185.700000
831.078979	182.400000
831.113525	174.800000
831.148193	181.000000
831.182861	179.100000
831.217407	182.200000
831.252075	190.800000
831.286621	177.900000
831.321289	177.300000
831.355896	180.400000
831.390564	183.800000
831.425110	181.300000
831.459778	184.900000
831.494324	190.200000
831.528931	182.400000
831.563599	185.500000
831.598145	174.600000
831.632751	179.300000
831.667419	178.500000
831.701965	182.400000
831.736572	180.900000
831.771179	177.500000
831.805786	177.100000
831.840393	184.600000
831.874939	174.600000
831.909546	183.500000
831.944153	174.700000
831.978760	181.000000
832.013306	176.500000
832.047913	184.300000
832.082458	187.500000
832.117065	177.600000
832.151672	185.700000
832.186218	182.400000
832.220825	182.200000
832.255432	176.000000
832.289978	177.800000
832.324585	181.200000
832.359192	180.900000
832.393677	179.700000
832.428284	180.500000
832.462830	179.500000
832.497437	179.400000
832.531982	182.900000
832.566589	178.600000
832.601135	182.200000
832.635681	174.600000
832.670227	179.400000
832.704773	185.400000
832.739380	181.000000
832.773926	181.600000
832.808472	179.000000
832.843079	180.300000
832.877563	182.000000
832.912170	179.200000
832.946716	175.600000
832.981201	184.000000
833.015808	182.500000
833.050293	179.500000
833.084839	176.400000
833.119446	178.900000
833.153992	182.400000
833.188477	179.300000
833.223022	178.200000
833.257568	179.700000
833.292114	184.900000
833.326660	188.100000
833.361145	178.700000
833.395691	175.000000
833.430237	179.300000
833.464783	181.400000
833.499329	176.900000
833.533875	178.800000
833.568359	182.200000
833.602905	185.000000
833.637390	183.300000
833.671875	179.400000
833.706421	179.900000
833.740906	178.900000
833.775452	173.500000
833.809998	179.600000
833.844482	184.600000
833.879028	180.300000
833.913513	177.000000
833.947998	181.800000
833.982544	178.000000
834.017090	177.800000
834.051514	173.100000
834.086060	182.400000
834.120544	180.600000
834.155029	181.800000
834.189575	179.400000
834.223999	182.200000
834.258545	181.500000
834.293030	180.800000
834.327515	180.600000
834.362000	178.000000
834.396545	183.600000
834.430969	178.900000
834.465454	183.200000
834.500000	175.700000
834.534424	182.200000
834.568970	175.100000
834.603455	174.600000
834.637878	176.700000
834.672363	181.500000
834.706909	180.500000
834.741333	179.400000
834.775818	174.900000
834.810242	176.800000
834.844727	181.200000
834.879211	180.200000
834.913635	180.900000
834.948181	180.400000
834.982666	181.400000
835.017090	180.300000
835.051575	180.500000
835.086060	178.100000
835.120483	181.700000
835.154907	181.900000
835.189331	179.600000
835.223816	183.200000
835.258301	175.800000
835.292786	178.200000
835.327209	181.500000
835.361694	178.300000
835.396057	177.600000
835.430542	183.000000
835.465027	180.100000
835.499390	178.300000
835.533875	206.300000
835.568359	179.800000
835.602722	174.600000
835.637207	181.700000
835.671692	175.900000
835.706055	195.200000
835.740540	181.600000
835.774902	181.800000
835.809387	180.800000
835.843811	176.200000
835.878235	184.200000
835.912659	176.400000
835.947083	178.900000
835.981506	181.600000
836.015930	174.900000
836.050354	184.400000
836.084778	186.000000
836.119202	184.000000
836.153625	193.900000
836.187988	176.800000
836.222473	178.700000
836.256897	182.000000
836.291260	180.600000
836.325684	181.700000
836.360046	178.700000
836.394470	179.800000
836.428894	184.800000
836.463318	178.400000
836.497681	183.000000
836.532104	183.900000
836.566467	181.000000
836.600891	178.200000
836.635315	183.800000
836.669678	181.100000
836.704102	182.800000
836.738525	181.000000
836.772888	174.700000
836.807251	176.800000
836.841675	183.700000
836.876038	177.600000
836.910461	178.700000
836.944763	182.200000
836.979187	176.900000
837.013611	183.100000
837.047974	176.800000
837.082336	187.800000
837.116699	183.600000
837.151062	180.300000
837.185486	177.400000
837.219849	177.800000
837.254211	184.400000
837.288574	179.600000
837.322937	178.800000
837.357300	173.800000
837.391663	190.100000
837.426086	183.100000
837.460388	181.400000
837.494751	183.300000
837.529114	179.400000
837.563477	185.600000
837.597839	180.400000
837.632141	179.200000
837.666565	178.700000
837.700928	183.400000
837.735229	182.500000
837.769592	183.000000
837.803955	183.200000
837.838257	178.200000
837.872620	178.000000
837.906982	186.400000
837.941284	181.200000
837.975647	182.000000
838.010010	184.700000
838.044312	178.900000
838.078674	178.800000
838.112976	181.500000
838.147339	183.400000
838.181702	180.800000
838.216003	186.400000
838.250366	181.600000
838.284668	181.100000
838.318970	175.600000
838.353333	179.300000
838.387634	180.400000
838.421936	180.900000
838.456299	181.600000
838.490601	185.300000
838.524902	184.400000
838.559265	184.200000
838.593567	184.700000
838.627869	176.300000
838.662170	182.300000
838.696472	175.200000
838.730774	178.800000
838.765137	183.100000
838.799377	172.100000
838.833740	180.500000
838.868042	185.200000
838.902283	175.600000
838.936646	185.700000
838.970947	180.600000
839.005188	186.100000
839.039551	174.700000
839.073792	185.500000
839.108093	179.500000
839.142395	187.100000
839.176697	176.100000
839.210937	181.800000
839.245300	187.600000
839.279541	176.600000
839.313843	178.800000
839.348145	182.800000
839.382385	183.300000
839.416687	185.100000
839.450989	182.100000
839.485229	180.500000
839.519531	178.200000
839.553833	183.900000
839.588013	179.900000
839.622314	181.300000
839.656555	181.500000
839.690857	181.700000
839.725159	175.700000
839.759460	179.700000
839.793640	178.000000
839.827942	180.500000
839.862183	177.700000
839.896423	181.400000
839.930725	190.900000
839.964966	186.200000
839.999207	184.400000
840.033508	186.000000
840.067688	178.300000
840.101990	185.400000
840.136230	181.800000
840.170471	186.000000
840.204712	178.200000
840.238953	177.800000
840.273193	181.300000
840.307434	183.100000
840.341736	179.900000
840.375916	175.400000
840.410217	179.400000
840.444397	183.300000
840.478638	183.100000
840.512878	185.100000
840.547119	182.400000
840.581360	184.100000
840.615601	189.300000
840.649780	190.800000
840.684021	180.700000
840.718262	186.900000
840.752441	187.400000
840.786682	181.600000
840.820862	181.700000
840.855103	187.600000
840.889343	181.400000
840.923584	184.100000
840.957764	181.600000
840.992004	183.200000
841.026184	192.000000
841.060425	181.200000
841.094666	178.400000
841.128845	183.700000
841.163025	182.200000
841.197266	183.400000
841.231445	180.900000
841.265686	181.800000
841.299866	177.900000
841.334045	186.200000
841.368286	180.100000
841.402405	185.600000
841.436646	183.600000
841.470825	179.500000
841.505005	179.500000
841.539185	178.400000
841.573425	179.400000
841.607544	181.300000
841.641785	180.100000
841.675964	178.900000
841.710144	180.500000
841.744324	179.600000
841.778503	178.600000
841.812683	179.100000
841.846863	185.000000
841.881042	186.700000
841.915222	179.200000
841.949402	192.300000
841.983521	175.500000
842.017700	181.100000
842.051880	181.300000
842.086060	183.100000
842.120239	181.700000
842.154419	179.000000
842.188538	181.300000
842.222717	180.500000
842.256897	186.700000
842.291016	178.800000
842.325195	182.200000
842.359375	189.100000
842.393494	186.600000
842.427673	182.400000
842.461853	181.900000
842.495911	187.100000
842.530090	182.900000
842.564209	179.400000
842.598389	181.400000
842.632568	180.100000
842.666626	183.300000
842.700806	179.800000
842.734985	180.300000
842.769043	183.700000
842.803223	180.600000
842.837402	180.500000
842.871460	178.400000
842.905640	189.100000
842.939697	177.900000
842.973877	182.000000
843.007996	186.600000
843.042175	188.300000
843.076233	178.300000
843.110413	182.400000
843.144470	186.100000
843.178589	183.500000
843.212769	178.500000
843.246826	183.500000
843.280945	179.900000
843.315125	179.800000
843.349182	179.000000
843.383301	184.500000
843.417419	191.100000
843.451538	181.300000
843.485657	179.200000
843.519714	180.200000
843.553833	182.300000
843.587952	179.200000
843.622070	178.200000
843.656128	183.100000
843.690247	179.300000
843.724304	179.900000
843.758423	183.100000
843.792542	179.300000
843.826599	180.900000
843.860718	179.600000
843.894836	177.600000
843.928894	182.400000
843.963013	180.900000
843.997070	177.300000
844.031128	176.700000
844.065247	184.800000
844.099304	184.400000
844.133362	182.000000
844.167480	183.300000
844.201599	184.700000
844.235596	184.200000
844.269714	183.400000
844.303711	181.200000
844.337830	177.300000
844.371948	182.300000
844.405945	181.200000
844.440063	178.500000
844.474121	191.200000
844.508118	180.200000
844.542236	182.000000
844.576294	179.900000
844.610352	177.200000
844.644409	179.700000
844.678406	176.600000
844.712524	184.500000
844.746582	186.300000
844.780640	181.100000
844.814636	181.900000
844.848755	190.300000
844.882751	180.900000
844.916809	182.800000
844.950867	183.900000
844.984863	186.600000
845.018921	179.700000
845.052979	178.500000
845.086975	183.800000
845.121033	176.900000
845.155090	179.800000
845.189087	186.300000
845.223145	180.800000
845.257141	183.400000
845.291199	184.500000
845.325256	184.200000
845.359253	182.500000
845.393250	193.200000
845.427307	181.400000
845.461304	182.800000
845.495361	181.900000
845.529358	188.700000
845.563354	181.300000
845.597412	178.100000
845.631409	188.800000
845.665405	187.000000
845.699463	185.800000
845.733459	180.300000
845.767456	189.200000
845.801453	180.000000
845.835449	186.000000
845.869446	184.100000
845.903503	184.100000
845.937439	179.000000
845.971497	186.500000
846.005493	176.300000
846.039429	184.800000
846.073486	190.600000
846.107483	181.200000
846.141418	180.500000
846.175476	181.300000
846.209473	186.700000
846.243408	178.800000
846.277405	183.000000
846.311401	179.400000
846.345337	182.200000
846.379395	184.800000
846.413330	179.900000
846.447327	188.700000
846.481323	179.800000
846.515259	180.400000
846.549255	181.800000
846.583252	182.200000
846.617187	179.500000
846.651184	182.900000
846.685120	180.900000
846.719055	189.000000
846.753052	185.800000
846.786987	184.500000
846.820984	177.300000
846.854980	186.300000
846.888916	178.400000
846.922852	182.800000
846.956848	187.900000
846.990723	179.100000
847.024719	183.600000
847.058716	180.800000
847.092590	187.100000
847.126587	183.200000
847.160522	180.600000
847.194458	184.800000
847.228455	179.600000
847.262390	179.200000
847.296265	180.100000
847.330261	186.000000
847.364136	180.000000
847.398132	180.900000
847.432068	181.600000
847.466003	181.500000
847.499939	181.500000
847.533875	183.900000
847.567749	181.400000
847.601746	179.300000
847.635681	184.500000
847.669556	176.800000
847.703491	186.300000
847.737427	190.800000
847.771301	177.300000
847.805237	184.600000
847.839233	182.100000
847.873108	181.700000
847.907043	179.300000
847.940918	186.900000
847.974854	183.000000
848.008789	185.300000
848.042664	180.400000
848.076538	183.300000
848.110474	181.500000
848.144348	182.900000
848.178284	177.100000
848.212219	183.300000
848.246094	179.500000
848.279968	183.100000
848.313904	183.400000
848.347778	183.500000
848.381653	179.700000
848.415588	180.200000
848.449463	179.200000
848.483337	184.500000
848.517212	188.200000
848.551086	183.500000
848.585022	177.900000
848.618835	191.100000
848.652771	179.200000
848.686646	179.400000
848.720520	186.600000
848.754395	181.900000
848.788330	183.700000
848.822144	185.100000
848.856018	180.000000
848.889954	189.200000
848.923767	179.100000
848.957642	179.500000
848.991577	183.400000
849.025391	181.200000
849.059265	181.300000
849.093079	179.200000
849.126953	178.100000
849.160828	185.200000
849.194641	182.100000
849.228577	182.000000
849.262451	181.700000
849.296265	180.700000
849.330139	179.100000
849.364014	181.400000
849.397827	182.600000
849.431702	183.900000
849.465515	185.900000
849.499329	175.500000
849.533203	179.200000
849.567078	174.700000
849.600891	182.200000
849.634766	180.500000
849.668518	186.000000
849.702393	181.600000
849.736267	177.200000
849.770020	188.700000
849.803894	185.000000
849.837769	182.000000
849.871521	183.400000
849.905396	184.200000
849.939270	180.200000
849.973022	178.600000
850.006897	184.300000
850.040710	183.900000
850.074524	184.900000
850.108337	181.200000
850.142151	186.900000
850.175964	185.700000
850.209778	181.400000
850.243530	172.800000
850.277405	185.700000
850.311218	182.000000
850.344971	180.200000
850.378845	186.600000
850.412659	179.700000
850.446411	183.200000
850.480225	181.500000
850.514038	187.200000
850.547791	184.800000
850.581665	181.000000
850.615417	179.500000
850.649231	183.100000
850.683044	179.900000
850.716858	180.000000
850.750610	183.300000
850.784424	184.600000
850.818176	179.800000
850.851929	180.600000
850.885742	179.700000
850.919495	181.500000
850.953308	187.400000
850.987122	187.300000
851.020874	177.200000
851.054626	178.000000
851.088440	183.900000
851.122192	184.300000
851.156006	181.600000
851.189697	182.300000
851.223511	176.600000
851.257263	185.900000
851.291077	184.300000
851.324829	181.100000
851.358582	180.500000
851.392334	181.300000
851.426086	179.200000
851.459900	188.800000
851.493591	181.400000
851.527344	182.500000
851.561157	181.100000
851.594849	183.300000
851.628662	182.200000
851.662415	189.100000
851.696106	182.900000
851.729858	185.400000
851.763611	176.700000
851.797363	183.400000
851.831116	178.300000
851.864868	184.500000
851.898560	184.900000
851.932312	180.800000
851.966064	183.300000
851.999817	181.400000
852.033569	179.100000
852.067261	186.800000
852.101013	180.100000
852.134766	181.700000
852.168457	174.700000
852.202209	185.100000
852.235901	178.600000
852.269592	183.700000
852.303345	188.000000
852.337036	184.600000
852.370789	181.800000
852.404541	184.600000
852.438171	179.300000
852.471924	181.700000
852.505676	178.000000
852.539307	183.100000
852.573059	180.400000
852.606812	180.600000
852.640442	180.600000
852.674194	185.000000
852.707886	190.000000
852.741577	187.300000
852.775269	179.500000
852.809021	182.900000
852.842651	185.100000
852.876404	187.500000
852.910034	182.900000
852.943787	184.600000
852.977478	184.300000
853.011108	180.100000
853.044861	180.100000
853.078552	187.600000
853.112183	184.400000
853.145874	182.600000
853.179626	176.000000
853.213257	183.300000
853.246948	179.800000
853.280640	188.200000
853.314270	182.600000
853.347961	186.100000
853.381653	185.500000
853.415283	185.100000
853.448975	180.500000
853.482605	182.800000
853.516296	181.800000
853.549988	177.500000
853.583618	184.100000
853.617310	182.900000
853.651001	183.900000
853.684631	179.600000
853.718323	181.100000
853.751953	186.500000
853.785583	177.000000
853.819275	185.000000
853.852966	185.200000
853.886536	177.700000
853.920227	178.100000
853.953918	186.500000
853.987488	181.600000
854.021179	185.400000
854.054749	187.300000
854.088440	184.000000
854.122131	178.100000
854.155701	182.900000
854.189331	180.100000
854.223022	184.900000
854.256592	183.600000
854.290283	180.000000
854.323914	184.500000
854.357483	183.600000
854.391174	182.800000
854.424744	187.300000
854.458374	182.700000
854.492065	191.400000
854.525696	181.100000
854.559265	187.000000
854.592896	190.500000
854.626465	183.400000
854.660095	182.900000
854.693787	184.200000
854.727356	180.300000
854.760986	186.500000
854.794617	182.900000
854.828186	181.900000
854.861816	182.800000
854.895447	182.900000
854.929016	182.700000
854.962585	183.800000
854.996155	188.400000
855.029785	184.800000
855.063416	183.800000
855.097046	186.600000
855.130615	178.300000
855.164185	186.700000
855.197754	181.700000
855.231384	183.000000
855.264954	181.100000
855.298523	184.700000
855.332153	183.600000
855.365723	186.300000
855.399292	180.800000
855.432922	182.900000
855.466492	182.500000
855.500061	178.400000
855.533630	178.600000
855.567200	184.100000
855.600769	184.900000
855.634338	186.700000
855.667969	182.400000
855.701477	178.900000
855.735046	180.400000
855.768616	176.800000
855.802185	183.400000
855.835754	191.900000
855.869324	176.800000
855.902893	180.300000
855.936401	186.800000
855.969971	181.900000
856.003540	179.400000
856.037109	185.100000
856.070618	180.600000
856.104187	178.400000
856.137695	179.500000
856.171265	176.800000
856.204834	182.900000
856.238403	185.100000
856.271912	180.300000
856.305481	182.700000
856.338989	177.200000
856.372559	184.300000
856.406128	184.900000
856.439636	184.500000
856.473145	181.500000
856.506653	186.100000
856.540222	182.400000
856.573792	185.700000
856.607300	185.100000
856.640808	176.800000
856.674377	182.800000
856.707825	214.400000
856.741394	187.800000
856.774902	179.200000
856.808472	176.900000
856.841980	184.700000
856.875488	186.400000
856.908936	177.900000
856.942505	180.000000
856.976013	181.700000
857.009521	179.300000
857.043030	181.300000
857.076477	181.700000
857.110046	187.100000
857.143555	182.900000
857.177063	185.400000
857.210571	180.900000
857.244080	178.400000
857.277527	184.200000
857.311035	182.100000
857.344543	185.000000
857.378052	180.000000
857.411499	187.400000
857.445068	187.100000
857.478516	181.200000
857.512024	178.600000
857.545532	180.600000
857.578979	183.600000
857.612427	183.800000
857.645874	180.400000
857.679382	182.700000
857.712891	186.400000
857.746399	180.200000
857.779846	185.700000
857.813354	185.300000
857.846741	182.000000
857.880249	177.100000
857.913757	183.800000
857.947266	182.600000
857.980652	185.800000
858.014160	181.700000
858.047546	180.900000
858.081055	180.300000
858.114563	193.000000
858.147949	179.300000
858.181458	184.800000
858.214844	181.100000
858.248352	177.200000
858.281799	185.200000
858.315308	190.400000
858.348694	185.000000
858.382141	190.000000
858.415588	184.800000
858.449036	185.300000
858.482483	184.500000
858.515930	181.000000
858.549377	182.300000
858.582825	187.300000
858.616211	184.600000
858.649658	184.600000
858.683105	178.900000
858.716553	181.100000
858.750000	178.400000
858.783386	181.500000
858.816833	177.500000
858.850281	181.900000
858.883728	182.500000
858.917114	182.500000
858.950562	189.400000
858.983948	187.700000
859.017395	186.700000
859.050781	180.300000
859.084167	179.200000
859.117615	178.100000
859.151062	186.000000
859.184448	179.200000
859.217834	181.200000
859.251282	180.200000
859.284668	177.900000
859.318054	176.700000
859.351440	182.000000
859.384888	185.700000
859.418274	176.200000
859.451721	176.400000
859.485046	184.200000
859.518494	183.000000
859.551819	179.200000
859.585266	184.500000
859.618652	186.600000
859.652039	177.900000
859.685425	178.600000
859.718811	177.600000
859.752197	176.100000
859.785583	186.200000
859.819031	188.200000
859.852356	183.500000
859.885742	180.400000
859.919067	181.800000
859.952454	180.900000
859.985901	185.600000
860.019287	181.200000
860.052612	0.000000
860.085999	0.000000
860.119324	0.000000
860.152710	0.000000
860.186096	0.000000
860.219421	0.000000
860.252808	0.000000
860.286133	0.000000
860.319519	0.000000
860.352905	0.000000
860.386292	0.000000
860.419617	0.000000
860.452942	0.000000
860.486267	0.000000
860.519653	0.000000
860.553040	0.000000
860.586365	0.000000
860.619690	0.000000
860.653076	0.000000
860.686340	0.000000
860.719727	0.000000
860.753113	0.000000
860.786377	0.000000
860.819763	0.000000
860.853027	0.000000
860.886414	0.000000
860.919739	0.000000
860.953125	0.000000
860.986389	0.000000
861.019714	0.000000
861.053040	0.000000
861.086365	0.000000
861.119690	0.000000
861.153076	0.000000
861.186340	0.000000
861.219666	0.000000
861.252930	0.000000
861.286316	0.000000
861.319641	0.000000
861.352905	0.000000
861.386230	0.000000
861.419495	0.000000
861.452820	0.000000
861.486145	0.000000
861.519470	0.000000
861.552734	0.000000
861.586060	0.000000
861.619324	0.000000
861.652649	0.000000
861.685974	0.000000
861.719238	0.000000
861.752563	0.000000
861.785828	0.000000
861.819092	0.000000
861.852417	0.000000
861.885742	0.000000
861.918945	0.000000
861.952271	0.000000
861.985535	0.000000
862.018799	0.000000
862.052124	0.000000
862.085449	0.000000
862.118652	0.000000
862.151978	0.000000
862.185181	0.000000
862.218506	0.000000
862.251770	0.000000
862.285034	0.000000
862.318298	0.000000
862.351562	0.000000
862.384827	0.000000
862.418091	0.000000
862.451355	0.000000
862.484619	0.000000
862.517883	0.000000
862.551086	0.000000
862.584351	0.000000
862.617676	0.000000
862.650940	0.000000
862.684143	0.000000
862.717407	0.000000
862.750610	0.000000
862.783875	0.000000
862.817139	0.000000
862.850342	0.000000
862.883606	0.000000
862.916870	0.000000
862.950073	0.000000
862.983337	0.000000
863.016602	0.000000
863.049805	0.000000
863.083069	0.000000
863.116211	0.000000
863.149475	0.000000
863.182739	0.000000
863.216003	0.000000
863.249146	0.000000
863.282410	0.000000
863.315613	0.000000
863.348816	0.000000
863.382080	0.000000
863.415222	0.000000
863.448486	0.000000
863.481689	0.000000
863.514893	0.000000
863.548157	0.000000
863.581360	0.000000
863.614502	0.000000
863.647766	0.000000
863.680908	0.000000
863.714172	0.000000
863.747375	0.000000
863.780579	0.000000
863.813721	0.000000
863.846985	0.000000
863.880127	0.000000
863.913330	0.000000
863.946533	0.000000
863.979675	0.000000
864.012939	0.000000
