Model Number: SPM-001-M   
Serial Number: 10090201
Firmware Version: 004.17.6
Exposure Time: 300000.000000us
Data Taken on: 28-01-2021 10:26:45.485
Wavelength	Amplitude
733.770752	0.000000
733.808716	0.000000
733.846619	0.000000
733.884583	0.000000
733.922546	0.000000
733.960449	0.000000
733.998413	0.000000
734.036377	0.000000
734.074219	0.000000
734.112183	0.000000
734.150085	0.000000
734.188049	0.000000
734.226013	0.000000
734.263916	0.000000
734.301819	0.000000
734.339783	0.000000
734.377686	0.000000
734.415588	0.000000
734.453552	0.000000
734.491455	0.000000
734.529419	0.000000
734.567322	0.000000
734.605225	0.000000
734.643127	0.000000
734.681091	0.000000
734.718994	0.000000
734.756897	0.000000
734.794800	0.000000
734.832703	0.000000
734.870667	0.000000
734.908508	0.000000
734.946472	0.000000
734.984375	0.000000
735.022278	0.000000
735.060181	0.000000
735.098083	0.000000
735.135986	0.000000
735.173889	0.000000
735.211792	0.000000
735.249695	0.000000
735.287598	0.000000
735.325439	0.000000
735.363403	0.000000
735.401306	0.000000
735.439148	0.000000
735.477051	0.000000
735.515015	0.000000
735.552856	0.000000
735.590759	0.000000
735.628662	0.000000
735.666504	0.000000
735.704407	0.000000
735.742310	0.000000
735.780212	0.000000
735.818115	0.000000
735.856018	0.000000
735.893860	0.000000
735.931763	0.000000
735.969604	0.000000
736.007507	0.000000
736.045410	0.000000
736.083252	0.000000
736.121094	0.000000
736.158997	0.000000
736.196838	0.000000
736.234741	0.000000
736.272644	0.000000
736.310486	0.000000
736.348389	0.000000
736.386230	0.000000
736.424072	0.000000
736.461975	0.000000
736.499878	0.000000
736.537720	0.000000
736.575562	0.000000
736.613403	0.000000
736.651306	0.000000
736.689148	0.000000
736.726990	0.000000
736.764893	0.000000
736.802734	0.000000
736.840576	0.000000
736.878418	0.000000
736.916321	0.000000
736.954102	0.000000
736.992004	0.000000
737.029846	0.000000
737.067688	0.000000
737.105530	0.000000
737.143372	0.000000
737.181213	0.000000
737.219116	0.000000
737.256897	0.000000
737.294739	0.000000
737.332642	0.000000
737.370422	0.000000
737.408325	0.000000
737.446167	0.000000
737.483948	0.000000
737.521790	0.000000
737.559692	0.000000
737.597473	0.000000
737.635315	0.000000
737.673157	0.000000
737.710999	0.000000
737.748840	0.000000
737.786621	0.000000
737.824463	0.000000
737.862305	0.000000
737.900085	0.000000
737.937927	0.000000
737.975769	0.000000
738.013550	0.000000
738.051392	0.000000
738.089233	0.000000
738.127014	0.000000
738.164856	0.000000
738.202698	0.000000
738.240479	0.000000
738.278320	0.000000
738.316162	0.000000
738.353943	0.000000
738.391785	0.000000
738.429565	0.000000
738.467407	0.000000
738.505188	0.000000
738.542969	0.000000
738.580811	0.000000
738.618652	0.000000
738.656372	0.000000
738.694214	0.000000
738.732056	0.000000
738.769836	0.000000
738.807617	0.000000
738.845459	0.000000
738.883240	0.000000
738.921021	0.000000
738.958862	0.000000
738.996582	0.000000
739.034424	0.000000
739.072205	0.000000
739.109985	0.000000
739.147827	0.000000
739.185547	0.000000
739.223389	0.000000
739.261169	0.000000
739.298889	0.000000
739.336731	0.000000
739.374512	0.000000
739.412292	0.000000
739.450073	0.000000
739.487854	0.000000
739.525635	0.000000
739.563416	0.000000
739.601135	0.000000
739.638977	0.000000
739.676758	0.000000
739.714478	0.000000
739.752258	0.000000
739.790100	0.000000
739.827820	0.000000
739.865601	0.000000
739.903381	0.000000
739.941101	0.000000
739.978882	184.300000
740.016724	180.700000
740.054443	184.000000
740.092224	178.400000
740.130005	178.500000
740.167725	178.900000
740.205505	178.800000
740.243225	185.000000
740.281006	180.200000
740.318787	176.300000
740.356506	185.100000
740.394287	183.100000
740.432068	178.700000
740.469727	176.700000
740.507507	182.300000
740.545288	181.300000
740.583008	180.700000
740.620789	180.800000
740.658569	174.900000
740.696228	181.800000
740.734009	182.500000
740.771790	174.700000
740.809509	182.300000
740.847229	178.000000
740.884949	179.000000
740.922729	176.900000
740.960449	178.500000
740.998169	179.500000
741.035950	176.700000
741.073669	181.700000
741.111389	180.800000
741.149170	188.700000
741.186890	186.200000
741.224609	184.300000
741.262329	181.500000
741.300110	188.600000
741.337769	176.500000
741.375549	177.500000
741.413208	180.800000
741.450989	179.500000
741.488708	178.100000
741.526367	178.600000
741.564148	182.700000
741.601868	183.700000
741.639526	180.500000
741.677307	183.100000
741.715027	181.700000
741.752686	177.900000
741.790466	185.000000
741.828186	181.300000
741.865845	177.000000
741.903564	176.400000
741.941345	180.800000
741.979004	178.000000
742.016724	184.300000
742.054382	181.200000
742.092102	184.200000
742.129822	176.900000
742.167480	180.800000
742.205200	179.700000
742.242920	183.000000
742.280640	183.500000
742.318359	178.900000
742.356079	180.600000
742.393738	184.400000
742.431396	178.600000
742.469116	184.700000
742.506775	175.100000
742.544495	181.600000
742.582214	182.800000
742.619873	181.100000
742.657593	185.400000
742.695251	184.300000
742.732971	179.400000
742.770630	182.500000
742.808289	181.400000
742.846008	180.900000
742.883728	180.800000
742.921326	181.800000
742.959045	179.400000
742.996765	181.000000
743.034424	180.700000
743.072083	179.400000
743.109802	180.800000
743.147400	178.100000
743.185120	180.000000
743.222839	181.500000
743.260437	185.000000
743.298157	182.200000
743.335754	174.600000
743.373474	181.300000
743.411133	174.300000
743.448792	181.600000
743.486450	179.500000
743.524170	175.300000
743.561768	178.900000
743.599487	184.500000
743.637146	187.300000
743.674744	180.000000
743.712463	180.100000
743.750122	181.900000
743.787720	181.100000
743.825439	179.300000
743.863037	179.000000
743.900696	179.700000
743.938416	204.400000
743.976013	180.300000
744.013672	186.500000
744.051331	182.600000
744.088928	187.400000
744.126587	183.700000
744.164307	182.100000
744.201904	179.000000
744.239563	184.600000
744.277222	182.700000
744.314819	180.700000
744.352478	184.700000
744.390137	182.900000
744.427734	182.400000
744.465393	178.600000
744.502991	177.400000
744.540649	183.400000
744.578308	179.300000
744.615906	177.700000
744.653564	172.200000
744.691223	181.600000
744.728821	175.900000
744.766418	181.800000
744.804077	180.600000
744.841675	179.800000
744.879333	175.000000
744.916992	180.600000
744.954529	179.500000
744.992187	182.700000
745.029785	179.100000
745.067444	179.100000
745.105042	181.100000
745.142639	182.900000
745.180298	187.600000
745.217896	179.700000
745.255493	178.300000
745.293152	184.100000
745.330750	184.000000
745.368347	185.900000
745.405945	182.500000
745.443604	181.000000
745.481140	181.700000
745.518799	180.900000
745.556396	181.500000
745.593994	183.400000
745.631592	181.300000
745.669189	176.700000
745.706787	180.700000
745.744385	177.600000
745.781982	183.500000
745.819580	178.700000
745.857178	180.800000
745.894775	180.300000
745.932373	181.700000
745.969971	181.500000
746.007568	175.800000
746.045166	185.200000
746.082764	185.900000
746.120300	183.000000
746.157898	182.800000
746.195557	180.000000
746.233093	177.200000
746.270691	182.900000
746.308228	183.000000
746.345825	184.900000
746.383423	183.000000
746.420959	178.500000
746.458557	180.800000
746.496155	177.400000
746.533691	182.700000
746.571289	177.100000
746.608887	181.000000
746.646423	181.500000
746.684021	183.300000
746.721619	178.800000
746.759155	182.500000
746.796753	175.300000
746.834351	176.100000
746.871826	178.600000
746.909424	185.900000
746.946960	180.500000
746.984558	180.700000
747.022156	177.400000
747.059631	188.500000
747.097229	183.300000
747.134827	180.200000
747.172363	183.900000
747.209900	183.500000
747.247498	177.100000
747.285034	185.900000
747.322571	185.900000
747.360168	180.700000
747.397644	174.600000
747.435242	182.900000
747.472778	185.400000
747.510315	179.000000
747.547913	180.600000
747.585388	184.400000
747.622925	179.400000
747.660522	176.600000
747.697998	178.800000
747.735596	179.600000
747.773132	178.700000
747.810669	181.200000
747.848206	184.600000
747.885742	177.100000
747.923279	177.500000
747.960815	180.800000
747.998352	182.900000
748.035889	183.300000
748.073425	183.700000
748.110901	178.600000
748.148437	179.600000
748.185974	178.600000
748.223511	186.700000
748.261047	182.300000
748.298584	181.800000
748.336060	180.200000
748.373596	184.200000
748.411133	206.000000
748.448608	179.500000
748.486145	182.600000
748.523682	185.500000
748.561218	187.300000
748.598755	181.900000
748.636292	182.900000
748.673706	180.000000
748.711243	186.800000
748.748718	181.900000
748.786255	180.700000
748.823792	180.800000
748.861267	178.700000
748.898804	183.000000
748.936340	181.800000
748.973816	178.600000
749.011292	185.800000
749.048828	182.000000
749.086304	182.300000
749.123840	189.000000
749.161316	178.800000
749.198792	187.000000
749.236328	184.900000
749.273743	181.000000
749.311279	180.400000
749.348816	183.000000
749.386230	179.600000
749.423767	173.200000
749.461304	184.700000
749.498718	180.500000
749.536255	185.500000
749.573730	188.200000
749.611206	186.600000
749.648682	178.200000
749.686218	180.800000
749.723633	181.300000
749.761169	179.400000
749.798645	177.800000
749.836060	181.000000
749.873596	177.200000
749.911011	182.800000
749.948547	183.900000
749.986023	180.200000
750.023437	181.400000
750.060913	177.200000
750.098450	177.400000
750.135864	181.900000
750.173340	181.500000
750.210815	186.000000
750.248291	177.500000
750.285767	180.900000
750.323242	184.400000
750.360657	184.100000
750.398132	176.100000
750.435608	183.900000
750.473022	178.200000
750.510498	179.600000
750.547974	178.200000
750.585449	181.200000
750.622925	172.800000
750.660339	192.000000
750.697815	182.400000
750.735291	181.200000
750.772644	180.800000
750.810120	184.000000
750.847595	183.800000
750.885010	178.800000
750.922485	186.000000
750.959961	179.100000
750.997375	186.200000
751.034851	184.700000
751.072266	183.900000
751.109680	176.400000
751.147156	184.300000
751.184570	183.100000
751.221985	181.500000
751.259460	175.300000
751.296875	182.300000
751.334290	180.100000
751.371765	185.000000
751.409180	184.600000
751.446594	186.700000
751.484070	182.400000
751.521423	182.600000
751.558899	181.400000
751.596375	189.300000
751.633728	185.100000
751.671204	190.300000
751.708618	178.400000
751.746033	183.900000
751.783447	176.100000
751.820801	180.700000
751.858276	182.700000
751.895691	181.900000
751.933105	180.100000
751.970520	179.300000
752.007935	179.800000
752.045349	184.800000
752.082764	180.800000
752.120178	179.400000
752.157532	179.800000
752.195007	180.700000
752.232422	182.600000
752.269775	184.800000
752.307190	183.000000
752.344543	178.300000
752.382019	181.200000
752.419434	180.600000
752.456787	183.300000
752.494202	184.700000
752.531616	181.400000
752.568970	183.900000
752.606384	181.600000
752.643799	183.000000
752.681152	186.000000
752.718567	183.800000
752.755981	176.000000
752.793335	183.600000
752.830750	175.700000
752.868164	184.600000
752.905518	179.300000
752.942932	184.600000
752.980225	178.000000
753.017639	181.800000
753.055054	186.200000
753.092407	181.400000
753.129822	183.500000
753.167175	187.000000
753.204529	181.400000
753.241943	177.100000
753.279358	177.700000
753.316650	182.000000
753.354065	184.000000
753.391479	184.500000
753.428772	187.400000
753.466187	182.200000
753.503479	178.100000
753.540894	179.400000
753.578308	178.200000
753.615601	176.800000
753.653015	183.200000
753.690369	179.600000
753.727722	179.400000
753.765076	175.200000
753.802490	177.900000
753.839783	175.700000
753.877136	178.600000
753.914551	189.600000
753.951843	180.300000
753.989258	182.000000
754.026611	183.200000
754.063904	181.200000
754.101257	179.200000
754.138611	175.700000
754.175964	182.400000
754.213318	187.300000
754.250610	176.700000
754.288025	179.400000
754.325378	177.800000
754.362671	183.200000
754.400024	180.700000
754.437378	188.300000
754.474670	186.700000
754.512085	179.800000
754.549438	181.200000
754.586731	179.100000
754.624084	181.700000
754.661438	178.900000
754.698730	187.400000
754.736084	181.700000
754.773376	179.700000
754.810730	182.000000
754.848083	182.100000
754.885315	185.400000
754.922668	175.200000
754.960022	178.800000
754.997314	183.400000
755.034668	182.800000
755.072021	182.400000
755.109253	181.500000
755.146606	184.700000
755.183960	181.000000
755.221252	187.900000
755.258545	185.200000
755.295898	186.800000
755.333191	186.800000
755.370544	183.500000
755.407776	183.200000
755.445129	182.100000
755.482422	186.300000
755.519714	181.000000
755.557068	179.100000
755.594360	176.500000
755.631653	186.500000
755.668945	187.300000
755.706299	184.500000
755.743530	190.800000
755.780884	188.600000
755.818176	185.700000
755.855408	186.000000
755.892761	184.500000
755.930054	182.600000
755.967346	184.300000
756.004639	184.900000
756.041870	183.300000
756.079224	187.000000
756.116516	181.300000
756.153748	185.500000
756.191040	190.700000
756.228394	185.300000
756.265625	181.000000
756.302917	184.500000
756.340210	181.600000
756.377441	186.800000
756.414795	188.700000
756.452087	183.400000
756.489319	179.200000
756.526611	187.200000
756.563843	185.100000
756.601135	190.000000
756.638428	192.500000
756.675659	183.200000
756.712952	186.200000
756.750244	186.100000
756.787476	185.200000
756.824768	188.000000
756.862061	183.800000
756.899292	227.200000
756.936584	186.900000
756.973816	191.800000
757.011047	194.600000
757.048340	184.300000
757.085632	186.900000
757.122864	196.400000
757.160156	184.300000
757.197327	186.400000
757.234619	189.900000
757.271912	184.100000
757.309082	189.800000
757.346375	183.900000
757.383667	190.800000
757.420837	185.000000
757.458130	186.400000
757.495422	184.700000
757.532593	188.800000
757.569885	182.500000
757.607117	182.600000
757.644348	187.900000
757.681580	196.100000
757.718811	179.300000
757.756042	186.500000
757.793335	184.600000
757.830505	187.900000
757.867798	184.100000
757.905029	185.100000
757.942200	187.300000
757.979492	185.600000
758.016724	186.900000
758.053894	184.700000
758.091187	198.900000
758.128418	186.700000
758.165588	185.700000
758.202820	195.400000
758.240112	188.800000
758.277283	195.500000
758.314514	189.500000
758.351685	184.400000
758.388916	192.700000
758.426147	193.200000
758.463379	196.000000
758.500610	189.900000
758.537842	190.400000
758.575012	193.500000
758.612244	186.900000
758.649475	198.000000
758.686646	186.200000
758.723877	194.400000
758.761108	194.400000
758.798279	189.000000
758.835510	191.600000
758.872742	195.900000
758.909851	193.000000
758.947083	192.400000
758.984253	192.500000
759.021484	192.800000
759.058716	195.100000
759.095886	194.800000
759.133057	190.800000
759.170288	193.200000
759.207458	191.000000
759.244690	198.300000
759.281860	197.300000
759.319031	192.500000
759.356262	191.700000
759.393433	189.600000
759.430603	193.300000
759.467773	191.600000
759.505005	197.600000
759.542175	197.900000
759.579346	190.900000
759.616516	193.400000
759.653687	195.700000
759.690918	191.600000
759.728027	193.300000
759.765259	194.900000
759.802429	195.700000
759.839539	195.100000
759.876770	197.900000
759.913940	200.800000
759.951111	193.400000
759.988281	195.300000
760.025452	192.000000
760.062561	192.100000
760.099792	201.800000
760.136963	197.500000
760.174072	193.000000
760.211243	192.600000
760.248413	191.400000
760.285583	193.800000
760.322754	202.600000
760.359863	200.200000
760.397034	199.800000
760.434204	196.100000
760.471375	195.400000
760.508545	194.800000
760.545715	195.200000
760.582825	194.700000
760.619995	199.400000
760.657166	194.400000
760.694275	199.700000
760.731445	198.500000
760.768555	199.600000
760.805664	200.900000
760.842834	197.200000
760.879944	201.200000
760.917114	198.100000
760.954285	199.600000
760.991394	194.200000
761.028564	203.900000
761.065674	199.900000
761.102783	196.500000
761.139954	202.200000
761.177124	203.000000
761.214172	204.100000
761.251343	199.400000
761.288452	199.100000
761.325562	202.500000
761.362732	196.400000
761.399841	199.500000
761.436951	201.100000
761.474121	197.600000
761.511169	199.600000
761.548340	204.300000
761.585449	203.800000
761.622559	204.600000
761.659668	202.800000
761.696838	204.600000
761.733887	203.300000
761.771057	201.000000
761.808167	200.900000
761.845276	203.100000
761.882385	212.300000
761.919434	203.400000
761.956604	215.400000
761.993713	202.100000
762.030762	207.600000
762.067871	202.500000
762.105042	204.600000
762.142090	208.600000
762.179199	205.200000
762.216309	207.200000
762.253418	215.200000
762.290527	211.900000
762.327637	210.400000
762.364685	200.500000
762.401794	208.900000
762.438904	207.900000
762.475952	204.300000
762.513062	203.100000
762.550110	205.200000
762.587219	214.400000
762.624329	213.600000
762.661377	208.600000
762.698486	207.600000
762.735596	207.000000
762.772644	205.800000
762.809753	202.400000
762.846863	206.000000
762.883911	210.400000
762.921021	210.300000
762.958069	206.600000
762.995117	215.500000
763.032227	212.700000
763.069336	206.700000
763.106323	205.200000
763.143433	203.100000
763.180481	209.500000
763.217590	211.600000
763.254639	209.800000
763.291687	208.800000
763.328735	214.900000
763.365845	209.600000
763.402893	209.300000
763.439941	211.400000
763.477051	214.500000
763.514038	213.900000
763.551147	210.500000
763.588196	211.600000
763.625244	212.100000
763.662292	217.300000
763.699402	220.600000
763.736389	215.600000
763.773499	224.600000
763.810486	217.300000
763.847534	216.200000
763.884644	217.900000
763.921631	215.700000
763.958679	220.900000
763.995728	216.400000
764.032776	221.500000
764.069824	214.600000
764.106873	220.800000
764.143860	226.200000
764.180969	218.900000
764.218018	224.900000
764.255005	217.200000
764.292053	221.100000
764.329102	226.900000
764.366089	227.100000
764.403137	223.600000
764.440125	221.300000
764.477173	222.200000
764.514221	225.900000
764.551208	223.200000
764.588257	221.000000
764.625305	227.900000
764.662292	230.200000
764.699341	233.000000
764.736389	226.700000
764.773376	235.400000
764.810425	228.400000
764.847473	233.500000
764.884399	230.500000
764.921448	235.100000
764.958435	234.600000
764.995483	228.700000
765.032532	239.100000
765.069458	228.600000
765.106506	231.200000
765.143555	229.600000
765.180481	232.700000
765.217529	239.900000
765.254578	228.200000
765.291504	236.800000
765.328552	235.400000
765.365540	231.600000
765.402527	240.800000
765.439575	235.000000
765.476501	229.400000
765.513550	231.100000
765.550537	235.600000
765.587463	241.100000
765.624512	232.800000
765.661499	229.600000
765.698486	238.800000
765.735474	233.900000
765.772461	235.500000
765.809448	242.400000
765.846436	239.700000
765.883423	244.700000
765.920410	239.400000
765.957397	238.000000
765.994385	242.000000
766.031311	248.700000
766.068359	240.900000
766.105286	243.300000
766.142273	246.900000
766.179260	243.900000
766.216187	241.000000
766.253174	239.000000
766.290161	245.200000
766.327148	248.000000
766.364136	246.000000
766.401123	257.200000
766.438049	242.400000
766.475037	251.600000
766.512024	249.000000
766.548950	261.400000
766.585937	255.100000
766.622864	252.100000
766.659790	252.600000
766.696777	243.900000
766.733704	255.800000
766.770691	248.700000
766.807678	257.600000
766.844604	254.200000
766.881531	254.700000
766.918518	258.800000
766.955444	258.000000
766.992432	252.700000
767.029358	255.800000
767.066284	258.300000
767.103271	259.400000
767.140198	288.100000
767.177124	267.300000
767.214050	260.300000
767.251038	260.800000
767.287964	258.300000
767.324890	259.200000
767.361816	260.300000
767.398743	265.500000
767.435730	259.400000
767.472595	262.800000
767.509583	263.000000
767.546509	257.000000
767.583374	262.400000
767.620361	257.700000
767.657288	261.800000
767.694214	262.900000
767.731140	260.100000
767.768066	263.000000
767.804993	262.900000
767.841919	259.800000
767.878845	262.300000
767.915710	270.700000
767.952698	263.100000
767.989563	266.300000
768.026489	266.500000
768.063416	265.000000
768.100281	263.700000
768.137207	272.500000
768.174133	269.300000
768.211060	271.100000
768.247986	268.400000
768.284912	268.000000
768.321777	271.100000
768.358704	267.600000
768.395630	271.300000
768.432495	266.900000
768.469421	272.900000
768.506348	273.900000
768.543152	278.600000
768.580078	275.100000
768.616943	276.100000
768.653870	278.000000
768.690796	276.200000
768.727661	274.400000
768.764587	278.700000
768.801453	273.600000
768.838318	281.300000
768.875244	280.400000
768.912109	285.800000
768.948975	278.000000
768.985901	280.600000
769.022766	281.100000
769.059631	282.700000
769.096558	280.000000
769.133362	281.600000
769.170288	280.900000
769.207214	283.200000
769.244019	286.600000
769.280945	286.600000
769.317810	292.500000
769.354675	289.900000
769.391541	294.800000
769.428406	293.100000
769.465271	297.600000
769.502136	293.000000
769.539062	293.600000
769.575867	295.000000
769.612732	294.800000
769.649597	300.700000
769.686462	300.600000
769.723328	298.800000
769.760193	295.700000
769.797058	298.800000
769.833923	302.500000
769.870728	303.000000
769.907593	303.000000
769.944519	301.600000
769.981323	307.600000
770.018188	307.200000
770.055054	305.300000
770.091858	305.800000
770.128723	312.800000
770.165588	319.400000
770.202393	306.900000
770.239258	316.400000
770.276062	316.100000
770.312927	314.700000
770.349792	320.100000
770.386597	318.000000
770.423462	327.100000
770.460327	330.000000
770.497131	319.300000
770.533997	316.900000
770.570862	327.200000
770.607605	327.400000
770.644470	325.300000
770.681335	328.100000
770.718140	328.500000
770.754944	323.500000
770.791809	323.900000
770.828613	324.200000
770.865479	327.800000
770.902222	333.400000
770.939087	330.000000
770.975952	323.900000
771.012695	329.400000
771.049561	339.500000
771.086365	335.100000
771.123169	328.400000
771.159973	334.000000
771.196838	329.700000
771.233582	336.100000
771.270447	335.800000
771.307251	339.300000
771.344055	335.800000
771.380859	340.600000
771.417664	336.500000
771.454468	342.900000
771.491272	340.100000
771.528076	342.700000
771.564880	340.000000
771.601685	346.700000
771.638428	337.500000
771.675293	342.900000
771.712097	338.600000
771.748840	354.500000
771.785645	347.300000
771.822449	349.700000
771.859253	349.500000
771.896057	348.600000
771.932861	356.900000
771.969604	352.700000
772.006409	346.500000
772.043213	355.800000
772.079956	353.700000
772.116760	351.000000
772.153503	351.900000
772.190308	362.300000
772.227112	357.900000
772.263855	354.100000
772.300659	357.900000
772.337463	360.800000
772.374207	356.600000
772.411011	355.700000
772.447754	357.200000
772.484497	368.300000
772.521301	364.500000
772.558105	360.200000
772.594849	363.400000
772.631592	364.600000
772.668396	367.000000
772.705139	367.900000
772.741882	368.800000
772.778625	373.800000
772.815430	375.700000
772.852173	372.500000
772.888916	377.000000
772.925720	379.400000
772.962463	386.200000
772.999207	378.800000
773.035950	381.000000
773.072754	379.500000
773.109436	376.300000
773.146240	376.100000
773.182922	379.900000
773.219727	383.500000
773.256470	378.300000
773.293152	373.300000
773.329956	378.800000
773.366699	383.400000
773.403381	378.900000
773.440186	381.800000
773.476929	384.200000
773.513611	379.900000
773.550354	381.200000
773.587158	382.700000
773.623840	379.700000
773.660583	387.600000
773.697327	394.800000
773.734009	386.200000
773.770813	384.200000
773.807495	382.700000
773.844238	388.300000
773.880981	398.500000
773.917664	392.700000
773.954407	396.600000
773.991150	392.800000
774.027832	396.600000
774.064575	389.900000
774.101318	398.100000
774.138000	397.600000
774.174744	394.400000
774.211487	394.200000
774.248108	390.700000
774.284851	392.100000
774.321594	399.000000
774.358276	399.500000
774.395020	407.700000
774.431702	403.700000
774.468384	398.800000
774.505127	397.400000
774.541809	407.400000
774.578491	407.600000
774.615234	411.400000
774.651917	404.500000
774.688599	407.900000
774.725342	412.000000
774.762024	416.000000
774.798706	414.700000
774.835449	417.700000
774.872070	419.000000
774.908813	418.600000
774.945496	417.300000
774.982178	419.500000
775.018860	424.600000
775.055542	426.600000
775.092224	420.100000
775.128967	428.800000
775.165588	431.800000
775.202271	427.400000
775.239014	433.900000
775.275635	436.300000
775.312317	432.900000
775.349060	435.300000
775.385681	436.500000
775.422363	434.600000
775.459045	437.100000
775.495667	444.300000
775.532410	443.500000
775.569092	441.700000
775.605713	443.800000
775.642395	442.500000
775.679016	445.300000
775.715698	449.700000
775.752380	451.400000
775.789001	447.600000
775.825684	446.500000
775.862366	451.000000
775.898987	460.200000
775.935669	454.400000
775.972351	471.200000
776.008972	466.600000
776.045654	468.300000
776.082336	463.100000
776.118958	462.500000
776.155640	469.700000
776.192322	478.600000
776.228882	477.200000
776.265564	478.400000
776.302185	473.700000
776.338867	478.600000
776.375488	470.900000
776.412109	483.300000
776.448792	486.300000
776.485413	491.200000
776.522034	482.100000
776.558716	478.700000
776.595337	482.700000
776.631958	488.300000
776.668579	488.200000
776.705261	497.000000
776.741882	486.900000
776.778503	490.700000
776.815186	489.500000
776.851746	495.900000
776.888367	499.700000
776.924988	504.100000
776.961609	497.200000
776.998291	499.500000
777.034851	497.600000
777.071472	507.800000
777.108154	501.400000
777.144714	510.200000
777.181335	510.100000
777.218018	509.400000
777.254578	514.100000
777.291199	512.100000
777.327759	517.100000
777.364380	524.700000
777.401062	528.800000
777.437622	534.700000
777.474243	523.200000
777.510864	525.800000
777.547424	527.500000
777.584045	525.800000
777.620667	527.800000
777.657227	531.000000
777.693848	531.800000
777.730469	538.600000
777.767029	534.300000
777.803650	538.200000
777.840271	535.400000
777.876831	533.400000
777.913452	539.900000
777.950012	526.000000
777.986633	528.700000
778.023193	525.500000
778.059753	527.500000
778.096375	531.900000
778.132996	543.900000
778.169556	531.300000
778.206116	538.000000
778.242737	536.200000
778.279297	541.100000
778.315857	531.700000
778.352478	540.100000
778.389038	542.200000
778.425598	548.400000
778.462219	551.200000
778.498718	549.700000
778.535339	552.400000
778.571838	553.000000
778.608459	558.300000
778.645020	551.000000
778.681580	554.000000
778.718140	556.900000
778.754761	550.500000
778.791260	554.700000
778.827881	563.700000
778.864441	560.700000
778.900940	565.300000
778.937561	562.200000
778.974121	560.400000
779.010620	556.800000
779.047241	564.600000
779.083801	566.900000
779.120300	563.600000
779.156860	567.200000
779.193359	567.200000
779.229980	567.100000
779.266541	573.900000
779.303040	574.100000
779.339600	567.300000
779.376160	560.200000
779.412659	564.200000
779.449219	560.800000
779.485779	565.500000
779.522278	566.000000
779.558838	572.500000
779.595398	570.200000
779.631897	573.500000
779.668457	568.600000
779.705017	573.200000
779.741516	565.200000
779.778076	566.700000
779.814575	571.700000
779.851074	574.300000
779.887634	569.400000
779.924133	572.200000
779.960693	565.500000
779.997253	580.000000
780.033691	579.700000
780.070251	583.800000
780.106812	589.000000
780.143250	586.800000
780.179810	588.700000
780.216370	590.700000
780.252808	594.400000
780.289368	601.200000
780.325867	600.000000
780.362366	591.400000
780.398865	596.200000
780.435364	589.900000
780.471863	605.300000
780.508423	598.200000
780.544861	599.600000
780.581421	604.000000
780.617920	594.700000
780.654419	596.900000
780.690918	603.100000
780.727417	607.500000
780.763916	608.800000
780.800415	614.800000
780.836914	599.500000
780.873352	608.100000
780.909912	609.000000
780.946411	614.300000
780.982849	620.600000
781.019348	628.500000
781.055786	623.800000
781.092346	620.000000
781.128845	627.600000
781.165283	633.900000
781.201782	645.700000
781.238281	645.900000
781.274719	649.700000
781.311218	639.100000
781.347717	650.700000
781.384155	639.800000
781.420654	643.200000
781.457092	649.400000
781.493591	647.800000
781.530090	638.500000
781.566528	642.700000
781.602966	645.600000
781.639465	642.700000
781.675903	644.600000
781.712402	651.200000
781.748901	655.900000
781.785278	651.200000
781.821777	657.200000
781.858276	656.500000
781.894714	662.600000
781.931152	659.200000
781.967651	667.200000
782.004089	659.300000
782.040527	664.500000
782.076965	675.700000
782.113403	674.600000
782.149902	679.100000
782.186340	676.200000
782.222778	683.200000
782.259277	678.600000
782.295654	684.800000
782.332092	686.100000
782.368591	685.800000
782.404968	686.600000
782.441467	687.700000
782.477905	694.900000
782.514282	691.200000
782.550781	701.000000
782.587219	700.100000
782.623596	709.700000
782.660095	709.000000
782.696472	718.200000
782.732910	711.700000
782.769348	718.700000
782.805786	729.400000
782.842224	731.000000
782.878662	732.600000
782.915039	723.500000
782.951477	732.200000
782.987915	726.800000
783.024292	728.300000
783.060730	733.400000
783.097168	725.400000
783.133545	717.500000
783.169983	707.900000
783.206421	701.700000
783.242798	700.500000
783.279236	697.600000
783.315613	696.100000
783.352051	691.300000
783.388489	685.000000
783.424866	674.200000
783.461304	677.500000
783.497681	679.600000
783.534058	668.800000
783.570496	667.200000
783.606934	659.800000
783.643250	658.900000
783.679687	664.800000
783.716125	659.700000
783.752441	661.600000
783.788879	671.800000
783.825317	675.100000
783.861633	675.000000
783.898071	673.300000
783.934448	681.000000
783.970825	683.600000
784.007263	673.200000
784.043579	676.900000
784.080017	677.500000
784.116394	666.500000
784.152710	667.300000
784.189148	663.500000
784.225525	660.400000
784.261902	653.900000
784.298279	651.000000
784.334656	652.100000
784.371033	647.100000
784.407410	652.200000
784.443787	639.000000
784.480164	634.600000
784.516541	629.000000
784.552856	641.000000
784.589233	638.300000
784.625610	631.600000
784.661987	662.000000
784.698364	660.800000
784.734741	659.600000
784.771057	668.500000
784.807434	674.900000
784.843811	692.100000
784.880127	687.400000
784.916504	714.200000
784.952881	715.900000
784.989197	714.900000
785.025574	724.400000
785.061951	737.100000
785.098267	753.500000
785.134644	756.700000
785.170959	751.700000
785.207275	747.400000
785.243652	749.600000
785.279968	744.900000
785.316345	742.300000
785.352722	747.200000
785.388977	742.500000
785.425354	730.300000
785.461731	717.500000
785.498047	715.000000
785.534363	715.500000
785.570679	721.100000
785.606995	721.500000
785.643372	724.300000
785.679687	721.400000
785.716003	718.800000
785.752380	722.000000
785.788635	734.500000
785.825012	748.800000
785.861328	754.000000
785.897644	742.300000
785.933960	755.000000
785.970337	770.900000
786.006592	788.300000
786.042908	792.900000
786.079285	795.000000
786.115540	803.300000
786.151855	802.800000
786.188171	801.700000
786.224487	800.700000
786.260803	799.000000
786.297119	801.600000
786.333435	796.500000
786.369751	786.000000
786.406006	783.700000
786.442322	777.200000
786.478638	770.800000
786.514954	770.100000
786.551270	767.000000
786.587585	769.500000
786.623840	755.900000
786.660156	755.200000
786.696472	751.800000
786.732727	753.200000
786.769043	760.300000
786.805298	751.700000
786.841614	753.700000
786.877930	757.500000
786.914124	755.200000
786.950439	772.600000
786.986755	785.300000
787.023010	800.300000
787.059326	809.100000
787.095642	811.600000
787.131836	820.400000
787.168152	819.500000
787.204468	835.100000
787.240723	841.500000
787.276978	844.000000
787.313293	851.100000
787.349548	846.000000
787.385803	842.600000
787.422058	838.300000
787.458313	835.300000
787.494629	833.200000
787.530823	826.900000
787.567139	809.900000
787.603455	802.700000
787.639648	794.500000
787.675903	795.000000
787.712219	794.100000
787.748413	794.300000
787.784729	799.300000
787.820984	794.900000
787.857178	789.900000
787.893494	787.700000
787.929749	788.500000
787.965942	801.100000
788.002258	812.100000
788.038452	820.100000
788.074707	815.500000
788.110962	833.700000
788.147217	828.800000
788.183472	842.300000
788.219727	846.300000
788.255920	859.100000
788.292175	867.300000
788.328430	855.200000
788.364624	841.400000
788.400879	848.300000
788.437134	857.800000
788.473328	853.300000
788.509583	849.200000
788.545837	854.400000
788.582031	853.700000
788.618286	860.200000
788.654480	852.300000
788.690735	860.500000
788.726990	870.900000
788.763184	872.200000
788.799377	872.700000
788.835632	866.000000
788.871826	881.500000
788.908081	882.700000
788.944336	878.700000
788.980469	883.700000
789.016724	879.500000
789.052979	881.200000
789.089111	869.200000
789.125366	876.100000
789.161621	871.500000
789.197754	879.100000
789.234009	870.800000
789.270142	859.500000
789.306396	856.000000
789.342590	844.200000
789.378784	839.500000
789.414978	843.600000
789.451233	848.200000
789.487366	850.800000
789.523621	859.000000
789.559814	853.900000
789.595947	856.200000
789.632202	861.300000
789.668335	871.200000
789.704529	887.300000
789.740784	900.400000
789.776917	899.100000
789.813110	891.900000
789.849304	903.100000
789.885498	908.000000
789.921692	924.400000
789.957886	924.300000
789.994019	922.900000
790.030212	924.700000
790.066406	920.400000
790.102539	926.900000
790.138733	936.500000
790.174927	936.800000
790.211060	948.600000
790.247253	941.700000
790.283386	928.000000
790.319580	918.800000
790.355774	910.600000
790.391907	904.700000
790.428101	918.900000
790.464294	923.800000
790.500427	916.700000
790.536621	895.100000
790.572754	882.600000
790.608887	880.600000
790.645081	892.300000
790.681274	910.800000
790.717346	906.400000
790.753540	890.400000
790.789734	877.200000
790.825867	865.100000
790.862000	872.800000
790.898132	889.400000
790.934265	883.500000
790.970459	881.600000
791.006592	883.700000
791.042725	875.500000
791.078918	872.500000
791.114990	876.500000
791.151184	885.300000
791.187317	899.200000
791.223389	884.900000
791.259583	874.300000
791.295715	887.300000
791.331848	887.500000
791.367981	898.800000
791.404114	894.600000
791.440247	890.300000
791.476379	889.900000
791.512451	874.600000
791.548584	873.500000
791.584778	869.800000
791.620850	883.400000
791.656982	885.600000
791.693115	877.400000
791.729187	879.900000
791.765381	871.100000
791.801514	876.200000
791.837585	882.100000
791.873718	898.200000
791.909851	903.200000
791.945923	914.100000
791.982056	882.900000
792.018188	872.500000
792.054260	866.000000
792.090393	882.000000
792.126465	881.600000
792.162598	886.900000
792.198669	870.500000
792.234741	863.000000
792.270874	853.400000
792.307007	848.000000
792.343079	851.700000
792.379150	860.500000
792.415283	851.800000
792.451355	847.500000
792.487488	824.800000
792.523560	818.800000
792.559631	799.600000
792.595764	756.000000
792.631836	724.000000
792.667908	716.300000
792.703979	709.300000
792.740051	745.000000
792.776184	770.300000
792.812256	780.600000
792.848328	791.600000
792.884399	796.400000
792.920471	798.900000
792.956543	795.400000
792.992615	792.200000
793.028748	794.700000
793.064758	801.900000
793.100830	816.500000
793.136963	828.100000
793.172974	825.400000
793.209045	817.700000
793.245178	821.200000
793.281189	816.200000
793.317261	824.800000
793.353271	822.000000
793.389404	832.900000
793.425476	833.300000
793.461487	813.200000
793.497559	808.600000
793.533630	812.100000
793.569641	817.200000
793.605713	815.500000
793.641785	822.100000
793.677795	832.100000
793.713867	822.200000
793.749878	819.700000
793.785950	835.000000
793.822021	844.900000
793.858032	840.600000
793.894104	845.600000
793.930176	838.200000
793.966187	838.800000
794.002258	833.400000
794.038269	842.000000
794.074280	840.100000
794.110352	856.100000
794.146423	839.100000
794.182373	835.500000
794.218445	829.000000
794.254517	821.000000
794.290466	817.000000
794.326538	824.600000
794.362549	821.400000
794.398560	822.800000
794.434631	823.400000
794.470581	802.800000
794.506653	798.700000
794.542664	804.600000
794.578674	808.100000
794.614685	811.500000
794.650757	806.200000
794.686707	811.000000
794.722778	803.500000
794.758789	814.400000
794.794739	829.200000
794.830811	857.900000
794.866821	871.300000
794.902771	864.600000
794.938843	857.900000
794.974792	853.000000
795.010803	850.500000
795.046814	851.400000
795.082825	849.400000
795.118835	860.200000
795.154846	835.600000
795.190796	839.100000
795.226807	829.000000
795.262817	831.400000
795.298767	831.700000
795.334778	843.600000
795.370850	826.500000
795.406799	826.800000
795.442810	816.400000
795.478821	815.500000
795.514709	813.600000
795.550720	849.100000
795.586670	826.900000
795.622681	830.300000
795.658691	827.700000
795.694641	825.400000
795.730652	822.200000
795.766663	836.200000
795.802551	841.900000
795.838562	847.900000
795.874573	837.600000
795.910522	838.900000
795.946472	822.800000
795.982483	830.100000
796.018433	830.000000
796.054382	843.000000
796.090393	833.200000
796.126282	823.200000
796.162292	810.200000
796.198242	803.700000
796.234192	807.000000
796.270203	811.000000
796.306091	816.500000
796.342041	833.700000
796.378052	816.500000
796.413940	812.600000
796.449951	817.000000
796.485901	820.400000
796.521790	833.300000
796.557800	842.700000
796.593689	839.700000
796.629639	834.000000
796.665649	827.600000
796.701599	825.700000
796.737488	827.000000
796.773437	830.300000
796.809387	830.300000
796.845337	831.300000
796.881287	822.200000
796.917175	809.600000
796.953125	808.500000
796.989075	815.800000
797.024963	823.600000
797.060913	818.600000
797.096863	812.400000
797.132751	799.100000
797.168701	790.700000
797.204590	797.000000
797.240540	807.500000
797.276489	816.000000
797.312439	815.900000
797.348328	809.100000
797.384277	796.200000
797.420166	788.300000
797.456055	790.700000
797.492004	799.800000
797.527893	807.700000
797.563843	807.900000
797.599731	796.300000
797.635620	784.500000
797.671570	793.700000
797.707520	798.800000
797.743347	797.300000
797.779297	804.600000
797.815125	800.300000
797.851074	786.200000
797.887024	776.100000
797.922913	770.500000
797.958801	780.600000
797.994690	780.900000
798.030579	785.600000
798.066467	787.600000
798.102356	772.100000
798.138245	767.000000
798.174133	766.100000
798.210083	777.300000
798.245911	788.800000
798.281799	793.000000
798.317749	782.900000
798.353577	774.500000
798.389465	772.200000
798.425293	770.200000
798.461243	769.200000
798.497131	777.100000
798.532959	776.600000
798.568848	782.700000
798.604736	763.600000
798.640564	756.900000
798.676453	753.300000
798.712402	761.900000
798.748230	767.200000
798.784119	769.400000
798.820007	765.700000
798.855835	762.700000
798.891724	756.100000
798.927551	758.600000
798.963379	759.300000
798.999268	751.900000
799.035095	745.300000
799.070984	738.400000
799.106873	729.800000
799.142700	734.100000
799.178528	729.900000
799.214417	741.200000
799.250244	751.000000
799.286133	740.600000
799.321960	736.700000
799.357788	736.700000
799.393677	731.500000
799.429504	736.400000
799.465332	736.200000
799.501221	741.800000
799.537048	737.900000
799.572876	735.100000
799.608704	737.300000
799.644531	748.900000
799.680359	747.000000
799.716248	753.300000
799.752014	755.600000
799.787903	744.000000
799.823730	735.300000
799.859558	736.300000
799.895386	736.300000
799.931213	739.200000
799.967041	736.500000
800.002869	733.900000
800.038696	740.500000
800.074463	725.500000
800.110352	734.100000
800.146179	722.000000
800.181946	733.500000
800.217773	733.300000
800.253540	730.900000
800.289429	727.400000
800.325256	722.700000
800.361023	715.500000
800.396851	725.300000
800.432678	726.000000
800.468445	726.900000
800.504272	725.000000
800.540100	706.400000
800.575867	708.100000
800.611694	713.800000
800.647461	708.300000
800.683289	717.300000
800.719116	720.300000
800.754883	715.000000
800.790649	703.600000
800.826477	701.800000
800.862244	719.500000
800.898071	708.100000
800.933838	709.600000
800.969604	704.600000
801.005432	699.300000
801.041199	702.100000
801.076965	695.200000
801.112793	686.000000
801.148560	685.100000
801.184326	685.600000
801.220154	690.000000
801.255859	683.700000
801.291687	682.100000
801.327454	673.000000
801.363281	678.700000
801.398987	675.600000
801.434814	679.400000
801.470520	681.200000
801.506287	672.900000
801.542114	666.700000
801.577820	670.600000
801.613647	671.500000
801.649414	671.000000
801.685120	671.300000
801.720886	669.700000
801.756714	662.200000
801.792419	659.700000
801.828186	649.300000
801.863892	661.500000
801.899719	656.400000
801.935486	656.700000
801.971252	660.300000
802.006958	659.000000
802.042725	651.700000
802.078430	653.800000
802.114197	645.400000
802.149963	656.600000
802.185669	650.000000
802.221436	645.800000
802.257202	645.900000
802.292908	642.300000
802.328674	651.900000
802.364441	657.700000
802.400146	649.700000
802.435913	647.200000
802.471558	644.500000
802.507324	647.600000
802.543091	640.700000
802.578796	652.300000
802.614502	652.100000
802.650269	655.300000
802.685974	636.500000
802.721741	641.400000
802.757446	643.700000
802.793152	642.800000
802.828918	653.800000
802.864624	648.000000
802.900330	645.000000
802.936035	642.900000
802.971802	639.600000
803.007446	636.600000
803.043213	632.300000
803.078857	641.500000
803.114624	626.800000
803.150330	629.300000
803.185974	625.800000
803.221741	627.100000
803.257446	632.300000
803.293152	631.100000
803.328857	626.700000
803.364563	623.700000
803.400208	620.100000
803.435974	624.900000
803.471680	620.000000
803.507324	615.600000
803.543030	626.800000
803.578735	626.800000
803.614441	621.100000
803.650146	628.600000
803.685791	617.000000
803.721497	614.500000
803.757202	605.700000
803.792847	615.600000
803.828552	611.100000
803.864258	607.700000
803.899902	604.500000
803.935608	593.600000
803.971313	601.400000
804.006958	600.100000
804.042664	602.300000
804.078308	603.400000
804.113953	594.200000
804.149658	600.300000
804.185364	587.300000
804.221008	603.600000
804.256714	589.000000
804.292297	586.800000
804.328003	585.700000
804.363708	580.900000
804.399292	581.900000
804.434998	583.500000
804.470703	575.000000
804.506287	586.700000
804.541992	578.200000
804.577637	582.200000
804.613281	571.900000
804.648926	570.900000
804.684570	573.400000
804.720215	568.800000
804.755920	565.100000
804.791565	571.600000
804.827209	573.700000
804.862854	566.600000
804.898437	561.900000
804.934143	563.300000
804.969788	560.900000
805.005371	565.000000
805.041077	557.500000
805.076721	555.700000
805.112305	550.100000
805.147949	552.900000
805.183655	546.500000
805.219238	555.200000
805.254883	550.000000
805.290466	557.300000
805.326111	545.200000
805.361755	540.800000
805.397400	544.100000
805.432983	544.900000
805.468628	541.100000
805.504211	548.700000
805.539856	547.400000
805.575500	550.600000
805.611084	542.200000
805.646729	535.900000
805.682373	534.100000
805.717957	546.100000
805.753601	546.700000
805.789246	535.400000
805.824768	539.500000
805.860413	539.200000
805.895996	532.900000
805.931641	530.800000
805.967224	536.100000
806.002869	539.200000
806.038452	543.200000
806.074036	544.000000
806.109619	528.400000
806.145264	527.000000
806.180847	527.000000
806.216431	527.700000
806.252014	528.500000
806.287659	530.600000
806.323181	530.900000
806.358826	525.600000
806.394409	513.500000
806.429993	516.100000
806.465576	527.100000
806.501160	517.200000
806.536743	512.300000
806.572327	517.000000
806.607910	513.600000
806.643494	512.700000
806.679077	510.100000
806.714661	510.400000
806.750244	509.400000
806.785828	503.800000
806.821350	506.000000
806.856934	508.500000
806.892517	503.000000
806.928101	499.000000
806.963684	503.500000
806.999268	504.100000
807.034790	496.200000
807.070374	498.600000
807.105896	492.100000
807.141479	488.300000
807.177063	494.800000
807.212585	488.500000
807.248169	494.400000
807.283752	494.800000
807.319275	486.300000
807.354858	487.000000
807.390381	484.300000
807.425903	483.000000
807.461487	479.100000
807.497070	475.200000
807.532593	480.700000
807.568115	478.900000
807.603699	473.400000
807.639221	470.000000
807.674744	476.600000
807.710266	478.000000
807.745850	480.000000
807.781372	475.800000
807.816895	471.200000
807.852417	469.200000
807.888000	469.500000
807.923523	471.400000
807.959045	475.100000
807.994629	465.200000
808.030090	465.400000
808.065613	465.300000
808.101135	468.300000
808.136658	466.400000
808.172241	463.800000
808.207764	464.100000
808.243225	457.700000
808.278809	458.400000
808.314270	463.700000
808.349792	452.800000
808.385315	453.000000
808.420837	459.400000
808.456360	460.300000
808.491882	458.200000
808.527344	454.600000
808.562866	461.900000
808.598389	454.200000
808.633850	451.200000
808.669434	445.300000
808.704895	452.100000
808.740417	458.500000
808.775940	455.000000
808.811462	446.500000
808.846924	447.500000
808.882385	445.600000
808.917847	445.500000
808.953369	445.600000
808.988892	443.400000
809.024353	444.800000
809.059875	447.100000
809.095398	443.600000
809.130798	436.200000
809.166321	436.200000
809.201843	437.900000
809.237305	438.300000
809.272766	441.400000
809.308228	430.200000
809.343750	432.300000
809.379211	433.200000
809.414734	429.500000
809.450134	434.400000
809.485657	425.500000
809.521118	428.800000
809.556580	425.400000
809.592102	425.600000
809.627502	421.500000
809.663025	423.600000
809.698486	420.000000
809.733887	419.700000
809.769409	418.400000
809.804871	412.400000
809.840271	411.400000
809.875793	416.600000
809.911194	420.300000
809.946655	413.700000
809.982178	409.600000
810.017639	415.700000
810.053040	408.000000
810.088501	407.300000
810.123901	407.900000
810.159424	404.400000
810.194885	403.800000
810.230286	404.500000
810.265747	397.100000
810.301208	397.600000
810.336609	399.400000
810.372070	392.400000
810.407532	393.400000
810.442932	397.600000
810.478394	396.800000
810.513794	393.200000
810.549255	389.800000
810.584717	390.000000
810.620117	385.000000
810.655518	388.300000
810.690979	384.500000
810.726379	385.500000
810.761841	379.800000
810.797302	375.700000
810.832642	375.000000
810.868103	383.200000
810.903564	375.600000
810.938904	380.200000
810.974365	370.900000
811.009827	373.900000
811.045166	372.400000
811.080627	364.000000
811.115967	370.700000
811.151428	373.500000
811.186829	368.200000
811.222229	369.100000
811.257629	363.300000
811.293091	367.600000
811.328430	375.000000
811.363892	370.000000
811.399292	369.500000
811.434631	364.400000
811.470093	367.300000
811.505493	361.500000
811.540833	359.700000
811.576294	364.100000
811.611694	362.000000
811.647034	358.100000
811.682434	361.300000
811.717773	359.400000
811.753235	364.400000
811.788635	357.400000
811.823975	359.500000
811.859375	362.600000
811.894775	354.700000
811.930115	354.800000
811.965515	354.400000
812.000916	357.600000
812.036255	354.700000
812.071655	354.000000
812.106995	350.100000
812.142395	349.600000
812.177795	356.500000
812.213196	351.500000
812.248474	352.200000
812.283875	345.700000
812.319214	345.600000
812.354614	346.300000
812.390015	346.700000
812.425293	344.600000
812.460693	346.900000
812.496094	342.900000
812.531433	336.900000
812.566772	336.900000
812.602173	339.000000
812.637451	336.900000
812.672852	335.800000
812.708191	337.600000
812.743530	333.400000
812.778931	326.100000
812.814270	327.100000
812.849609	334.200000
812.884949	331.300000
812.920227	324.400000
812.955627	333.300000
812.990967	327.400000
813.026306	322.400000
813.061646	317.300000
813.096985	314.800000
813.132324	312.800000
813.167664	314.900000
813.203003	317.800000
813.238281	307.800000
813.273682	308.800000
813.308960	308.300000
813.344299	310.900000
813.379639	312.900000
813.414978	308.100000
813.450256	307.100000
813.485596	309.800000
813.520874	303.800000
813.556213	307.000000
813.591614	307.500000
813.626831	304.300000
813.662170	305.500000
813.697510	311.800000
813.732788	299.000000
813.768127	303.700000
813.803467	302.300000
813.838745	299.400000
813.874084	302.100000
813.909363	302.100000
813.944641	302.000000
813.979980	293.100000
814.015320	295.000000
814.050598	294.700000
814.085876	297.500000
814.121155	295.000000
814.156494	292.300000
814.191772	294.100000
814.227051	289.900000
814.262390	294.200000
814.297668	290.900000
814.332947	292.500000
814.368225	285.700000
814.403564	289.800000
814.438782	287.900000
814.474121	287.500000
814.509338	284.200000
814.544617	291.700000
814.579956	284.600000
814.615173	292.300000
814.650513	287.700000
814.685791	284.500000
814.721008	285.500000
814.756348	283.600000
814.791626	281.400000
814.826843	279.600000
814.862122	281.200000
814.897400	279.600000
814.932678	280.400000
814.967957	277.700000
815.003235	281.300000
815.038452	274.600000
815.073730	273.700000
815.108948	281.100000
815.144226	280.600000
815.179504	282.600000
815.214722	271.500000
815.250000	270.300000
815.285278	276.300000
815.320496	270.400000
815.355774	274.000000
815.391052	272.700000
815.426270	272.300000
815.461487	269.900000
815.496765	266.900000
815.531982	264.000000
815.567261	268.300000
815.602539	273.100000
815.637695	270.700000
815.672974	268.900000
815.708191	271.000000
815.743408	271.600000
815.778687	265.900000
815.813904	271.200000
815.849121	259.900000
815.884399	258.800000
815.919556	260.000000
815.954834	260.600000
815.990051	263.200000
816.025269	266.000000
816.060486	257.300000
816.095703	257.300000
816.130920	257.900000
816.166199	257.000000
816.201416	256.600000
816.236572	259.500000
816.271851	254.800000
816.307007	259.100000
816.342224	251.300000
816.377441	255.100000
816.412659	246.800000
816.447876	254.400000
816.483093	250.500000
816.518250	250.600000
816.553467	248.900000
816.588745	252.500000
816.623901	246.000000
816.659119	242.300000
816.694275	246.700000
816.729492	244.300000
816.764709	270.500000
816.799927	240.100000
816.835083	242.300000
816.870300	239.700000
816.905457	242.700000
816.940674	244.000000
816.975830	236.800000
817.010986	238.000000
817.046204	236.700000
817.081421	236.300000
817.116577	236.000000
817.151733	241.900000
817.186951	241.000000
817.222107	239.300000
817.257324	240.300000
817.292419	238.500000
817.327637	231.700000
817.362854	235.200000
817.398010	230.500000
817.433167	233.500000
817.468323	232.700000
817.503479	233.500000
817.538635	239.400000
817.573853	234.100000
817.608948	230.600000
817.644165	230.800000
817.679321	227.200000
817.714478	226.900000
817.749634	229.500000
817.784790	238.100000
817.819946	233.600000
817.855103	220.800000
817.890198	228.200000
817.925415	221.000000
817.960571	229.400000
817.995667	228.100000
818.030823	225.500000
818.066040	223.500000
818.101135	227.300000
818.136292	224.300000
818.171448	221.600000
818.206543	223.900000
818.241699	225.800000
818.276855	222.700000
818.311951	221.300000
818.347107	218.700000
818.382263	224.500000
818.417358	226.800000
818.452515	226.700000
818.487610	226.100000
818.522766	219.100000
818.557922	224.200000
818.593018	221.200000
818.628113	221.200000
818.663269	218.000000
818.698364	220.600000
818.733521	217.600000
818.768677	218.200000
818.803711	215.700000
818.838867	212.400000
818.874023	216.000000
818.909058	213.900000
818.944214	212.500000
818.979370	215.800000
819.014404	215.700000
819.049561	211.000000
819.084595	216.900000
819.119751	209.900000
819.154846	213.600000
819.189941	210.100000
819.225037	208.700000
819.260193	203.700000
819.295227	205.500000
819.330322	205.200000
819.365479	204.200000
819.400513	237.700000
819.435608	203.100000
819.470764	199.800000
819.505798	201.200000
819.540894	203.900000
819.575989	202.300000
819.611084	208.100000
819.646179	209.300000
819.681213	205.600000
819.716309	200.700000
819.751404	203.600000
819.786438	205.600000
819.821533	200.300000
819.856628	202.500000
819.891663	204.900000
819.926758	209.500000
819.961853	207.700000
819.996887	198.200000
820.031982	203.500000
820.067017	200.200000
820.102112	233.700000
820.137207	196.500000
820.172302	210.600000
820.207275	197.400000
820.242371	198.800000
820.277405	198.600000
820.312500	200.100000
820.347534	197.800000
820.382568	203.100000
820.417664	196.600000
820.452759	198.300000
820.487732	197.200000
820.522827	196.400000
820.557861	194.800000
820.592896	196.500000
820.627930	196.100000
820.662964	194.100000
820.698059	197.800000
820.733093	194.700000
820.768127	196.300000
820.803162	195.300000
820.838196	192.500000
820.873230	194.900000
820.908264	195.900000
820.943298	192.800000
820.978333	198.700000
821.013367	196.000000
821.048401	196.700000
821.083435	196.100000
821.118469	190.300000
821.153503	196.800000
821.188477	194.200000
821.223511	190.300000
821.258484	193.900000
821.293579	191.600000
821.328613	188.800000
821.363647	190.900000
821.398621	188.900000
821.433655	191.000000
821.468628	201.900000
821.503662	190.500000
821.538696	194.600000
821.573669	187.800000
821.608704	195.300000
821.643677	189.200000
821.678650	193.800000
821.713684	196.300000
821.748718	192.500000
821.783691	190.400000
821.818726	192.800000
821.853638	191.100000
821.888672	191.800000
821.923706	190.600000
821.958618	191.700000
821.993652	189.300000
822.028687	195.000000
822.063599	196.400000
822.098633	192.700000
822.133667	186.700000
822.168579	192.300000
822.203613	191.900000
822.238586	189.200000
822.273560	191.900000
822.308533	187.800000
822.343567	187.600000
822.378479	190.900000
822.413452	188.300000
822.448425	187.300000
822.483398	194.300000
822.518372	193.200000
822.553345	186.000000
822.588318	195.300000
822.623291	187.900000
822.658203	188.400000
822.693237	189.100000
822.728210	187.500000
822.763123	188.800000
822.798096	185.700000
822.833069	187.900000
822.867981	188.800000
822.902954	190.300000
822.937927	190.400000
822.972900	196.100000
823.007874	184.400000
823.042725	192.300000
823.077698	195.200000
823.112671	186.200000
823.147583	188.200000
823.182556	190.300000
823.217529	190.100000
823.252441	187.300000
823.287415	195.800000
823.322388	193.300000
823.357239	188.100000
823.392212	193.200000
823.427185	194.000000
823.462097	187.100000
823.497009	189.500000
823.531982	188.400000
823.566895	187.700000
823.601807	186.800000
823.636719	186.600000
823.671631	191.600000
823.706604	185.300000
823.741455	191.500000
823.776428	182.700000
823.811340	190.800000
823.846252	191.700000
823.881165	192.800000
823.916138	187.600000
823.950989	194.500000
823.985901	185.400000
824.020813	189.200000
824.055725	185.700000
824.090637	184.500000
824.125610	190.400000
824.160461	189.600000
824.195374	187.900000
824.230225	190.700000
824.265198	183.100000
824.300110	185.700000
824.334961	194.300000
824.369873	180.700000
824.404785	189.300000
824.439636	190.400000
824.474548	182.300000
824.509460	179.700000
824.544312	190.500000
824.579224	189.300000
824.614075	189.100000
824.648987	184.500000
824.683899	187.700000
824.718811	184.100000
824.753662	190.000000
824.788574	190.100000
824.823364	188.100000
824.858276	182.900000
824.893188	190.100000
824.928040	189.000000
824.962952	187.700000
824.997803	188.300000
825.032654	186.800000
825.067566	186.600000
825.102417	185.100000
825.137268	183.500000
825.172119	186.100000
825.206970	183.300000
825.241882	185.200000
825.276733	181.900000
825.311646	184.000000
825.346436	180.500000
825.381348	182.200000
825.416138	184.200000
825.450989	182.500000
825.485901	178.500000
825.520691	180.200000
825.555542	178.800000
825.590454	183.100000
825.625244	178.500000
825.660095	188.200000
825.695007	184.100000
825.729797	183.200000
825.764648	179.700000
825.799438	182.100000
825.834290	182.100000
825.869202	179.000000
825.903992	182.400000
825.938843	180.600000
825.973694	177.400000
826.008484	190.500000
826.043335	178.600000
826.078186	175.300000
826.112976	184.800000
826.147827	184.800000
826.182678	187.900000
826.217468	176.000000
826.252319	187.900000
826.287109	177.600000
826.321899	184.800000
826.356750	181.100000
826.391541	178.400000
826.426392	182.700000
826.461182	181.800000
826.495972	176.500000
826.530823	174.100000
826.565613	181.000000
826.600403	178.600000
826.635254	181.800000
826.670044	176.300000
826.704834	174.400000
826.739685	177.100000
826.774475	183.000000
826.809265	181.100000
826.844055	178.000000
826.878906	185.000000
826.913635	180.500000
826.948425	182.200000
826.983215	181.500000
827.018005	183.600000
827.052856	179.000000
827.087585	184.300000
827.122375	175.200000
827.157227	179.200000
827.191956	190.500000
827.226746	177.100000
827.261536	181.700000
827.296265	177.900000
827.331116	179.400000
827.365906	182.300000
827.400635	178.500000
827.435425	174.100000
827.470215	183.800000
827.504944	179.900000
827.539734	183.500000
827.574463	179.700000
827.609253	185.800000
827.644043	180.600000
827.678772	183.100000
827.713562	179.100000
827.748352	179.900000
827.783081	177.900000
827.817871	180.800000
827.852600	178.000000
827.887329	181.400000
827.922119	173.700000
827.956848	182.200000
827.991638	189.200000
828.026367	183.000000
828.061157	180.300000
828.095886	180.100000
828.130615	190.100000
828.165344	174.900000
828.200073	178.300000
828.234863	180.400000
828.269592	178.600000
828.304321	183.700000
828.339111	179.400000
828.373779	179.300000
828.408569	182.300000
828.443298	184.200000
828.477966	178.000000
828.512756	181.600000
828.547424	178.000000
828.582214	180.000000
828.616943	179.200000
828.651672	180.200000
828.686340	182.600000
828.721130	178.000000
828.755798	180.400000
828.790527	180.400000
828.825256	180.500000
828.859924	181.500000
828.894714	184.100000
828.929443	187.600000
828.964111	177.200000
828.998840	183.100000
829.033569	176.800000
829.068237	179.500000
829.102966	178.900000
829.137634	181.000000
829.172363	180.800000
829.207092	180.500000
829.241821	177.100000
829.276489	175.200000
829.311157	180.300000
829.345825	179.000000
829.380554	182.300000
829.415283	177.100000
829.449951	175.700000
829.484619	186.400000
829.519348	185.000000
829.554016	179.900000
829.588745	181.400000
829.623413	175.100000
829.658081	188.000000
829.692749	176.700000
829.727417	183.100000
829.762146	182.000000
829.796814	179.000000
829.831482	178.300000
829.866150	180.900000
829.900879	177.700000
829.935486	182.900000
829.970154	177.800000
830.004883	189.300000
830.039490	180.100000
830.074219	179.100000
830.108887	179.800000
830.143494	180.400000
830.178223	175.600000
830.212891	180.800000
830.247498	179.500000
830.282166	185.900000
830.316772	184.900000
830.351501	178.900000
830.386169	179.400000
830.420776	179.800000
830.455444	179.500000
830.490112	178.400000
830.524719	174.300000
830.559387	181.900000
830.594055	182.000000
830.628662	181.700000
830.663330	180.100000
830.697998	185.300000
830.732605	178.800000
830.767273	182.500000
830.801941	179.300000
830.836487	186.700000
830.871155	181.300000
830.905762	180.200000
830.940430	176.200000
830.975098	177.900000
831.009644	179.400000
831.044312	186.500000
831.078979	181.100000
831.113525	175.500000
831.148193	181.800000
831.182861	179.600000
831.217407	182.900000
831.252075	190.500000
831.286621	179.000000
831.321289	177.200000
831.355896	181.100000
831.390564	185.800000
831.425110	181.400000
831.459778	183.900000
831.494324	190.100000
831.528931	180.000000
831.563599	185.100000
831.598145	175.400000
831.632751	180.700000
831.667419	179.800000
831.701965	182.900000
831.736572	181.000000
831.771179	178.100000
831.805786	177.400000
831.840393	186.400000
831.874939	173.800000
831.909546	185.400000
831.944153	174.800000
831.978760	181.300000
832.013306	176.000000
832.047913	184.500000
832.082458	186.700000
832.117065	178.200000
832.151672	185.400000
832.186218	182.700000
832.220825	182.200000
832.255432	174.300000
832.289978	177.700000
832.324585	181.500000
832.359192	180.700000
832.393677	180.500000
832.428284	181.300000
832.462830	178.800000
832.497437	180.700000
832.531982	182.000000
832.566589	178.400000
832.601135	181.700000
832.635681	174.300000
832.670227	180.200000
832.704773	187.200000
832.739380	180.900000
832.773926	181.000000
832.808472	177.800000
832.843079	179.800000
832.877563	181.200000
832.912170	179.900000
832.946716	174.500000
832.981201	184.500000
833.015808	183.000000
833.050293	181.300000
833.084839	176.200000
833.119446	180.200000
833.153992	182.100000
833.188477	179.500000
833.223022	177.300000
833.257568	180.900000
833.292114	184.000000
833.326660	188.700000
833.361145	177.700000
833.395691	175.800000
833.430237	180.300000
833.464783	183.500000
833.499329	178.000000
833.533875	178.300000
833.568359	182.000000
833.602905	184.600000
833.637390	182.700000
833.671875	180.000000
833.706421	178.500000
833.740906	177.800000
833.775452	173.400000
833.809998	178.500000
833.844482	185.800000
833.879028	180.400000
833.913513	178.500000
833.947998	183.000000
833.982544	177.500000
834.017090	178.100000
834.051514	173.500000
834.086060	181.900000
834.120544	178.900000
834.155029	182.400000
834.189575	179.100000
834.223999	182.500000
834.258545	181.300000
834.293030	181.400000
834.327515	180.700000
834.362000	177.200000
834.396545	183.600000
834.430969	178.300000
834.465454	184.200000
834.500000	175.300000
834.534424	182.400000
834.568970	173.200000
834.603455	174.000000
834.637878	176.500000
834.672363	181.200000
834.706909	178.700000
834.741333	179.400000
834.775818	174.200000
834.810242	179.200000
834.844727	179.200000
834.879211	180.900000
834.913635	180.100000
834.948181	181.800000
834.982666	179.700000
835.017090	180.300000
835.051575	181.000000
835.086060	180.300000
835.120483	182.000000
835.154907	183.600000
835.189331	179.100000
835.223816	182.900000
835.258301	175.800000
835.292786	178.200000
835.327209	182.600000
835.361694	179.800000
835.396057	178.000000
835.430542	183.200000
835.465027	179.100000
835.499390	178.800000
835.533875	206.200000
835.568359	179.500000
835.602722	175.500000
835.637207	182.400000
835.671692	176.900000
835.706055	196.500000
835.740540	182.000000
835.774902	182.400000
835.809387	181.300000
835.843811	175.300000
835.878235	184.900000
835.912659	177.100000
835.947083	178.500000
835.981506	178.900000
836.015930	175.300000
836.050354	183.600000
836.084778	185.600000
836.119202	182.600000
836.153625	192.400000
836.187988	177.900000
836.222473	179.400000
836.256897	180.100000
836.291260	179.100000
836.325684	182.200000
836.360046	179.400000
836.394470	180.300000
836.428894	186.800000
836.463318	178.300000
836.497681	183.200000
836.532104	184.900000
836.566467	182.500000
836.600891	178.600000
836.635315	185.500000
836.669678	181.200000
836.704102	184.000000
836.738525	181.800000
836.772888	176.100000
836.807251	178.200000
836.841675	184.100000
836.876038	175.800000
836.910461	178.300000
836.944763	182.100000
836.979187	177.300000
837.013611	185.000000
837.047974	177.100000
837.082336	188.100000
837.116699	182.500000
837.151062	179.800000
837.185486	176.400000
837.219849	178.200000
837.254211	183.200000
837.288574	180.400000
837.322937	176.500000
837.357300	173.200000
837.391663	189.100000
837.426086	182.400000
837.460388	182.000000
837.494751	183.800000
837.529114	179.600000
837.563477	186.200000
837.597839	180.700000
837.632141	180.400000
837.666565	179.100000
837.700928	182.400000
837.735229	180.800000
837.769592	182.900000
837.803955	182.200000
837.838257	179.200000
837.872620	177.500000
837.906982	186.600000
837.941284	179.500000
837.975647	182.100000
838.010010	185.600000
838.044312	178.600000
838.078674	179.100000
838.112976	182.200000
838.147339	180.600000
838.181702	181.400000
838.216003	185.300000
838.250366	181.800000
838.284668	182.300000
838.318970	175.400000
838.353333	178.400000
838.387634	181.300000
838.421936	180.100000
838.456299	182.700000
838.490601	183.600000
838.524902	184.000000
838.559265	183.400000
838.593567	185.400000
838.627869	176.300000
838.662170	183.000000
838.696472	175.900000
838.730774	179.200000
838.765137	183.600000
838.799377	171.700000
838.833740	181.100000
838.868042	185.000000
838.902283	174.600000
838.936646	185.300000
838.970947	180.200000
839.005188	185.000000
839.039551	176.200000
839.073792	185.500000
839.108093	179.700000
839.142395	187.600000
839.176697	174.500000
839.210937	181.700000
839.245300	187.300000
839.279541	176.000000
839.313843	180.100000
839.348145	182.200000
839.382385	184.100000
839.416687	183.600000
839.450989	180.100000
839.485229	178.900000
839.519531	178.100000
839.553833	184.300000
839.588013	180.200000
839.622314	180.600000
839.656555	182.200000
839.690857	178.900000
839.725159	177.700000
839.759460	179.100000
839.793640	178.600000
839.827942	180.600000
839.862183	179.000000
839.896423	182.200000
839.930725	191.300000
839.964966	186.700000
839.999207	185.800000
840.033508	185.800000
840.067688	179.100000
840.101990	185.300000
840.136230	180.500000
840.170471	186.300000
840.204712	178.600000
840.238953	178.300000
840.273193	180.900000
840.307434	182.900000
840.341736	178.100000
840.375916	176.000000
840.410217	179.000000
840.444397	183.800000
840.478638	182.800000
840.512878	183.500000
840.547119	181.800000
840.581360	183.300000
840.615601	187.100000
840.649780	189.500000
840.684021	179.200000
840.718262	186.600000
840.752441	186.800000
840.786682	181.100000
840.820862	182.400000
840.855103	187.400000
840.889343	180.700000
840.923584	184.600000
840.957764	182.400000
840.992004	181.400000
841.026184	191.600000
841.060425	181.300000
841.094666	177.400000
841.128845	183.300000
841.163025	181.100000
841.197266	183.100000
841.231445	179.900000
841.265686	183.500000
841.299866	177.500000
841.334045	186.100000
841.368286	178.700000
841.402405	187.200000
841.436646	182.400000
841.470825	181.200000
841.505005	179.500000
841.539185	179.100000
841.573425	178.000000
841.607544	180.400000
841.641785	180.300000
841.675964	179.300000
841.710144	181.700000
841.744324	179.600000
841.778503	179.600000
841.812683	179.200000
841.846863	185.800000
841.881042	186.700000
841.915222	178.900000
841.949402	191.800000
841.983521	176.000000
842.017700	180.200000
842.051880	180.600000
842.086060	184.200000
842.120239	182.400000
842.154419	178.400000
842.188538	181.500000
842.222717	179.400000
842.256897	187.100000
842.291016	181.000000
842.325195	182.600000
842.359375	189.100000
842.393494	185.300000
842.427673	181.500000
842.461853	182.800000
842.495911	189.200000
842.530090	182.900000
842.564209	180.700000
842.598389	183.300000
842.632568	181.000000
842.666626	183.300000
842.700806	178.800000
842.734985	179.200000
842.769043	181.500000
842.803223	180.600000
842.837402	178.600000
842.871460	179.800000
842.905640	189.100000
842.939697	178.200000
842.973877	181.700000
843.007996	186.200000
843.042175	187.400000
843.076233	179.500000
843.110413	181.700000
843.144470	188.200000
843.178589	184.200000
843.212769	181.400000
843.246826	183.500000
843.280945	180.900000
843.315125	180.300000
843.349182	179.900000
843.383301	185.800000
843.417419	191.900000
843.451538	180.500000
843.485657	179.900000
843.519714	181.100000
843.553833	182.100000
843.587952	179.600000
843.622070	178.800000
843.656128	183.600000
843.690247	179.400000
843.724304	181.000000
843.758423	183.000000
843.792542	179.000000
843.826599	180.900000
843.860718	180.000000
843.894836	176.600000
843.928894	181.100000
843.963013	180.800000
843.997070	177.900000
844.031128	176.800000
844.065247	184.800000
844.099304	183.800000
844.133362	182.200000
844.167480	183.300000
844.201599	186.100000
844.235596	182.700000
844.269714	182.600000
844.303711	182.700000
844.337830	177.400000
844.371948	182.500000
844.405945	181.500000
844.440063	177.700000
844.474121	192.400000
844.508118	179.600000
844.542236	182.300000
844.576294	179.700000
844.610352	179.100000
844.644409	181.400000
844.678406	176.000000
844.712524	184.500000
844.746582	186.100000
844.780640	178.800000
844.814636	182.400000
844.848755	188.700000
844.882751	180.600000
844.916809	182.900000
844.950867	184.200000
844.984863	186.900000
845.018921	181.400000
845.052979	178.100000
845.086975	182.700000
845.121033	177.900000
845.155090	180.000000
845.189087	185.600000
845.223145	180.700000
845.257141	182.500000
845.291199	184.600000
845.325256	185.500000
845.359253	182.300000
845.393250	193.200000
845.427307	179.200000
845.461304	182.100000
845.495361	181.800000
845.529358	188.800000
845.563354	179.700000
845.597412	179.200000
845.631409	188.700000
845.665405	186.400000
845.699463	184.500000
845.733459	179.200000
845.767456	188.200000
845.801453	181.400000
845.835449	184.300000
845.869446	184.300000
845.903503	183.700000
845.937439	179.300000
845.971497	186.200000
846.005493	177.800000
846.039429	184.400000
846.073486	191.400000
846.107483	179.800000
846.141418	181.700000
846.175476	182.100000
846.209473	186.600000
846.243408	176.900000
846.277405	182.500000
846.311401	179.300000
846.345337	182.500000
846.379395	186.000000
846.413330	180.200000
846.447327	189.100000
846.481323	179.900000
846.515259	178.800000
846.549255	181.000000
846.583252	182.300000
846.617187	180.600000
846.651184	182.100000
846.685120	181.800000
846.719055	188.600000
846.753052	184.900000
846.786987	183.200000
846.820984	177.400000
846.854980	187.800000
846.888916	180.300000
846.922852	182.100000
846.956848	186.300000
846.990723	178.700000
847.024719	182.500000
847.058716	180.300000
847.092590	186.700000
847.126587	183.000000
847.160522	180.800000
847.194458	185.400000
847.228455	178.300000
847.262390	177.800000
847.296265	180.900000
847.330261	184.500000
847.364136	178.700000
847.398132	179.300000
847.432068	182.500000
847.466003	179.800000
847.499939	180.500000
847.533875	184.300000
847.567749	180.000000
847.601746	181.800000
847.635681	183.800000
847.669556	176.500000
847.703491	185.700000
847.737427	191.000000
847.771301	176.400000
847.805237	185.000000
847.839233	181.900000
847.873108	182.300000
847.907043	180.100000
847.940918	188.400000
847.974854	182.000000
848.008789	185.200000
848.042664	181.000000
848.076538	184.400000
848.110474	182.400000
848.144348	182.700000
848.178284	176.900000
848.212219	184.600000
848.246094	179.600000
848.279968	183.800000
848.313904	183.100000
848.347778	183.600000
848.381653	178.700000
848.415588	180.300000
848.449463	180.000000
848.483337	185.000000
848.517212	187.700000
848.551086	183.200000
848.585022	177.700000
848.618835	190.900000
848.652771	178.500000
848.686646	178.000000
848.720520	187.000000
848.754395	181.400000
848.788330	183.900000
848.822144	184.500000
848.856018	179.500000
848.889954	189.100000
848.923767	179.900000
848.957642	178.400000
848.991577	183.300000
849.025391	181.400000
849.059265	181.100000
849.093079	176.900000
849.126953	179.000000
849.160828	186.000000
849.194641	182.400000
849.228577	179.800000
849.262451	181.700000
849.296265	179.200000
849.330139	180.200000
849.364014	181.900000
849.397827	184.100000
849.431702	181.900000
849.465515	186.400000
849.499329	174.900000
849.533203	179.800000
849.567078	174.100000
849.600891	184.000000
849.634766	181.000000
849.668518	184.000000
849.702393	181.500000
849.736267	177.700000
849.770020	188.500000
849.803894	184.100000
849.837769	182.200000
849.871521	181.400000
849.905396	184.400000
849.939270	179.300000
849.973022	179.900000
850.006897	183.300000
850.040710	182.800000
850.074524	185.200000
850.108337	181.400000
850.142151	187.300000
850.175964	185.800000
850.209778	181.700000
850.243530	172.700000
850.277405	185.800000
850.311218	181.400000
850.344971	180.200000
850.378845	188.100000
850.412659	179.200000
850.446411	183.200000
850.480225	182.100000
850.514038	185.300000
850.547791	185.400000
850.581665	183.000000
850.615417	179.000000
850.649231	182.200000
850.683044	179.800000
850.716858	179.700000
850.750610	181.900000
850.784424	184.100000
850.818176	178.700000
850.851929	181.700000
850.885742	179.000000
850.919495	181.500000
850.953308	186.700000
850.987122	188.100000
851.020874	177.700000
851.054626	178.700000
851.088440	183.400000
851.122192	185.700000
851.156006	181.900000
851.189697	181.900000
851.223511	178.400000
851.257263	187.300000
851.291077	183.100000
851.324829	180.300000
851.358582	179.200000
851.392334	181.500000
851.426086	180.000000
851.459900	188.800000
851.493591	182.000000
851.527344	182.000000
851.561157	181.300000
851.594849	182.600000
851.628662	181.800000
851.662415	189.500000
851.696106	183.300000
851.729858	187.200000
851.763611	177.300000
851.797363	183.700000
851.831116	178.600000
851.864868	185.500000
851.898560	186.700000
851.932312	181.000000
851.966064	183.700000
851.999817	181.200000
852.033569	181.500000
852.067261	187.400000
852.101013	179.700000
852.134766	181.100000
852.168457	175.700000
852.202209	185.000000
852.235901	179.700000
852.269592	184.300000
852.303345	188.100000
852.337036	183.600000
852.370789	183.700000
852.404541	184.600000
852.438171	180.100000
852.471924	181.800000
852.505676	177.300000
852.539307	183.600000
852.573059	181.400000
852.606812	179.900000
852.640442	180.800000
852.674194	185.600000
852.707886	189.500000
852.741577	186.500000
852.775269	179.200000
852.809021	182.100000
852.842651	184.100000
852.876404	186.600000
852.910034	183.900000
852.943787	186.000000
852.977478	183.300000
853.011108	179.200000
853.044861	180.500000
853.078552	186.400000
853.112183	183.300000
853.145874	183.000000
853.179626	176.800000
853.213257	182.400000
853.246948	179.800000
853.280640	188.500000
853.314270	181.700000
853.347961	185.800000
853.381653	184.300000
853.415283	187.000000
853.448975	180.100000
853.482605	183.600000
853.516296	182.000000
853.549988	177.100000
853.583618	184.600000
853.617310	183.300000
853.651001	182.200000
853.684631	178.700000
853.718323	179.200000
853.751953	187.400000
853.785583	175.500000
853.819275	184.900000
853.852966	183.400000
853.886536	176.500000
853.920227	177.500000
853.953918	185.400000
853.987488	181.600000
854.021179	185.800000
854.054749	188.000000
854.088440	185.500000
854.122131	178.600000
854.155701	183.400000
854.189331	178.900000
854.223022	184.500000
854.256592	183.300000
854.290283	179.300000
854.323914	183.100000
854.357483	184.200000
854.391174	183.800000
854.424744	188.100000
854.458374	182.300000
854.492065	192.500000
854.525696	180.100000
854.559265	186.600000
854.592896	189.600000
854.626465	182.100000
854.660095	182.300000
854.693787	185.700000
854.727356	180.100000
854.760986	186.100000
854.794617	184.500000
854.828186	181.600000
854.861816	184.900000
854.895447	183.400000
854.929016	183.200000
854.962585	183.800000
854.996155	187.900000
855.029785	183.800000
855.063416	181.800000
855.097046	185.900000
855.130615	177.700000
855.164185	187.500000
855.197754	183.200000
855.231384	183.200000
855.264954	181.400000
855.298523	185.200000
855.332153	182.200000
855.365723	185.400000
855.399292	181.100000
855.432922	180.300000
855.466492	182.800000
855.500061	179.300000
855.533630	179.000000
855.567200	184.100000
855.600769	187.300000
855.634338	185.600000
855.667969	182.900000
855.701477	178.600000
855.735046	180.600000
855.768616	175.200000
855.802185	183.700000
855.835754	192.600000
855.869324	178.000000
855.902893	181.300000
855.936401	187.400000
855.969971	182.800000
856.003540	179.000000
856.037109	184.300000
856.070618	181.700000
856.104187	178.400000
856.137695	181.300000
856.171265	175.400000
856.204834	183.200000
856.238403	186.200000
856.271912	180.700000
856.305481	184.700000
856.338989	178.800000
856.372559	183.700000
856.406128	184.700000
856.439636	184.100000
856.473145	182.100000
856.506653	186.200000
856.540222	181.500000
856.573792	187.200000
856.607300	184.600000
856.640808	177.600000
856.674377	183.000000
856.707825	215.200000
856.741394	186.000000
856.774902	179.600000
856.808472	177.100000
856.841980	183.300000
856.875488	186.900000
856.908936	178.000000
856.942505	181.000000
856.976013	181.900000
857.009521	179.900000
857.043030	182.400000
857.076477	180.400000
857.110046	188.600000
857.143555	182.700000
857.177063	184.800000
857.210571	181.300000
857.244080	178.500000
857.277527	184.900000
857.311035	182.500000
857.344543	185.500000
857.378052	181.300000
857.411499	185.800000
857.445068	188.300000
857.478516	182.700000
857.512024	180.100000
857.545532	180.300000
857.578979	184.000000
857.612427	182.700000
857.645874	179.500000
857.679382	183.100000
857.712891	186.900000
857.746399	181.900000
857.779846	187.300000
857.813354	185.100000
857.846741	182.200000
857.880249	180.100000
857.913757	184.000000
857.947266	182.200000
857.980652	185.900000
858.014160	181.200000
858.047546	180.600000
858.081055	180.000000
858.114563	192.500000
858.147949	177.900000
858.181458	184.300000
858.214844	181.100000
858.248352	176.800000
858.281799	185.000000
858.315308	192.400000
858.348694	184.900000
858.382141	187.900000
858.415588	185.700000
858.449036	185.500000
858.482483	184.400000
858.515930	180.400000
858.549377	182.800000
858.582825	187.700000
858.616211	184.000000
858.649658	183.700000
858.683105	178.900000
858.716553	180.100000
858.750000	177.800000
858.783386	178.100000
858.816833	178.100000
858.850281	182.900000
858.883728	183.700000
858.917114	182.500000
858.950562	188.900000
858.983948	186.600000
859.017395	186.600000
859.050781	181.200000
859.084167	179.600000
859.117615	178.300000
859.151062	184.900000
859.184448	179.400000
859.217834	182.600000
859.251282	180.900000
859.284668	179.400000
859.318054	176.100000
859.351440	181.600000
859.384888	188.000000
859.418274	177.700000
859.451721	176.400000
859.485046	183.500000
859.518494	183.800000
859.551819	179.600000
859.585266	183.700000
859.618652	186.800000
859.652039	177.800000
859.685425	178.200000
859.718811	177.900000
859.752197	174.300000
859.785583	185.300000
859.819031	187.500000
859.852356	183.000000
859.885742	179.400000
859.919067	181.900000
859.952454	179.500000
859.985901	185.100000
860.019287	181.900000
860.052612	0.000000
860.085999	0.000000
860.119324	0.000000
860.152710	0.000000
860.186096	0.000000
860.219421	0.000000
860.252808	0.000000
860.286133	0.000000
860.319519	0.000000
860.352905	0.000000
860.386292	0.000000
860.419617	0.000000
860.452942	0.000000
860.486267	0.000000
860.519653	0.000000
860.553040	0.000000
860.586365	0.000000
860.619690	0.000000
860.653076	0.000000
860.686340	0.000000
860.719727	0.000000
860.753113	0.000000
860.786377	0.000000
860.819763	0.000000
860.853027	0.000000
860.886414	0.000000
860.919739	0.000000
860.953125	0.000000
860.986389	0.000000
861.019714	0.000000
861.053040	0.000000
861.086365	0.000000
861.119690	0.000000
861.153076	0.000000
861.186340	0.000000
861.219666	0.000000
861.252930	0.000000
861.286316	0.000000
861.319641	0.000000
861.352905	0.000000
861.386230	0.000000
861.419495	0.000000
861.452820	0.000000
861.486145	0.000000
861.519470	0.000000
861.552734	0.000000
861.586060	0.000000
861.619324	0.000000
861.652649	0.000000
861.685974	0.000000
861.719238	0.000000
861.752563	0.000000
861.785828	0.000000
861.819092	0.000000
861.852417	0.000000
861.885742	0.000000
861.918945	0.000000
861.952271	0.000000
861.985535	0.000000
862.018799	0.000000
862.052124	0.000000
862.085449	0.000000
862.118652	0.000000
862.151978	0.000000
862.185181	0.000000
862.218506	0.000000
862.251770	0.000000
862.285034	0.000000
862.318298	0.000000
862.351562	0.000000
862.384827	0.000000
862.418091	0.000000
862.451355	0.000000
862.484619	0.000000
862.517883	0.000000
862.551086	0.000000
862.584351	0.000000
862.617676	0.000000
862.650940	0.000000
862.684143	0.000000
862.717407	0.000000
862.750610	0.000000
862.783875	0.000000
862.817139	0.000000
862.850342	0.000000
862.883606	0.000000
862.916870	0.000000
862.950073	0.000000
862.983337	0.000000
863.016602	0.000000
863.049805	0.000000
863.083069	0.000000
863.116211	0.000000
863.149475	0.000000
863.182739	0.000000
863.216003	0.000000
863.249146	0.000000
863.282410	0.000000
863.315613	0.000000
863.348816	0.000000
863.382080	0.000000
863.415222	0.000000
863.448486	0.000000
863.481689	0.000000
863.514893	0.000000
863.548157	0.000000
863.581360	0.000000
863.614502	0.000000
863.647766	0.000000
863.680908	0.000000
863.714172	0.000000
863.747375	0.000000
863.780579	0.000000
863.813721	0.000000
863.846985	0.000000
863.880127	0.000000
863.913330	0.000000
863.946533	0.000000
863.979675	0.000000
864.012939	0.000000
