Model Number: SPM-001-M   
Serial Number: 10090201
Firmware Version: 004.17.6
Exposure Time: 300000.000000us
Data Taken on: 28-01-2021 10:31:38.583
Wavelength	Amplitude
733.770752	0.000000
733.808716	0.000000
733.846619	0.000000
733.884583	0.000000
733.922546	0.000000
733.960449	0.000000
733.998413	0.000000
734.036377	0.000000
734.074219	0.000000
734.112183	0.000000
734.150085	0.000000
734.188049	0.000000
734.226013	0.000000
734.263916	0.000000
734.301819	0.000000
734.339783	0.000000
734.377686	0.000000
734.415588	0.000000
734.453552	0.000000
734.491455	0.000000
734.529419	0.000000
734.567322	0.000000
734.605225	0.000000
734.643127	0.000000
734.681091	0.000000
734.718994	0.000000
734.756897	0.000000
734.794800	0.000000
734.832703	0.000000
734.870667	0.000000
734.908508	0.000000
734.946472	0.000000
734.984375	0.000000
735.022278	0.000000
735.060181	0.000000
735.098083	0.000000
735.135986	0.000000
735.173889	0.000000
735.211792	0.000000
735.249695	0.000000
735.287598	0.000000
735.325439	0.000000
735.363403	0.000000
735.401306	0.000000
735.439148	0.000000
735.477051	0.000000
735.515015	0.000000
735.552856	0.000000
735.590759	0.000000
735.628662	0.000000
735.666504	0.000000
735.704407	0.000000
735.742310	0.000000
735.780212	0.000000
735.818115	0.000000
735.856018	0.000000
735.893860	0.000000
735.931763	0.000000
735.969604	0.000000
736.007507	0.000000
736.045410	0.000000
736.083252	0.000000
736.121094	0.000000
736.158997	0.000000
736.196838	0.000000
736.234741	0.000000
736.272644	0.000000
736.310486	0.000000
736.348389	0.000000
736.386230	0.000000
736.424072	0.000000
736.461975	0.000000
736.499878	0.000000
736.537720	0.000000
736.575562	0.000000
736.613403	0.000000
736.651306	0.000000
736.689148	0.000000
736.726990	0.000000
736.764893	0.000000
736.802734	0.000000
736.840576	0.000000
736.878418	0.000000
736.916321	0.000000
736.954102	0.000000
736.992004	0.000000
737.029846	0.000000
737.067688	0.000000
737.105530	0.000000
737.143372	0.000000
737.181213	0.000000
737.219116	0.000000
737.256897	0.000000
737.294739	0.000000
737.332642	0.000000
737.370422	0.000000
737.408325	0.000000
737.446167	0.000000
737.483948	0.000000
737.521790	0.000000
737.559692	0.000000
737.597473	0.000000
737.635315	0.000000
737.673157	0.000000
737.710999	0.000000
737.748840	0.000000
737.786621	0.000000
737.824463	0.000000
737.862305	0.000000
737.900085	0.000000
737.937927	0.000000
737.975769	0.000000
738.013550	0.000000
738.051392	0.000000
738.089233	0.000000
738.127014	0.000000
738.164856	0.000000
738.202698	0.000000
738.240479	0.000000
738.278320	0.000000
738.316162	0.000000
738.353943	0.000000
738.391785	0.000000
738.429565	0.000000
738.467407	0.000000
738.505188	0.000000
738.542969	0.000000
738.580811	0.000000
738.618652	0.000000
738.656372	0.000000
738.694214	0.000000
738.732056	0.000000
738.769836	0.000000
738.807617	0.000000
738.845459	0.000000
738.883240	0.000000
738.921021	0.000000
738.958862	0.000000
738.996582	0.000000
739.034424	0.000000
739.072205	0.000000
739.109985	0.000000
739.147827	0.000000
739.185547	0.000000
739.223389	0.000000
739.261169	0.000000
739.298889	0.000000
739.336731	0.000000
739.374512	0.000000
739.412292	0.000000
739.450073	0.000000
739.487854	0.000000
739.525635	0.000000
739.563416	0.000000
739.601135	0.000000
739.638977	0.000000
739.676758	0.000000
739.714478	0.000000
739.752258	0.000000
739.790100	0.000000
739.827820	0.000000
739.865601	0.000000
739.903381	0.000000
739.941101	0.000000
739.978882	184.400000
740.016724	179.300000
740.054443	184.400000
740.092224	179.600000
740.130005	178.900000
740.167725	178.800000
740.205505	179.300000
740.243225	186.100000
740.281006	181.100000
740.318787	177.400000
740.356506	187.400000
740.394287	184.100000
740.432068	178.800000
740.469727	177.800000
740.507507	184.500000
740.545288	182.400000
740.583008	183.800000
740.620789	182.500000
740.658569	176.600000
740.696228	182.100000
740.734009	183.600000
740.771790	173.800000
740.809509	185.100000
740.847229	178.200000
740.884949	178.500000
740.922729	177.800000
740.960449	179.400000
740.998169	177.700000
741.035950	179.300000
741.073669	181.400000
741.111389	181.600000
741.149170	188.600000
741.186890	186.400000
741.224609	184.800000
741.262329	181.000000
741.300110	188.200000
741.337769	177.900000
741.375549	176.200000
741.413208	181.000000
741.450989	179.100000
741.488708	178.700000
741.526367	179.000000
741.564148	183.100000
741.601868	183.200000
741.639526	180.500000
741.677307	181.900000
741.715027	182.900000
741.752686	178.200000
741.790466	184.400000
741.828186	181.900000
741.865845	177.300000
741.903564	175.800000
741.941345	180.700000
741.979004	177.700000
742.016724	183.200000
742.054382	182.800000
742.092102	185.500000
742.129822	178.000000
742.167480	180.600000
742.205200	179.700000
742.242920	182.600000
742.280640	183.800000
742.318359	179.400000
742.356079	179.800000
742.393738	184.500000
742.431396	180.000000
742.469116	185.000000
742.506775	175.800000
742.544495	183.200000
742.582214	183.000000
742.619873	183.100000
742.657593	186.400000
742.695251	185.700000
742.732971	181.200000
742.770630	183.900000
742.808289	181.800000
742.846008	182.400000
742.883728	181.400000
742.921326	181.500000
742.959045	180.000000
742.996765	181.000000
743.034424	180.900000
743.072083	179.700000
743.109802	179.600000
743.147400	178.200000
743.185120	181.200000
743.222839	181.200000
743.260437	186.100000
743.298157	183.500000
743.335754	174.400000
743.373474	180.900000
743.411133	175.900000
743.448792	181.500000
743.486450	180.700000
743.524170	177.500000
743.561768	180.400000
743.599487	186.900000
743.637146	189.200000
743.674744	181.000000
743.712463	180.400000
743.750122	182.500000
743.787720	181.100000
743.825439	180.800000
743.863037	181.100000
743.900696	180.700000
743.938416	206.900000
743.976013	182.400000
744.013672	187.900000
744.051331	184.100000
744.088928	188.200000
744.126587	186.000000
744.164307	183.500000
744.201904	178.400000
744.239563	183.700000
744.277222	184.700000
744.314819	181.200000
744.352478	185.500000
744.390137	182.900000
744.427734	182.200000
744.465393	179.900000
744.502991	178.100000
744.540649	183.300000
744.578308	181.900000
744.615906	178.300000
744.653564	173.600000
744.691223	183.300000
744.728821	176.300000
744.766418	181.800000
744.804077	181.900000
744.841675	180.600000
744.879333	177.100000
744.916992	180.200000
744.954529	179.400000
744.992187	184.100000
745.029785	178.000000
745.067444	180.000000
745.105042	179.900000
745.142639	180.900000
745.180298	187.800000
745.217896	180.400000
745.255493	178.700000
745.293152	184.800000
745.330750	185.500000
745.368347	187.000000
745.405945	183.900000
745.443604	181.400000
745.481140	183.900000
745.518799	181.400000
745.556396	183.500000
745.593994	184.000000
745.631592	181.300000
745.669189	178.400000
745.706787	182.300000
745.744385	179.100000
745.781982	184.900000
745.819580	179.800000
745.857178	181.100000
745.894775	182.300000
745.932373	184.000000
745.969971	183.000000
746.007568	176.200000
746.045166	185.700000
746.082764	186.900000
746.120300	184.600000
746.157898	184.800000
746.195557	181.400000
746.233093	180.200000
746.270691	184.100000
746.308228	183.100000
746.345825	183.500000
746.383423	183.100000
746.420959	178.000000
746.458557	180.100000
746.496155	178.500000
746.533691	182.100000
746.571289	177.400000
746.608887	182.000000
746.646423	180.800000
746.684021	184.100000
746.721619	179.500000
746.759155	182.300000
746.796753	175.400000
746.834351	176.500000
746.871826	179.100000
746.909424	186.500000
746.946960	179.700000
746.984558	181.800000
747.022156	179.400000
747.059631	188.700000
747.097229	182.500000
747.134827	180.800000
747.172363	184.600000
747.209900	184.800000
747.247498	179.300000
747.285034	185.600000
747.322571	186.200000
747.360168	181.000000
747.397644	176.000000
747.435242	183.600000
747.472778	185.300000
747.510315	181.300000
747.547913	180.100000
747.585388	185.800000
747.622925	181.900000
747.660522	178.300000
747.697998	180.300000
747.735596	180.400000
747.773132	179.700000
747.810669	182.600000
747.848206	185.600000
747.885742	178.900000
747.923279	179.000000
747.960815	183.100000
747.998352	183.600000
748.035889	184.000000
748.073425	184.700000
748.110901	180.400000
748.148437	179.700000
748.185974	181.900000
748.223511	189.000000
748.261047	183.500000
748.298584	182.900000
748.336060	180.900000
748.373596	183.800000
748.411133	207.100000
748.448608	180.100000
748.486145	183.200000
748.523682	184.400000
748.561218	187.000000
748.598755	182.800000
748.636292	182.600000
748.673706	180.500000
748.711243	187.600000
748.748718	181.400000
748.786255	180.700000
748.823792	181.600000
748.861267	178.800000
748.898804	184.900000
748.936340	182.400000
748.973816	178.600000
749.011292	187.100000
749.048828	181.700000
749.086304	183.700000
749.123840	190.500000
749.161316	176.900000
749.198792	188.800000
749.236328	186.300000
749.273743	181.300000
749.311279	181.000000
749.348816	184.300000
749.386230	182.400000
749.423767	174.900000
749.461304	183.900000
749.498718	183.400000
749.536255	187.400000
749.573730	188.500000
749.611206	186.900000
749.648682	181.000000
749.686218	183.400000
749.723633	185.300000
749.761169	181.300000
749.798645	179.300000
749.836060	180.800000
749.873596	178.400000
749.911011	184.200000
749.948547	186.700000
749.986023	182.000000
750.023437	181.200000
750.060913	177.900000
750.098450	176.400000
750.135864	180.900000
750.173340	180.900000
750.210815	186.300000
750.248291	178.100000
750.285767	182.100000
750.323242	183.800000
750.360657	185.200000
750.398132	179.200000
750.435608	183.200000
750.473022	177.700000
750.510498	180.200000
750.547974	178.000000
750.585449	182.000000
750.622925	175.000000
750.660339	191.800000
750.697815	182.100000
750.735291	180.800000
750.772644	181.700000
750.810120	185.500000
750.847595	183.500000
750.885010	178.600000
750.922485	188.100000
750.959961	182.300000
750.997375	186.400000
751.034851	185.400000
751.072266	184.700000
751.109680	178.200000
751.147156	186.900000
751.184570	185.100000
751.221985	182.100000
751.259460	176.700000
751.296875	182.400000
751.334290	181.200000
751.371765	186.300000
751.409180	186.000000
751.446594	187.100000
751.484070	183.700000
751.521423	184.000000
751.558899	182.800000
751.596375	189.400000
751.633728	187.700000
751.671204	190.800000
751.708618	179.100000
751.746033	183.800000
751.783447	177.600000
751.820801	179.000000
751.858276	184.100000
751.895691	182.500000
751.933105	179.300000
751.970520	179.000000
752.007935	179.800000
752.045349	186.600000
752.082764	180.600000
752.120178	180.100000
752.157532	180.100000
752.195007	181.000000
752.232422	182.500000
752.269775	184.300000
752.307190	183.000000
752.344543	178.000000
752.382019	180.700000
752.419434	181.400000
752.456787	183.000000
752.494202	187.700000
752.531616	183.100000
752.568970	182.900000
752.606384	183.900000
752.643799	184.100000
752.681152	187.000000
752.718567	184.400000
752.755981	177.400000
752.793335	184.200000
752.830750	177.300000
752.868164	184.300000
752.905518	178.300000
752.942932	184.700000
752.980225	178.700000
753.017639	184.500000
753.055054	185.800000
753.092407	182.700000
753.129822	185.200000
753.167175	188.300000
753.204529	181.900000
753.241943	180.000000
753.279358	177.600000
753.316650	184.400000
753.354065	184.300000
753.391479	184.900000
753.428772	187.600000
753.466187	182.500000
753.503479	180.500000
753.540894	181.000000
753.578308	177.900000
753.615601	178.000000
753.653015	182.500000
753.690369	179.600000
753.727722	181.000000
753.765076	176.500000
753.802490	177.900000
753.839783	176.300000
753.877136	180.400000
753.914551	190.200000
753.951843	179.500000
753.989258	184.300000
754.026611	182.100000
754.063904	181.900000
754.101257	180.600000
754.138611	175.500000
754.175964	182.900000
754.213318	187.800000
754.250610	176.900000
754.288025	179.500000
754.325378	179.100000
754.362671	183.900000
754.400024	182.900000
754.437378	189.400000
754.474670	187.800000
754.512085	180.100000
754.549438	183.100000
754.586731	179.900000
754.624084	181.200000
754.661438	179.600000
754.698730	189.100000
754.736084	181.300000
754.773376	181.600000
754.810730	185.200000
754.848083	182.100000
754.885315	186.800000
754.922668	178.000000
754.960022	180.100000
754.997314	186.000000
755.034668	183.400000
755.072021	184.400000
755.109253	180.900000
755.146606	186.600000
755.183960	181.200000
755.221252	188.100000
755.258545	185.600000
755.295898	187.000000
755.333191	187.000000
755.370544	183.200000
755.407776	182.900000
755.445129	183.200000
755.482422	185.600000
755.519714	180.000000
755.557068	179.500000
755.594360	176.400000
755.631653	186.000000
755.668945	188.200000
755.706299	184.400000
755.743530	190.500000
755.780884	188.200000
755.818176	186.100000
755.855408	188.500000
755.892761	184.400000
755.930054	183.200000
755.967346	185.400000
756.004639	187.000000
756.041870	183.300000
756.079224	188.100000
756.116516	181.200000
756.153748	186.200000
756.191040	190.500000
756.228394	186.100000
756.265625	180.800000
756.302917	185.800000
756.340210	183.100000
756.377441	188.100000
756.414795	189.800000
756.452087	184.600000
756.489319	180.200000
756.526611	187.700000
756.563843	186.000000
756.601135	190.400000
756.638428	192.000000
756.675659	184.400000
756.712952	187.400000
756.750244	186.400000
756.787476	186.900000
756.824768	189.100000
756.862061	185.000000
756.899292	229.400000
756.936584	189.500000
756.973816	192.100000
757.011047	195.200000
757.048340	184.100000
757.085632	185.800000
757.122864	198.100000
757.160156	183.700000
757.197327	187.200000
757.234619	190.300000
757.271912	183.600000
757.309082	190.600000
757.346375	182.500000
757.383667	189.900000
757.420837	186.400000
757.458130	188.300000
757.495422	183.600000
757.532593	189.000000
757.569885	183.000000
757.607117	184.100000
757.644348	187.200000
757.681580	196.300000
757.718811	178.900000
757.756042	187.300000
757.793335	185.900000
757.830505	189.100000
757.867798	186.500000
757.905029	185.200000
757.942200	187.000000
757.979492	186.000000
758.016724	186.900000
758.053894	186.800000
758.091187	199.700000
758.128418	187.500000
758.165588	186.800000
758.202820	196.300000
758.240112	188.400000
758.277283	195.300000
758.314514	189.000000
758.351685	186.500000
758.388916	195.600000
758.426147	191.900000
758.463379	196.500000
758.500610	190.500000
758.537842	190.300000
758.575012	193.700000
758.612244	186.600000
758.649475	197.900000
758.686646	186.600000
758.723877	194.600000
758.761108	195.100000
758.798279	190.300000
758.835510	192.800000
758.872742	195.000000
758.909851	192.100000
758.947083	191.100000
758.984253	192.900000
759.021484	193.600000
759.058716	195.100000
759.095886	193.800000
759.133057	190.900000
759.170288	193.600000
759.207458	190.900000
759.244690	198.300000
759.281860	199.400000
759.319031	193.000000
759.356262	191.300000
759.393433	191.900000
759.430603	193.200000
759.467773	192.200000
759.505005	196.000000
759.542175	197.500000
759.579346	191.900000
759.616516	193.400000
759.653687	198.100000
759.690918	193.200000
759.728027	193.900000
759.765259	194.700000
759.802429	197.900000
759.839539	196.500000
759.876770	198.400000
759.913940	202.800000
759.951111	195.200000
759.988281	196.300000
760.025452	192.500000
760.062561	192.900000
760.099792	203.200000
760.136963	198.800000
760.174072	194.300000
760.211243	193.900000
760.248413	193.600000
760.285583	194.100000
760.322754	203.200000
760.359863	202.000000
760.397034	201.300000
760.434204	196.700000
760.471375	196.300000
760.508545	195.700000
760.545715	197.200000
760.582825	194.500000
760.619995	199.600000
760.657166	193.100000
760.694275	202.100000
760.731445	197.800000
760.768555	198.100000
760.805664	201.100000
760.842834	196.400000
760.879944	200.100000
760.917114	198.500000
760.954285	198.300000
760.991394	193.400000
761.028564	202.400000
761.065674	201.100000
761.102783	197.500000
761.139954	202.500000
761.177124	201.500000
761.214172	203.500000
761.251343	200.200000
761.288452	198.900000
761.325562	202.700000
761.362732	197.100000
761.399841	201.000000
761.436951	201.900000
761.474121	199.200000
761.511169	201.400000
761.548340	205.700000
761.585449	203.500000
761.622559	204.200000
761.659668	203.100000
761.696838	205.800000
761.733887	203.500000
761.771057	201.300000
761.808167	204.000000
761.845276	206.200000
761.882385	211.500000
761.919434	204.100000
761.956604	216.600000
761.993713	201.400000
762.030762	208.200000
762.067871	203.400000
762.105042	204.800000
762.142090	209.600000
762.179199	206.200000
762.216309	208.700000
762.253418	216.500000
762.290527	211.300000
762.327637	209.300000
762.364685	201.700000
762.401794	209.000000
762.438904	207.000000
762.475952	204.400000
762.513062	201.700000
762.550110	205.200000
762.587219	213.600000
762.624329	213.700000
762.661377	208.000000
762.698486	208.900000
762.735596	207.100000
762.772644	204.200000
762.809753	202.200000
762.846863	206.700000
762.883911	211.700000
762.921021	209.900000
762.958069	207.400000
762.995117	214.200000
763.032227	215.500000
763.069336	209.200000
763.106323	206.300000
763.143433	205.500000
763.180481	211.000000
763.217590	213.000000
763.254639	211.200000
763.291687	210.800000
763.328735	216.600000
763.365845	211.300000
763.402893	211.400000
763.439941	213.500000
763.477051	215.400000
763.514038	214.800000
763.551147	211.500000
763.588196	213.900000
763.625244	212.500000
763.662292	220.300000
763.699402	221.700000
763.736389	216.200000
763.773499	224.300000
763.810486	219.100000
763.847534	214.700000
763.884644	217.100000
763.921631	214.900000
763.958679	222.100000
763.995728	217.200000
764.032776	221.900000
764.069824	215.500000
764.106873	221.300000
764.143860	225.300000
764.180969	218.500000
764.218018	226.100000
764.255005	218.100000
764.292053	220.800000
764.329102	227.700000
764.366089	228.000000
764.403137	225.600000
764.440125	220.900000
764.477173	223.000000
764.514221	225.000000
764.551208	222.300000
764.588257	221.300000
764.625305	227.000000
764.662292	232.100000
764.699341	232.300000
764.736389	226.000000
764.773376	238.700000
764.810425	230.100000
764.847473	233.900000
764.884399	233.200000
764.921448	236.800000
764.958435	236.200000
764.995483	229.600000
765.032532	241.700000
765.069458	231.100000
765.106506	231.900000
765.143555	231.400000
765.180481	235.600000
765.217529	241.200000
765.254578	230.800000
765.291504	236.400000
765.328552	234.900000
765.365540	232.500000
765.402527	242.700000
765.439575	234.200000
765.476501	231.400000
765.513550	232.700000
765.550537	238.000000
765.587463	241.300000
765.624512	232.900000
765.661499	231.600000
765.698486	242.300000
765.735474	235.300000
765.772461	237.000000
765.809448	244.100000
765.846436	240.800000
765.883423	245.300000
765.920410	240.400000
765.957397	237.200000
765.994385	242.200000
766.031311	248.100000
766.068359	242.400000
766.105286	244.200000
766.142273	248.200000
766.179260	243.300000
766.216187	240.900000
766.253174	239.000000
766.290161	243.700000
766.327148	248.800000
766.364136	246.700000
766.401123	256.100000
766.438049	243.200000
766.475037	253.700000
766.512024	250.200000
766.548950	260.400000
766.585937	256.000000
766.622864	252.800000
766.659790	252.800000
766.696777	246.500000
766.733704	255.700000
766.770691	250.500000
766.807678	258.900000
766.844604	255.000000
766.881531	256.500000
766.918518	259.400000
766.955444	258.500000
766.992432	255.600000
767.029358	257.100000
767.066284	259.500000
767.103271	258.900000
767.140198	289.800000
767.177124	268.900000
767.214050	261.100000
767.251038	262.500000
767.287964	259.800000
767.324890	260.100000
767.361816	260.800000
767.398743	267.000000
767.435730	261.400000
767.472595	264.900000
767.509583	264.700000
767.546509	258.600000
767.583374	263.300000
767.620361	258.400000
767.657288	260.800000
767.694214	263.100000
767.731140	261.100000
767.768066	264.800000
767.804993	265.400000
767.841919	260.200000
767.878845	264.000000
767.915710	270.600000
767.952698	264.200000
767.989563	268.800000
768.026489	268.600000
768.063416	264.100000
768.100281	264.500000
768.137207	273.500000
768.174133	271.100000
768.211060	272.100000
768.247986	269.300000
768.284912	268.800000
768.321777	269.200000
768.358704	268.600000
768.395630	270.000000
768.432495	266.500000
768.469421	273.000000
768.506348	275.600000
768.543152	278.600000
768.580078	278.000000
768.616943	277.800000
768.653870	278.800000
768.690796	278.400000
768.727661	277.700000
768.764587	278.300000
768.801453	276.100000
768.838318	280.100000
768.875244	282.000000
768.912109	285.700000
768.948975	278.500000
768.985901	282.900000
769.022766	280.300000
769.059631	284.800000
769.096558	282.100000
769.133362	281.800000
769.170288	283.500000
769.207214	283.400000
769.244019	286.700000
769.280945	287.600000
769.317810	292.400000
769.354675	289.800000
769.391541	295.200000
769.428406	294.200000
769.465271	301.300000
769.502136	292.600000
769.539062	294.000000
769.575867	295.400000
769.612732	295.400000
769.649597	299.000000
769.686462	301.800000
769.723328	299.200000
769.760193	297.100000
769.797058	300.900000
769.833923	303.700000
769.870728	303.100000
769.907593	305.500000
769.944519	305.000000
769.981323	307.300000
770.018188	307.900000
770.055054	307.200000
770.091858	306.000000
770.128723	314.100000
770.165588	320.700000
770.202393	308.800000
770.239258	316.700000
770.276062	317.500000
770.312927	316.500000
770.349792	322.900000
770.386597	318.400000
770.423462	326.700000
770.460327	332.100000
770.497131	320.600000
770.533997	317.600000
770.570862	330.500000
770.607605	329.200000
770.644470	328.000000
770.681335	330.700000
770.718140	329.700000
770.754944	323.900000
770.791809	324.700000
770.828613	326.500000
770.865479	326.900000
770.902222	333.500000
770.939087	331.500000
770.975952	325.800000
771.012695	330.900000
771.049561	339.400000
771.086365	333.100000
771.123169	331.000000
771.159973	334.100000
771.196838	335.300000
771.233582	339.300000
771.270447	336.500000
771.307251	342.800000
771.344055	338.300000
771.380859	340.500000
771.417664	337.800000
771.454468	343.100000
771.491272	343.100000
771.528076	345.300000
771.564880	340.500000
771.601685	347.700000
771.638428	341.300000
771.675293	346.100000
771.712097	341.000000
771.748840	355.500000
771.785645	346.400000
771.822449	352.700000
771.859253	352.400000
771.896057	349.700000
771.932861	356.900000
771.969604	354.300000
772.006409	349.000000
772.043213	359.000000
772.079956	353.300000
772.116760	353.400000
772.153503	356.000000
772.190308	364.700000
772.227112	356.600000
772.263855	353.500000
772.300659	358.200000
772.337463	362.600000
772.374207	359.100000
772.411011	358.600000
772.447754	360.700000
772.484497	368.300000
772.521301	366.100000
772.558105	363.400000
772.594849	365.300000
772.631592	367.400000
772.668396	365.500000
772.705139	370.800000
772.741882	369.300000
772.778625	375.000000
772.815430	376.800000
772.852173	373.800000
772.888916	379.000000
772.925720	379.200000
772.962463	383.400000
772.999207	376.600000
773.035950	378.700000
773.072754	380.500000
773.109436	375.700000
773.146240	378.100000
773.182922	379.000000
773.219727	382.200000
773.256470	382.600000
773.293152	376.500000
773.329956	380.000000
773.366699	383.700000
773.403381	378.900000
773.440186	384.800000
773.476929	386.300000
773.513611	382.300000
773.550354	380.600000
773.587158	380.900000
773.623840	381.800000
773.660583	389.100000
773.697327	393.400000
773.734009	388.400000
773.770813	387.100000
773.807495	388.300000
773.844238	388.400000
773.880981	400.300000
773.917664	392.900000
773.954407	397.700000
773.991150	393.200000
774.027832	401.700000
774.064575	393.400000
774.101318	401.000000
774.138000	401.700000
774.174744	396.200000
774.211487	399.000000
774.248108	391.900000
774.284851	391.900000
774.321594	400.500000
774.358276	400.700000
774.395020	407.400000
774.431702	405.800000
774.468384	402.200000
774.505127	397.600000
774.541809	405.300000
774.578491	410.400000
774.615234	415.800000
774.651917	404.800000
774.688599	407.400000
774.725342	414.400000
774.762024	415.400000
774.798706	421.100000
774.835449	419.000000
774.872070	421.400000
774.908813	420.100000
774.945496	417.800000
774.982178	423.700000
775.018860	423.600000
775.055542	426.600000
775.092224	424.600000
775.128967	431.600000
775.165588	430.600000
775.202271	428.600000
775.239014	437.200000
775.275635	436.300000
775.312317	432.000000
775.349060	433.400000
775.385681	436.800000
775.422363	431.100000
775.459045	441.300000
775.495667	442.300000
775.532410	445.800000
775.569092	448.600000
775.605713	445.600000
775.642395	443.900000
775.679016	448.100000
775.715698	451.800000
775.752380	451.900000
775.789001	450.500000
775.825684	449.000000
775.862366	448.500000
775.898987	461.100000
775.935669	455.500000
775.972351	470.700000
776.008972	465.300000
776.045654	466.900000
776.082336	463.400000
776.118958	465.300000
776.155640	470.000000
776.192322	475.600000
776.228882	479.600000
776.265564	477.700000
776.302185	474.100000
776.338867	478.300000
776.375488	469.800000
776.412109	480.600000
776.448792	483.300000
776.485413	489.300000
776.522034	482.600000
776.558716	478.100000
776.595337	480.900000
776.631958	486.800000
776.668579	488.000000
776.705261	497.500000
776.741882	488.000000
776.778503	491.000000
776.815186	494.100000
776.851746	502.500000
776.888367	497.900000
776.924988	503.700000
776.961609	498.500000
776.998291	499.300000
777.034851	498.500000
777.071472	508.200000
777.108154	503.800000
777.144714	511.500000
777.181335	511.900000
777.218018	506.200000
777.254578	513.900000
777.291199	516.500000
777.327759	519.500000
777.364380	526.100000
777.401062	527.900000
777.437622	531.800000
777.474243	520.900000
777.510864	526.700000
777.547424	524.100000
777.584045	528.300000
777.620667	529.900000
777.657227	528.900000
777.693848	531.600000
777.730469	538.200000
777.767029	536.200000
777.803650	542.200000
777.840271	536.800000
777.876831	534.700000
777.913452	541.900000
777.950012	528.900000
777.986633	530.900000
778.023193	531.700000
778.059753	530.500000
778.096375	531.700000
778.132996	543.400000
778.169556	534.800000
778.206116	533.600000
778.242737	537.700000
778.279297	543.600000
778.315857	534.400000
778.352478	540.300000
778.389038	546.800000
778.425598	544.300000
778.462219	553.900000
778.498718	548.000000
778.535339	552.400000
778.571838	554.300000
778.608459	559.100000
778.645020	551.500000
778.681580	557.400000
778.718140	558.400000
778.754761	551.000000
778.791260	554.700000
778.827881	564.900000
778.864441	563.300000
778.900940	568.800000
778.937561	565.500000
778.974121	563.300000
779.010620	555.600000
779.047241	557.300000
779.083801	565.800000
779.120300	566.800000
779.156860	572.100000
779.193359	565.800000
779.229980	572.500000
779.266541	576.600000
779.303040	581.800000
779.339600	570.000000
779.376160	559.600000
779.412659	563.400000
779.449219	563.600000
779.485779	570.200000
779.522278	566.800000
779.558838	573.100000
779.595398	573.500000
779.631897	567.300000
779.668457	563.600000
779.705017	574.600000
779.741516	569.900000
779.778076	565.100000
779.814575	568.100000
779.851074	573.500000
779.887634	570.500000
779.924133	575.800000
779.960693	566.100000
779.997253	576.700000
780.033691	585.700000
780.070251	584.000000
780.106812	588.900000
780.143250	589.300000
780.179810	587.300000
780.216370	594.100000
780.252808	595.300000
780.289368	597.600000
780.325867	595.900000
780.362366	591.000000
780.398865	603.300000
780.435364	597.600000
780.471863	604.600000
780.508423	602.500000
780.544861	605.100000
780.581421	602.900000
780.617920	593.700000
780.654419	597.800000
780.690918	600.000000
780.727417	606.800000
780.763916	603.000000
780.800415	616.200000
780.836914	601.800000
780.873352	612.500000
780.909912	609.800000
780.946411	612.800000
780.982849	620.100000
781.019348	627.100000
781.055786	624.900000
781.092346	624.800000
781.128845	633.900000
781.165283	637.600000
781.201782	644.100000
781.238281	643.800000
781.274719	649.400000
781.311218	643.700000
781.347717	652.600000
781.384155	642.200000
781.420654	643.800000
781.457092	659.100000
781.493591	648.900000
781.530090	643.400000
781.566528	645.800000
781.602966	647.100000
781.639465	651.800000
781.675903	653.200000
781.712402	659.300000
781.748901	663.300000
781.785278	655.600000
781.821777	655.400000
781.858276	657.100000
781.894714	670.200000
781.931152	662.400000
781.967651	668.100000
782.004089	663.200000
782.040527	673.500000
782.076965	674.500000
782.113403	677.100000
782.149902	680.500000
782.186340	681.200000
782.222778	691.500000
782.259277	680.300000
782.295654	683.900000
782.332092	691.100000
782.368591	689.700000
782.404968	688.200000
782.441467	692.400000
782.477905	690.200000
782.514282	691.200000
782.550781	706.000000
782.587219	704.100000
782.623596	711.700000
782.660095	710.900000
782.696472	708.900000
782.732910	713.200000
782.769348	718.300000
782.805786	732.400000
782.842224	731.900000
782.878662	732.300000
782.915039	725.300000
782.951477	725.000000
782.987915	721.600000
783.024292	734.900000
783.060730	735.700000
783.097168	721.100000
783.133545	712.800000
783.169983	707.400000
783.206421	702.700000
783.242798	700.300000
783.279236	693.500000
783.315613	688.800000
783.352051	682.600000
783.388489	673.200000
783.424866	656.900000
783.461304	657.600000
783.497681	657.900000
783.534058	650.500000
783.570496	644.200000
783.606934	636.200000
783.643250	639.000000
783.679687	642.000000
783.716125	635.400000
783.752441	630.500000
783.788879	641.400000
783.825317	643.600000
783.861633	637.600000
783.898071	635.600000
783.934448	639.900000
783.970825	639.300000
784.007263	637.600000
784.043579	637.300000
784.080017	637.400000
784.116394	627.300000
784.152710	627.300000
784.189148	626.700000
784.225525	618.500000
784.261902	620.500000
784.298279	620.000000
784.334656	627.000000
784.371033	619.200000
784.407410	621.300000
784.443787	612.500000
784.480164	615.900000
784.516541	612.800000
784.552856	623.300000
784.589233	623.000000
784.625610	622.000000
784.661987	648.200000
784.698364	648.400000
784.734741	649.500000
784.771057	651.800000
784.807434	662.400000
784.843811	674.900000
784.880127	680.400000
784.916504	704.300000
784.952881	708.600000
784.989197	711.900000
785.025574	724.000000
785.061951	732.200000
785.098267	748.700000
785.134644	750.900000
785.170959	744.300000
785.207275	746.800000
785.243652	757.700000
785.279968	750.900000
785.316345	746.700000
785.352722	749.900000
785.388977	748.000000
785.425354	733.500000
785.461731	721.600000
785.498047	728.800000
785.534363	728.600000
785.570679	733.000000
785.606995	724.100000
785.643372	727.100000
785.679687	730.500000
785.716003	724.700000
785.752380	724.600000
785.788635	737.700000
785.825012	753.200000
785.861328	759.700000
785.897644	750.100000
785.933960	767.200000
785.970337	773.300000
786.006592	788.200000
786.042908	795.000000
786.079285	802.700000
786.115540	803.100000
786.151855	796.700000
786.188171	789.900000
786.224487	800.000000
786.260803	805.700000
786.297119	804.600000
786.333435	795.300000
786.369751	783.900000
786.406006	783.600000
786.442322	781.000000
786.478638	768.300000
786.514954	778.900000
786.551270	770.500000
786.587585	773.600000
786.623840	757.300000
786.660156	756.100000
786.696472	753.800000
786.732727	753.000000
786.769043	765.200000
786.805298	755.700000
786.841614	755.900000
786.877930	763.200000
786.914124	760.100000
786.950439	776.400000
786.986755	786.400000
787.023010	800.400000
787.059326	805.200000
787.095642	809.200000
787.131836	822.500000
787.168152	821.800000
787.204468	833.300000
787.240723	848.900000
787.276978	847.000000
787.313293	843.700000
787.349548	843.600000
787.385803	836.600000
787.422058	834.600000
787.458313	835.400000
787.494629	826.900000
787.530823	827.300000
787.567139	815.900000
787.603455	810.800000
787.639648	798.800000
787.675903	804.000000
787.712219	798.400000
787.748413	793.900000
787.784729	802.000000
787.820984	797.300000
787.857178	793.500000
787.893494	791.000000
787.929749	793.200000
787.965942	803.800000
788.002258	815.700000
788.038452	827.700000
788.074707	825.600000
788.110962	825.400000
788.147217	828.600000
788.183472	842.900000
788.219727	842.400000
788.255920	858.800000
788.292175	858.700000
788.328430	854.100000
788.364624	841.500000
788.400879	847.100000
788.437134	859.100000
788.473328	855.200000
788.509583	858.000000
788.545837	859.500000
788.582031	848.500000
788.618286	855.300000
788.654480	852.000000
788.690735	863.500000
788.726990	870.100000
788.763184	866.000000
788.799377	871.500000
788.835632	869.500000
788.871826	877.600000
788.908081	882.400000
788.944336	875.800000
788.980469	883.900000
789.016724	879.100000
789.052979	884.400000
789.089111	863.800000
789.125366	873.400000
789.161621	865.600000
789.197754	876.200000
789.234009	875.800000
789.270142	867.600000
789.306396	862.700000
789.342590	857.000000
789.378784	847.300000
789.414978	850.200000
789.451233	857.500000
789.487366	861.700000
789.523621	868.200000
789.559814	858.700000
789.595947	856.800000
789.632202	864.200000
789.668335	869.700000
789.704529	890.000000
789.740784	902.400000
789.776917	894.800000
789.813110	889.900000
789.849304	901.300000
789.885498	912.600000
789.921692	921.500000
789.957886	927.800000
789.994019	934.500000
790.030212	932.700000
790.066406	929.500000
790.102539	931.900000
790.138733	937.800000
790.174927	935.500000
790.211060	949.400000
790.247253	942.500000
790.283386	935.000000
790.319580	922.400000
790.355774	910.700000
790.391907	911.400000
790.428101	925.700000
790.464294	920.900000
790.500427	912.400000
790.536621	893.400000
790.572754	889.500000
790.608887	891.000000
790.645081	894.100000
790.681274	907.400000
790.717346	906.600000
790.753540	887.400000
790.789734	874.800000
790.825867	868.100000
790.862000	877.300000
790.898132	887.900000
790.934265	885.400000
790.970459	884.200000
791.006592	880.700000
791.042725	874.800000
791.078918	868.000000
791.114990	872.500000
791.151184	887.100000
791.187317	895.700000
791.223389	888.000000
791.259583	877.500000
791.295715	886.700000
791.331848	887.300000
791.367981	897.900000
791.404114	899.000000
791.440247	898.900000
791.476379	893.100000
791.512451	873.900000
791.548584	865.100000
791.584778	865.800000
791.620850	883.800000
791.656982	891.100000
791.693115	876.600000
791.729187	876.000000
791.765381	869.100000
791.801514	874.000000
791.837585	882.100000
791.873718	898.300000
791.909851	900.500000
791.945923	903.600000
791.982056	873.200000
792.018188	876.100000
792.054260	872.200000
792.090393	883.300000
792.126465	883.200000
792.162598	888.700000
792.198669	876.000000
792.234741	859.700000
792.270874	846.100000
792.307007	846.700000
792.343079	852.500000
792.379150	862.700000
792.415283	850.800000
792.451355	847.500000
792.487488	828.200000
792.523560	828.100000
792.559631	805.300000
792.595764	761.400000
792.631836	734.600000
792.667908	734.200000
792.703979	740.900000
792.740051	778.900000
792.776184	806.100000
792.812256	806.600000
792.848328	825.800000
792.884399	832.100000
792.920471	832.100000
792.956543	829.200000
792.992615	827.300000
793.028748	821.800000
793.064758	840.300000
793.100830	857.700000
793.136963	870.800000
793.172974	865.800000
793.209045	853.000000
793.245178	856.500000
793.281189	852.000000
793.317261	861.000000
793.353271	865.700000
793.389404	873.800000
793.425476	857.700000
793.461487	845.400000
793.497559	840.700000
793.533630	847.500000
793.569641	846.100000
793.605713	851.300000
793.641785	852.200000
793.677795	860.800000
793.713867	855.400000
793.749878	854.100000
793.785950	873.200000
793.822021	883.000000
793.858032	868.200000
793.894104	876.100000
793.930176	876.100000
793.966187	873.300000
794.002258	866.800000
794.038269	876.800000
794.074280	875.500000
794.110352	898.200000
794.146423	880.100000
794.182373	870.000000
794.218445	866.700000
794.254517	861.100000
794.290466	848.300000
794.326538	860.400000
794.362549	857.300000
794.398560	852.600000
794.434631	853.000000
794.470581	829.300000
794.506653	829.800000
794.542664	833.000000
794.578674	837.800000
794.614685	843.800000
794.650757	843.100000
794.686707	845.900000
794.722778	838.700000
794.758789	851.800000
794.794739	868.200000
794.830811	884.900000
794.866821	901.200000
794.902771	896.700000
794.938843	884.600000
794.974792	888.100000
795.010803	888.400000
795.046814	893.800000
795.082825	886.100000
795.118835	888.100000
795.154846	869.400000
795.190796	874.300000
795.226807	854.000000
795.262817	861.100000
795.298767	858.200000
795.334778	874.600000
795.370850	866.000000
795.406799	857.400000
795.442810	842.200000
795.478821	846.300000
795.514709	851.200000
795.550720	878.700000
795.586670	857.700000
795.622681	864.100000
795.658691	862.600000
795.694641	863.200000
795.730652	854.300000
795.766663	867.600000
795.802551	868.600000
795.838562	879.600000
795.874573	870.400000
795.910522	862.000000
795.946472	858.900000
795.982483	868.200000
796.018433	864.700000
796.054382	869.100000
796.090393	867.000000
796.126282	856.300000
796.162292	835.100000
796.198242	839.600000
796.234192	839.900000
796.270203	838.100000
796.306091	852.400000
796.342041	859.000000
796.378052	840.800000
796.413940	842.600000
796.449951	845.300000
796.485901	848.300000
796.521790	853.500000
796.557800	872.600000
796.593689	873.400000
796.629639	860.800000
796.665649	850.700000
796.701599	851.800000
796.737488	849.900000
796.773437	860.200000
796.809387	866.100000
796.845337	865.100000
796.881287	848.100000
796.917175	837.600000
796.953125	835.000000
796.989075	849.600000
797.024963	854.600000
797.060913	849.800000
797.096863	847.400000
797.132751	837.900000
797.168701	822.600000
797.204590	824.500000
797.240540	834.900000
797.276489	846.500000
797.312439	847.500000
797.348328	838.600000
797.384277	828.100000
797.420166	818.500000
797.456055	820.200000
797.492004	821.900000
797.527893	828.500000
797.563843	834.300000
797.599731	827.500000
797.635620	819.200000
797.671570	821.600000
797.707520	827.900000
797.743347	839.100000
797.779297	837.600000
797.815125	831.300000
797.851074	816.800000
797.887024	811.300000
797.922913	807.500000
797.958801	813.300000
797.994690	809.900000
798.030579	822.700000
798.066467	812.700000
798.102356	800.900000
798.138245	799.400000
798.174133	805.900000
798.210083	810.900000
798.245911	820.400000
798.281799	822.600000
798.317749	810.500000
798.353577	809.400000
798.389465	802.400000
798.425293	806.200000
798.461243	802.900000
798.497131	809.500000
798.532959	807.000000
798.568848	802.400000
798.604736	795.400000
798.640564	782.500000
798.676453	781.300000
798.712402	786.900000
798.748230	788.300000
798.784119	793.300000
798.820007	792.200000
798.855835	788.400000
798.891724	784.400000
798.927551	777.000000
798.963379	776.600000
798.999268	781.900000
799.035095	776.300000
799.070984	766.100000
799.106873	758.700000
799.142700	767.500000
799.178528	760.600000
799.214417	767.400000
799.250244	777.700000
799.286133	769.200000
799.321960	764.800000
799.357788	758.900000
799.393677	761.100000
799.429504	765.800000
799.465332	765.700000
799.501221	765.700000
799.537048	769.800000
799.572876	758.900000
799.608704	764.000000
799.644531	773.700000
799.680359	773.900000
799.716248	781.500000
799.752014	783.300000
799.787903	776.300000
799.823730	770.500000
799.859558	764.900000
799.895386	770.000000
799.931213	769.800000
799.967041	767.700000
800.002869	766.400000
800.038696	767.900000
800.074463	753.400000
800.110352	764.000000
800.146179	754.000000
800.181946	761.200000
800.217773	760.400000
800.253540	760.200000
800.289429	746.300000
800.325256	741.600000
800.361023	738.800000
800.396851	752.100000
800.432678	754.300000
800.468445	752.300000
800.504272	748.000000
800.540100	741.200000
800.575867	738.200000
800.611694	739.100000
800.647461	735.300000
800.683289	739.400000
800.719116	737.700000
800.754883	741.400000
800.790649	728.500000
800.826477	730.100000
800.862244	747.100000
800.898071	735.700000
800.933838	738.400000
800.969604	734.500000
801.005432	727.300000
801.041199	731.500000
801.076965	727.300000
801.112793	717.300000
801.148560	715.100000
801.184326	719.600000
801.220154	721.100000
801.255859	714.100000
801.291687	708.600000
801.327454	704.500000
801.363281	711.400000
801.398987	707.600000
801.434814	707.300000
801.470520	707.300000
801.506287	698.800000
801.542114	688.600000
801.577820	692.800000
801.613647	691.900000
801.649414	692.900000
801.685120	690.500000
801.720886	695.900000
801.756714	684.400000
801.792419	687.000000
801.828186	681.200000
801.863892	687.400000
801.899719	681.800000
801.935486	680.500000
801.971252	686.200000
802.006958	683.600000
802.042725	676.100000
802.078430	676.000000
802.114197	671.600000
802.149963	688.000000
802.185669	668.300000
802.221436	668.000000
802.257202	668.200000
802.292908	668.300000
802.328674	679.100000
802.364441	681.900000
802.400146	677.200000
802.435913	673.200000
802.471558	669.400000
802.507324	666.600000
802.543091	663.900000
802.578796	675.400000
802.614502	673.500000
802.650269	677.500000
802.685974	663.300000
802.721741	662.800000
802.757446	666.200000
802.793152	672.300000
802.828918	676.800000
802.864624	672.800000
802.900330	670.500000
802.936035	668.200000
802.971802	665.500000
803.007446	662.200000
803.043213	654.200000
803.078857	661.700000
803.114624	653.200000
803.150330	653.800000
803.185974	647.800000
803.221741	649.300000
803.257446	658.700000
803.293152	660.000000
803.328857	651.600000
803.364563	649.700000
803.400208	643.200000
803.435974	650.800000
803.471680	642.500000
803.507324	636.800000
803.543030	652.600000
803.578735	649.000000
803.614441	644.500000
803.650146	651.100000
803.685791	644.100000
803.721497	639.900000
803.757202	637.300000
803.792847	641.200000
803.828552	632.900000
803.864258	637.100000
803.899902	630.200000
803.935608	609.700000
803.971313	618.000000
804.006958	620.100000
804.042664	622.900000
804.078308	629.800000
804.113953	618.200000
804.149658	619.600000
804.185364	611.000000
804.221008	628.300000
804.256714	611.400000
804.292297	611.500000
804.328003	607.800000
804.363708	607.900000
804.399292	608.700000
804.434998	604.500000
804.470703	595.000000
804.506287	607.700000
804.541992	600.300000
804.577637	602.000000
804.613281	588.300000
804.648926	586.300000
804.684570	594.100000
804.720215	584.300000
804.755920	585.400000
804.791565	586.100000
804.827209	591.600000
804.862854	581.100000
804.898437	574.400000
804.934143	582.900000
804.969788	579.100000
805.005371	581.900000
805.041077	582.000000
805.076721	582.600000
805.112305	574.400000
805.147949	565.300000
805.183655	563.700000
805.219238	574.100000
805.254883	568.900000
805.290466	569.600000
805.326111	563.900000
805.361755	559.000000
805.397400	562.600000
805.432983	563.000000
805.468628	560.900000
805.504211	566.100000
805.539856	568.200000
805.575500	569.300000
805.611084	560.700000
805.646729	546.700000
805.682373	555.600000
805.717957	568.100000
805.753601	569.100000
805.789246	555.300000
805.824768	559.100000
805.860413	561.100000
805.895996	551.600000
805.931641	556.400000
805.967224	558.400000
806.002869	555.900000
806.038452	558.300000
806.074036	562.400000
806.109619	548.400000
806.145264	540.200000
806.180847	542.700000
806.216431	543.300000
806.252014	545.600000
806.287659	547.700000
806.323181	554.700000
806.358826	550.300000
806.394409	532.100000
806.429993	535.300000
806.465576	546.600000
806.501160	541.200000
806.536743	532.500000
806.572327	536.400000
806.607910	536.700000
806.643494	532.400000
806.679077	526.400000
806.714661	526.500000
806.750244	530.000000
806.785828	526.200000
806.821350	525.800000
806.856934	528.500000
806.892517	520.900000
806.928101	520.800000
806.963684	518.600000
806.999268	526.300000
807.034790	513.500000
807.070374	514.800000
807.105896	508.500000
807.141479	507.500000
807.177063	511.100000
807.212585	508.800000
807.248169	507.500000
807.283752	511.300000
807.319275	504.000000
807.354858	505.700000
807.390381	500.600000
807.425903	501.300000
807.461487	496.800000
807.497070	489.200000
807.532593	493.000000
807.568115	493.900000
807.603699	487.700000
807.639221	488.100000
807.674744	494.500000
807.710266	494.400000
807.745850	495.500000
807.781372	487.100000
807.816895	484.200000
807.852417	489.700000
807.888000	485.500000
807.923523	481.900000
807.959045	488.000000
807.994629	476.000000
808.030090	480.000000
808.065613	485.700000
808.101135	486.900000
808.136658	481.000000
808.172241	476.000000
808.207764	480.400000
808.243225	477.300000
808.278809	473.100000
808.314270	477.200000
808.349792	470.300000
808.385315	468.200000
808.420837	472.200000
808.456360	474.100000
808.491882	473.900000
808.527344	471.900000
808.562866	478.400000
808.598389	468.900000
808.633850	469.700000
808.669434	463.000000
808.704895	468.300000
808.740417	472.100000
808.775940	470.500000
808.811462	464.900000
808.846924	462.000000
808.882385	460.900000
808.917847	459.000000
808.953369	457.500000
808.988892	459.400000
809.024353	462.500000
809.059875	461.600000
809.095398	457.000000
809.130798	448.000000
809.166321	449.300000
809.201843	448.600000
809.237305	450.100000
809.272766	454.400000
809.308228	442.100000
809.343750	445.900000
809.379211	445.100000
809.414734	443.900000
809.450134	450.800000
809.485657	440.400000
809.521118	445.400000
809.556580	439.800000
809.592102	438.400000
809.627502	437.700000
809.663025	436.000000
809.698486	433.100000
809.733887	428.800000
809.769409	432.900000
809.804871	423.500000
809.840271	423.300000
809.875793	428.800000
809.911194	430.300000
809.946655	423.500000
809.982178	422.900000
810.017639	426.400000
810.053040	423.600000
810.088501	420.500000
810.123901	420.000000
810.159424	415.700000
810.194885	411.100000
810.230286	413.500000
810.265747	412.200000
810.301208	408.300000
810.336609	409.000000
810.372070	404.300000
810.407532	407.400000
810.442932	408.600000
810.478394	409.400000
810.513794	405.700000
810.549255	401.000000
810.584717	401.300000
810.620117	397.000000
810.655518	401.300000
810.690979	396.500000
810.726379	397.500000
810.761841	389.800000
810.797302	391.100000
810.832642	388.100000
810.868103	399.600000
810.903564	390.200000
810.938904	392.400000
810.974365	382.300000
811.009827	384.300000
811.045166	379.700000
811.080627	375.100000
811.115967	377.500000
811.151428	382.800000
811.186829	379.200000
811.222229	379.000000
811.257629	373.200000
811.293091	380.000000
811.328430	384.500000
811.363892	378.300000
811.399292	380.300000
811.434631	375.900000
811.470093	379.100000
811.505493	373.200000
811.540833	371.100000
811.576294	373.700000
811.611694	373.900000
811.647034	368.500000
811.682434	370.000000
811.717773	372.300000
811.753235	374.200000
811.788635	365.300000
811.823975	367.000000
811.859375	371.600000
811.894775	362.800000
811.930115	362.900000
811.965515	362.700000
812.000916	363.200000
812.036255	364.500000
812.071655	366.400000
812.106995	359.000000
812.142395	361.300000
812.177795	368.000000
812.213196	360.400000
812.248474	362.000000
812.283875	354.400000
812.319214	356.300000
812.354614	355.100000
812.390015	353.000000
812.425293	352.700000
812.460693	353.200000
812.496094	348.500000
812.531433	345.500000
812.566772	343.200000
812.602173	347.500000
812.637451	346.800000
812.672852	343.600000
812.708191	344.200000
812.743530	336.700000
812.778931	334.300000
812.814270	334.900000
812.849609	340.500000
812.884949	338.400000
812.920227	333.700000
812.955627	342.000000
812.990967	336.300000
813.026306	330.500000
813.061646	324.600000
813.096985	322.900000
813.132324	321.100000
813.167664	323.800000
813.203003	328.700000
813.238281	317.100000
813.273682	318.100000
813.308960	316.300000
813.344299	317.700000
813.379639	320.100000
813.414978	317.700000
813.450256	315.400000
813.485596	318.300000
813.520874	310.100000
813.556213	311.900000
813.591614	315.800000
813.626831	311.600000
813.662170	313.600000
813.697510	318.400000
813.732788	306.100000
813.768127	311.500000
813.803467	309.300000
813.838745	308.000000
813.874084	307.800000
813.909363	307.500000
813.944641	307.300000
813.979980	301.300000
814.015320	304.100000
814.050598	304.200000
814.085876	303.400000
814.121155	301.100000
814.156494	300.400000
814.191772	301.400000
814.227051	296.400000
814.262390	298.500000
814.297668	298.700000
814.332947	299.300000
814.368225	292.400000
814.403564	292.900000
814.438782	292.600000
814.474121	295.000000
814.509338	292.600000
814.544617	295.000000
814.579956	288.700000
814.615173	299.800000
814.650513	294.200000
814.685791	288.600000
814.721008	290.800000
814.756348	289.600000
814.791626	287.200000
814.826843	289.300000
814.862122	286.300000
814.897400	285.400000
814.932678	287.000000
814.967957	284.300000
815.003235	283.300000
815.038452	282.600000
815.073730	280.900000
815.108948	286.800000
815.144226	285.900000
815.179504	286.300000
815.214722	277.000000
815.250000	274.100000
815.285278	280.400000
815.320496	275.300000
815.355774	278.200000
815.391052	280.100000
815.426270	278.800000
815.461487	276.200000
815.496765	272.100000
815.531982	268.200000
815.567261	273.500000
815.602539	277.100000
815.637695	273.500000
815.672974	276.200000
815.708191	276.500000
815.743408	277.600000
815.778687	272.900000
815.813904	275.100000
815.849121	264.800000
815.884399	265.200000
815.919556	265.600000
815.954834	267.700000
815.990051	268.300000
816.025269	268.900000
816.060486	263.000000
816.095703	261.400000
816.130920	264.100000
816.166199	259.100000
816.201416	263.300000
816.236572	265.700000
816.271851	259.800000
816.307007	262.400000
816.342224	254.900000
816.377441	257.800000
816.412659	253.700000
816.447876	259.900000
816.483093	255.500000
816.518250	255.800000
816.553467	252.900000
816.588745	257.200000
816.623901	250.700000
816.659119	248.400000
816.694275	252.000000
816.729492	247.900000
816.764709	274.700000
816.799927	245.600000
816.835083	249.200000
816.870300	243.400000
816.905457	246.400000
816.940674	245.000000
816.975830	242.400000
817.010986	243.200000
817.046204	242.700000
817.081421	239.000000
817.116577	239.400000
817.151733	244.700000
817.186951	242.600000
817.222107	242.100000
817.257324	242.500000
817.292419	241.500000
817.327637	234.800000
817.362854	239.500000
817.398010	233.400000
817.433167	237.000000
817.468323	235.700000
817.503479	237.100000
817.538635	244.300000
817.573853	237.600000
817.608948	234.400000
817.644165	233.200000
817.679321	230.800000
817.714478	230.300000
817.749634	232.900000
817.784790	239.600000
817.819946	235.500000
817.855103	226.700000
817.890198	231.300000
817.925415	226.300000
817.960571	231.000000
817.995667	231.400000
818.030823	230.400000
818.066040	226.500000
818.101135	229.700000
818.136292	227.300000
818.171448	223.800000
818.206543	226.200000
818.241699	227.500000
818.276855	229.500000
818.311951	224.600000
818.347107	221.600000
818.382263	228.700000
818.417358	228.600000
818.452515	229.500000
818.487610	227.900000
818.522766	223.400000
818.557922	227.400000
818.593018	224.400000
818.628113	222.600000
818.663269	219.300000
818.698364	221.300000
818.733521	220.500000
818.768677	219.900000
818.803711	218.000000
818.838867	216.200000
818.874023	218.500000
818.909058	215.700000
818.944214	214.400000
818.979370	217.100000
819.014404	217.400000
819.049561	212.700000
819.084595	216.900000
819.119751	211.000000
819.154846	217.300000
819.189941	213.500000
819.225037	209.900000
819.260193	208.000000
819.295227	207.500000
819.330322	205.100000
819.365479	205.000000
819.400513	239.100000
819.435608	204.400000
819.470764	203.400000
819.505798	205.400000
819.540894	208.200000
819.575989	205.900000
819.611084	209.100000
819.646179	212.200000
819.681213	208.200000
819.716309	205.400000
819.751404	204.300000
819.786438	210.100000
819.821533	201.100000
819.856628	205.400000
819.891663	207.500000
819.926758	213.300000
819.961853	208.600000
819.996887	202.000000
820.031982	204.300000
820.067017	202.400000
820.102112	238.600000
820.137207	201.000000
820.172302	211.300000
820.207275	198.800000
820.242371	198.900000
820.277405	198.700000
820.312500	201.900000
820.347534	200.200000
820.382568	204.800000
820.417664	199.200000
820.452759	198.400000
820.487732	197.200000
820.522827	199.600000
820.557861	194.200000
820.592896	197.500000
820.627930	197.900000
820.662964	196.000000
820.698059	197.800000
820.733093	196.400000
820.768127	199.000000
820.803162	197.400000
820.838196	194.100000
820.873230	196.100000
820.908264	198.000000
820.943298	194.100000
820.978333	198.400000
821.013367	196.600000
821.048401	198.800000
821.083435	198.300000
821.118469	190.200000
821.153503	199.500000
821.188477	196.700000
821.223511	192.200000
821.258484	193.800000
821.293579	194.700000
821.328613	190.100000
821.363647	193.600000
821.398621	190.300000
821.433655	192.900000
821.468628	202.800000
821.503662	192.500000
821.538696	196.300000
821.573669	190.000000
821.608704	196.300000
821.643677	192.600000
821.678650	195.000000
821.713684	198.000000
821.748718	193.400000
821.783691	193.100000
821.818726	193.400000
821.853638	194.500000
821.888672	192.200000
821.923706	192.300000
821.958618	191.400000
821.993652	190.100000
822.028687	197.100000
822.063599	197.000000
822.098633	193.800000
822.133667	187.200000
822.168579	192.700000
822.203613	191.800000
822.238586	189.000000
822.273560	192.400000
822.308533	189.300000
822.343567	189.500000
822.378479	193.000000
822.413452	190.200000
822.448425	187.500000
822.483398	194.400000
822.518372	194.000000
822.553345	188.600000
822.588318	196.600000
822.623291	189.400000
822.658203	188.100000
822.693237	190.700000
822.728210	186.600000
822.763123	190.400000
822.798096	187.400000
822.833069	189.300000
822.867981	189.000000
822.902954	191.400000
822.937927	192.000000
822.972900	195.900000
823.007874	185.000000
823.042725	192.800000
823.077698	197.600000
823.112671	187.800000
823.147583	189.500000
823.182556	192.400000
823.217529	193.000000
823.252441	188.300000
823.287415	197.000000
823.322388	193.900000
823.357239	190.200000
823.392212	194.200000
823.427185	195.000000
823.462097	187.000000
823.497009	190.600000
823.531982	188.000000
823.566895	188.800000
823.601807	187.300000
823.636719	186.900000
823.671631	191.500000
823.706604	187.100000
823.741455	191.400000
823.776428	185.000000
823.811340	190.800000
823.846252	194.400000
823.881165	195.900000
823.916138	189.900000
823.950989	195.500000
823.985901	185.300000
824.020813	188.600000
824.055725	187.200000
824.090637	183.800000
824.125610	191.800000
824.160461	189.900000
824.195374	188.900000
824.230225	191.000000
824.265198	183.600000
824.300110	186.400000
824.334961	194.000000
824.369873	182.000000
824.404785	189.600000
824.439636	190.600000
824.474548	183.400000
824.509460	181.500000
824.544312	191.900000
824.579224	188.500000
824.614075	191.300000
824.648987	186.100000
824.683899	188.800000
824.718811	185.900000
824.753662	191.400000
824.788574	192.300000
824.823364	188.200000
824.858276	184.300000
824.893188	190.100000
824.928040	190.900000
824.962952	189.200000
824.997803	190.400000
825.032654	188.000000
825.067566	188.900000
825.102417	185.000000
825.137268	185.800000
825.172119	185.500000
825.206970	184.600000
825.241882	186.600000
825.276733	182.500000
825.311646	184.900000
825.346436	182.000000
825.381348	183.300000
825.416138	184.200000
825.450989	182.900000
825.485901	178.200000
825.520691	180.500000
825.555542	181.500000
825.590454	183.500000
825.625244	179.000000
825.660095	188.700000
825.695007	185.800000
825.729797	183.900000
825.764648	180.500000
825.799438	183.800000
825.834290	184.700000
825.869202	179.800000
825.903992	183.800000
825.938843	182.100000
825.973694	180.200000
826.008484	191.200000
826.043335	179.200000
826.078186	177.300000
826.112976	186.500000
826.147827	186.500000
826.182678	189.600000
826.217468	177.200000
826.252319	187.000000
826.287109	179.900000
826.321899	186.500000
826.356750	180.700000
826.391541	178.600000
826.426392	184.900000
826.461182	183.000000
826.495972	177.900000
826.530823	175.600000
826.565613	183.000000
826.600403	179.100000
826.635254	183.300000
826.670044	176.800000
826.704834	176.800000
826.739685	178.800000
826.774475	183.300000
826.809265	181.500000
826.844055	179.200000
826.878906	186.200000
826.913635	181.500000
826.948425	181.300000
826.983215	182.100000
827.018005	184.800000
827.052856	179.800000
827.087585	183.200000
827.122375	175.400000
827.157227	179.000000
827.191956	190.300000
827.226746	177.500000
827.261536	182.600000
827.296265	177.800000
827.331116	178.400000
827.365906	183.600000
827.400635	177.400000
827.435425	175.900000
827.470215	184.500000
827.504944	179.000000
827.539734	182.800000
827.574463	180.200000
827.609253	187.500000
827.644043	180.900000
827.678772	183.000000
827.713562	181.300000
827.748352	180.100000
827.783081	177.700000
827.817871	182.700000
827.852600	178.100000
827.887329	181.800000
827.922119	174.800000
827.956848	183.700000
827.991638	190.100000
828.026367	183.100000
828.061157	181.800000
828.095886	181.800000
828.130615	193.500000
828.165344	176.000000
828.200073	180.400000
828.234863	180.900000
828.269592	180.200000
828.304321	184.700000
828.339111	181.700000
828.373779	179.600000
828.408569	182.400000
828.443298	183.600000
828.477966	179.900000
828.512756	182.400000
828.547424	177.900000
828.582214	180.100000
828.616943	179.500000
828.651672	180.400000
828.686340	183.100000
828.721130	178.700000
828.755798	180.800000
828.790527	181.100000
828.825256	179.700000
828.859924	181.600000
828.894714	184.600000
828.929443	187.100000
828.964111	179.300000
828.998840	184.200000
829.033569	178.900000
829.068237	180.900000
829.102966	178.700000
829.137634	180.600000
829.172363	182.000000
829.207092	181.700000
829.241821	177.900000
829.276489	177.100000
829.311157	181.800000
829.345825	180.100000
829.380554	184.400000
829.415283	177.200000
829.449951	177.000000
829.484619	186.400000
829.519348	185.700000
829.554016	182.000000
829.588745	180.500000
829.623413	177.100000
829.658081	188.400000
829.692749	177.600000
829.727417	184.000000
829.762146	181.400000
829.796814	180.200000
829.831482	180.700000
829.866150	181.700000
829.900879	179.900000
829.935486	181.700000
829.970154	180.400000
830.004883	190.200000
830.039490	181.400000
830.074219	178.700000
830.108887	181.600000
830.143494	180.200000
830.178223	176.300000
830.212891	178.200000
830.247498	180.100000
830.282166	187.500000
830.316772	184.700000
830.351501	179.800000
830.386169	180.000000
830.420776	179.900000
830.455444	180.800000
830.490112	179.700000
830.524719	175.500000
830.559387	183.300000
830.594055	181.700000
830.628662	181.900000
830.663330	181.300000
830.697998	187.600000
830.732605	180.700000
830.767273	181.800000
830.801941	181.300000
830.836487	188.700000
830.871155	181.200000
830.905762	182.500000
830.940430	176.300000
830.975098	178.800000
831.009644	182.000000
831.044312	187.100000
831.078979	182.700000
831.113525	176.200000
831.148193	181.600000
831.182861	180.200000
831.217407	183.900000
831.252075	191.800000
831.286621	179.900000
831.321289	178.400000
831.355896	182.300000
831.390564	187.300000
831.425110	183.600000
831.459778	186.800000
831.494324	190.100000
831.528931	182.600000
831.563599	186.200000
831.598145	177.000000
831.632751	180.900000
831.667419	180.000000
831.701965	182.300000
831.736572	181.900000
831.771179	178.000000
831.805786	178.000000
831.840393	187.000000
831.874939	175.900000
831.909546	184.000000
831.944153	175.500000
831.978760	180.900000
832.013306	178.400000
832.047913	184.500000
832.082458	187.700000
832.117065	179.400000
832.151672	187.500000
832.186218	181.900000
832.220825	181.400000
832.255432	174.600000
832.289978	178.200000
832.324585	181.700000
832.359192	182.300000
832.393677	180.200000
832.428284	181.400000
832.462830	180.100000
832.497437	179.500000
832.531982	184.200000
832.566589	178.900000
832.601135	182.300000
832.635681	175.100000
832.670227	181.600000
832.704773	187.200000
832.739380	182.300000
832.773926	181.400000
832.808472	179.300000
832.843079	181.800000
832.877563	183.000000
832.912170	181.000000
832.946716	176.100000
832.981201	185.000000
833.015808	185.100000
833.050293	181.900000
833.084839	178.200000
833.119446	180.700000
833.153992	185.300000
833.188477	180.900000
833.223022	178.000000
833.257568	182.800000
833.292114	185.800000
833.326660	188.800000
833.361145	179.800000
833.395691	175.500000
833.430237	181.500000
833.464783	183.000000
833.499329	177.400000
833.533875	179.500000
833.568359	182.500000
833.602905	184.300000
833.637390	185.900000
833.671875	179.100000
833.706421	179.900000
833.740906	178.300000
833.775452	175.400000
833.809998	179.500000
833.844482	186.000000
833.879028	180.200000
833.913513	178.900000
833.947998	184.100000
833.982544	176.900000
834.017090	178.100000
834.051514	173.400000
834.086060	183.400000
834.120544	179.800000
834.155029	183.700000
834.189575	180.300000
834.223999	182.500000
834.258545	181.900000
834.293030	182.500000
834.327515	180.700000
834.362000	179.900000
834.396545	183.700000
834.430969	179.300000
834.465454	184.000000
834.500000	176.700000
834.534424	182.800000
834.568970	175.700000
834.603455	175.700000
834.637878	179.500000
834.672363	181.300000
834.706909	182.200000
834.741333	181.700000
834.775818	175.600000
834.810242	177.900000
834.844727	181.600000
834.879211	180.200000
834.913635	181.400000
834.948181	181.700000
834.982666	181.300000
835.017090	180.200000
835.051575	180.900000
835.086060	180.100000
835.120483	183.100000
835.154907	182.600000
835.189331	181.300000
835.223816	184.000000
835.258301	177.200000
835.292786	178.400000
835.327209	183.700000
835.361694	179.800000
835.396057	178.800000
835.430542	183.400000
835.465027	180.800000
835.499390	179.200000
835.533875	206.700000
835.568359	180.000000
835.602722	176.500000
835.637207	181.700000
835.671692	176.700000
835.706055	197.000000
835.740540	181.900000
835.774902	181.600000
835.809387	181.000000
835.843811	177.700000
835.878235	185.200000
835.912659	178.300000
835.947083	179.100000
835.981506	181.700000
836.015930	176.000000
836.050354	184.700000
836.084778	187.400000
836.119202	185.000000
836.153625	192.600000
836.187988	178.100000
836.222473	180.600000
836.256897	183.400000
836.291260	180.900000
836.325684	182.800000
836.360046	179.500000
836.394470	180.100000
836.428894	185.600000
836.463318	178.400000
836.497681	183.400000
836.532104	185.100000
836.566467	181.900000
836.600891	180.500000
836.635315	185.300000
836.669678	182.700000
836.704102	183.300000
836.738525	184.100000
836.772888	176.800000
836.807251	178.300000
836.841675	183.200000
836.876038	177.300000
836.910461	178.600000
836.944763	183.300000
836.979187	178.500000
837.013611	184.600000
837.047974	177.600000
837.082336	189.300000
837.116699	184.300000
837.151062	181.300000
837.185486	176.900000
837.219849	179.900000
837.254211	184.600000
837.288574	180.500000
837.322937	177.500000
837.357300	173.500000
837.391663	191.000000
837.426086	183.400000
837.460388	183.100000
837.494751	183.900000
837.529114	179.800000
837.563477	187.000000
837.597839	181.100000
837.632141	180.300000
837.666565	178.400000
837.700928	183.700000
837.735229	182.400000
837.769592	183.400000
837.803955	184.500000
837.838257	180.600000
837.872620	180.400000
837.906982	187.100000
837.941284	182.000000
837.975647	182.900000
838.010010	186.900000
838.044312	181.100000
838.078674	180.500000
838.112976	183.200000
838.147339	183.200000
838.181702	182.000000
838.216003	188.100000
838.250366	182.000000
838.284668	183.800000
838.318970	176.900000
838.353333	180.300000
838.387634	182.000000
838.421936	182.300000
838.456299	182.800000
838.490601	186.000000
838.524902	185.600000
838.559265	184.000000
838.593567	183.800000
838.627869	177.300000
838.662170	183.900000
838.696472	177.200000
838.730774	179.300000
838.765137	183.100000
838.799377	173.400000
838.833740	181.700000
838.868042	186.200000
838.902283	176.000000
838.936646	186.200000
838.970947	181.800000
839.005188	187.000000
839.039551	175.900000
839.073792	187.000000
839.108093	179.600000
839.142395	189.400000
839.176697	176.000000
839.210937	183.500000
839.245300	188.800000
839.279541	176.800000
839.313843	179.300000
839.348145	182.300000
839.382385	185.400000
839.416687	184.400000
839.450989	184.100000
839.485229	180.900000
839.519531	177.600000
839.553833	185.600000
839.588013	182.500000
839.622314	182.500000
839.656555	183.600000
839.690857	181.000000
839.725159	177.400000
839.759460	181.200000
839.793640	180.000000
839.827942	180.800000
839.862183	178.000000
839.896423	182.600000
839.930725	191.800000
839.964966	187.400000
839.999207	184.500000
840.033508	186.600000
840.067688	179.000000
840.101990	186.600000
840.136230	182.100000
840.170471	187.200000
840.204712	177.900000
840.238953	179.400000
840.273193	182.100000
840.307434	184.500000
840.341736	178.900000
840.375916	176.100000
840.410217	179.400000
840.444397	184.300000
840.478638	182.400000
840.512878	184.900000
840.547119	181.400000
840.581360	183.000000
840.615601	187.000000
840.649780	189.200000
840.684021	180.900000
840.718262	188.200000
840.752441	186.400000
840.786682	182.500000
840.820862	181.800000
840.855103	187.800000
840.889343	182.500000
840.923584	186.800000
840.957764	184.200000
840.992004	181.700000
841.026184	191.600000
841.060425	181.200000
841.094666	180.500000
841.128845	183.800000
841.163025	182.700000
841.197266	184.700000
841.231445	182.000000
841.265686	184.400000
841.299866	179.000000
841.334045	186.800000
841.368286	180.700000
841.402405	188.100000
841.436646	184.400000
841.470825	181.700000
841.505005	180.900000
841.539185	179.100000
841.573425	179.500000
841.607544	182.500000
841.641785	180.700000
841.675964	178.700000
841.710144	181.900000
841.744324	178.800000
841.778503	180.500000
841.812683	180.900000
841.846863	186.300000
841.881042	186.400000
841.915222	179.800000
841.949402	193.000000
841.983521	175.500000
842.017700	180.700000
842.051880	182.400000
842.086060	183.900000
842.120239	181.000000
842.154419	179.900000
842.188538	181.900000
842.222717	180.200000
842.256897	186.800000
842.291016	180.900000
842.325195	182.400000
842.359375	189.500000
842.393494	186.700000
842.427673	182.300000
842.461853	183.600000
842.495911	189.400000
842.530090	183.200000
842.564209	181.000000
842.598389	183.600000
842.632568	182.100000
842.666626	184.500000
842.700806	180.800000
842.734985	179.800000
842.769043	183.900000
842.803223	183.200000
842.837402	182.000000
842.871460	180.500000
842.905640	189.900000
842.939697	179.500000
842.973877	182.400000
843.007996	186.500000
843.042175	188.900000
843.076233	179.500000
843.110413	184.100000
843.144470	187.900000
843.178589	184.600000
843.212769	179.000000
843.246826	186.100000
843.280945	179.600000
843.315125	180.500000
843.349182	179.100000
843.383301	185.500000
843.417419	192.100000
843.451538	180.700000
843.485657	180.700000
843.519714	181.200000
843.553833	182.700000
843.587952	181.200000
843.622070	181.000000
843.656128	184.800000
843.690247	180.100000
843.724304	183.700000
843.758423	184.800000
843.792542	180.400000
843.826599	182.400000
843.860718	180.800000
843.894836	176.200000
843.928894	182.900000
843.963013	183.700000
843.997070	178.600000
844.031128	178.000000
844.065247	185.700000
844.099304	185.500000
844.133362	184.100000
844.167480	184.500000
844.201599	186.500000
844.235596	183.800000
844.269714	184.500000
844.303711	185.100000
844.337830	178.300000
844.371948	184.300000
844.405945	183.400000
844.440063	179.600000
844.474121	192.700000
844.508118	181.600000
844.542236	182.000000
844.576294	181.900000
844.610352	178.700000
844.644409	181.200000
844.678406	176.200000
844.712524	185.700000
844.746582	187.000000
844.780640	182.500000
844.814636	182.700000
844.848755	190.800000
844.882751	181.000000
844.916809	183.300000
844.950867	183.800000
844.984863	189.100000
845.018921	182.000000
845.052979	178.500000
845.086975	183.200000
845.121033	176.800000
845.155090	180.300000
845.189087	185.400000
845.223145	180.900000
845.257141	182.700000
845.291199	185.100000
845.325256	185.300000
845.359253	184.500000
845.393250	193.700000
845.427307	180.800000
845.461304	183.900000
845.495361	182.800000
845.529358	188.300000
845.563354	181.400000
845.597412	179.000000
845.631409	189.600000
845.665405	188.300000
845.699463	183.900000
845.733459	180.900000
845.767456	189.400000
845.801453	181.600000
845.835449	186.400000
845.869446	186.500000
845.903503	186.500000
845.937439	180.400000
845.971497	187.000000
846.005493	178.500000
846.039429	186.500000
846.073486	190.800000
846.107483	181.000000
846.141418	181.700000
846.175476	183.000000
846.209473	186.800000
846.243408	179.300000
846.277405	183.100000
846.311401	180.400000
846.345337	181.600000
846.379395	186.300000
846.413330	180.800000
846.447327	190.400000
846.481323	180.100000
846.515259	180.200000
846.549255	182.600000
846.583252	184.300000
846.617187	181.000000
846.651184	182.600000
846.685120	181.800000
846.719055	188.900000
846.753052	185.300000
846.786987	185.000000
846.820984	177.700000
846.854980	187.400000
846.888916	180.000000
846.922852	184.000000
846.956848	186.700000
846.990723	180.300000
847.024719	183.700000
847.058716	180.600000
847.092590	187.700000
847.126587	183.700000
847.160522	181.100000
847.194458	185.900000
847.228455	179.200000
847.262390	177.800000
847.296265	182.100000
847.330261	186.200000
847.364136	180.900000
847.398132	181.700000
847.432068	182.900000
847.466003	181.100000
847.499939	181.600000
847.533875	184.700000
847.567749	181.900000
847.601746	181.800000
847.635681	185.700000
847.669556	177.600000
847.703491	187.600000
847.737427	192.100000
847.771301	179.700000
847.805237	184.900000
847.839233	184.200000
847.873108	181.400000
847.907043	182.200000
847.940918	188.900000
847.974854	183.300000
848.008789	186.200000
848.042664	181.500000
848.076538	184.400000
848.110474	182.700000
848.144348	183.900000
848.178284	177.600000
848.212219	184.600000
848.246094	180.300000
848.279968	184.100000
848.313904	183.200000
848.347778	183.700000
848.381653	180.600000
848.415588	180.500000
848.449463	179.300000
848.483337	184.500000
848.517212	187.500000
848.551086	183.400000
848.585022	179.600000
848.618835	190.900000
848.652771	180.400000
848.686646	179.100000
848.720520	187.700000
848.754395	181.500000
848.788330	185.200000
848.822144	185.800000
848.856018	182.300000
848.889954	190.800000
848.923767	179.200000
848.957642	181.200000
848.991577	184.100000
849.025391	182.100000
849.059265	181.200000
849.093079	180.900000
849.126953	179.300000
849.160828	186.700000
849.194641	184.700000
849.228577	183.900000
849.262451	182.100000
849.296265	182.100000
849.330139	181.300000
849.364014	183.500000
849.397827	185.000000
849.431702	184.400000
849.465515	186.000000
849.499329	176.500000
849.533203	180.200000
849.567078	176.200000
849.600891	184.300000
849.634766	181.600000
849.668518	184.700000
849.702393	183.300000
849.736267	177.000000
849.770020	188.900000
849.803894	183.500000
849.837769	182.500000
849.871521	184.000000
849.905396	184.500000
849.939270	180.700000
849.973022	181.900000
850.006897	183.900000
850.040710	184.500000
850.074524	185.900000
850.108337	181.200000
850.142151	186.600000
850.175964	187.200000
850.209778	180.600000
850.243530	174.700000
850.277405	186.500000
850.311218	182.000000
850.344971	180.500000
850.378845	187.500000
850.412659	179.200000
850.446411	182.400000
850.480225	181.800000
850.514038	186.200000
850.547791	186.200000
850.581665	182.000000
850.615417	179.500000
850.649231	184.900000
850.683044	182.100000
850.716858	182.900000
850.750610	184.400000
850.784424	186.200000
850.818176	179.200000
850.851929	182.600000
850.885742	181.000000
850.919495	182.700000
850.953308	188.300000
850.987122	188.500000
851.020874	178.700000
851.054626	178.600000
851.088440	185.500000
851.122192	185.100000
851.156006	184.000000
851.189697	182.500000
851.223511	179.200000
851.257263	186.600000
851.291077	185.100000
851.324829	181.600000
851.358582	181.400000
851.392334	182.800000
851.426086	179.800000
851.459900	190.000000
851.493591	183.300000
851.527344	183.500000
851.561157	182.300000
851.594849	185.100000
851.628662	181.600000
851.662415	190.000000
851.696106	183.600000
851.729858	185.000000
851.763611	177.900000
851.797363	183.200000
851.831116	179.700000
851.864868	185.900000
851.898560	186.900000
851.932312	182.100000
851.966064	183.900000
851.999817	182.300000
852.033569	181.100000
852.067261	186.400000
852.101013	180.100000
852.134766	180.600000
852.168457	177.100000
852.202209	188.300000
852.235901	178.600000
852.269592	183.700000
852.303345	189.800000
852.337036	185.700000
852.370789	182.300000
852.404541	185.200000
852.438171	178.900000
852.471924	182.400000
852.505676	178.600000
852.539307	184.200000
852.573059	180.900000
852.606812	183.500000
852.640442	181.500000
852.674194	186.900000
852.707886	191.200000
852.741577	187.400000
852.775269	179.900000
852.809021	182.800000
852.842651	185.200000
852.876404	188.300000
852.910034	183.900000
852.943787	186.600000
852.977478	184.000000
853.011108	179.300000
853.044861	180.700000
853.078552	186.300000
853.112183	185.400000
853.145874	183.400000
853.179626	176.900000
853.213257	183.600000
853.246948	179.800000
853.280640	187.500000
853.314270	182.300000
853.347961	187.400000
853.381653	186.200000
853.415283	187.200000
853.448975	179.600000
853.482605	184.000000
853.516296	182.400000
853.549988	178.300000
853.583618	185.200000
853.617310	184.100000
853.651001	183.300000
853.684631	180.200000
853.718323	182.100000
853.751953	188.300000
853.785583	177.200000
853.819275	187.000000
853.852966	185.600000
853.886536	178.500000
853.920227	180.200000
853.953918	185.700000
853.987488	181.800000
854.021179	185.700000
854.054749	189.700000
854.088440	186.000000
854.122131	181.100000
854.155701	184.800000
854.189331	180.900000
854.223022	184.700000
854.256592	184.500000
854.290283	180.800000
854.323914	184.400000
854.357483	185.200000
854.391174	183.900000
854.424744	189.100000
854.458374	183.600000
854.492065	192.200000
854.525696	184.900000
854.559265	188.400000
854.592896	190.700000
854.626465	182.800000
854.660095	182.500000
854.693787	185.300000
854.727356	182.600000
854.760986	186.100000
854.794617	184.100000
854.828186	182.000000
854.861816	184.300000
854.895447	186.400000
854.929016	183.700000
854.962585	184.800000
854.996155	190.400000
855.029785	184.100000
855.063416	182.600000
855.097046	186.200000
855.130615	178.700000
855.164185	186.200000
855.197754	183.400000
855.231384	185.200000
855.264954	182.300000
855.298523	185.000000
855.332153	183.300000
855.365723	187.500000
855.399292	181.100000
855.432922	183.100000
855.466492	185.400000
855.500061	180.100000
855.533630	180.600000
855.567200	184.600000
855.600769	186.500000
855.634338	189.300000
855.667969	184.300000
855.701477	180.900000
855.735046	180.700000
855.768616	176.300000
855.802185	184.200000
855.835754	193.600000
855.869324	177.400000
855.902893	183.100000
855.936401	186.700000
855.969971	183.100000
856.003540	178.400000
856.037109	185.700000
856.070618	182.100000
856.104187	179.200000
856.137695	180.400000
856.171265	175.500000
856.204834	183.300000
856.238403	185.600000
856.271912	181.500000
856.305481	183.600000
856.338989	179.500000
856.372559	184.900000
856.406128	185.400000
856.439636	184.500000
856.473145	180.800000
856.506653	188.400000
856.540222	183.100000
856.573792	186.800000
856.607300	185.400000
856.640808	179.000000
856.674377	181.300000
856.707825	216.200000
856.741394	187.300000
856.774902	178.600000
856.808472	177.000000
856.841980	184.500000
856.875488	187.100000
856.908936	178.200000
856.942505	182.200000
856.976013	181.900000
857.009521	181.100000
857.043030	184.500000
857.076477	181.300000
857.110046	188.200000
857.143555	184.000000
857.177063	186.700000
857.210571	181.400000
857.244080	178.500000
857.277527	185.000000
857.311035	183.500000
857.344543	187.500000
857.378052	183.700000
857.411499	187.900000
857.445068	188.400000
857.478516	181.800000
857.512024	179.700000
857.545532	181.800000
857.578979	183.700000
857.612427	184.300000
857.645874	181.100000
857.679382	183.200000
857.712891	187.600000
857.746399	183.000000
857.779846	186.300000
857.813354	186.600000
857.846741	183.300000
857.880249	179.400000
857.913757	184.000000
857.947266	182.300000
857.980652	186.400000
858.014160	181.900000
858.047546	181.500000
858.081055	181.500000
858.114563	192.400000
858.147949	178.300000
858.181458	185.500000
858.214844	181.300000
858.248352	177.200000
858.281799	185.200000
858.315308	191.500000
858.348694	186.500000
858.382141	189.100000
858.415588	186.000000
858.449036	185.500000
858.482483	183.900000
858.515930	182.800000
858.549377	182.700000
858.582825	189.000000
858.616211	185.000000
858.649658	185.700000
858.683105	179.400000
858.716553	182.100000
858.750000	179.400000
858.783386	182.500000
858.816833	179.200000
858.850281	183.800000
858.883728	183.700000
858.917114	184.900000
858.950562	190.300000
858.983948	188.800000
859.017395	187.800000
859.050781	184.000000
859.084167	180.600000
859.117615	180.200000
859.151062	187.000000
859.184448	179.700000
859.217834	182.300000
859.251282	182.200000
859.284668	179.700000
859.318054	177.700000
859.351440	182.200000
859.384888	187.300000
859.418274	178.200000
859.451721	176.400000
859.485046	183.600000
859.518494	184.300000
859.551819	179.700000
859.585266	185.600000
859.618652	189.100000
859.652039	177.800000
859.685425	178.600000
859.718811	178.400000
859.752197	175.800000
859.785583	185.000000
859.819031	187.900000
859.852356	185.200000
859.885742	180.200000
859.919067	182.700000
859.952454	181.900000
859.985901	185.400000
860.019287	182.700000
860.052612	0.000000
860.085999	0.000000
860.119324	0.000000
860.152710	0.000000
860.186096	0.000000
860.219421	0.000000
860.252808	0.000000
860.286133	0.000000
860.319519	0.000000
860.352905	0.000000
860.386292	0.000000
860.419617	0.000000
860.452942	0.000000
860.486267	0.000000
860.519653	0.000000
860.553040	0.000000
860.586365	0.000000
860.619690	0.000000
860.653076	0.000000
860.686340	0.000000
860.719727	0.000000
860.753113	0.000000
860.786377	0.000000
860.819763	0.000000
860.853027	0.000000
860.886414	0.000000
860.919739	0.000000
860.953125	0.000000
860.986389	0.000000
861.019714	0.000000
861.053040	0.000000
861.086365	0.000000
861.119690	0.000000
861.153076	0.000000
861.186340	0.000000
861.219666	0.000000
861.252930	0.000000
861.286316	0.000000
861.319641	0.000000
861.352905	0.000000
861.386230	0.000000
861.419495	0.000000
861.452820	0.000000
861.486145	0.000000
861.519470	0.000000
861.552734	0.000000
861.586060	0.000000
861.619324	0.000000
861.652649	0.000000
861.685974	0.000000
861.719238	0.000000
861.752563	0.000000
861.785828	0.000000
861.819092	0.000000
861.852417	0.000000
861.885742	0.000000
861.918945	0.000000
861.952271	0.000000
861.985535	0.000000
862.018799	0.000000
862.052124	0.000000
862.085449	0.000000
862.118652	0.000000
862.151978	0.000000
862.185181	0.000000
862.218506	0.000000
862.251770	0.000000
862.285034	0.000000
862.318298	0.000000
862.351562	0.000000
862.384827	0.000000
862.418091	0.000000
862.451355	0.000000
862.484619	0.000000
862.517883	0.000000
862.551086	0.000000
862.584351	0.000000
862.617676	0.000000
862.650940	0.000000
862.684143	0.000000
862.717407	0.000000
862.750610	0.000000
862.783875	0.000000
862.817139	0.000000
862.850342	0.000000
862.883606	0.000000
862.916870	0.000000
862.950073	0.000000
862.983337	0.000000
863.016602	0.000000
863.049805	0.000000
863.083069	0.000000
863.116211	0.000000
863.149475	0.000000
863.182739	0.000000
863.216003	0.000000
863.249146	0.000000
863.282410	0.000000
863.315613	0.000000
863.348816	0.000000
863.382080	0.000000
863.415222	0.000000
863.448486	0.000000
863.481689	0.000000
863.514893	0.000000
863.548157	0.000000
863.581360	0.000000
863.614502	0.000000
863.647766	0.000000
863.680908	0.000000
863.714172	0.000000
863.747375	0.000000
863.780579	0.000000
863.813721	0.000000
863.846985	0.000000
863.880127	0.000000
863.913330	0.000000
863.946533	0.000000
863.979675	0.000000
864.012939	0.000000
