Model Number: SPM-001-M   
Serial Number: 10090201
Firmware Version: 004.17.6
Exposure Time: 300000.000000us
Data Taken on: 28-01-2021 09:55:29.003
Wavelength	Amplitude
733.770752	0.000000
733.808716	0.000000
733.846619	0.000000
733.884583	0.000000
733.922546	0.000000
733.960449	0.000000
733.998413	0.000000
734.036377	0.000000
734.074219	0.000000
734.112183	0.000000
734.150085	0.000000
734.188049	0.000000
734.226013	0.000000
734.263916	0.000000
734.301819	0.000000
734.339783	0.000000
734.377686	0.000000
734.415588	0.000000
734.453552	0.000000
734.491455	0.000000
734.529419	0.000000
734.567322	0.000000
734.605225	0.000000
734.643127	0.000000
734.681091	0.000000
734.718994	0.000000
734.756897	0.000000
734.794800	0.000000
734.832703	0.000000
734.870667	0.000000
734.908508	0.000000
734.946472	0.000000
734.984375	0.000000
735.022278	0.000000
735.060181	0.000000
735.098083	0.000000
735.135986	0.000000
735.173889	0.000000
735.211792	0.000000
735.249695	0.000000
735.287598	0.000000
735.325439	0.000000
735.363403	0.000000
735.401306	0.000000
735.439148	0.000000
735.477051	0.000000
735.515015	0.000000
735.552856	0.000000
735.590759	0.000000
735.628662	0.000000
735.666504	0.000000
735.704407	0.000000
735.742310	0.000000
735.780212	0.000000
735.818115	0.000000
735.856018	0.000000
735.893860	0.000000
735.931763	0.000000
735.969604	0.000000
736.007507	0.000000
736.045410	0.000000
736.083252	0.000000
736.121094	0.000000
736.158997	0.000000
736.196838	0.000000
736.234741	0.000000
736.272644	0.000000
736.310486	0.000000
736.348389	0.000000
736.386230	0.000000
736.424072	0.000000
736.461975	0.000000
736.499878	0.000000
736.537720	0.000000
736.575562	0.000000
736.613403	0.000000
736.651306	0.000000
736.689148	0.000000
736.726990	0.000000
736.764893	0.000000
736.802734	0.000000
736.840576	0.000000
736.878418	0.000000
736.916321	0.000000
736.954102	0.000000
736.992004	0.000000
737.029846	0.000000
737.067688	0.000000
737.105530	0.000000
737.143372	0.000000
737.181213	0.000000
737.219116	0.000000
737.256897	0.000000
737.294739	0.000000
737.332642	0.000000
737.370422	0.000000
737.408325	0.000000
737.446167	0.000000
737.483948	0.000000
737.521790	0.000000
737.559692	0.000000
737.597473	0.000000
737.635315	0.000000
737.673157	0.000000
737.710999	0.000000
737.748840	0.000000
737.786621	0.000000
737.824463	0.000000
737.862305	0.000000
737.900085	0.000000
737.937927	0.000000
737.975769	0.000000
738.013550	0.000000
738.051392	0.000000
738.089233	0.000000
738.127014	0.000000
738.164856	0.000000
738.202698	0.000000
738.240479	0.000000
738.278320	0.000000
738.316162	0.000000
738.353943	0.000000
738.391785	0.000000
738.429565	0.000000
738.467407	0.000000
738.505188	0.000000
738.542969	0.000000
738.580811	0.000000
738.618652	0.000000
738.656372	0.000000
738.694214	0.000000
738.732056	0.000000
738.769836	0.000000
738.807617	0.000000
738.845459	0.000000
738.883240	0.000000
738.921021	0.000000
738.958862	0.000000
738.996582	0.000000
739.034424	0.000000
739.072205	0.000000
739.109985	0.000000
739.147827	0.000000
739.185547	0.000000
739.223389	0.000000
739.261169	0.000000
739.298889	0.000000
739.336731	0.000000
739.374512	0.000000
739.412292	0.000000
739.450073	0.000000
739.487854	0.000000
739.525635	0.000000
739.563416	0.000000
739.601135	0.000000
739.638977	0.000000
739.676758	0.000000
739.714478	0.000000
739.752258	0.000000
739.790100	0.000000
739.827820	0.000000
739.865601	0.000000
739.903381	0.000000
739.941101	0.000000
739.978882	183.000000
740.016724	180.300000
740.054443	183.700000
740.092224	177.900000
740.130005	177.400000
740.167725	177.700000
740.205505	178.000000
740.243225	184.400000
740.281006	180.100000
740.318787	174.500000
740.356506	184.600000
740.394287	182.500000
740.432068	177.700000
740.469727	174.200000
740.507507	183.200000
740.545288	180.500000
740.583008	181.600000
740.620789	180.200000
740.658569	174.800000
740.696228	178.700000
740.734009	183.700000
740.771790	172.400000
740.809509	183.100000
740.847229	176.800000
740.884949	179.300000
740.922729	174.600000
740.960449	179.800000
740.998169	175.200000
741.035950	175.900000
741.073669	179.200000
741.111389	181.100000
741.149170	186.300000
741.186890	185.900000
741.224609	183.300000
741.262329	182.100000
741.300110	187.500000
741.337769	178.300000
741.375549	176.400000
741.413208	182.200000
741.450989	177.500000
741.488708	179.000000
741.526367	179.000000
741.564148	181.600000
741.601868	181.600000
741.639526	179.400000
741.677307	181.600000
741.715027	182.400000
741.752686	176.500000
741.790466	183.700000
741.828186	179.900000
741.865845	177.000000
741.903564	175.400000
741.941345	180.600000
741.979004	178.300000
742.016724	182.700000
742.054382	181.000000
742.092102	183.400000
742.129822	175.800000
742.167480	178.600000
742.205200	178.000000
742.242920	181.600000
742.280640	184.500000
742.318359	176.500000
742.356079	178.900000
742.393738	182.300000
742.431396	179.000000
742.469116	183.600000
742.506775	174.600000
742.544495	180.500000
742.582214	183.200000
742.619873	179.000000
742.657593	185.700000
742.695251	182.100000
742.732971	179.300000
742.770630	181.700000
742.808289	181.400000
742.846008	179.700000
742.883728	181.500000
742.921326	181.400000
742.959045	178.800000
742.996765	178.500000
743.034424	179.300000
743.072083	176.800000
743.109802	179.400000
743.147400	175.700000
743.185120	181.300000
743.222839	181.200000
743.260437	185.500000
743.298157	182.000000
743.335754	175.100000
743.373474	179.700000
743.411133	175.900000
743.448792	179.500000
743.486450	178.200000
743.524170	174.700000
743.561768	180.700000
743.599487	183.500000
743.637146	186.400000
743.674744	179.300000
743.712463	177.200000
743.750122	180.800000
743.787720	180.800000
743.825439	178.900000
743.863037	179.100000
743.900696	179.200000
743.938416	204.000000
743.976013	180.600000
744.013672	184.800000
744.051331	183.700000
744.088928	185.900000
744.126587	185.400000
744.164307	181.900000
744.201904	178.900000
744.239563	181.900000
744.277222	182.900000
744.314819	179.300000
744.352478	185.000000
744.390137	182.300000
744.427734	181.400000
744.465393	177.500000
744.502991	176.700000
744.540649	180.600000
744.578308	181.300000
744.615906	176.400000
744.653564	173.400000
744.691223	181.000000
744.728821	175.800000
744.766418	179.500000
744.804077	182.500000
744.841675	178.600000
744.879333	176.300000
744.916992	179.500000
744.954529	179.400000
744.992187	181.500000
745.029785	179.200000
745.067444	179.800000
745.105042	180.100000
745.142639	180.600000
745.180298	186.100000
745.217896	179.400000
745.255493	179.100000
745.293152	182.800000
745.330750	185.000000
745.368347	184.300000
745.405945	181.300000
745.443604	180.600000
745.481140	182.800000
745.518799	179.300000
745.556396	182.000000
745.593994	180.500000
745.631592	180.200000
745.669189	177.600000
745.706787	180.700000
745.744385	177.900000
745.781982	182.500000
745.819580	177.500000
745.857178	179.800000
745.894775	179.200000
745.932373	180.000000
745.969971	182.500000
746.007568	176.100000
746.045166	187.100000
746.082764	185.500000
746.120300	182.900000
746.157898	181.300000
746.195557	180.300000
746.233093	176.500000
746.270691	182.600000
746.308228	181.800000
746.345825	183.600000
746.383423	181.200000
746.420959	177.800000
746.458557	177.600000
746.496155	178.600000
746.533691	180.700000
746.571289	176.900000
746.608887	180.200000
746.646423	180.500000
746.684021	181.400000
746.721619	177.700000
746.759155	182.600000
746.796753	175.700000
746.834351	174.900000
746.871826	177.400000
746.909424	185.600000
746.946960	180.900000
746.984558	179.500000
747.022156	178.800000
747.059631	187.300000
747.097229	182.100000
747.134827	178.500000
747.172363	184.500000
747.209900	182.500000
747.247498	175.900000
747.285034	183.700000
747.322571	184.900000
747.360168	179.100000
747.397644	174.900000
747.435242	182.300000
747.472778	183.200000
747.510315	179.900000
747.547913	178.500000
747.585388	185.300000
747.622925	179.100000
747.660522	175.800000
747.697998	178.900000
747.735596	178.100000
747.773132	178.200000
747.810669	180.000000
747.848206	182.200000
747.885742	176.900000
747.923279	176.300000
747.960815	182.400000
747.998352	180.600000
748.035889	183.000000
748.073425	183.100000
748.110901	179.400000
748.148437	177.200000
748.185974	181.400000
748.223511	186.300000
748.261047	182.500000
748.298584	182.400000
748.336060	180.600000
748.373596	182.100000
748.411133	206.900000
748.448608	178.500000
748.486145	183.200000
748.523682	183.600000
748.561218	186.300000
748.598755	180.600000
748.636292	182.100000
748.673706	177.700000
748.711243	186.900000
748.748718	181.100000
748.786255	180.200000
748.823792	179.500000
748.861267	177.300000
748.898804	182.800000
748.936340	182.300000
748.973816	179.300000
749.011292	184.600000
749.048828	181.600000
749.086304	181.900000
749.123840	187.300000
749.161316	176.900000
749.198792	186.000000
749.236328	183.400000
749.273743	178.700000
749.311279	179.000000
749.348816	182.400000
749.386230	180.200000
749.423767	173.900000
749.461304	183.300000
749.498718	180.600000
749.536255	183.200000
749.573730	187.700000
749.611206	185.500000
749.648682	180.900000
749.686218	179.600000
749.723633	182.500000
749.761169	179.900000
749.798645	177.900000
749.836060	178.500000
749.873596	178.900000
749.911011	182.200000
749.948547	184.500000
749.986023	180.400000
750.023437	180.300000
750.060913	175.300000
750.098450	175.200000
750.135864	180.500000
750.173340	180.800000
750.210815	184.100000
750.248291	176.800000
750.285767	180.100000
750.323242	183.800000
750.360657	181.100000
750.398132	177.600000
750.435608	181.700000
750.473022	177.200000
750.510498	176.200000
750.547974	177.000000
750.585449	179.900000
750.622925	173.700000
750.660339	189.700000
750.697815	180.100000
750.735291	179.600000
750.772644	179.800000
750.810120	180.500000
750.847595	182.200000
750.885010	177.200000
750.922485	185.200000
750.959961	179.500000
750.997375	184.400000
751.034851	182.900000
751.072266	183.600000
751.109680	175.800000
751.147156	184.000000
751.184570	182.100000
751.221985	180.500000
751.259460	175.000000
751.296875	181.200000
751.334290	179.800000
751.371765	183.000000
751.409180	183.900000
751.446594	184.700000
751.484070	182.800000
751.521423	180.400000
751.558899	182.700000
751.596375	187.000000
751.633728	184.800000
751.671204	187.400000
751.708618	177.300000
751.746033	180.800000
751.783447	177.100000
751.820801	178.400000
751.858276	183.300000
751.895691	180.200000
751.933105	180.200000
751.970520	176.900000
752.007935	179.400000
752.045349	183.900000
752.082764	180.600000
752.120178	178.700000
752.157532	179.500000
752.195007	178.300000
752.232422	182.600000
752.269775	182.100000
752.307190	182.800000
752.344543	177.700000
752.382019	180.700000
752.419434	179.500000
752.456787	182.200000
752.494202	184.100000
752.531616	181.200000
752.568970	180.900000
752.606384	182.100000
752.643799	181.800000
752.681152	184.500000
752.718567	182.100000
752.755981	174.800000
752.793335	182.400000
752.830750	174.700000
752.868164	183.600000
752.905518	176.700000
752.942932	183.500000
752.980225	176.200000
753.017639	183.800000
753.055054	183.000000
753.092407	181.300000
753.129822	183.500000
753.167175	187.800000
753.204529	180.100000
753.241943	179.200000
753.279358	177.700000
753.316650	183.500000
753.354065	182.500000
753.391479	184.300000
753.428772	184.900000
753.466187	182.000000
753.503479	176.700000
753.540894	181.200000
753.578308	176.600000
753.615601	177.100000
753.653015	179.500000
753.690369	179.300000
753.727722	178.600000
753.765076	175.400000
753.802490	177.300000
753.839783	175.200000
753.877136	178.700000
753.914551	190.100000
753.951843	178.200000
753.989258	183.500000
754.026611	181.000000
754.063904	182.000000
754.101257	176.900000
754.138611	174.500000
754.175964	181.500000
754.213318	187.100000
754.250610	175.600000
754.288025	179.100000
754.325378	177.100000
754.362671	183.100000
754.400024	180.000000
754.437378	187.000000
754.474670	186.100000
754.512085	177.500000
754.549438	181.700000
754.586731	176.000000
754.624084	180.500000
754.661438	176.900000
754.698730	186.300000
754.736084	179.700000
754.773376	180.800000
754.810730	181.700000
754.848083	180.600000
754.885315	184.200000
754.922668	176.100000
754.960022	177.700000
754.997314	183.500000
755.034668	181.800000
755.072021	181.700000
755.109253	178.200000
755.146606	186.300000
755.183960	180.200000
755.221252	188.000000
755.258545	183.500000
755.295898	185.700000
755.333191	185.700000
755.370544	182.900000
755.407776	181.300000
755.445129	181.500000
755.482422	184.900000
755.519714	180.300000
755.557068	176.700000
755.594360	176.900000
755.631653	183.600000
755.668945	187.400000
755.706299	183.300000
755.743530	190.600000
755.780884	185.600000
755.818176	185.900000
755.855408	186.000000
755.892761	182.500000
755.930054	181.700000
755.967346	183.500000
756.004639	184.600000
756.041870	181.200000
756.079224	185.900000
756.116516	180.200000
756.153748	185.100000
756.191040	188.500000
756.228394	184.600000
756.265625	180.600000
756.302917	183.100000
756.340210	179.300000
756.377441	186.200000
756.414795	187.200000
756.452087	183.400000
756.489319	178.000000
756.526611	185.000000
756.563843	183.700000
756.601135	189.200000
756.638428	189.600000
756.675659	182.600000
756.712952	183.500000
756.750244	186.500000
756.787476	184.200000
756.824768	188.600000
756.862061	181.700000
756.899292	228.000000
756.936584	187.400000
756.973816	191.200000
757.011047	189.800000
757.048340	183.900000
757.085632	185.500000
757.122864	197.300000
757.160156	182.600000
757.197327	186.000000
757.234619	187.000000
757.271912	184.300000
757.309082	187.800000
757.346375	183.100000
757.383667	188.500000
757.420837	186.200000
757.458130	185.000000
757.495422	184.400000
757.532593	186.600000
757.569885	181.300000
757.607117	182.500000
757.644348	185.700000
757.681580	195.300000
757.718811	178.100000
757.756042	185.400000
757.793335	183.600000
757.830505	190.000000
757.867798	184.300000
757.905029	184.300000
757.942200	186.600000
757.979492	184.200000
758.016724	185.300000
758.053894	183.900000
758.091187	197.400000
758.128418	186.600000
758.165588	184.600000
758.202820	194.000000
758.240112	187.100000
758.277283	194.100000
758.314514	188.000000
758.351685	186.000000
758.388916	191.500000
758.426147	192.300000
758.463379	192.200000
758.500610	190.400000
758.537842	187.200000
758.575012	193.600000
758.612244	184.700000
758.649475	196.900000
758.686646	184.300000
758.723877	192.500000
758.761108	194.700000
758.798279	188.500000
758.835510	189.000000
758.872742	195.000000
758.909851	190.800000
758.947083	192.100000
758.984253	189.800000
759.021484	192.400000
759.058716	192.900000
759.095886	193.100000
759.133057	190.100000
759.170288	192.800000
759.207458	188.200000
759.244690	197.300000
759.281860	196.200000
759.319031	191.300000
759.356262	189.300000
759.393433	189.600000
759.430603	191.000000
759.467773	191.200000
759.505005	194.700000
759.542175	195.400000
759.579346	191.700000
759.616516	192.100000
759.653687	194.700000
759.690918	190.100000
759.728027	193.200000
759.765259	193.500000
759.802429	196.000000
759.839539	193.600000
759.876770	197.100000
759.913940	200.200000
759.951111	194.400000
759.988281	194.000000
760.025452	192.600000
760.062561	191.000000
760.099792	201.100000
760.136963	197.100000
760.174072	193.400000
760.211243	189.100000
760.248413	191.900000
760.285583	192.500000
760.322754	202.600000
760.359863	198.400000
760.397034	199.200000
760.434204	194.200000
760.471375	194.500000
760.508545	193.800000
760.545715	196.000000
760.582825	192.800000
760.619995	199.200000
760.657166	192.800000
760.694275	199.200000
760.731445	197.700000
760.768555	196.500000
760.805664	198.900000
760.842834	198.200000
760.879944	198.900000
760.917114	199.000000
760.954285	196.200000
760.991394	193.600000
761.028564	198.300000
761.065674	198.500000
761.102783	195.000000
761.139954	201.900000
761.177124	199.000000
761.214172	202.700000
761.251343	197.700000
761.288452	196.800000
761.325562	200.700000
761.362732	196.100000
761.399841	198.200000
761.436951	199.000000
761.474121	195.700000
761.511169	198.000000
761.548340	202.700000
761.585449	200.800000
761.622559	202.300000
761.659668	200.000000
761.696838	205.200000
761.733887	200.600000
761.771057	199.700000
761.808167	201.400000
761.845276	203.500000
761.882385	209.100000
761.919434	202.700000
761.956604	213.800000
761.993713	200.000000
762.030762	205.500000
762.067871	201.800000
762.105042	201.800000
762.142090	209.500000
762.179199	201.800000
762.216309	207.400000
762.253418	213.400000
762.290527	210.000000
762.327637	205.700000
762.364685	201.100000
762.401794	206.500000
762.438904	206.500000
762.475952	201.500000
762.513062	201.600000
762.550110	203.000000
762.587219	213.600000
762.624329	212.300000
762.661377	206.500000
762.698486	205.300000
762.735596	205.500000
762.772644	202.300000
762.809753	201.500000
762.846863	206.100000
762.883911	211.500000
762.921021	208.700000
762.958069	207.200000
762.995117	212.500000
763.032227	211.900000
763.069336	205.800000
763.106323	203.700000
763.143433	203.100000
763.180481	208.100000
763.217590	208.800000
763.254639	208.000000
763.291687	209.800000
763.328735	214.200000
763.365845	210.400000
763.402893	208.300000
763.439941	210.800000
763.477051	212.900000
763.514038	212.500000
763.551147	208.800000
763.588196	212.700000
763.625244	209.000000
763.662292	217.200000
763.699402	217.600000
763.736389	216.000000
763.773499	221.200000
763.810486	216.900000
763.847534	214.000000
763.884644	216.800000
763.921631	213.900000
763.958679	221.900000
763.995728	215.000000
764.032776	222.200000
764.069824	213.300000
764.106873	219.700000
764.143860	223.100000
764.180969	217.900000
764.218018	223.300000
764.255005	218.900000
764.292053	219.300000
764.329102	226.000000
764.366089	223.800000
764.403137	223.800000
764.440125	219.300000
764.477173	221.200000
764.514221	223.600000
764.551208	221.800000
764.588257	219.200000
764.625305	225.600000
764.662292	229.200000
764.699341	230.700000
764.736389	225.700000
764.773376	235.800000
764.810425	227.600000
764.847473	231.500000
764.884399	229.500000
764.921448	234.100000
764.958435	233.500000
764.995483	225.600000
765.032532	236.600000
765.069458	228.100000
765.106506	229.800000
765.143555	227.600000
765.180481	232.800000
765.217529	236.800000
765.254578	226.700000
765.291504	233.000000
765.328552	232.300000
765.365540	227.000000
765.402527	240.200000
765.439575	231.000000
765.476501	229.500000
765.513550	228.700000
765.550537	234.200000
765.587463	238.300000
765.624512	232.000000
765.661499	228.700000
765.698486	239.200000
765.735474	232.200000
765.772461	236.700000
765.809448	238.700000
765.846436	239.100000
765.883423	241.800000
765.920410	238.600000
765.957397	235.700000
765.994385	239.200000
766.031311	244.500000
766.068359	240.900000
766.105286	240.300000
766.142273	245.900000
766.179260	241.800000
766.216187	237.600000
766.253174	235.300000
766.290161	242.500000
766.327148	245.300000
766.364136	245.100000
766.401123	252.900000
766.438049	241.200000
766.475037	248.500000
766.512024	247.000000
766.548950	258.900000
766.585937	253.900000
766.622864	248.700000
766.659790	248.900000
766.696777	242.500000
766.733704	253.000000
766.770691	248.700000
766.807678	255.600000
766.844604	251.700000
766.881531	252.200000
766.918518	254.900000
766.955444	255.400000
766.992432	252.100000
767.029358	254.000000
767.066284	257.700000
767.103271	254.700000
767.140198	286.900000
767.177124	264.600000
767.214050	259.000000
767.251038	258.800000
767.287964	257.400000
767.324890	256.600000
767.361816	257.800000
767.398743	262.000000
767.435730	258.200000
767.472595	260.100000
767.509583	264.500000
767.546509	255.500000
767.583374	259.900000
767.620361	255.700000
767.657288	259.800000
767.694214	261.100000
767.731140	260.900000
767.768066	260.800000
767.804993	265.400000
767.841919	259.600000
767.878845	264.100000
767.915710	266.600000
767.952698	262.100000
767.989563	263.600000
768.026489	265.900000
768.063416	261.900000
768.100281	261.100000
768.137207	268.300000
768.174133	265.700000
768.211060	267.400000
768.247986	267.600000
768.284912	264.800000
768.321777	268.000000
768.358704	266.900000
768.395630	266.600000
768.432495	264.100000
768.469421	270.800000
768.506348	272.900000
768.543152	275.900000
768.580078	273.500000
768.616943	273.500000
768.653870	277.300000
768.690796	274.800000
768.727661	273.800000
768.764587	276.300000
768.801453	273.200000
768.838318	278.700000
768.875244	277.800000
768.912109	282.700000
768.948975	275.800000
768.985901	276.600000
769.022766	277.400000
769.059631	281.100000
769.096558	279.600000
769.133362	279.400000
769.170288	280.800000
769.207214	281.700000
769.244019	286.500000
769.280945	284.900000
769.317810	291.200000
769.354675	285.500000
769.391541	291.700000
769.428406	290.500000
769.465271	296.900000
769.502136	289.300000
769.539062	293.500000
769.575867	292.000000
769.612732	294.200000
769.649597	297.100000
769.686462	300.100000
769.723328	295.300000
769.760193	295.600000
769.797058	295.400000
769.833923	303.900000
769.870728	298.400000
769.907593	302.100000
769.944519	299.600000
769.981323	304.300000
770.018188	303.800000
770.055054	303.300000
770.091858	303.500000
770.128723	311.300000
770.165588	315.900000
770.202393	306.100000
770.239258	316.400000
770.276062	309.800000
770.312927	313.000000
770.349792	320.600000
770.386597	315.900000
770.423462	321.600000
770.460327	327.600000
770.497131	314.500000
770.533997	311.600000
770.570862	322.300000
770.607605	324.500000
770.644470	322.700000
770.681335	324.700000
770.718140	323.800000
770.754944	319.100000
770.791809	319.900000
770.828613	323.900000
770.865479	324.800000
770.902222	330.500000
770.939087	327.900000
770.975952	321.200000
771.012695	324.900000
771.049561	336.400000
771.086365	328.700000
771.123169	328.200000
771.159973	329.700000
771.196838	331.400000
771.233582	329.200000
771.270447	332.800000
771.307251	336.900000
771.344055	333.700000
771.380859	336.800000
771.417664	332.400000
771.454468	338.100000
771.491272	341.700000
771.528076	341.300000
771.564880	339.200000
771.601685	344.600000
771.638428	334.700000
771.675293	341.700000
771.712097	337.600000
771.748840	347.400000
771.785645	342.100000
771.822449	346.200000
771.859253	346.800000
771.896057	345.400000
771.932861	353.800000
771.969604	347.600000
772.006409	344.400000
772.043213	354.400000
772.079956	350.900000
772.116760	347.100000
772.153503	349.000000
772.190308	356.300000
772.227112	350.400000
772.263855	352.100000
772.300659	354.800000
772.337463	358.300000
772.374207	350.800000
772.411011	352.600000
772.447754	354.300000
772.484497	366.300000
772.521301	360.800000
772.558105	357.300000
772.594849	358.000000
772.631592	367.200000
772.668396	363.900000
772.705139	369.700000
772.741882	365.300000
772.778625	371.500000
772.815430	370.900000
772.852173	368.800000
772.888916	374.800000
772.925720	377.900000
772.962463	381.200000
772.999207	373.700000
773.035950	378.000000
773.072754	376.800000
773.109436	376.100000
773.146240	372.500000
773.182922	373.900000
773.219727	381.200000
773.256470	376.700000
773.293152	371.900000
773.329956	378.700000
773.366699	379.800000
773.403381	376.900000
773.440186	381.800000
773.476929	381.100000
773.513611	376.200000
773.550354	377.900000
773.587158	379.000000
773.623840	374.800000
773.660583	381.500000
773.697327	391.200000
773.734009	381.100000
773.770813	381.000000
773.807495	381.100000
773.844238	383.000000
773.880981	395.900000
773.917664	392.100000
773.954407	392.300000
773.991150	390.400000
774.027832	392.100000
774.064575	385.800000
774.101318	392.100000
774.138000	396.500000
774.174744	392.600000
774.211487	395.200000
774.248108	387.800000
774.284851	389.300000
774.321594	397.500000
774.358276	399.300000
774.395020	401.600000
774.431702	399.400000
774.468384	394.800000
774.505127	393.400000
774.541809	400.500000
774.578491	405.800000
774.615234	408.300000
774.651917	399.200000
774.688599	404.300000
774.725342	411.600000
774.762024	412.100000
774.798706	414.300000
774.835449	414.800000
774.872070	418.100000
774.908813	417.400000
774.945496	416.900000
774.982178	418.200000
775.018860	421.700000
775.055542	419.000000
775.092224	419.100000
775.128967	427.200000
775.165588	427.300000
775.202271	420.700000
775.239014	431.600000
775.275635	431.400000
775.312317	426.400000
775.349060	428.000000
775.385681	430.100000
775.422363	430.300000
775.459045	433.500000
775.495667	440.000000
775.532410	439.300000
775.569092	436.600000
775.605713	438.000000
775.642395	439.100000
775.679016	443.900000
775.715698	446.200000
775.752380	447.300000
775.789001	443.400000
775.825684	445.800000
775.862366	446.800000
775.898987	455.100000
775.935669	452.800000
775.972351	465.200000
776.008972	464.900000
776.045654	463.600000
776.082336	461.200000
776.118958	463.500000
776.155640	470.300000
776.192322	477.600000
776.228882	478.200000
776.265564	472.800000
776.302185	472.200000
776.338867	476.100000
776.375488	471.000000
776.412109	475.400000
776.448792	480.900000
776.485413	487.100000
776.522034	478.000000
776.558716	479.100000
776.595337	479.600000
776.631958	484.100000
776.668579	486.100000
776.705261	488.800000
776.741882	484.700000
776.778503	485.900000
776.815186	484.400000
776.851746	490.400000
776.888367	487.000000
776.924988	497.800000
776.961609	495.600000
776.998291	498.700000
777.034851	492.800000
777.071472	504.600000
777.108154	501.400000
777.144714	510.800000
777.181335	506.600000
777.218018	500.900000
777.254578	503.800000
777.291199	508.500000
777.327759	510.000000
777.364380	516.100000
777.401062	515.200000
777.437622	524.400000
777.474243	518.400000
777.510864	522.000000
777.547424	518.100000
777.584045	522.200000
777.620667	521.400000
777.657227	525.300000
777.693848	524.500000
777.730469	534.800000
777.767029	529.300000
777.803650	532.900000
777.840271	524.500000
777.876831	523.500000
777.913452	531.900000
777.950012	520.700000
777.986633	530.100000
778.023193	527.600000
778.059753	526.000000
778.096375	529.700000
778.132996	538.200000
778.169556	530.100000
778.206116	528.900000
778.242737	529.000000
778.279297	532.800000
778.315857	529.000000
778.352478	535.000000
778.389038	540.300000
778.425598	540.800000
778.462219	546.300000
778.498718	541.400000
778.535339	549.700000
778.571838	550.300000
778.608459	551.800000
778.645020	544.600000
778.681580	551.300000
778.718140	551.500000
778.754761	546.100000
778.791260	548.100000
778.827881	554.100000
778.864441	555.900000
778.900940	559.900000
778.937561	560.100000
778.974121	556.500000
779.010620	551.100000
779.047241	554.500000
779.083801	563.600000
779.120300	561.000000
779.156860	560.500000
779.193359	559.600000
779.229980	564.000000
779.266541	567.300000
779.303040	569.500000
779.339600	561.500000
779.376160	557.200000
779.412659	561.600000
779.449219	560.500000
779.485779	564.400000
779.522278	563.100000
779.558838	564.400000
779.595398	569.400000
779.631897	560.100000
779.668457	558.800000
779.705017	567.100000
779.741516	563.700000
779.778076	565.500000
779.814575	571.800000
779.851074	569.200000
779.887634	565.300000
779.924133	570.800000
779.960693	565.800000
779.997253	574.200000
780.033691	580.500000
780.070251	580.600000
780.106812	585.100000
780.143250	586.700000
780.179810	584.400000
780.216370	588.100000
780.252808	592.000000
780.289368	594.000000
780.325867	588.000000
780.362366	581.000000
780.398865	590.300000
780.435364	592.000000
780.471863	603.300000
780.508423	598.800000
780.544861	602.300000
780.581421	604.800000
780.617920	595.000000
780.654419	591.200000
780.690918	599.500000
780.727417	604.900000
780.763916	603.800000
780.800415	606.600000
780.836914	594.700000
780.873352	609.400000
780.909912	601.500000
780.946411	610.800000
780.982849	617.200000
781.019348	624.600000
781.055786	617.200000
781.092346	617.300000
781.128845	627.200000
781.165283	633.800000
781.201782	636.200000
781.238281	638.000000
781.274719	640.900000
781.311218	640.500000
781.347717	650.500000
781.384155	635.000000
781.420654	638.400000
781.457092	651.300000
781.493591	646.000000
781.530090	642.900000
781.566528	643.800000
781.602966	643.600000
781.639465	642.600000
781.675903	642.000000
781.712402	650.700000
781.748901	651.600000
781.785278	641.800000
781.821777	649.800000
781.858276	654.100000
781.894714	667.900000
781.931152	659.400000
781.967651	661.600000
782.004089	655.600000
782.040527	668.100000
782.076965	672.700000
782.113403	674.000000
782.149902	676.600000
782.186340	671.500000
782.222778	678.100000
782.259277	665.900000
782.295654	678.300000
782.332092	688.000000
782.368591	684.300000
782.404968	684.600000
782.441467	683.200000
782.477905	682.700000
782.514282	687.300000
782.550781	699.500000
782.587219	696.300000
782.623596	695.400000
782.660095	703.400000
782.696472	711.600000
782.732910	711.800000
782.769348	713.300000
782.805786	725.700000
782.842224	724.600000
782.878662	720.300000
782.915039	721.900000
782.951477	721.300000
782.987915	714.900000
783.024292	724.600000
783.060730	728.000000
783.097168	716.200000
783.133545	710.500000
783.169983	712.400000
783.206421	704.200000
783.242798	698.900000
783.279236	692.300000
783.315613	697.700000
783.352051	693.900000
783.388489	692.300000
783.424866	689.900000
783.461304	694.700000
783.497681	701.900000
783.534058	699.700000
783.570496	693.000000
783.606934	692.000000
783.643250	697.300000
783.679687	707.700000
783.716125	702.800000
783.752441	711.100000
783.788879	728.300000
783.825317	734.100000
783.861633	730.100000
783.898071	740.400000
783.934448	745.600000
783.970825	738.500000
784.007263	720.900000
784.043579	688.900000
784.080017	605.000000
784.116394	492.000000
784.152710	382.200000
784.189148	301.600000
784.225525	266.300000
784.261902	260.600000
784.298279	281.300000
784.334656	333.600000
784.371033	420.300000
784.407410	525.500000
784.443787	615.400000
784.480164	673.900000
784.516541	692.800000
784.552856	711.500000
784.589233	716.800000
784.625610	718.400000
784.661987	743.500000
784.698364	733.800000
784.734741	723.900000
784.771057	727.700000
784.807434	737.200000
784.843811	749.000000
784.880127	750.100000
784.916504	768.400000
784.952881	772.800000
784.989197	766.400000
785.025574	773.900000
785.061951	777.600000
785.098267	795.000000
785.134644	793.900000
785.170959	778.900000
785.207275	775.500000
785.243652	782.500000
785.279968	766.800000
785.316345	769.600000
785.352722	763.400000
785.388977	759.400000
785.425354	737.300000
785.461731	724.200000
785.498047	722.700000
785.534363	730.500000
785.570679	733.100000
785.606995	726.500000
785.643372	725.900000
785.679687	724.300000
785.716003	716.100000
785.752380	715.800000
785.788635	727.300000
785.825012	737.000000
785.861328	746.400000
785.897644	742.900000
785.933960	759.600000
785.970337	769.800000
786.006592	787.000000
786.042908	796.900000
786.079285	795.000000
786.115540	796.700000
786.151855	797.600000
786.188171	793.400000
786.224487	796.500000
786.260803	791.800000
786.297119	795.500000
786.333435	785.000000
786.369751	777.900000
786.406006	776.600000
786.442322	771.200000
786.478638	758.800000
786.514954	769.400000
786.551270	771.000000
786.587585	771.200000
786.623840	750.000000
786.660156	748.800000
786.696472	745.200000
786.732727	750.200000
786.769043	760.700000
786.805298	750.900000
786.841614	756.000000
786.877930	764.500000
786.914124	749.700000
786.950439	763.500000
786.986755	776.500000
787.023010	790.600000
787.059326	800.000000
787.095642	804.100000
787.131836	807.000000
787.168152	806.400000
787.204468	816.500000
787.240723	837.100000
787.276978	842.200000
787.313293	844.100000
787.349548	836.200000
787.385803	832.000000
787.422058	826.400000
787.458313	827.600000
787.494629	820.600000
787.530823	824.300000
787.567139	810.700000
787.603455	796.400000
787.639648	789.700000
787.675903	791.600000
787.712219	788.800000
787.748413	790.700000
787.784729	800.600000
787.820984	784.500000
787.857178	785.500000
787.893494	783.800000
787.929749	783.900000
787.965942	800.100000
788.002258	810.800000
788.038452	815.100000
788.074707	819.000000
788.110962	822.800000
788.147217	822.400000
788.183472	835.700000
788.219727	844.500000
788.255920	849.500000
788.292175	852.000000
788.328430	847.500000
788.364624	840.600000
788.400879	838.000000
788.437134	851.500000
788.473328	851.800000
788.509583	848.700000
788.545837	837.800000
788.582031	844.600000
788.618286	843.100000
788.654480	842.600000
788.690735	847.300000
788.726990	864.200000
788.763184	860.500000
788.799377	865.100000
788.835632	862.700000
788.871826	872.600000
788.908081	874.900000
788.944336	870.100000
788.980469	883.100000
789.016724	880.900000
789.052979	878.100000
789.089111	860.700000
789.125366	865.400000
789.161621	860.800000
789.197754	874.800000
789.234009	866.500000
789.270142	855.100000
789.306396	852.900000
789.342590	847.200000
789.378784	831.800000
789.414978	833.600000
789.451233	843.800000
789.487366	845.300000
789.523621	853.700000
789.559814	848.800000
789.595947	845.000000
789.632202	854.600000
789.668335	870.400000
789.704529	886.300000
789.740784	899.200000
789.776917	896.900000
789.813110	886.900000
789.849304	903.600000
789.885498	906.200000
789.921692	916.600000
789.957886	912.700000
789.994019	914.800000
790.030212	915.300000
790.066406	912.800000
790.102539	917.900000
790.138733	935.900000
790.174927	941.300000
790.211060	948.300000
790.247253	933.200000
790.283386	918.500000
790.319580	908.500000
790.355774	901.500000
790.391907	911.100000
790.428101	921.300000
790.464294	915.800000
790.500427	915.200000
790.536621	894.400000
790.572754	876.600000
790.608887	875.200000
790.645081	890.000000
790.681274	901.300000
790.717346	899.200000
790.753540	881.600000
790.789734	873.800000
790.825867	871.500000
790.862000	872.100000
790.898132	883.600000
790.934265	886.200000
790.970459	876.800000
791.006592	868.100000
791.042725	869.300000
791.078918	864.200000
791.114990	869.300000
791.151184	876.100000
791.187317	885.800000
791.223389	883.000000
791.259583	881.700000
791.295715	883.700000
791.331848	885.400000
791.367981	887.900000
791.404114	891.900000
791.440247	888.800000
791.476379	888.700000
791.512451	872.500000
791.548584	866.500000
791.584778	863.600000
791.620850	877.600000
791.656982	880.000000
791.693115	872.300000
791.729187	872.900000
791.765381	872.600000
791.801514	865.900000
791.837585	874.800000
791.873718	887.400000
791.909851	898.800000
791.945923	901.900000
791.982056	870.800000
792.018188	865.800000
792.054260	874.400000
792.090393	882.300000
792.126465	874.500000
792.162598	879.600000
792.198669	869.100000
792.234741	856.600000
792.270874	847.100000
792.307007	845.900000
792.343079	854.500000
792.379150	862.500000
792.415283	843.800000
792.451355	847.600000
792.487488	830.900000
792.523560	818.900000
792.559631	787.000000
792.595764	742.800000
792.631836	719.300000
792.667908	711.500000
792.703979	715.000000
792.740051	747.100000
792.776184	776.700000
792.812256	782.300000
792.848328	791.600000
792.884399	799.300000
792.920471	803.600000
792.956543	801.100000
792.992615	794.900000
793.028748	795.100000
793.064758	804.900000
793.100830	824.300000
793.136963	826.400000
793.172974	831.200000
793.209045	825.100000
793.245178	831.000000
793.281189	818.400000
793.317261	823.600000
793.353271	821.300000
793.389404	829.700000
793.425476	821.500000
793.461487	812.800000
793.497559	808.200000
793.533630	806.400000
793.569641	810.300000
793.605713	829.200000
793.641785	832.900000
793.677795	830.900000
793.713867	820.700000
793.749878	824.800000
793.785950	832.300000
793.822021	842.800000
793.858032	834.800000
793.894104	843.800000
793.930176	834.200000
793.966187	837.400000
794.002258	830.100000
794.038269	837.800000
794.074280	844.300000
794.110352	866.300000
794.146423	843.000000
794.182373	842.600000
794.218445	835.300000
794.254517	829.100000
794.290466	823.300000
794.326538	829.500000
794.362549	833.100000
794.398560	831.200000
794.434631	825.000000
794.470581	806.900000
794.506653	797.500000
794.542664	807.100000
794.578674	811.100000
794.614685	813.400000
794.650757	808.800000
794.686707	815.900000
794.722778	813.500000
794.758789	816.700000
794.794739	828.900000
794.830811	848.200000
794.866821	865.000000
794.902771	863.000000
794.938843	851.100000
794.974792	847.600000
795.010803	853.300000
795.046814	854.400000
795.082825	847.100000
795.118835	858.700000
795.154846	838.100000
795.190796	834.400000
795.226807	823.200000
795.262817	823.000000
795.298767	824.800000
795.334778	840.500000
795.370850	836.300000
795.406799	831.600000
795.442810	815.100000
795.478821	817.400000
795.514709	820.700000
795.550720	836.000000
795.586670	822.600000
795.622681	822.400000
795.658691	816.900000
795.694641	814.300000
795.730652	822.800000
795.766663	831.200000
795.802551	830.600000
795.838562	846.600000
795.874573	838.100000
795.910522	833.500000
795.946472	824.800000
795.982483	839.000000
796.018433	836.800000
796.054382	842.600000
796.090393	836.100000
796.126282	824.200000
796.162292	814.500000
796.198242	810.500000
796.234192	806.600000
796.270203	811.100000
796.306091	820.100000
796.342041	826.500000
796.378052	815.700000
796.413940	816.200000
796.449951	813.900000
796.485901	811.200000
796.521790	817.600000
796.557800	839.000000
796.593689	841.800000
796.629639	823.400000
796.665649	826.700000
796.701599	823.400000
796.737488	825.300000
796.773437	837.900000
796.809387	840.100000
796.845337	833.700000
796.881287	820.100000
796.917175	817.100000
796.953125	818.000000
796.989075	827.700000
797.024963	824.700000
797.060913	820.900000
797.096863	815.000000
797.132751	800.800000
797.168701	787.900000
797.204590	805.000000
797.240540	807.000000
797.276489	815.100000
797.312439	814.100000
797.348328	806.400000
797.384277	793.000000
797.420166	792.700000
797.456055	792.900000
797.492004	799.500000
797.527893	799.900000
797.563843	806.200000
797.599731	798.600000
797.635620	786.800000
797.671570	790.100000
797.707520	796.700000
797.743347	797.500000
797.779297	809.600000
797.815125	799.700000
797.851074	784.800000
797.887024	770.100000
797.922913	770.700000
797.958801	787.800000
797.994690	785.900000
798.030579	787.100000
798.066467	790.400000
798.102356	774.600000
798.138245	774.300000
798.174133	770.600000
798.210083	777.500000
798.245911	789.900000
798.281799	793.200000
798.317749	780.200000
798.353577	778.600000
798.389465	773.200000
798.425293	772.900000
798.461243	778.600000
798.497131	777.400000
798.532959	775.700000
798.568848	781.300000
798.604736	772.700000
798.640564	762.400000
798.676453	761.200000
798.712402	765.100000
798.748230	768.800000
798.784119	773.400000
798.820007	769.700000
798.855835	760.500000
798.891724	757.600000
798.927551	752.200000
798.963379	755.700000
798.999268	754.400000
799.035095	745.300000
799.070984	734.600000
799.106873	725.500000
799.142700	736.700000
799.178528	734.900000
799.214417	736.200000
799.250244	749.400000
799.286133	741.600000
799.321960	738.200000
799.357788	737.700000
799.393677	728.900000
799.429504	731.300000
799.465332	735.000000
799.501221	743.900000
799.537048	742.200000
799.572876	734.500000
799.608704	732.500000
799.644531	739.300000
799.680359	744.900000
799.716248	757.000000
799.752014	761.500000
799.787903	755.300000
799.823730	743.800000
799.859558	730.800000
799.895386	734.600000
799.931213	740.300000
799.967041	739.800000
800.002869	738.200000
800.038696	749.800000
800.074463	735.300000
800.110352	729.700000
800.146179	728.000000
800.181946	740.100000
800.217773	736.900000
800.253540	730.400000
800.289429	723.600000
800.325256	721.100000
800.361023	718.900000
800.396851	725.000000
800.432678	725.200000
800.468445	726.000000
800.504272	730.300000
800.540100	708.800000
800.575867	706.800000
800.611694	720.000000
800.647461	713.900000
800.683289	715.500000
800.719116	715.800000
800.754883	707.700000
800.790649	702.800000
800.826477	702.700000
800.862244	721.400000
800.898071	707.500000
800.933838	713.100000
800.969604	708.600000
801.005432	700.400000
801.041199	697.500000
801.076965	698.500000
801.112793	695.500000
801.148560	681.100000
801.184326	686.300000
801.220154	690.000000
801.255859	680.900000
801.291687	681.100000
801.327454	683.600000
801.363281	686.800000
801.398987	676.500000
801.434814	680.300000
801.470520	682.800000
801.506287	668.900000
801.542114	659.300000
801.577820	670.300000
801.613647	671.700000
801.649414	675.400000
801.685120	674.400000
801.720886	669.900000
801.756714	661.300000
801.792419	653.600000
801.828186	656.000000
801.863892	660.100000
801.899719	657.800000
801.935486	653.800000
801.971252	659.400000
802.006958	656.000000
802.042725	649.700000
802.078430	649.100000
802.114197	648.800000
802.149963	656.600000
802.185669	649.100000
802.221436	648.100000
802.257202	647.200000
802.292908	643.500000
802.328674	653.500000
802.364441	661.300000
802.400146	658.600000
802.435913	656.300000
802.471558	650.400000
802.507324	642.500000
802.543091	642.200000
802.578796	647.700000
802.614502	653.600000
802.650269	654.800000
802.685974	643.200000
802.721741	645.800000
802.757446	642.100000
802.793152	647.200000
802.828918	658.800000
802.864624	650.300000
802.900330	647.100000
802.936035	648.500000
802.971802	642.400000
803.007446	638.300000
803.043213	630.300000
803.078857	641.400000
803.114624	627.700000
803.150330	631.700000
803.185974	622.500000
803.221741	627.800000
803.257446	630.300000
803.293152	634.700000
803.328857	631.100000
803.364563	623.000000
803.400208	617.800000
803.435974	622.800000
803.471680	616.700000
803.507324	618.800000
803.543030	628.500000
803.578735	631.200000
803.614441	625.300000
803.650146	629.100000
803.685791	619.300000
803.721497	620.700000
803.757202	617.800000
803.792847	624.400000
803.828552	614.800000
803.864258	611.600000
803.899902	605.900000
803.935608	595.800000
803.971313	602.000000
804.006958	600.400000
804.042664	600.600000
804.078308	610.000000
804.113953	600.700000
804.149658	601.100000
804.185364	586.400000
804.221008	604.200000
804.256714	590.600000
804.292297	590.500000
804.328003	589.000000
804.363708	584.900000
804.399292	585.100000
804.434998	584.000000
804.470703	579.000000
804.506287	592.800000
804.541992	585.200000
804.577637	587.100000
804.613281	572.600000
804.648926	569.800000
804.684570	575.300000
804.720215	567.800000
804.755920	568.700000
804.791565	568.900000
804.827209	570.700000
804.862854	566.000000
804.898437	564.700000
804.934143	561.900000
804.969788	561.900000
805.005371	564.000000
805.041077	561.300000
805.076721	560.100000
805.112305	552.700000
805.147949	551.800000
805.183655	546.500000
805.219238	555.700000
805.254883	555.800000
805.290466	555.700000
805.326111	549.200000
805.361755	545.600000
805.397400	551.400000
805.432983	548.500000
805.468628	545.200000
805.504211	546.000000
805.539856	553.300000
805.575500	549.600000
805.611084	543.500000
805.646729	532.200000
805.682373	538.300000
805.717957	543.700000
805.753601	547.000000
805.789246	533.000000
805.824768	541.900000
805.860413	541.600000
805.895996	532.200000
805.931641	534.500000
805.967224	540.000000
806.002869	536.400000
806.038452	545.100000
806.074036	543.900000
806.109619	531.600000
806.145264	526.200000
806.180847	522.200000
806.216431	524.600000
806.252014	526.100000
806.287659	528.800000
806.323181	532.700000
806.358826	532.000000
806.394409	517.000000
806.429993	520.900000
806.465576	529.100000
806.501160	520.600000
806.536743	513.100000
806.572327	518.300000
806.607910	516.300000
806.643494	513.900000
806.679077	509.000000
806.714661	509.900000
806.750244	509.400000
806.785828	506.500000
806.821350	501.000000
806.856934	505.200000
806.892517	504.300000
806.928101	501.800000
806.963684	500.900000
806.999268	505.600000
807.034790	495.100000
807.070374	501.100000
807.105896	494.300000
807.141479	488.900000
807.177063	494.800000
807.212585	493.900000
807.248169	494.200000
807.283752	498.800000
807.319275	490.600000
807.354858	494.000000
807.390381	489.500000
807.425903	487.000000
807.461487	482.100000
807.497070	482.400000
807.532593	481.000000
807.568115	478.800000
807.603699	477.300000
807.639221	475.400000
807.674744	476.300000
807.710266	479.500000
807.745850	479.800000
807.781372	474.200000
807.816895	470.600000
807.852417	473.600000
807.888000	472.600000
807.923523	469.900000
807.959045	475.600000
807.994629	467.700000
808.030090	465.500000
808.065613	468.100000
808.101135	471.700000
808.136658	464.900000
808.172241	464.600000
808.207764	466.400000
808.243225	459.900000
808.278809	458.200000
808.314270	462.200000
808.349792	455.900000
808.385315	455.800000
808.420837	458.900000
808.456360	464.900000
808.491882	461.000000
808.527344	457.300000
808.562866	463.200000
808.598389	456.900000
808.633850	452.800000
808.669434	447.700000
808.704895	453.800000
808.740417	461.300000
808.775940	451.600000
808.811462	449.700000
808.846924	443.100000
808.882385	443.800000
808.917847	441.300000
808.953369	446.200000
808.988892	441.200000
809.024353	446.600000
809.059875	443.500000
809.095398	442.100000
809.130798	437.300000
809.166321	435.900000
809.201843	432.300000
809.237305	436.500000
809.272766	439.900000
809.308228	431.900000
809.343750	429.300000
809.379211	430.800000
809.414734	428.400000
809.450134	433.600000
809.485657	422.900000
809.521118	430.000000
809.556580	423.200000
809.592102	426.000000
809.627502	424.000000
809.663025	423.000000
809.698486	419.900000
809.733887	416.200000
809.769409	421.700000
809.804871	414.100000
809.840271	414.900000
809.875793	415.800000
809.911194	417.700000
809.946655	410.500000
809.982178	408.200000
810.017639	409.000000
810.053040	409.600000
810.088501	407.100000
810.123901	403.500000
810.159424	404.500000
810.194885	401.400000
810.230286	401.800000
810.265747	398.700000
810.301208	396.700000
810.336609	397.800000
810.372070	391.800000
810.407532	395.100000
810.442932	399.300000
810.478394	399.300000
810.513794	393.100000
810.549255	394.600000
810.584717	388.400000
810.620117	388.200000
810.655518	392.900000
810.690979	387.700000
810.726379	386.500000
810.761841	379.700000
810.797302	376.800000
810.832642	375.900000
810.868103	386.400000
810.903564	379.200000
810.938904	383.200000
810.974365	373.100000
811.009827	372.000000
811.045166	370.600000
811.080627	363.300000
811.115967	370.500000
811.151428	374.600000
811.186829	370.500000
811.222229	366.900000
811.257629	361.600000
811.293091	368.000000
811.328430	374.400000
811.363892	365.600000
811.399292	368.900000
811.434631	364.500000
811.470093	366.000000
811.505493	359.900000
811.540833	358.800000
811.576294	364.400000
811.611694	360.000000
811.647034	356.200000
811.682434	358.900000
811.717773	359.100000
811.753235	360.900000
811.788635	355.800000
811.823975	355.700000
811.859375	362.700000
811.894775	353.100000
811.930115	358.600000
811.965515	353.700000
812.000916	354.200000
812.036255	354.400000
812.071655	358.500000
812.106995	349.500000
812.142395	351.100000
812.177795	353.100000
812.213196	353.200000
812.248474	350.900000
812.283875	347.800000
812.319214	347.200000
812.354614	348.300000
812.390015	342.200000
812.425293	342.300000
812.460693	342.700000
812.496094	341.200000
812.531433	336.600000
812.566772	337.400000
812.602173	336.800000
812.637451	336.600000
812.672852	333.500000
812.708191	337.600000
812.743530	333.100000
812.778931	327.800000
812.814270	327.800000
812.849609	330.500000
812.884949	327.900000
812.920227	323.200000
812.955627	333.600000
812.990967	327.900000
813.026306	324.900000
813.061646	315.900000
813.096985	314.900000
813.132324	315.200000
813.167664	319.300000
813.203003	320.200000
813.238281	310.500000
813.273682	311.000000
813.308960	307.100000
813.344299	308.400000
813.379639	313.100000
813.414978	306.300000
813.450256	307.800000
813.485596	307.900000
813.520874	302.300000
813.556213	304.400000
813.591614	307.600000
813.626831	302.900000
813.662170	305.300000
813.697510	308.300000
813.732788	298.000000
813.768127	303.500000
813.803467	302.500000
813.838745	301.800000
813.874084	303.000000
813.909363	300.100000
813.944641	301.500000
813.979980	293.700000
814.015320	296.100000
814.050598	294.300000
814.085876	295.600000
814.121155	293.000000
814.156494	292.900000
814.191772	293.200000
814.227051	288.400000
814.262390	289.700000
814.297668	288.500000
814.332947	289.700000
814.368225	285.100000
814.403564	286.200000
814.438782	286.300000
814.474121	289.500000
814.509338	284.300000
814.544617	287.400000
814.579956	284.600000
814.615173	290.600000
814.650513	286.800000
814.685791	281.900000
814.721008	284.700000
814.756348	283.800000
814.791626	280.200000
814.826843	279.400000
814.862122	279.800000
814.897400	279.200000
814.932678	278.100000
814.967957	278.900000
815.003235	276.900000
815.038452	276.100000
815.073730	272.500000
815.108948	279.200000
815.144226	276.400000
815.179504	280.400000
815.214722	268.500000
815.250000	269.800000
815.285278	273.400000
815.320496	269.400000
815.355774	269.900000
815.391052	273.000000
815.426270	270.600000
815.461487	270.200000
815.496765	264.100000
815.531982	262.300000
815.567261	267.100000
815.602539	272.900000
815.637695	268.800000
815.672974	272.500000
815.708191	269.500000
815.743408	270.600000
815.778687	263.200000
815.813904	271.000000
815.849121	259.600000
815.884399	259.400000
815.919556	258.900000
815.954834	258.300000
815.990051	260.700000
816.025269	264.200000
816.060486	255.100000
816.095703	255.400000
816.130920	257.000000
816.166199	255.100000
816.201416	256.400000
816.236572	258.300000
816.271851	252.600000
816.307007	255.000000
816.342224	248.500000
816.377441	251.500000
816.412659	245.200000
816.447876	252.300000
816.483093	250.600000
816.518250	248.600000
816.553467	247.900000
816.588745	249.600000
816.623901	243.800000
816.659119	240.500000
816.694275	243.600000
816.729492	242.200000
816.764709	268.800000
816.799927	237.800000
816.835083	244.500000
816.870300	238.000000
816.905457	240.800000
816.940674	240.800000
816.975830	237.700000
817.010986	235.200000
817.046204	237.700000
817.081421	233.500000
817.116577	235.800000
817.151733	239.000000
817.186951	239.500000
817.222107	238.300000
817.257324	238.500000
817.292419	236.900000
817.327637	231.800000
817.362854	234.100000
817.398010	229.400000
817.433167	232.500000
817.468323	230.800000
817.503479	231.800000
817.538635	239.300000
817.573853	231.100000
817.608948	230.200000
817.644165	227.000000
817.679321	226.100000
817.714478	224.200000
817.749634	227.900000
817.784790	235.100000
817.819946	232.900000
817.855103	220.200000
817.890198	226.300000
817.925415	220.800000
817.960571	227.000000
817.995667	227.100000
818.030823	227.200000
818.066040	220.300000
818.101135	223.500000
818.136292	222.800000
818.171448	218.500000
818.206543	221.500000
818.241699	225.300000
818.276855	222.300000
818.311951	220.800000
818.347107	215.900000
818.382263	222.300000
818.417358	224.500000
818.452515	224.300000
818.487610	224.000000
818.522766	217.800000
818.557922	223.500000
818.593018	222.200000
818.628113	218.500000
818.663269	214.800000
818.698364	218.100000
818.733521	215.100000
818.768677	217.900000
818.803711	213.900000
818.838867	215.100000
818.874023	213.300000
818.909058	213.300000
818.944214	210.800000
818.979370	213.700000
819.014404	212.200000
819.049561	211.000000
819.084595	215.800000
819.119751	208.400000
819.154846	212.300000
819.189941	211.200000
819.225037	207.100000
819.260193	204.500000
819.295227	204.200000
819.330322	201.800000
819.365479	201.200000
819.400513	236.900000
819.435608	200.300000
819.470764	200.200000
819.505798	201.800000
819.540894	203.300000
819.575989	201.500000
819.611084	207.100000
819.646179	207.500000
819.681213	205.300000
819.716309	200.600000
819.751404	201.500000
819.786438	205.200000
819.821533	198.700000
819.856628	201.800000
819.891663	204.000000
819.926758	210.200000
819.961853	205.300000
819.996887	198.000000
820.031982	200.900000
820.067017	198.500000
820.102112	233.000000
820.137207	196.400000
820.172302	207.000000
820.207275	195.300000
820.242371	196.100000
820.277405	195.900000
820.312500	197.900000
820.347534	198.600000
820.382568	201.600000
820.417664	196.200000
820.452759	195.800000
820.487732	195.200000
820.522827	195.200000
820.557861	192.600000
820.592896	195.000000
820.627930	196.100000
820.662964	192.900000
820.698059	197.200000
820.733093	193.700000
820.768127	198.600000
820.803162	194.900000
820.838196	193.100000
820.873230	194.500000
820.908264	195.500000
820.943298	191.600000
820.978333	197.500000
821.013367	193.700000
821.048401	196.100000
821.083435	194.900000
821.118469	187.600000
821.153503	195.600000
821.188477	194.900000
821.223511	187.700000
821.258484	192.300000
821.293579	191.900000
821.328613	187.800000
821.363647	191.200000
821.398621	188.700000
821.433655	189.800000
821.468628	200.300000
821.503662	191.000000
821.538696	193.300000
821.573669	187.800000
821.608704	194.800000
821.643677	190.300000
821.678650	193.300000
821.713684	196.800000
821.748718	191.000000
821.783691	191.900000
821.818726	191.100000
821.853638	192.300000
821.888672	188.400000
821.923706	190.700000
821.958618	189.000000
821.993652	188.700000
822.028687	193.300000
822.063599	196.600000
822.098633	192.000000
822.133667	186.900000
822.168579	190.400000
822.203613	192.100000
822.238586	186.200000
822.273560	191.200000
822.308533	186.600000
822.343567	187.100000
822.378479	189.700000
822.413452	188.600000
822.448425	187.300000
822.483398	193.000000
822.518372	191.800000
822.553345	188.400000
822.588318	194.800000
822.623291	189.100000
822.658203	186.900000
822.693237	188.400000
822.728210	185.800000
822.763123	190.200000
822.798096	185.800000
822.833069	187.900000
822.867981	187.200000
822.902954	189.300000
822.937927	189.900000
822.972900	195.300000
823.007874	184.700000
823.042725	191.300000
823.077698	196.300000
823.112671	185.000000
823.147583	187.200000
823.182556	189.700000
823.217529	191.600000
823.252441	185.700000
823.287415	195.300000
823.322388	190.400000
823.357239	188.500000
823.392212	191.900000
823.427185	192.800000
823.462097	185.300000
823.497009	189.700000
823.531982	186.800000
823.566895	188.200000
823.601807	184.500000
823.636719	187.800000
823.671631	188.000000
823.706604	185.600000
823.741455	190.000000
823.776428	183.500000
823.811340	189.800000
823.846252	193.700000
823.881165	193.000000
823.916138	188.300000
823.950989	193.400000
823.985901	187.000000
824.020813	186.800000
824.055725	187.700000
824.090637	182.800000
824.125610	190.000000
824.160461	188.600000
824.195374	187.900000
824.230225	189.300000
824.265198	184.100000
824.300110	184.000000
824.334961	194.200000
824.369873	179.900000
824.404785	188.500000
824.439636	189.500000
824.474548	181.600000
824.509460	179.300000
824.544312	190.900000
824.579224	187.100000
824.614075	187.500000
824.648987	185.100000
824.683899	184.700000
824.718811	183.100000
824.753662	189.000000
824.788574	188.600000
824.823364	187.200000
824.858276	183.400000
824.893188	188.300000
824.928040	189.300000
824.962952	187.600000
824.997803	188.800000
825.032654	186.100000
825.067566	186.400000
825.102417	182.600000
825.137268	185.200000
825.172119	184.200000
825.206970	184.000000
825.241882	185.400000
825.276733	180.700000
825.311646	184.100000
825.346436	180.600000
825.381348	179.900000
825.416138	184.200000
825.450989	180.200000
825.485901	177.900000
825.520691	178.600000
825.555542	179.600000
825.590454	182.900000
825.625244	178.900000
825.660095	187.100000
825.695007	185.200000
825.729797	182.000000
825.764648	180.000000
825.799438	181.500000
825.834290	183.600000
825.869202	176.200000
825.903992	182.700000
825.938843	179.200000
825.973694	179.600000
826.008484	189.400000
826.043335	178.600000
826.078186	175.000000
826.112976	184.700000
826.147827	184.200000
826.182678	187.200000
826.217468	176.300000
826.252319	184.500000
826.287109	176.900000
826.321899	183.700000
826.356750	178.700000
826.391541	176.800000
826.426392	184.500000
826.461182	179.600000
826.495972	176.900000
826.530823	173.200000
826.565613	180.100000
826.600403	176.900000
826.635254	183.000000
826.670044	174.000000
826.704834	175.500000
826.739685	175.700000
826.774475	181.700000
826.809265	179.100000
826.844055	179.000000
826.878906	183.600000
826.913635	182.100000
826.948425	181.300000
826.983215	181.600000
827.018005	183.000000
827.052856	177.800000
827.087585	181.300000
827.122375	176.800000
827.157227	178.900000
827.191956	190.000000
827.226746	175.900000
827.261536	182.700000
827.296265	176.600000
827.331116	179.200000
827.365906	182.000000
827.400635	177.900000
827.435425	173.900000
827.470215	184.400000
827.504944	178.200000
827.539734	184.300000
827.574463	179.300000
827.609253	186.100000
827.644043	177.800000
827.678772	182.200000
827.713562	178.200000
827.748352	179.500000
827.783081	176.300000
827.817871	181.400000
827.852600	175.800000
827.887329	179.900000
827.922119	172.100000
827.956848	180.900000
827.991638	189.200000
828.026367	179.400000
828.061157	178.900000
828.095886	179.900000
828.130615	190.800000
828.165344	173.500000
828.200073	179.400000
828.234863	178.800000
828.269592	179.700000
828.304321	181.500000
828.339111	179.500000
828.373779	177.900000
828.408569	183.000000
828.443298	183.100000
828.477966	178.900000
828.512756	179.400000
828.547424	176.800000
828.582214	176.600000
828.616943	179.200000
828.651672	178.800000
828.686340	183.100000
828.721130	176.800000
828.755798	180.600000
828.790527	179.700000
828.825256	180.100000
828.859924	180.300000
828.894714	184.000000
828.929443	185.100000
828.964111	178.700000
828.998840	181.300000
829.033569	176.800000
829.068237	179.200000
829.102966	177.900000
829.137634	179.400000
829.172363	181.000000
829.207092	179.200000
829.241821	178.300000
829.276489	175.400000
829.311157	181.300000
829.345825	178.400000
829.380554	184.100000
829.415283	176.700000
829.449951	175.700000
829.484619	184.500000
829.519348	183.700000
829.554016	179.100000
829.588745	179.400000
829.623413	175.800000
829.658081	188.400000
829.692749	175.300000
829.727417	182.600000
829.762146	180.100000
829.796814	176.700000
829.831482	177.700000
829.866150	179.200000
829.900879	176.700000
829.935486	181.700000
829.970154	178.600000
830.004883	188.700000
830.039490	180.600000
830.074219	176.700000
830.108887	178.700000
830.143494	178.300000
830.178223	175.100000
830.212891	178.300000
830.247498	179.000000
830.282166	184.800000
830.316772	184.100000
830.351501	177.800000
830.386169	179.000000
830.420776	179.200000
830.455444	180.900000
830.490112	177.100000
830.524719	175.200000
830.559387	179.900000
830.594055	182.000000
830.628662	180.400000
830.663330	180.000000
830.697998	183.800000
830.732605	180.400000
830.767273	179.000000
830.801941	180.100000
830.836487	185.900000
830.871155	181.800000
830.905762	180.300000
830.940430	175.500000
830.975098	175.600000
831.009644	181.300000
831.044312	184.800000
831.078979	180.300000
831.113525	174.500000
831.148193	180.600000
831.182861	179.100000
831.217407	182.000000
831.252075	188.700000
831.286621	178.600000
831.321289	176.900000
831.355896	178.700000
831.390564	184.500000
831.425110	180.100000
831.459778	182.900000
831.494324	187.800000
831.528931	181.800000
831.563599	183.200000
831.598145	175.400000
831.632751	179.000000
831.667419	178.600000
831.701965	180.900000
831.736572	181.700000
831.771179	175.600000
831.805786	178.900000
831.840393	184.400000
831.874939	174.500000
831.909546	182.400000
831.944153	175.400000
831.978760	180.200000
832.013306	177.200000
832.047913	183.600000
832.082458	188.300000
832.117065	177.300000
832.151672	187.600000
832.186218	180.500000
832.220825	183.000000
832.255432	174.000000
832.289978	178.300000
832.324585	180.200000
832.359192	181.200000
832.393677	179.000000
832.428284	180.700000
832.462830	178.900000
832.497437	179.500000
832.531982	181.300000
832.566589	179.400000
832.601135	180.500000
832.635681	175.200000
832.670227	179.800000
832.704773	184.600000
832.739380	180.600000
832.773926	180.900000
832.808472	177.700000
832.843079	180.600000
832.877563	182.500000
832.912170	177.500000
832.946716	175.000000
832.981201	184.700000
833.015808	181.800000
833.050293	180.100000
833.084839	177.200000
833.119446	178.800000
833.153992	181.900000
833.188477	178.400000
833.223022	177.800000
833.257568	180.200000
833.292114	184.100000
833.326660	187.800000
833.361145	178.400000
833.395691	173.900000
833.430237	179.600000
833.464783	181.800000
833.499329	178.100000
833.533875	176.700000
833.568359	183.100000
833.602905	183.100000
833.637390	183.400000
833.671875	177.300000
833.706421	178.700000
833.740906	177.500000
833.775452	174.900000
833.809998	176.800000
833.844482	186.100000
833.879028	179.100000
833.913513	179.300000
833.947998	182.200000
833.982544	178.400000
834.017090	177.500000
834.051514	172.800000
834.086060	180.500000
834.120544	179.500000
834.155029	182.300000
834.189575	179.500000
834.223999	181.000000
834.258545	181.700000
834.293030	180.200000
834.327515	180.600000
834.362000	177.900000
834.396545	182.500000
834.430969	179.100000
834.465454	181.300000
834.500000	174.600000
834.534424	179.800000
834.568970	174.700000
834.603455	174.700000
834.637878	178.300000
834.672363	180.400000
834.706909	179.400000
834.741333	180.200000
834.775818	174.600000
834.810242	176.400000
834.844727	180.900000
834.879211	178.600000
834.913635	179.400000
834.948181	180.000000
834.982666	180.700000
835.017090	177.800000
835.051575	182.200000
835.086060	177.900000
835.120483	181.400000
835.154907	182.000000
835.189331	180.500000
835.223816	181.600000
835.258301	176.000000
835.292786	177.400000
835.327209	181.900000
835.361694	178.200000
835.396057	177.800000
835.430542	180.700000
835.465027	179.700000
835.499390	177.600000
835.533875	207.600000
835.568359	177.700000
835.602722	175.400000
835.637207	179.100000
835.671692	176.200000
835.706055	192.400000
835.740540	180.900000
835.774902	180.300000
835.809387	181.700000
835.843811	175.400000
835.878235	183.900000
835.912659	175.300000
835.947083	177.500000
835.981506	180.000000
836.015930	174.900000
836.050354	182.700000
836.084778	184.800000
836.119202	183.400000
836.153625	191.200000
836.187988	177.100000
836.222473	176.700000
836.256897	181.300000
836.291260	179.500000
836.325684	181.300000
836.360046	178.600000
836.394470	178.700000
836.428894	183.500000
836.463318	177.300000
836.497681	180.800000
836.532104	183.100000
836.566467	178.800000
836.600891	178.800000
836.635315	183.000000
836.669678	180.600000
836.704102	181.800000
836.738525	182.200000
836.772888	173.700000
836.807251	177.200000
836.841675	181.700000
836.876038	177.800000
836.910461	176.900000
836.944763	183.600000
836.979187	176.200000
837.013611	182.900000
837.047974	176.300000
837.082336	189.900000
837.116699	182.300000
837.151062	180.600000
837.185486	176.200000
837.219849	178.100000
837.254211	182.900000
837.288574	180.400000
837.322937	175.200000
837.357300	173.900000
837.391663	187.000000
837.426086	183.700000
837.460388	180.500000
837.494751	183.300000
837.529114	177.600000
837.563477	183.500000
837.597839	179.500000
837.632141	179.100000
837.666565	177.700000
837.700928	182.100000
837.735229	181.600000
837.769592	182.300000
837.803955	182.100000
837.838257	177.700000
837.872620	177.300000
837.906982	185.600000
837.941284	179.800000
837.975647	180.500000
838.010010	183.100000
838.044312	179.600000
838.078674	177.200000
838.112976	180.700000
838.147339	181.900000
838.181702	179.000000
838.216003	185.400000
838.250366	182.000000
838.284668	181.900000
838.318970	175.500000
838.353333	178.500000
838.387634	179.400000
838.421936	180.000000
838.456299	181.500000
838.490601	185.300000
838.524902	183.000000
838.559265	183.400000
838.593567	182.400000
838.627869	176.300000
838.662170	181.500000
838.696472	175.400000
838.730774	176.900000
838.765137	182.000000
838.799377	171.000000
838.833740	180.500000
838.868042	183.500000
838.902283	174.000000
838.936646	184.000000
838.970947	181.300000
839.005188	184.900000
839.039551	175.300000
839.073792	184.600000
839.108093	178.700000
839.142395	186.100000
839.176697	175.600000
839.210937	180.900000
839.245300	186.500000
839.279541	175.400000
839.313843	179.100000
839.348145	181.200000
839.382385	183.800000
839.416687	183.100000
839.450989	181.200000
839.485229	179.000000
839.519531	176.900000
839.553833	183.800000
839.588013	179.100000
839.622314	181.000000
839.656555	181.200000
839.690857	180.600000
839.725159	175.000000
839.759460	179.300000
839.793640	177.500000
839.827942	179.500000
839.862183	176.200000
839.896423	180.800000
839.930725	188.600000
839.964966	188.100000
839.999207	183.200000
840.033508	185.900000
840.067688	178.200000
840.101990	185.700000
840.136230	181.000000
840.170471	184.800000
840.204712	176.500000
840.238953	178.800000
840.273193	180.500000
840.307434	183.900000
840.341736	178.200000
840.375916	177.300000
840.410217	177.300000
840.444397	183.900000
840.478638	181.500000
840.512878	184.800000
840.547119	182.300000
840.581360	183.100000
840.615601	186.100000
840.649780	189.300000
840.684021	179.600000
840.718262	186.000000
840.752441	185.900000
840.786682	180.700000
840.820862	181.400000
840.855103	187.100000
840.889343	178.500000
840.923584	184.100000
840.957764	181.600000
840.992004	181.100000
841.026184	191.700000
841.060425	178.900000
841.094666	178.400000
841.128845	183.600000
841.163025	180.900000
841.197266	182.000000
841.231445	180.800000
841.265686	182.700000
841.299866	177.000000
841.334045	185.000000
841.368286	181.700000
841.402405	184.700000
841.436646	182.700000
841.470825	178.800000
841.505005	179.500000
841.539185	176.700000
841.573425	178.400000
841.607544	179.000000
841.641785	180.400000
841.675964	178.500000
841.710144	181.200000
841.744324	178.300000
841.778503	180.700000
841.812683	178.200000
841.846863	186.800000
841.881042	185.900000
841.915222	179.100000
841.949402	189.200000
841.983521	175.900000
842.017700	179.600000
842.051880	180.400000
842.086060	182.600000
842.120239	180.600000
842.154419	177.600000
842.188538	181.300000
842.222717	178.500000
842.256897	186.900000
842.291016	180.300000
842.325195	183.400000
842.359375	188.200000
842.393494	186.800000
842.427673	179.300000
842.461853	182.500000
842.495911	187.600000
842.530090	183.200000
842.564209	180.200000
842.598389	181.400000
842.632568	181.100000
842.666626	184.600000
842.700806	178.900000
842.734985	178.700000
842.769043	183.800000
842.803223	179.200000
842.837402	179.600000
842.871460	179.000000
842.905640	188.100000
842.939697	176.700000
842.973877	181.700000
843.007996	183.900000
843.042175	187.700000
843.076233	177.300000
843.110413	183.400000
843.144470	185.500000
843.178589	184.000000
843.212769	178.500000
843.246826	185.400000
843.280945	178.300000
843.315125	180.500000
843.349182	177.900000
843.383301	183.600000
843.417419	190.100000
843.451538	181.600000
843.485657	178.000000
843.519714	182.300000
843.553833	181.300000
843.587952	180.200000
843.622070	178.700000
843.656128	183.300000
843.690247	177.800000
843.724304	181.200000
843.758423	182.200000
843.792542	180.700000
843.826599	182.400000
843.860718	180.700000
843.894836	175.200000
843.928894	181.400000
843.963013	181.600000
843.997070	178.100000
844.031128	176.000000
844.065247	184.400000
844.099304	183.900000
844.133362	182.200000
844.167480	182.400000
844.201599	186.100000
844.235596	181.000000
844.269714	183.600000
844.303711	181.800000
844.337830	176.000000
844.371948	181.600000
844.405945	180.700000
844.440063	177.100000
844.474121	189.700000
844.508118	179.500000
844.542236	180.500000
844.576294	180.400000
844.610352	177.600000
844.644409	181.400000
844.678406	175.300000
844.712524	184.400000
844.746582	185.400000
844.780640	180.800000
844.814636	179.200000
844.848755	189.500000
844.882751	180.800000
844.916809	183.800000
844.950867	182.600000
844.984863	186.500000
845.018921	178.400000
845.052979	179.300000
845.086975	182.400000
845.121033	176.100000
845.155090	178.800000
845.189087	186.400000
845.223145	178.700000
845.257141	183.000000
845.291199	182.900000
845.325256	185.200000
845.359253	182.900000
845.393250	192.100000
845.427307	180.200000
845.461304	183.400000
845.495361	180.100000
845.529358	187.900000
845.563354	179.900000
845.597412	178.500000
845.631409	186.500000
845.665405	186.200000
845.699463	183.000000
845.733459	179.600000
845.767456	186.600000
845.801453	181.500000
845.835449	185.000000
845.869446	183.400000
845.903503	183.400000
845.937439	179.000000
845.971497	185.900000
846.005493	176.300000
846.039429	185.800000
846.073486	188.600000
846.107483	180.600000
846.141418	180.200000
846.175476	180.300000
846.209473	186.000000
846.243408	178.800000
846.277405	180.900000
846.311401	179.300000
846.345337	180.300000
846.379395	185.100000
846.413330	178.000000
846.447327	189.600000
846.481323	178.900000
846.515259	180.300000
846.549255	178.900000
846.583252	183.400000
846.617187	177.300000
846.651184	183.800000
846.685120	180.200000
846.719055	187.800000
846.753052	183.400000
846.786987	185.700000
846.820984	176.100000
846.854980	187.900000
846.888916	177.900000
846.922852	184.000000
846.956848	185.400000
846.990723	179.200000
847.024719	181.500000
847.058716	180.700000
847.092590	185.300000
847.126587	183.000000
847.160522	178.600000
847.194458	185.300000
847.228455	178.300000
847.262390	177.300000
847.296265	180.100000
847.330261	184.900000
847.364136	179.300000
847.398132	181.100000
847.432068	181.400000
847.466003	180.900000
847.499939	180.800000
847.533875	185.100000
847.567749	179.600000
847.601746	180.700000
847.635681	182.000000
847.669556	176.400000
847.703491	185.800000
847.737427	191.300000
847.771301	178.400000
847.805237	184.000000
847.839233	183.400000
847.873108	180.900000
847.907043	180.200000
847.940918	187.800000
847.974854	182.100000
848.008789	183.900000
848.042664	180.900000
848.076538	182.000000
848.110474	182.300000
848.144348	181.500000
848.178284	177.700000
848.212219	182.400000
848.246094	180.900000
848.279968	181.900000
848.313904	182.900000
848.347778	181.300000
848.381653	181.500000
848.415588	179.200000
848.449463	179.600000
848.483337	182.900000
848.517212	187.900000
848.551086	182.000000
848.585022	179.100000
848.618835	190.200000
848.652771	180.900000
848.686646	178.200000
848.720520	187.100000
848.754395	181.100000
848.788330	184.500000
848.822144	184.400000
848.856018	180.200000
848.889954	188.600000
848.923767	179.800000
848.957642	178.300000
848.991577	182.300000
849.025391	179.800000
849.059265	179.800000
849.093079	178.400000
849.126953	178.300000
849.160828	184.300000
849.194641	183.800000
849.228577	179.500000
849.262451	180.800000
849.296265	180.800000
849.330139	177.500000
849.364014	181.600000
849.397827	182.600000
849.431702	181.600000
849.465515	186.200000
849.499329	176.200000
849.533203	177.000000
849.567078	173.700000
849.600891	182.900000
849.634766	181.700000
849.668518	183.800000
849.702393	182.200000
849.736267	176.000000
849.770020	188.800000
849.803894	182.400000
849.837769	182.800000
849.871521	180.900000
849.905396	184.000000
849.939270	178.100000
849.973022	183.200000
850.006897	183.800000
850.040710	183.900000
850.074524	183.800000
850.108337	180.900000
850.142151	186.200000
850.175964	187.800000
850.209778	181.000000
850.243530	175.300000
850.277405	184.100000
850.311218	181.600000
850.344971	178.400000
850.378845	188.300000
850.412659	178.500000
850.446411	182.800000
850.480225	180.900000
850.514038	184.700000
850.547791	183.900000
850.581665	182.100000
850.615417	177.700000
850.649231	182.300000
850.683044	179.600000
850.716858	181.400000
850.750610	181.400000
850.784424	184.000000
850.818176	178.000000
850.851929	180.500000
850.885742	178.300000
850.919495	179.900000
850.953308	186.300000
850.987122	186.500000
851.020874	176.500000
851.054626	176.700000
851.088440	182.100000
851.122192	183.700000
851.156006	181.500000
851.189697	180.500000
851.223511	176.900000
851.257263	184.800000
851.291077	183.600000
851.324829	179.700000
851.358582	180.500000
851.392334	179.500000
851.426086	180.400000
851.459900	187.100000
851.493591	182.300000
851.527344	181.300000
851.561157	181.900000
851.594849	182.000000
851.628662	181.500000
851.662415	188.900000
851.696106	184.100000
851.729858	184.300000
851.763611	178.700000
851.797363	182.100000
851.831116	177.400000
851.864868	184.300000
851.898560	184.700000
851.932312	178.800000
851.966064	183.000000
851.999817	179.700000
852.033569	179.800000
852.067261	186.200000
852.101013	179.500000
852.134766	180.300000
852.168457	174.200000
852.202209	184.800000
852.235901	177.700000
852.269592	183.000000
852.303345	187.900000
852.337036	183.600000
852.370789	180.700000
852.404541	183.600000
852.438171	178.900000
852.471924	181.400000
852.505676	175.700000
852.539307	183.400000
852.573059	180.000000
852.606812	180.500000
852.640442	180.300000
852.674194	185.300000
852.707886	189.700000
852.741577	187.100000
852.775269	178.600000
852.809021	182.700000
852.842651	183.600000
852.876404	186.000000
852.910034	182.000000
852.943787	185.600000
852.977478	183.300000
853.011108	180.000000
853.044861	178.200000
853.078552	185.800000
853.112183	182.300000
853.145874	182.600000
853.179626	176.200000
853.213257	182.400000
853.246948	179.300000
853.280640	189.000000
853.314270	180.100000
853.347961	187.400000
853.381653	183.100000
853.415283	186.300000
853.448975	177.700000
853.482605	183.600000
853.516296	180.800000
853.549988	177.700000
853.583618	183.300000
853.617310	183.300000
853.651001	182.100000
853.684631	179.100000
853.718323	179.700000
853.751953	185.500000
853.785583	176.400000
853.819275	184.200000
853.852966	182.900000
853.886536	176.300000
853.920227	177.200000
853.953918	185.500000
853.987488	179.500000
854.021179	184.600000
854.054749	186.600000
854.088440	183.300000
854.122131	178.300000
854.155701	183.500000
854.189331	179.700000
854.223022	183.800000
854.256592	182.500000
854.290283	178.300000
854.323914	182.900000
854.357483	181.900000
854.391174	181.800000
854.424744	186.800000
854.458374	182.800000
854.492065	190.400000
854.525696	184.000000
854.559265	185.600000
854.592896	190.800000
854.626465	182.700000
854.660095	181.700000
854.693787	183.300000
854.727356	180.400000
854.760986	184.200000
854.794617	183.900000
854.828186	179.400000
854.861816	184.400000
854.895447	183.100000
854.929016	183.200000
854.962585	181.900000
854.996155	189.300000
855.029785	183.500000
855.063416	182.900000
855.097046	185.700000
855.130615	178.900000
855.164185	184.900000
855.197754	182.900000
855.231384	181.500000
855.264954	180.300000
855.298523	184.800000
855.332153	182.200000
855.365723	185.500000
855.399292	178.900000
855.432922	180.600000
855.466492	184.300000
855.500061	179.900000
855.533630	179.600000
855.567200	184.000000
855.600769	183.900000
855.634338	185.600000
855.667969	182.000000
855.701477	179.000000
855.735046	178.900000
855.768616	176.700000
855.802185	182.200000
855.835754	190.900000
855.869324	175.400000
855.902893	180.300000
855.936401	184.400000
855.969971	182.100000
856.003540	177.600000
856.037109	184.100000
856.070618	180.700000
856.104187	177.400000
856.137695	179.300000
856.171265	175.500000
856.204834	183.200000
856.238403	184.900000
856.271912	179.100000
856.305481	184.600000
856.338989	176.500000
856.372559	183.700000
856.406128	182.600000
856.439636	185.500000
856.473145	179.500000
856.506653	186.900000
856.540222	180.900000
856.573792	186.100000
856.607300	184.100000
856.640808	178.400000
856.674377	182.200000
856.707825	215.700000
856.741394	184.800000
856.774902	179.400000
856.808472	175.100000
856.841980	185.100000
856.875488	186.500000
856.908936	177.100000
856.942505	180.200000
856.976013	180.100000
857.009521	178.500000
857.043030	182.600000
857.076477	179.700000
857.110046	185.000000
857.143555	182.500000
857.177063	184.300000
857.210571	181.000000
857.244080	178.000000
857.277527	184.400000
857.311035	180.700000
857.344543	185.100000
857.378052	181.100000
857.411499	185.400000
857.445068	187.800000
857.478516	181.300000
857.512024	177.400000
857.545532	181.400000
857.578979	181.800000
857.612427	182.200000
857.645874	179.000000
857.679382	182.700000
857.712891	186.000000
857.746399	181.900000
857.779846	184.600000
857.813354	186.600000
857.846741	180.900000
857.880249	179.400000
857.913757	182.400000
857.947266	183.200000
857.980652	184.500000
858.014160	182.100000
858.047546	179.800000
858.081055	181.000000
858.114563	191.600000
858.147949	178.500000
858.181458	182.700000
858.214844	181.700000
858.248352	174.400000
858.281799	185.400000
858.315308	189.100000
858.348694	185.100000
858.382141	188.600000
858.415588	184.600000
858.449036	185.100000
858.482483	182.500000
858.515930	180.100000
858.549377	183.600000
858.582825	186.000000
858.616211	184.700000
858.649658	183.600000
858.683105	177.700000
858.716553	179.800000
858.750000	177.500000
858.783386	179.800000
858.816833	176.800000
858.850281	182.300000
858.883728	182.800000
858.917114	181.800000
858.950562	187.400000
858.983948	187.500000
859.017395	185.900000
859.050781	180.900000
859.084167	178.600000
859.117615	178.600000
859.151062	184.000000
859.184448	178.700000
859.217834	181.100000
859.251282	179.300000
859.284668	177.900000
859.318054	176.100000
859.351440	180.500000
859.384888	187.200000
859.418274	175.700000
859.451721	176.600000
859.485046	182.600000
859.518494	183.800000
859.551819	178.500000
859.585266	183.700000
859.618652	186.100000
859.652039	178.500000
859.685425	178.100000
859.718811	177.900000
859.752197	173.200000
859.785583	185.700000
859.819031	186.900000
859.852356	184.000000
859.885742	177.600000
859.919067	181.500000
859.952454	178.800000
859.985901	185.000000
860.019287	181.100000
860.052612	0.000000
860.085999	0.000000
860.119324	0.000000
860.152710	0.000000
860.186096	0.000000
860.219421	0.000000
860.252808	0.000000
860.286133	0.000000
860.319519	0.000000
860.352905	0.000000
860.386292	0.000000
860.419617	0.000000
860.452942	0.000000
860.486267	0.000000
860.519653	0.000000
860.553040	0.000000
860.586365	0.000000
860.619690	0.000000
860.653076	0.000000
860.686340	0.000000
860.719727	0.000000
860.753113	0.000000
860.786377	0.000000
860.819763	0.000000
860.853027	0.000000
860.886414	0.000000
860.919739	0.000000
860.953125	0.000000
860.986389	0.000000
861.019714	0.000000
861.053040	0.000000
861.086365	0.000000
861.119690	0.000000
861.153076	0.000000
861.186340	0.000000
861.219666	0.000000
861.252930	0.000000
861.286316	0.000000
861.319641	0.000000
861.352905	0.000000
861.386230	0.000000
861.419495	0.000000
861.452820	0.000000
861.486145	0.000000
861.519470	0.000000
861.552734	0.000000
861.586060	0.000000
861.619324	0.000000
861.652649	0.000000
861.685974	0.000000
861.719238	0.000000
861.752563	0.000000
861.785828	0.000000
861.819092	0.000000
861.852417	0.000000
861.885742	0.000000
861.918945	0.000000
861.952271	0.000000
861.985535	0.000000
862.018799	0.000000
862.052124	0.000000
862.085449	0.000000
862.118652	0.000000
862.151978	0.000000
862.185181	0.000000
862.218506	0.000000
862.251770	0.000000
862.285034	0.000000
862.318298	0.000000
862.351562	0.000000
862.384827	0.000000
862.418091	0.000000
862.451355	0.000000
862.484619	0.000000
862.517883	0.000000
862.551086	0.000000
862.584351	0.000000
862.617676	0.000000
862.650940	0.000000
862.684143	0.000000
862.717407	0.000000
862.750610	0.000000
862.783875	0.000000
862.817139	0.000000
862.850342	0.000000
862.883606	0.000000
862.916870	0.000000
862.950073	0.000000
862.983337	0.000000
863.016602	0.000000
863.049805	0.000000
863.083069	0.000000
863.116211	0.000000
863.149475	0.000000
863.182739	0.000000
863.216003	0.000000
863.249146	0.000000
863.282410	0.000000
863.315613	0.000000
863.348816	0.000000
863.382080	0.000000
863.415222	0.000000
863.448486	0.000000
863.481689	0.000000
863.514893	0.000000
863.548157	0.000000
863.581360	0.000000
863.614502	0.000000
863.647766	0.000000
863.680908	0.000000
863.714172	0.000000
863.747375	0.000000
863.780579	0.000000
863.813721	0.000000
863.846985	0.000000
863.880127	0.000000
863.913330	0.000000
863.946533	0.000000
863.979675	0.000000
864.012939	0.000000
