Model Number: SPM-001-M   
Serial Number: 10090201
Firmware Version: 004.17.6
Exposure Time: 300000.000000us
Data Taken on: 28-01-2021 10:34:48.480
Wavelength	Amplitude
733.770752	0.000000
733.808716	0.000000
733.846619	0.000000
733.884583	0.000000
733.922546	0.000000
733.960449	0.000000
733.998413	0.000000
734.036377	0.000000
734.074219	0.000000
734.112183	0.000000
734.150085	0.000000
734.188049	0.000000
734.226013	0.000000
734.263916	0.000000
734.301819	0.000000
734.339783	0.000000
734.377686	0.000000
734.415588	0.000000
734.453552	0.000000
734.491455	0.000000
734.529419	0.000000
734.567322	0.000000
734.605225	0.000000
734.643127	0.000000
734.681091	0.000000
734.718994	0.000000
734.756897	0.000000
734.794800	0.000000
734.832703	0.000000
734.870667	0.000000
734.908508	0.000000
734.946472	0.000000
734.984375	0.000000
735.022278	0.000000
735.060181	0.000000
735.098083	0.000000
735.135986	0.000000
735.173889	0.000000
735.211792	0.000000
735.249695	0.000000
735.287598	0.000000
735.325439	0.000000
735.363403	0.000000
735.401306	0.000000
735.439148	0.000000
735.477051	0.000000
735.515015	0.000000
735.552856	0.000000
735.590759	0.000000
735.628662	0.000000
735.666504	0.000000
735.704407	0.000000
735.742310	0.000000
735.780212	0.000000
735.818115	0.000000
735.856018	0.000000
735.893860	0.000000
735.931763	0.000000
735.969604	0.000000
736.007507	0.000000
736.045410	0.000000
736.083252	0.000000
736.121094	0.000000
736.158997	0.000000
736.196838	0.000000
736.234741	0.000000
736.272644	0.000000
736.310486	0.000000
736.348389	0.000000
736.386230	0.000000
736.424072	0.000000
736.461975	0.000000
736.499878	0.000000
736.537720	0.000000
736.575562	0.000000
736.613403	0.000000
736.651306	0.000000
736.689148	0.000000
736.726990	0.000000
736.764893	0.000000
736.802734	0.000000
736.840576	0.000000
736.878418	0.000000
736.916321	0.000000
736.954102	0.000000
736.992004	0.000000
737.029846	0.000000
737.067688	0.000000
737.105530	0.000000
737.143372	0.000000
737.181213	0.000000
737.219116	0.000000
737.256897	0.000000
737.294739	0.000000
737.332642	0.000000
737.370422	0.000000
737.408325	0.000000
737.446167	0.000000
737.483948	0.000000
737.521790	0.000000
737.559692	0.000000
737.597473	0.000000
737.635315	0.000000
737.673157	0.000000
737.710999	0.000000
737.748840	0.000000
737.786621	0.000000
737.824463	0.000000
737.862305	0.000000
737.900085	0.000000
737.937927	0.000000
737.975769	0.000000
738.013550	0.000000
738.051392	0.000000
738.089233	0.000000
738.127014	0.000000
738.164856	0.000000
738.202698	0.000000
738.240479	0.000000
738.278320	0.000000
738.316162	0.000000
738.353943	0.000000
738.391785	0.000000
738.429565	0.000000
738.467407	0.000000
738.505188	0.000000
738.542969	0.000000
738.580811	0.000000
738.618652	0.000000
738.656372	0.000000
738.694214	0.000000
738.732056	0.000000
738.769836	0.000000
738.807617	0.000000
738.845459	0.000000
738.883240	0.000000
738.921021	0.000000
738.958862	0.000000
738.996582	0.000000
739.034424	0.000000
739.072205	0.000000
739.109985	0.000000
739.147827	0.000000
739.185547	0.000000
739.223389	0.000000
739.261169	0.000000
739.298889	0.000000
739.336731	0.000000
739.374512	0.000000
739.412292	0.000000
739.450073	0.000000
739.487854	0.000000
739.525635	0.000000
739.563416	0.000000
739.601135	0.000000
739.638977	0.000000
739.676758	0.000000
739.714478	0.000000
739.752258	0.000000
739.790100	0.000000
739.827820	0.000000
739.865601	0.000000
739.903381	0.000000
739.941101	0.000000
739.978882	184.100000
740.016724	181.500000
740.054443	183.600000
740.092224	180.000000
740.130005	180.200000
740.167725	178.900000
740.205505	178.600000
740.243225	185.100000
740.281006	181.900000
740.318787	177.100000
740.356506	184.900000
740.394287	184.000000
740.432068	179.800000
740.469727	176.500000
740.507507	183.800000
740.545288	180.600000
740.583008	183.300000
740.620789	181.600000
740.658569	177.500000
740.696228	180.900000
740.734009	183.800000
740.771790	172.700000
740.809509	183.500000
740.847229	176.700000
740.884949	179.900000
740.922729	176.200000
740.960449	180.800000
740.998169	177.800000
741.035950	178.900000
741.073669	182.100000
741.111389	181.400000
741.149170	187.400000
741.186890	187.500000
741.224609	182.600000
741.262329	183.600000
741.300110	188.000000
741.337769	178.500000
741.375549	177.100000
741.413208	182.300000
741.450989	179.000000
741.488708	178.000000
741.526367	179.700000
741.564148	184.300000
741.601868	184.800000
741.639526	179.900000
741.677307	183.300000
741.715027	183.400000
741.752686	178.700000
741.790466	187.000000
741.828186	182.700000
741.865845	179.100000
741.903564	176.800000
741.941345	180.800000
741.979004	178.400000
742.016724	183.600000
742.054382	181.900000
742.092102	184.400000
742.129822	176.500000
742.167480	180.600000
742.205200	180.700000
742.242920	181.800000
742.280640	184.500000
742.318359	178.400000
742.356079	179.600000
742.393738	182.500000
742.431396	179.800000
742.469116	184.300000
742.506775	175.000000
742.544495	182.900000
742.582214	184.700000
742.619873	181.600000
742.657593	186.600000
742.695251	185.000000
742.732971	180.000000
742.770630	183.300000
742.808289	181.500000
742.846008	179.700000
742.883728	182.300000
742.921326	181.500000
742.959045	180.000000
742.996765	181.300000
743.034424	181.200000
743.072083	180.000000
743.109802	181.100000
743.147400	178.500000
743.185120	181.400000
743.222839	180.500000
743.260437	185.900000
743.298157	181.600000
743.335754	176.100000
743.373474	181.000000
743.411133	177.800000
743.448792	181.700000
743.486450	182.000000
743.524170	176.900000
743.561768	180.900000
743.599487	186.200000
743.637146	189.600000
743.674744	181.700000
743.712463	179.400000
743.750122	182.200000
743.787720	181.400000
743.825439	180.200000
743.863037	179.100000
743.900696	181.100000
743.938416	205.700000
743.976013	182.200000
744.013672	185.900000
744.051331	184.900000
744.088928	185.500000
744.126587	185.800000
744.164307	180.500000
744.201904	178.300000
744.239563	182.900000
744.277222	183.300000
744.314819	181.300000
744.352478	186.100000
744.390137	182.400000
744.427734	181.900000
744.465393	179.800000
744.502991	178.700000
744.540649	183.700000
744.578308	183.200000
744.615906	177.200000
744.653564	174.600000
744.691223	184.200000
744.728821	177.300000
744.766418	181.000000
744.804077	183.400000
744.841675	180.200000
744.879333	177.100000
744.916992	181.200000
744.954529	180.100000
744.992187	184.500000
745.029785	180.000000
745.067444	178.700000
745.105042	182.700000
745.142639	182.400000
745.180298	189.800000
745.217896	181.200000
745.255493	180.000000
745.293152	183.900000
745.330750	184.700000
745.368347	186.500000
745.405945	184.100000
745.443604	182.000000
745.481140	183.000000
745.518799	180.700000
745.556396	183.200000
745.593994	182.200000
745.631592	181.600000
745.669189	177.800000
745.706787	181.600000
745.744385	179.700000
745.781982	183.100000
745.819580	179.200000
745.857178	181.100000
745.894775	182.400000
745.932373	181.400000
745.969971	181.900000
746.007568	175.200000
746.045166	186.400000
746.082764	185.200000
746.120300	183.200000
746.157898	182.000000
746.195557	180.300000
746.233093	178.000000
746.270691	183.800000
746.308228	182.200000
746.345825	184.200000
746.383423	183.200000
746.420959	178.900000
746.458557	179.600000
746.496155	179.900000
746.533691	181.800000
746.571289	178.700000
746.608887	181.100000
746.646423	182.300000
746.684021	183.200000
746.721619	179.800000
746.759155	182.900000
746.796753	176.900000
746.834351	176.800000
746.871826	179.000000
746.909424	185.300000
746.946960	182.000000
746.984558	182.400000
747.022156	178.900000
747.059631	188.400000
747.097229	184.200000
747.134827	180.500000
747.172363	184.500000
747.209900	184.000000
747.247498	177.900000
747.285034	185.800000
747.322571	186.600000
747.360168	180.400000
747.397644	176.500000
747.435242	184.400000
747.472778	185.000000
747.510315	180.600000
747.547913	180.400000
747.585388	185.500000
747.622925	179.100000
747.660522	177.700000
747.697998	179.700000
747.735596	180.600000
747.773132	177.500000
747.810669	181.400000
747.848206	183.600000
747.885742	179.300000
747.923279	176.800000
747.960815	183.300000
747.998352	181.500000
748.035889	184.000000
748.073425	183.000000
748.110901	181.000000
748.148437	177.600000
748.185974	181.500000
748.223511	187.100000
748.261047	182.400000
748.298584	182.200000
748.336060	181.200000
748.373596	184.000000
748.411133	208.100000
748.448608	179.900000
748.486145	183.800000
748.523682	185.500000
748.561218	188.700000
748.598755	181.700000
748.636292	184.500000
748.673706	179.400000
748.711243	187.700000
748.748718	183.100000
748.786255	182.100000
748.823792	182.700000
748.861267	177.700000
748.898804	183.500000
748.936340	182.700000
748.973816	179.700000
749.011292	186.600000
749.048828	183.300000
749.086304	183.300000
749.123840	188.300000
749.161316	179.200000
749.198792	188.600000
749.236328	184.800000
749.273743	181.500000
749.311279	179.500000
749.348816	183.500000
749.386230	181.600000
749.423767	173.400000
749.461304	181.900000
749.498718	181.700000
749.536255	183.600000
749.573730	188.400000
749.611206	186.300000
749.648682	179.900000
749.686218	179.500000
749.723633	182.600000
749.761169	180.500000
749.798645	179.700000
749.836060	179.400000
749.873596	178.200000
749.911011	182.000000
749.948547	186.300000
749.986023	181.400000
750.023437	179.800000
750.060913	178.100000
750.098450	178.100000
750.135864	180.300000
750.173340	180.600000
750.210815	185.400000
750.248291	178.900000
750.285767	180.400000
750.323242	185.600000
750.360657	183.000000
750.398132	178.000000
750.435608	183.300000
750.473022	179.700000
750.510498	179.600000
750.547974	178.000000
750.585449	180.500000
750.622925	175.400000
750.660339	190.900000
750.697815	182.600000
750.735291	181.700000
750.772644	180.200000
750.810120	184.300000
750.847595	181.900000
750.885010	177.900000
750.922485	186.000000
750.959961	181.700000
750.997375	186.500000
751.034851	184.900000
751.072266	184.400000
751.109680	177.900000
751.147156	186.300000
751.184570	183.600000
751.221985	180.600000
751.259460	176.900000
751.296875	180.100000
751.334290	181.000000
751.371765	184.200000
751.409180	185.400000
751.446594	185.900000
751.484070	182.300000
751.521423	180.900000
751.558899	182.600000
751.596375	187.700000
751.633728	186.000000
751.671204	188.600000
751.708618	178.500000
751.746033	182.700000
751.783447	177.100000
751.820801	179.900000
751.858276	184.000000
751.895691	181.400000
751.933105	179.400000
751.970520	178.400000
752.007935	180.600000
752.045349	184.800000
752.082764	181.500000
752.120178	179.300000
752.157532	180.200000
752.195007	179.500000
752.232422	183.000000
752.269775	185.000000
752.307190	185.800000
752.344543	178.100000
752.382019	180.700000
752.419434	180.500000
752.456787	184.700000
752.494202	185.900000
752.531616	181.800000
752.568970	184.700000
752.606384	183.300000
752.643799	183.000000
752.681152	187.200000
752.718567	183.700000
752.755981	177.100000
752.793335	184.400000
752.830750	176.400000
752.868164	184.700000
752.905518	178.200000
752.942932	185.000000
752.980225	178.000000
753.017639	184.700000
753.055054	183.700000
753.092407	182.500000
753.129822	184.600000
753.167175	186.900000
753.204529	180.900000
753.241943	178.200000
753.279358	178.100000
753.316650	183.700000
753.354065	183.700000
753.391479	184.400000
753.428772	185.300000
753.466187	182.400000
753.503479	176.900000
753.540894	180.200000
753.578308	176.900000
753.615601	177.900000
753.653015	181.300000
753.690369	180.500000
753.727722	178.800000
753.765076	177.800000
753.802490	179.200000
753.839783	176.600000
753.877136	179.700000
753.914551	190.700000
753.951843	177.700000
753.989258	184.800000
754.026611	182.500000
754.063904	182.100000
754.101257	179.100000
754.138611	177.800000
754.175964	183.000000
754.213318	189.500000
754.250610	177.300000
754.288025	179.900000
754.325378	179.300000
754.362671	184.900000
754.400024	182.700000
754.437378	188.700000
754.474670	187.000000
754.512085	179.400000
754.549438	182.200000
754.586731	179.600000
754.624084	180.800000
754.661438	178.400000
754.698730	187.900000
754.736084	180.000000
754.773376	180.800000
754.810730	183.400000
754.848083	181.800000
754.885315	184.700000
754.922668	176.400000
754.960022	178.200000
754.997314	185.000000
755.034668	181.000000
755.072021	181.600000
755.109253	179.100000
755.146606	186.700000
755.183960	181.600000
755.221252	188.100000
755.258545	185.200000
755.295898	186.500000
755.333191	186.800000
755.370544	184.500000
755.407776	181.700000
755.445129	184.100000
755.482422	184.800000
755.519714	180.600000
755.557068	177.900000
755.594360	178.700000
755.631653	185.500000
755.668945	188.500000
755.706299	183.500000
755.743530	191.900000
755.780884	188.900000
755.818176	186.200000
755.855408	187.100000
755.892761	184.900000
755.930054	183.200000
755.967346	184.500000
756.004639	186.000000
756.041870	185.000000
756.079224	188.500000
756.116516	181.100000
756.153748	185.800000
756.191040	190.000000
756.228394	185.500000
756.265625	180.500000
756.302917	184.100000
756.340210	181.600000
756.377441	186.800000
756.414795	189.600000
756.452087	183.700000
756.489319	180.000000
756.526611	188.400000
756.563843	183.600000
756.601135	189.100000
756.638428	190.200000
756.675659	183.300000
756.712952	186.700000
756.750244	185.700000
756.787476	185.500000
756.824768	190.500000
756.862061	183.400000
756.899292	229.000000
756.936584	188.300000
756.973816	191.800000
757.011047	191.900000
757.048340	186.300000
757.085632	186.100000
757.122864	198.900000
757.160156	182.700000
757.197327	186.600000
757.234619	188.300000
757.271912	185.000000
757.309082	189.000000
757.346375	184.400000
757.383667	190.600000
757.420837	187.000000
757.458130	188.200000
757.495422	184.800000
757.532593	187.600000
757.569885	183.000000
757.607117	183.600000
757.644348	187.000000
757.681580	196.400000
757.718811	178.700000
757.756042	187.200000
757.793335	186.200000
757.830505	189.800000
757.867798	185.200000
757.905029	185.700000
757.942200	187.500000
757.979492	186.400000
758.016724	187.100000
758.053894	186.800000
758.091187	198.400000
758.128418	187.000000
758.165588	187.200000
758.202820	196.700000
758.240112	188.800000
758.277283	194.900000
758.314514	187.700000
758.351685	187.600000
758.388916	193.500000
758.426147	194.100000
758.463379	194.400000
758.500610	190.600000
758.537842	189.500000
758.575012	193.300000
758.612244	185.700000
758.649475	198.000000
758.686646	184.100000
758.723877	194.300000
758.761108	195.700000
758.798279	190.400000
758.835510	191.600000
758.872742	194.700000
758.909851	191.700000
758.947083	192.000000
758.984253	191.900000
759.021484	193.800000
759.058716	192.400000
759.095886	195.200000
759.133057	191.700000
759.170288	192.900000
759.207458	190.200000
759.244690	198.800000
759.281860	197.800000
759.319031	193.200000
759.356262	191.200000
759.393433	191.300000
759.430603	192.800000
759.467773	193.700000
759.505005	197.400000
759.542175	196.200000
759.579346	192.200000
759.616516	193.200000
759.653687	195.900000
759.690918	190.600000
759.728027	195.600000
759.765259	196.200000
759.802429	196.200000
759.839539	195.100000
759.876770	197.900000
759.913940	201.300000
759.951111	194.600000
759.988281	195.300000
760.025452	192.700000
760.062561	191.300000
760.099792	201.600000
760.136963	196.700000
760.174072	193.200000
760.211243	191.000000
760.248413	193.100000
760.285583	193.100000
760.322754	203.700000
760.359863	199.600000
760.397034	201.700000
760.434204	196.000000
760.471375	197.900000
760.508545	194.200000
760.545715	196.200000
760.582825	193.300000
760.619995	199.300000
760.657166	192.500000
760.694275	202.700000
760.731445	199.300000
760.768555	198.400000
760.805664	200.400000
760.842834	197.200000
760.879944	200.900000
760.917114	198.700000
760.954285	197.900000
760.991394	194.100000
761.028564	202.100000
761.065674	201.200000
761.102783	197.400000
761.139954	203.600000
761.177124	202.000000
761.214172	203.600000
761.251343	199.200000
761.288452	199.700000
761.325562	203.600000
761.362732	197.100000
761.399841	200.100000
761.436951	200.900000
761.474121	197.100000
761.511169	200.400000
761.548340	203.700000
761.585449	201.600000
761.622559	204.300000
761.659668	202.300000
761.696838	206.100000
761.733887	202.300000
761.771057	201.100000
761.808167	201.700000
761.845276	205.200000
761.882385	210.200000
761.919434	203.600000
761.956604	213.600000
761.993713	200.900000
762.030762	205.100000
762.067871	202.900000
762.105042	202.800000
762.142090	208.500000
762.179199	203.700000
762.216309	206.700000
762.253418	212.700000
762.290527	211.900000
762.327637	209.100000
762.364685	202.900000
762.401794	207.500000
762.438904	207.200000
762.475952	204.100000
762.513062	202.400000
762.550110	203.500000
762.587219	214.800000
762.624329	213.500000
762.661377	208.900000
762.698486	207.900000
762.735596	208.400000
762.772644	204.800000
762.809753	203.100000
762.846863	207.800000
762.883911	211.600000
762.921021	209.000000
762.958069	209.100000
762.995117	214.000000
763.032227	215.200000
763.069336	207.800000
763.106323	206.600000
763.143433	205.900000
763.180481	211.000000
763.217590	212.300000
763.254639	209.900000
763.291687	209.700000
763.328735	216.000000
763.365845	211.700000
763.402893	209.400000
763.439941	213.200000
763.477051	213.400000
763.514038	214.200000
763.551147	208.500000
763.588196	212.700000
763.625244	210.500000
763.662292	219.100000
763.699402	219.900000
763.736389	216.200000
763.773499	222.600000
763.810486	218.500000
763.847534	216.400000
763.884644	219.000000
763.921631	214.100000
763.958679	221.600000
763.995728	216.500000
764.032776	222.300000
764.069824	215.200000
764.106873	221.700000
764.143860	224.000000
764.180969	219.000000
764.218018	226.300000
764.255005	218.000000
764.292053	222.200000
764.329102	230.200000
764.366089	228.600000
764.403137	225.100000
764.440125	219.200000
764.477173	223.600000
764.514221	226.600000
764.551208	223.200000
764.588257	221.000000
764.625305	226.900000
764.662292	232.600000
764.699341	233.000000
764.736389	229.100000
764.773376	239.300000
764.810425	228.900000
764.847473	234.000000
764.884399	231.000000
764.921448	237.200000
764.958435	237.100000
764.995483	231.400000
765.032532	241.100000
765.069458	231.600000
765.106506	231.800000
765.143555	229.700000
765.180481	235.500000
765.217529	238.400000
765.254578	229.900000
765.291504	237.100000
765.328552	235.500000
765.365540	230.500000
765.402527	241.600000
765.439575	232.300000
765.476501	229.600000
765.513550	232.300000
765.550537	237.000000
765.587463	241.900000
765.624512	234.400000
765.661499	230.000000
765.698486	241.800000
765.735474	233.300000
765.772461	236.800000
765.809448	241.700000
765.846436	242.600000
765.883423	245.300000
765.920410	240.300000
765.957397	236.100000
765.994385	241.900000
766.031311	248.500000
766.068359	241.400000
766.105286	241.900000
766.142273	248.000000
766.179260	243.800000
766.216187	240.400000
766.253174	238.100000
766.290161	244.600000
766.327148	246.000000
766.364136	246.700000
766.401123	256.900000
766.438049	243.600000
766.475037	252.000000
766.512024	251.700000
766.548950	261.400000
766.585937	254.200000
766.622864	250.800000
766.659790	251.900000
766.696777	245.700000
766.733704	254.800000
766.770691	248.000000
766.807678	258.500000
766.844604	253.900000
766.881531	255.600000
766.918518	256.900000
766.955444	256.700000
766.992432	252.700000
767.029358	256.900000
767.066284	258.500000
767.103271	256.800000
767.140198	288.800000
767.177124	267.600000
767.214050	261.800000
767.251038	261.100000
767.287964	259.500000
767.324890	257.400000
767.361816	260.400000
767.398743	264.000000
767.435730	261.000000
767.472595	261.700000
767.509583	266.400000
767.546509	257.800000
767.583374	261.600000
767.620361	257.700000
767.657288	262.100000
767.694214	261.700000
767.731140	262.300000
767.768066	262.700000
767.804993	266.300000
767.841919	261.000000
767.878845	262.500000
767.915710	269.000000
767.952698	264.600000
767.989563	267.700000
768.026489	268.100000
768.063416	265.500000
768.100281	265.700000
768.137207	271.900000
768.174133	268.500000
768.211060	269.200000
768.247986	269.300000
768.284912	268.600000
768.321777	269.700000
768.358704	268.100000
768.395630	268.500000
768.432495	265.700000
768.469421	271.500000
768.506348	274.600000
768.543152	278.900000
768.580078	275.600000
768.616943	274.600000
768.653870	277.800000
768.690796	277.100000
768.727661	276.500000
768.764587	277.800000
768.801453	272.900000
768.838318	280.500000
768.875244	278.900000
768.912109	285.700000
768.948975	278.500000
768.985901	280.000000
769.022766	278.800000
769.059631	282.500000
769.096558	280.400000
769.133362	282.100000
769.170288	283.300000
769.207214	282.500000
769.244019	286.900000
769.280945	284.900000
769.317810	292.100000
769.354675	286.400000
769.391541	293.200000
769.428406	292.300000
769.465271	298.100000
769.502136	289.900000
769.539062	294.800000
769.575867	294.400000
769.612732	295.400000
769.649597	300.200000
769.686462	302.400000
769.723328	298.600000
769.760193	297.000000
769.797058	298.400000
769.833923	304.600000
769.870728	300.000000
769.907593	305.100000
769.944519	304.400000
769.981323	306.200000
770.018188	304.400000
770.055054	305.000000
770.091858	305.700000
770.128723	313.200000
770.165588	318.800000
770.202393	309.000000
770.239258	315.900000
770.276062	314.000000
770.312927	315.300000
770.349792	319.600000
770.386597	319.200000
770.423462	326.200000
770.460327	331.200000
770.497131	319.800000
770.533997	313.900000
770.570862	325.300000
770.607605	328.400000
770.644470	325.600000
770.681335	328.000000
770.718140	325.400000
770.754944	323.300000
770.791809	324.800000
770.828613	324.900000
770.865479	326.700000
770.902222	334.700000
770.939087	330.200000
770.975952	325.100000
771.012695	327.900000
771.049561	339.200000
771.086365	332.300000
771.123169	329.600000
771.159973	332.200000
771.196838	332.600000
771.233582	337.900000
771.270447	336.100000
771.307251	340.000000
771.344055	338.100000
771.380859	337.900000
771.417664	333.900000
771.454468	343.800000
771.491272	344.400000
771.528076	342.900000
771.564880	341.100000
771.601685	348.000000
771.638428	341.400000
771.675293	345.300000
771.712097	337.700000
771.748840	352.300000
771.785645	349.200000
771.822449	353.000000
771.859253	353.600000
771.896057	350.100000
771.932861	357.400000
771.969604	352.800000
772.006409	349.100000
772.043213	358.800000
772.079956	354.000000
772.116760	350.200000
772.153503	354.000000
772.190308	364.600000
772.227112	357.500000
772.263855	356.100000
772.300659	356.600000
772.337463	360.700000
772.374207	353.300000
772.411011	354.500000
772.447754	356.900000
772.484497	368.100000
772.521301	363.500000
772.558105	363.000000
772.594849	362.500000
772.631592	365.200000
772.668396	364.100000
772.705139	370.300000
772.741882	368.800000
772.778625	374.100000
772.815430	373.200000
772.852173	373.900000
772.888916	379.600000
772.925720	380.300000
772.962463	384.000000
772.999207	378.600000
773.035950	378.800000
773.072754	382.500000
773.109436	375.700000
773.146240	377.900000
773.182922	380.000000
773.219727	387.400000
773.256470	380.200000
773.293152	372.300000
773.329956	376.300000
773.366699	382.200000
773.403381	379.300000
773.440186	387.800000
773.476929	385.500000
773.513611	380.200000
773.550354	381.100000
773.587158	382.500000
773.623840	380.000000
773.660583	388.800000
773.697327	394.400000
773.734009	384.400000
773.770813	386.200000
773.807495	382.600000
773.844238	387.100000
773.880981	397.500000
773.917664	395.100000
773.954407	398.700000
773.991150	390.700000
774.027832	394.100000
774.064575	388.800000
774.101318	394.600000
774.138000	398.800000
774.174744	395.100000
774.211487	396.400000
774.248108	390.600000
774.284851	395.000000
774.321594	398.200000
774.358276	402.800000
774.395020	408.000000
774.431702	400.800000
774.468384	395.500000
774.505127	397.800000
774.541809	404.600000
774.578491	410.100000
774.615234	412.400000
774.651917	405.600000
774.688599	408.100000
774.725342	415.200000
774.762024	414.400000
774.798706	420.800000
774.835449	420.100000
774.872070	423.100000
774.908813	419.300000
774.945496	419.900000
774.982178	421.400000
775.018860	424.700000
775.055542	427.200000
775.092224	423.700000
775.128967	430.000000
775.165588	429.800000
775.202271	427.500000
775.239014	438.200000
775.275635	436.000000
775.312317	431.300000
775.349060	437.200000
775.385681	437.900000
775.422363	430.600000
775.459045	440.900000
775.495667	441.700000
775.532410	445.100000
775.569092	443.100000
775.605713	444.300000
775.642395	446.300000
775.679016	448.400000
775.715698	451.000000
775.752380	453.600000
775.789001	449.200000
775.825684	447.200000
775.862366	449.400000
775.898987	460.400000
775.935669	458.600000
775.972351	466.200000
776.008972	466.000000
776.045654	465.500000
776.082336	460.700000
776.118958	462.100000
776.155640	469.100000
776.192322	473.600000
776.228882	477.800000
776.265564	475.600000
776.302185	469.800000
776.338867	478.300000
776.375488	477.600000
776.412109	484.100000
776.448792	487.300000
776.485413	488.700000
776.522034	483.700000
776.558716	480.100000
776.595337	480.800000
776.631958	486.800000
776.668579	488.700000
776.705261	494.800000
776.741882	488.100000
776.778503	487.800000
776.815186	495.400000
776.851746	497.100000
776.888367	499.500000
776.924988	505.300000
776.961609	497.400000
776.998291	500.900000
777.034851	497.900000
777.071472	510.500000
777.108154	505.000000
777.144714	513.700000
777.181335	511.700000
777.218018	508.100000
777.254578	514.700000
777.291199	511.700000
777.327759	518.300000
777.364380	522.000000
777.401062	528.300000
777.437622	536.300000
777.474243	523.600000
777.510864	525.000000
777.547424	523.800000
777.584045	528.400000
777.620667	528.100000
777.657227	531.100000
777.693848	527.800000
777.730469	538.100000
777.767029	534.000000
777.803650	540.700000
777.840271	532.100000
777.876831	530.200000
777.913452	536.200000
777.950012	526.300000
777.986633	527.600000
778.023193	526.600000
778.059753	529.500000
778.096375	536.300000
778.132996	543.300000
778.169556	532.000000
778.206116	537.900000
778.242737	536.700000
778.279297	538.400000
778.315857	531.800000
778.352478	541.300000
778.389038	546.600000
778.425598	546.600000
778.462219	551.900000
778.498718	548.900000
778.535339	553.500000
778.571838	558.300000
778.608459	559.600000
778.645020	546.800000
778.681580	554.200000
778.718140	553.500000
778.754761	547.700000
778.791260	553.100000
778.827881	562.700000
778.864441	562.600000
778.900940	569.300000
778.937561	564.900000
778.974121	567.000000
779.010620	561.400000
779.047241	562.400000
779.083801	569.900000
779.120300	568.000000
779.156860	571.300000
779.193359	567.100000
779.229980	570.300000
779.266541	576.000000
779.303040	577.800000
779.339600	570.200000
779.376160	560.700000
779.412659	567.300000
779.449219	564.400000
779.485779	568.300000
779.522278	566.600000
779.558838	572.800000
779.595398	570.100000
779.631897	569.400000
779.668457	564.800000
779.705017	576.900000
779.741516	570.800000
779.778076	566.400000
779.814575	572.300000
779.851074	574.500000
779.887634	572.800000
779.924133	578.700000
779.960693	570.600000
779.997253	582.500000
780.033691	585.200000
780.070251	581.000000
780.106812	594.400000
780.143250	587.100000
780.179810	587.000000
780.216370	596.200000
780.252808	598.500000
780.289368	603.000000
780.325867	596.300000
780.362366	588.700000
780.398865	601.400000
780.435364	600.100000
780.471863	606.200000
780.508423	601.400000
780.544861	606.300000
780.581421	608.100000
780.617920	602.100000
780.654419	599.500000
780.690918	605.000000
780.727417	606.300000
780.763916	604.200000
780.800415	613.800000
780.836914	606.200000
780.873352	614.400000
780.909912	608.500000
780.946411	612.300000
780.982849	621.100000
781.019348	631.000000
781.055786	627.800000
781.092346	622.200000
781.128845	629.500000
781.165283	633.200000
781.201782	637.300000
781.238281	648.600000
781.274719	651.400000
781.311218	648.400000
781.347717	648.400000
781.384155	642.400000
781.420654	643.000000
781.457092	650.600000
781.493591	648.500000
781.530090	640.600000
781.566528	643.900000
781.602966	645.900000
781.639465	648.600000
781.675903	649.700000
781.712402	654.300000
781.748901	653.200000
781.785278	649.200000
781.821777	656.600000
781.858276	654.600000
781.894714	668.200000
781.931152	663.900000
781.967651	668.600000
782.004089	657.700000
782.040527	666.200000
782.076965	670.900000
782.113403	675.700000
782.149902	679.100000
782.186340	675.100000
782.222778	682.400000
782.259277	673.200000
782.295654	677.000000
782.332092	688.000000
782.368591	682.800000
782.404968	682.300000
782.441467	682.800000
782.477905	686.500000
782.514282	685.700000
782.550781	702.200000
782.587219	702.200000
782.623596	707.300000
782.660095	705.100000
782.696472	707.400000
782.732910	708.700000
782.769348	713.400000
782.805786	720.500000
782.842224	720.100000
782.878662	713.800000
782.915039	717.000000
782.951477	718.900000
782.987915	707.200000
783.024292	709.900000
783.060730	703.400000
783.097168	689.400000
783.133545	667.900000
783.169983	634.500000
783.206421	603.600000
783.242798	576.400000
783.279236	536.800000
783.315613	507.500000
783.352051	471.500000
783.388489	445.400000
783.424866	413.800000
783.461304	397.900000
783.497681	390.100000
783.534058	383.900000
783.570496	386.400000
783.606934	400.800000
783.643250	424.800000
783.679687	457.400000
783.716125	484.000000
783.752441	524.500000
783.788879	571.000000
783.825317	604.800000
783.861633	634.800000
783.898071	669.900000
783.934448	697.100000
783.970825	723.500000
784.007263	733.400000
784.043579	749.900000
784.080017	757.500000
784.116394	758.200000
784.152710	759.900000
784.189148	766.500000
784.225525	763.700000
784.261902	755.800000
784.298279	753.100000
784.334656	753.300000
784.371033	751.300000
784.407410	749.600000
784.443787	738.400000
784.480164	732.500000
784.516541	721.300000
784.552856	729.100000
784.589233	731.500000
784.625610	728.500000
784.661987	749.800000
784.698364	743.700000
784.734741	739.600000
784.771057	744.000000
784.807434	747.700000
784.843811	758.400000
784.880127	755.400000
784.916504	778.200000
784.952881	782.500000
784.989197	775.900000
785.025574	782.200000
785.061951	784.500000
785.098267	800.200000
785.134644	793.300000
785.170959	784.000000
785.207275	775.200000
785.243652	779.700000
785.279968	764.900000
785.316345	768.100000
785.352722	774.500000
785.388977	763.000000
785.425354	744.200000
785.461731	734.900000
785.498047	730.200000
785.534363	725.900000
785.570679	727.700000
785.606995	730.700000
785.643372	737.000000
785.679687	737.700000
785.716003	733.700000
785.752380	730.700000
785.788635	732.300000
785.825012	749.000000
785.861328	760.600000
785.897644	749.400000
785.933960	766.000000
785.970337	773.700000
786.006592	786.800000
786.042908	792.600000
786.079285	797.000000
786.115540	805.000000
786.151855	808.200000
786.188171	802.300000
786.224487	799.100000
786.260803	793.100000
786.297119	798.500000
786.333435	797.700000
786.369751	790.300000
786.406006	789.000000
786.442322	775.600000
786.478638	768.200000
786.514954	778.800000
786.551270	770.400000
786.587585	767.400000
786.623840	754.500000
786.660156	753.500000
786.696472	748.600000
786.732727	751.800000
786.769043	752.300000
786.805298	748.500000
786.841614	750.400000
786.877930	760.400000
786.914124	754.000000
786.950439	771.900000
786.986755	784.100000
787.023010	800.200000
787.059326	803.800000
787.095642	805.800000
787.131836	810.100000
787.168152	811.700000
787.204468	827.500000
787.240723	848.700000
787.276978	852.800000
787.313293	844.900000
787.349548	840.700000
787.385803	837.300000
787.422058	832.600000
787.458313	826.800000
787.494629	819.900000
787.530823	816.400000
787.567139	806.900000
787.603455	803.100000
787.639648	794.800000
787.675903	798.000000
787.712219	791.500000
787.748413	785.800000
787.784729	798.600000
787.820984	789.200000
787.857178	784.700000
787.893494	784.700000
787.929749	793.800000
787.965942	802.000000
788.002258	812.000000
788.038452	820.000000
788.074707	813.100000
788.110962	825.700000
788.147217	824.300000
788.183472	834.200000
788.219727	837.300000
788.255920	848.300000
788.292175	860.100000
788.328430	851.300000
788.364624	834.000000
788.400879	840.300000
788.437134	849.300000
788.473328	841.700000
788.509583	846.100000
788.545837	847.600000
788.582031	851.200000
788.618286	854.800000
788.654480	854.600000
788.690735	858.500000
788.726990	874.100000
788.763184	865.600000
788.799377	874.000000
788.835632	863.400000
788.871826	871.600000
788.908081	873.100000
788.944336	873.000000
788.980469	882.800000
789.016724	883.100000
789.052979	885.000000
789.089111	866.200000
789.125366	875.000000
789.161621	859.500000
789.197754	873.200000
789.234009	869.800000
789.270142	866.500000
789.306396	853.700000
789.342590	850.600000
789.378784	840.000000
789.414978	843.000000
789.451233	854.500000
789.487366	859.200000
789.523621	858.500000
789.559814	850.200000
789.595947	854.100000
789.632202	864.600000
789.668335	861.700000
789.704529	881.500000
789.740784	897.400000
789.776917	898.100000
789.813110	885.000000
789.849304	893.900000
789.885498	903.500000
789.921692	913.900000
789.957886	914.900000
789.994019	916.600000
790.030212	911.300000
790.066406	919.800000
790.102539	927.100000
790.138733	938.000000
790.174927	939.300000
790.211060	947.200000
790.247253	942.900000
790.283386	923.500000
790.319580	909.000000
790.355774	900.200000
790.391907	914.900000
790.428101	921.300000
790.464294	911.600000
790.500427	910.500000
790.536621	893.300000
790.572754	883.100000
790.608887	883.300000
790.645081	893.500000
790.681274	906.400000
790.717346	899.300000
790.753540	883.600000
790.789734	881.200000
790.825867	868.200000
790.862000	870.700000
790.898132	886.600000
790.934265	887.000000
790.970459	888.200000
791.006592	884.900000
791.042725	869.500000
791.078918	866.300000
791.114990	876.200000
791.151184	888.200000
791.187317	900.000000
791.223389	886.800000
791.259583	874.600000
791.295715	873.400000
791.331848	877.900000
791.367981	884.800000
791.404114	891.600000
791.440247	885.400000
791.476379	891.500000
791.512451	874.200000
791.548584	878.800000
791.584778	869.700000
791.620850	884.100000
791.656982	889.000000
791.693115	883.700000
791.729187	881.900000
791.765381	870.000000
791.801514	876.200000
791.837585	879.200000
791.873718	891.500000
791.909851	904.300000
791.945923	902.500000
791.982056	882.400000
792.018188	879.900000
792.054260	871.300000
792.090393	880.800000
792.126465	878.300000
792.162598	874.400000
792.198669	865.400000
792.234741	859.000000
792.270874	852.300000
792.307007	854.000000
792.343079	863.600000
792.379150	868.700000
792.415283	849.100000
792.451355	844.800000
792.487488	831.100000
792.523560	820.700000
792.559631	801.100000
792.595764	754.700000
792.631836	725.200000
792.667908	721.100000
792.703979	727.700000
792.740051	760.000000
792.776184	780.000000
792.812256	790.100000
792.848328	803.300000
792.884399	809.500000
792.920471	812.600000
792.956543	811.600000
792.992615	807.100000
793.028748	806.000000
793.064758	816.800000
793.100830	835.500000
793.136963	845.700000
793.172974	838.800000
793.209045	834.000000
793.245178	839.700000
793.281189	828.500000
793.317261	834.400000
793.353271	833.000000
793.389404	844.500000
793.425476	835.100000
793.461487	828.700000
793.497559	824.800000
793.533630	823.400000
793.569641	830.500000
793.605713	828.400000
793.641785	826.800000
793.677795	832.600000
793.713867	829.300000
793.749878	836.600000
793.785950	850.900000
793.822021	856.900000
793.858032	848.000000
793.894104	858.900000
793.930176	858.500000
793.966187	854.200000
794.002258	844.100000
794.038269	857.200000
794.074280	852.000000
794.110352	876.500000
794.146423	854.700000
794.182373	850.600000
794.218445	844.700000
794.254517	838.600000
794.290466	833.800000
794.326538	839.200000
794.362549	841.300000
794.398560	839.000000
794.434631	838.000000
794.470581	816.900000
794.506653	812.100000
794.542664	818.200000
794.578674	824.100000
794.614685	822.700000
794.650757	817.400000
794.686707	822.800000
794.722778	816.500000
794.758789	826.000000
794.794739	846.000000
794.830811	867.200000
794.866821	878.300000
794.902771	873.600000
794.938843	865.700000
794.974792	867.200000
795.010803	863.300000
795.046814	863.800000
795.082825	861.500000
795.118835	874.400000
795.154846	851.700000
795.190796	852.700000
795.226807	836.500000
795.262817	842.200000
795.298767	841.700000
795.334778	851.900000
795.370850	848.300000
795.406799	846.100000
795.442810	838.100000
795.478821	829.100000
795.514709	826.900000
795.550720	848.200000
795.586670	826.200000
795.622681	835.500000
795.658691	838.300000
795.694641	837.000000
795.730652	833.400000
795.766663	848.100000
795.802551	853.600000
795.838562	860.600000
795.874573	849.400000
795.910522	845.200000
795.946472	830.600000
795.982483	843.200000
796.018433	846.000000
796.054382	855.700000
796.090393	849.200000
796.126282	835.600000
796.162292	824.000000
796.198242	823.700000
796.234192	823.700000
796.270203	817.600000
796.306091	826.400000
796.342041	842.900000
796.378052	823.100000
796.413940	826.000000
796.449951	827.700000
796.485901	831.800000
796.521790	840.300000
796.557800	853.000000
796.593689	855.900000
796.629639	839.800000
796.665649	830.500000
796.701599	836.200000
796.737488	834.200000
796.773437	837.600000
796.809387	835.300000
796.845337	848.100000
796.881287	833.600000
796.917175	822.100000
796.953125	816.000000
796.989075	828.600000
797.024963	833.500000
797.060913	831.900000
797.096863	823.100000
797.132751	806.400000
797.168701	802.100000
797.204590	808.900000
797.240540	815.400000
797.276489	825.000000
797.312439	828.700000
797.348328	817.900000
797.384277	811.400000
797.420166	805.500000
797.456055	815.100000
797.492004	808.900000
797.527893	821.400000
797.563843	827.400000
797.599731	812.200000
797.635620	802.800000
797.671570	804.900000
797.707520	806.300000
797.743347	809.200000
797.779297	818.500000
797.815125	814.200000
797.851074	796.200000
797.887024	784.100000
797.922913	788.300000
797.958801	800.000000
797.994690	791.100000
798.030579	796.400000
798.066467	800.500000
798.102356	786.800000
798.138245	782.700000
798.174133	781.500000
798.210083	794.800000
798.245911	804.600000
798.281799	795.900000
798.317749	785.000000
798.353577	783.100000
798.389465	778.800000
798.425293	786.400000
798.461243	786.800000
798.497131	791.500000
798.532959	795.900000
798.568848	792.700000
798.604736	779.100000
798.640564	763.600000
798.676453	769.600000
798.712402	780.200000
798.748230	779.100000
798.784119	776.000000
798.820007	774.800000
798.855835	769.800000
798.891724	762.800000
798.927551	764.500000
798.963379	771.500000
798.999268	762.100000
799.035095	750.600000
799.070984	747.300000
799.106873	744.600000
799.142700	752.400000
799.178528	749.800000
799.214417	751.100000
799.250244	759.500000
799.286133	753.600000
799.321960	748.000000
799.357788	741.600000
799.393677	746.300000
799.429504	745.000000
799.465332	749.900000
799.501221	754.300000
799.537048	746.900000
799.572876	745.400000
799.608704	744.000000
799.644531	754.900000
799.680359	754.800000
799.716248	765.100000
799.752014	766.200000
799.787903	761.600000
799.823730	751.400000
799.859558	746.900000
799.895386	741.700000
799.931213	741.900000
799.967041	739.100000
800.002869	739.800000
800.038696	747.500000
800.074463	735.100000
800.110352	740.300000
800.146179	732.300000
800.181946	743.200000
800.217773	742.300000
800.253540	743.500000
800.289429	731.800000
800.325256	725.200000
800.361023	729.700000
800.396851	733.800000
800.432678	734.900000
800.468445	735.600000
800.504272	731.300000
800.540100	720.300000
800.575867	719.800000
800.611694	724.300000
800.647461	724.200000
800.683289	729.000000
800.719116	731.400000
800.754883	726.300000
800.790649	711.600000
800.826477	709.900000
800.862244	724.100000
800.898071	719.000000
800.933838	713.000000
800.969604	708.000000
801.005432	709.500000
801.041199	711.400000
801.076965	705.500000
801.112793	705.500000
801.148560	698.500000
801.184326	694.300000
801.220154	696.300000
801.255859	690.800000
801.291687	689.000000
801.327454	687.100000
801.363281	686.800000
801.398987	683.100000
801.434814	684.000000
801.470520	683.400000
801.506287	681.600000
801.542114	674.400000
801.577820	676.800000
801.613647	679.700000
801.649414	679.400000
801.685120	677.800000
801.720886	675.500000
801.756714	670.200000
801.792419	666.700000
801.828186	668.400000
801.863892	675.500000
801.899719	667.200000
801.935486	663.100000
801.971252	671.000000
802.006958	662.000000
802.042725	658.800000
802.078430	664.800000
802.114197	657.300000
802.149963	664.700000
802.185669	654.200000
802.221436	654.000000
802.257202	652.300000
802.292908	652.100000
802.328674	657.100000
802.364441	661.700000
802.400146	659.800000
802.435913	654.500000
802.471558	653.900000
802.507324	651.800000
802.543091	647.600000
802.578796	658.400000
802.614502	658.400000
802.650269	664.100000
802.685974	652.200000
802.721741	653.200000
802.757446	657.400000
802.793152	655.700000
802.828918	661.600000
802.864624	662.200000
802.900330	657.100000
802.936035	653.300000
802.971802	649.300000
803.007446	639.900000
803.043213	644.400000
803.078857	654.000000
803.114624	640.100000
803.150330	640.400000
803.185974	635.000000
803.221741	639.500000
803.257446	645.400000
803.293152	651.100000
803.328857	643.700000
803.364563	638.200000
803.400208	630.100000
803.435974	634.300000
803.471680	629.300000
803.507324	626.600000
803.543030	638.300000
803.578735	643.500000
803.614441	631.600000
803.650146	640.000000
803.685791	627.800000
803.721497	623.600000
803.757202	614.200000
803.792847	625.400000
803.828552	621.600000
803.864258	612.600000
803.899902	613.000000
803.935608	603.100000
803.971313	601.800000
804.006958	604.600000
804.042664	607.300000
804.078308	615.200000
804.113953	607.400000
804.149658	610.200000
804.185364	602.000000
804.221008	612.700000
804.256714	600.400000
804.292297	597.600000
804.328003	594.900000
804.363708	593.000000
804.399292	594.400000
804.434998	589.700000
804.470703	586.600000
804.506287	597.800000
804.541992	592.300000
804.577637	594.200000
804.613281	584.500000
804.648926	578.700000
804.684570	578.400000
804.720215	575.000000
804.755920	578.000000
804.791565	573.300000
804.827209	575.700000
804.862854	565.500000
804.898437	565.500000
804.934143	565.400000
804.969788	569.100000
805.005371	570.500000
805.041077	567.900000
805.076721	567.400000
805.112305	557.600000
805.147949	557.000000
805.183655	554.200000
805.219238	557.900000
805.254883	553.600000
805.290466	562.600000
805.326111	558.000000
805.361755	549.500000
805.397400	547.100000
805.432983	552.700000
805.468628	547.000000
805.504211	558.800000
805.539856	554.800000
805.575500	554.200000
805.611084	552.100000
805.646729	541.500000
805.682373	545.500000
805.717957	551.000000
805.753601	549.900000
805.789246	541.900000
805.824768	547.900000
805.860413	545.900000
805.895996	536.700000
805.931641	536.800000
805.967224	545.900000
806.002869	540.900000
806.038452	546.500000
806.074036	548.500000
806.109619	537.100000
806.145264	531.600000
806.180847	533.200000
806.216431	532.300000
806.252014	536.000000
806.287659	538.900000
806.323181	544.300000
806.358826	544.000000
806.394409	528.900000
806.429993	523.200000
806.465576	532.000000
806.501160	527.900000
806.536743	517.700000
806.572327	525.700000
806.607910	520.800000
806.643494	521.000000
806.679077	518.200000
806.714661	518.800000
806.750244	513.200000
806.785828	510.400000
806.821350	507.900000
806.856934	512.200000
806.892517	510.000000
806.928101	512.300000
806.963684	509.100000
806.999268	513.900000
807.034790	500.300000
807.070374	504.900000
807.105896	498.400000
807.141479	497.000000
807.177063	503.700000
807.212585	495.800000
807.248169	496.700000
807.283752	501.400000
807.319275	495.000000
807.354858	495.700000
807.390381	492.500000
807.425903	488.200000
807.461487	489.300000
807.497070	482.200000
807.532593	483.600000
807.568115	480.600000
807.603699	479.600000
807.639221	477.600000
807.674744	482.900000
807.710266	485.300000
807.745850	486.500000
807.781372	482.500000
807.816895	477.500000
807.852417	479.700000
807.888000	477.800000
807.923523	474.500000
807.959045	478.300000
807.994629	470.500000
808.030090	465.800000
808.065613	471.200000
808.101135	476.000000
808.136658	474.700000
808.172241	474.100000
808.207764	472.200000
808.243225	468.700000
808.278809	464.600000
808.314270	469.800000
808.349792	462.100000
808.385315	461.800000
808.420837	465.300000
808.456360	469.000000
808.491882	466.800000
808.527344	464.600000
808.562866	466.700000
808.598389	459.200000
808.633850	458.600000
808.669434	456.000000
808.704895	459.700000
808.740417	464.500000
808.775940	456.100000
808.811462	454.300000
808.846924	451.600000
808.882385	449.300000
808.917847	450.100000
808.953369	452.900000
808.988892	444.400000
809.024353	449.400000
809.059875	452.300000
809.095398	449.400000
809.130798	440.400000
809.166321	444.300000
809.201843	439.900000
809.237305	444.900000
809.272766	447.700000
809.308228	437.900000
809.343750	434.100000
809.379211	435.100000
809.414734	432.600000
809.450134	441.900000
809.485657	430.500000
809.521118	438.300000
809.556580	432.900000
809.592102	429.900000
809.627502	431.100000
809.663025	428.400000
809.698486	427.100000
809.733887	421.000000
809.769409	426.300000
809.804871	418.200000
809.840271	422.700000
809.875793	421.900000
809.911194	422.600000
809.946655	414.800000
809.982178	414.400000
810.017639	416.300000
810.053040	412.000000
810.088501	408.300000
810.123901	412.400000
810.159424	412.400000
810.194885	406.000000
810.230286	409.900000
810.265747	402.200000
810.301208	400.700000
810.336609	403.600000
810.372070	398.700000
810.407532	399.700000
810.442932	400.100000
810.478394	401.900000
810.513794	396.600000
810.549255	397.500000
810.584717	393.500000
810.620117	388.900000
810.655518	397.500000
810.690979	393.200000
810.726379	388.700000
810.761841	384.600000
810.797302	383.000000
810.832642	381.500000
810.868103	390.700000
810.903564	382.500000
810.938904	387.500000
810.974365	375.600000
811.009827	379.300000
811.045166	374.900000
811.080627	371.100000
811.115967	373.600000
811.151428	378.000000
811.186829	371.400000
811.222229	373.600000
811.257629	369.000000
811.293091	373.300000
811.328430	378.900000
811.363892	370.100000
811.399292	371.500000
811.434631	371.500000
811.470093	376.100000
811.505493	366.700000
811.540833	364.600000
811.576294	368.500000
811.611694	363.800000
811.647034	360.500000
811.682434	363.500000
811.717773	364.200000
811.753235	366.900000
811.788635	361.400000
811.823975	359.400000
811.859375	365.100000
811.894775	356.200000
811.930115	358.900000
811.965515	356.500000
812.000916	357.600000
812.036255	353.700000
812.071655	357.700000
812.106995	353.100000
812.142395	355.500000
812.177795	357.600000
812.213196	357.900000
812.248474	357.200000
812.283875	348.200000
812.319214	349.900000
812.354614	352.300000
812.390015	346.700000
812.425293	347.400000
812.460693	349.500000
812.496094	344.900000
812.531433	341.000000
812.566772	343.100000
812.602173	343.900000
812.637451	342.700000
812.672852	340.200000
812.708191	341.500000
812.743530	337.600000
812.778931	331.000000
812.814270	332.600000
812.849609	336.700000
812.884949	334.600000
812.920227	330.200000
812.955627	338.100000
812.990967	330.400000
813.026306	327.900000
813.061646	320.300000
813.096985	319.200000
813.132324	318.300000
813.167664	320.500000
813.203003	321.200000
813.238281	312.300000
813.273682	310.200000
813.308960	311.100000
813.344299	309.800000
813.379639	316.800000
813.414978	311.700000
813.450256	311.300000
813.485596	314.200000
813.520874	308.100000
813.556213	308.100000
813.591614	313.000000
813.626831	306.900000
813.662170	309.900000
813.697510	313.700000
813.732788	302.800000
813.768127	304.700000
813.803467	306.400000
813.838745	302.900000
813.874084	304.500000
813.909363	303.500000
813.944641	303.400000
813.979980	297.000000
814.015320	299.800000
814.050598	296.000000
814.085876	297.300000
814.121155	297.100000
814.156494	297.200000
814.191772	300.000000
814.227051	295.000000
814.262390	295.300000
814.297668	295.200000
814.332947	295.100000
814.368225	288.900000
814.403564	292.300000
814.438782	288.900000
814.474121	292.500000
814.509338	289.800000
814.544617	292.500000
814.579956	286.600000
814.615173	296.000000
814.650513	289.500000
814.685791	288.400000
814.721008	287.900000
814.756348	286.300000
814.791626	281.900000
814.826843	282.900000
814.862122	283.100000
814.897400	283.300000
814.932678	282.600000
814.967957	282.300000
815.003235	281.900000
815.038452	278.100000
815.073730	275.400000
815.108948	282.400000
815.144226	281.500000
815.179504	284.700000
815.214722	272.900000
815.250000	273.300000
815.285278	277.700000
815.320496	274.100000
815.355774	274.100000
815.391052	275.500000
815.426270	274.900000
815.461487	272.000000
815.496765	269.900000
815.531982	265.900000
815.567261	268.000000
815.602539	274.600000
815.637695	269.400000
815.672974	271.800000
815.708191	274.000000
815.743408	272.000000
815.778687	265.500000
815.813904	272.900000
815.849121	262.300000
815.884399	264.300000
815.919556	263.400000
815.954834	264.300000
815.990051	265.100000
816.025269	268.100000
816.060486	260.100000
816.095703	259.700000
816.130920	261.300000
816.166199	257.900000
816.201416	260.400000
816.236572	263.100000
816.271851	258.500000
816.307007	260.300000
816.342224	252.500000
816.377441	256.200000
816.412659	251.400000
816.447876	256.000000
816.483093	252.500000
816.518250	251.200000
816.553467	251.100000
816.588745	254.600000
816.623901	248.600000
816.659119	243.500000
816.694275	247.300000
816.729492	246.200000
816.764709	273.000000
816.799927	243.900000
816.835083	247.500000
816.870300	241.300000
816.905457	244.300000
816.940674	242.800000
816.975830	238.000000
817.010986	237.400000
817.046204	239.000000
817.081421	236.300000
817.116577	238.300000
817.151733	242.500000
817.186951	241.000000
817.222107	239.000000
817.257324	240.700000
817.292419	240.400000
817.327637	232.200000
817.362854	238.000000
817.398010	233.600000
817.433167	235.000000
817.468323	234.300000
817.503479	235.900000
817.538635	239.900000
817.573853	234.600000
817.608948	234.300000
817.644165	230.900000
817.679321	231.600000
817.714478	229.800000
817.749634	232.100000
817.784790	239.600000
817.819946	235.600000
817.855103	224.700000
817.890198	228.900000
817.925415	225.100000
817.960571	231.600000
817.995667	230.400000
818.030823	228.800000
818.066040	225.300000
818.101135	228.100000
818.136292	226.900000
818.171448	222.800000
818.206543	224.900000
818.241699	226.000000
818.276855	227.100000
818.311951	223.000000
818.347107	221.800000
818.382263	225.800000
818.417358	226.900000
818.452515	225.400000
818.487610	227.600000
818.522766	218.800000
818.557922	225.100000
818.593018	223.300000
818.628113	221.900000
818.663269	217.000000
818.698364	220.300000
818.733521	217.800000
818.768677	219.300000
818.803711	215.200000
818.838867	215.400000
818.874023	217.500000
818.909058	215.300000
818.944214	212.100000
818.979370	216.500000
819.014404	215.700000
819.049561	212.300000
819.084595	216.500000
819.119751	210.600000
819.154846	215.000000
819.189941	213.400000
819.225037	208.800000
819.260193	205.800000
819.295227	207.800000
819.330322	204.000000
819.365479	205.600000
819.400513	239.000000
819.435608	204.500000
819.470764	201.200000
819.505798	204.300000
819.540894	206.000000
819.575989	204.600000
819.611084	209.800000
819.646179	211.200000
819.681213	207.300000
819.716309	203.600000
819.751404	203.900000
819.786438	209.200000
819.821533	201.600000
819.856628	204.100000
819.891663	205.200000
819.926758	210.500000
819.961853	207.600000
819.996887	201.500000
820.031982	203.600000
820.067017	203.500000
820.102112	234.300000
820.137207	198.600000
820.172302	209.100000
820.207275	200.200000
820.242371	196.700000
820.277405	198.700000
820.312500	198.800000
820.347534	200.300000
820.382568	204.000000
820.417664	197.200000
820.452759	197.100000
820.487732	197.700000
820.522827	196.700000
820.557861	194.600000
820.592896	196.100000
820.627930	197.400000
820.662964	194.700000
820.698059	198.900000
820.733093	195.900000
820.768127	198.900000
820.803162	196.600000
820.838196	195.100000
820.873230	194.600000
820.908264	197.500000
820.943298	193.600000
820.978333	198.700000
821.013367	197.100000
821.048401	199.700000
821.083435	197.800000
821.118469	190.700000
821.153503	197.700000
821.188477	195.300000
821.223511	190.700000
821.258484	194.700000
821.293579	194.900000
821.328613	189.500000
821.363647	193.800000
821.398621	189.400000
821.433655	191.700000
821.468628	203.200000
821.503662	193.000000
821.538696	194.200000
821.573669	189.600000
821.608704	195.800000
821.643677	191.700000
821.678650	194.200000
821.713684	197.100000
821.748718	191.900000
821.783691	192.300000
821.818726	192.600000
821.853638	192.200000
821.888672	191.400000
821.923706	189.700000
821.958618	190.700000
821.993652	191.000000
822.028687	194.600000
822.063599	197.500000
822.098633	192.000000
822.133667	187.700000
822.168579	191.000000
822.203613	192.400000
822.238586	187.600000
822.273560	192.600000
822.308533	187.800000
822.343567	189.300000
822.378479	190.500000
822.413452	189.300000
822.448425	186.600000
822.483398	193.800000
822.518372	193.600000
822.553345	188.500000
822.588318	196.000000
822.623291	188.800000
822.658203	188.400000
822.693237	190.700000
822.728210	187.300000
822.763123	190.100000
822.798096	186.400000
822.833069	189.300000
822.867981	190.600000
822.902954	191.400000
822.937927	192.600000
822.972900	196.000000
823.007874	185.900000
823.042725	192.300000
823.077698	197.000000
823.112671	186.900000
823.147583	188.000000
823.182556	188.900000
823.217529	191.600000
823.252441	187.400000
823.287415	197.200000
823.322388	191.700000
823.357239	187.800000
823.392212	193.100000
823.427185	194.700000
823.462097	183.700000
823.497009	191.000000
823.531982	187.200000
823.566895	189.100000
823.601807	184.500000
823.636719	188.700000
823.671631	190.100000
823.706604	186.200000
823.741455	189.900000
823.776428	183.500000
823.811340	191.300000
823.846252	195.000000
823.881165	193.000000
823.916138	190.600000
823.950989	194.300000
823.985901	186.600000
824.020813	188.100000
824.055725	187.500000
824.090637	183.100000
824.125610	190.600000
824.160461	189.800000
824.195374	190.500000
824.230225	192.100000
824.265198	183.500000
824.300110	187.000000
824.334961	195.400000
824.369873	181.800000
824.404785	191.600000
824.439636	191.400000
824.474548	182.100000
824.509460	182.600000
824.544312	192.200000
824.579224	189.700000
824.614075	188.500000
824.648987	186.100000
824.683899	187.300000
824.718811	185.200000
824.753662	191.000000
824.788574	189.100000
824.823364	187.600000
824.858276	184.800000
824.893188	189.600000
824.928040	190.500000
824.962952	186.800000
824.997803	189.400000
825.032654	185.200000
825.067566	187.300000
825.102417	183.400000
825.137268	184.700000
825.172119	184.200000
825.206970	182.900000
825.241882	185.400000
825.276733	182.700000
825.311646	183.500000
825.346436	182.200000
825.381348	180.900000
825.416138	184.100000
825.450989	181.500000
825.485901	178.600000
825.520691	179.500000
825.555542	180.400000
825.590454	183.500000
825.625244	179.300000
825.660095	188.400000
825.695007	185.900000
825.729797	183.300000
825.764648	181.000000
825.799438	182.400000
825.834290	184.200000
825.869202	178.700000
825.903992	183.800000
825.938843	182.100000
825.973694	178.900000
826.008484	191.400000
826.043335	179.000000
826.078186	176.400000
826.112976	186.200000
826.147827	185.700000
826.182678	188.800000
826.217468	177.100000
826.252319	185.700000
826.287109	178.900000
826.321899	186.000000
826.356750	181.200000
826.391541	178.400000
826.426392	185.600000
826.461182	181.300000
826.495972	178.700000
826.530823	174.900000
826.565613	181.100000
826.600403	176.900000
826.635254	183.300000
826.670044	174.900000
826.704834	175.900000
826.739685	177.600000
826.774475	182.200000
826.809265	179.900000
826.844055	179.400000
826.878906	183.900000
826.913635	180.900000
826.948425	182.500000
826.983215	181.900000
827.018005	183.100000
827.052856	180.200000
827.087585	182.000000
827.122375	176.200000
827.157227	180.300000
827.191956	190.400000
827.226746	176.900000
827.261536	181.300000
827.296265	176.300000
827.331116	180.000000
827.365906	182.800000
827.400635	178.300000
827.435425	174.400000
827.470215	185.100000
827.504944	180.500000
827.539734	185.300000
827.574463	179.700000
827.609253	186.000000
827.644043	180.500000
827.678772	184.500000
827.713562	180.500000
827.748352	181.200000
827.783081	179.800000
827.817871	181.600000
827.852600	178.200000
827.887329	182.000000
827.922119	174.000000
827.956848	183.500000
827.991638	190.300000
828.026367	182.000000
828.061157	181.800000
828.095886	181.300000
828.130615	192.100000
828.165344	174.700000
828.200073	181.400000
828.234863	179.600000
828.269592	178.800000
828.304321	183.000000
828.339111	182.100000
828.373779	177.200000
828.408569	184.100000
828.443298	183.000000
828.477966	178.900000
828.512756	180.200000
828.547424	177.300000
828.582214	178.000000
828.616943	178.700000
828.651672	180.400000
828.686340	182.200000
828.721130	177.200000
828.755798	180.500000
828.790527	179.400000
828.825256	179.500000
828.859924	181.000000
828.894714	183.400000
828.929443	187.100000
828.964111	178.300000
828.998840	183.500000
829.033569	178.300000
829.068237	181.100000
829.102966	180.300000
829.137634	181.600000
829.172363	183.300000
829.207092	180.900000
829.241821	178.600000
829.276489	175.500000
829.311157	181.600000
829.345825	180.200000
829.380554	183.600000
829.415283	178.100000
829.449951	176.400000
829.484619	187.600000
829.519348	184.900000
829.554016	180.500000
829.588745	181.300000
829.623413	178.100000
829.658081	189.300000
829.692749	177.300000
829.727417	184.200000
829.762146	181.400000
829.796814	179.300000
829.831482	178.900000
829.866150	180.100000
829.900879	179.700000
829.935486	182.100000
829.970154	179.100000
830.004883	189.100000
830.039490	182.200000
830.074219	177.000000
830.108887	180.600000
830.143494	179.100000
830.178223	176.900000
830.212891	178.900000
830.247498	181.000000
830.282166	185.500000
830.316772	183.000000
830.351501	178.500000
830.386169	180.000000
830.420776	180.200000
830.455444	181.800000
830.490112	179.100000
830.524719	175.800000
830.559387	181.400000
830.594055	181.200000
830.628662	180.900000
830.663330	181.200000
830.697998	186.900000
830.732605	180.800000
830.767273	180.600000
830.801941	180.100000
830.836487	188.200000
830.871155	182.000000
830.905762	183.200000
830.940430	176.900000
830.975098	178.500000
831.009644	181.100000
831.044312	187.800000
831.078979	184.000000
831.113525	176.100000
831.148193	181.200000
831.182861	180.300000
831.217407	182.600000
831.252075	191.200000
831.286621	179.100000
831.321289	178.800000
831.355896	181.100000
831.390564	185.400000
831.425110	181.700000
831.459778	185.900000
831.494324	189.800000
831.528931	181.900000
831.563599	184.200000
831.598145	175.700000
831.632751	180.100000
831.667419	178.400000
831.701965	180.400000
831.736572	182.000000
831.771179	176.300000
831.805786	179.000000
831.840393	184.800000
831.874939	175.000000
831.909546	182.700000
831.944153	175.300000
831.978760	179.100000
832.013306	176.500000
832.047913	183.800000
832.082458	187.200000
832.117065	177.300000
832.151672	188.500000
832.186218	181.200000
832.220825	183.100000
832.255432	175.500000
832.289978	179.300000
832.324585	181.600000
832.359192	183.200000
832.393677	180.900000
832.428284	181.500000
832.462830	180.500000
832.497437	180.300000
832.531982	184.300000
832.566589	179.600000
832.601135	181.900000
832.635681	176.300000
832.670227	180.800000
832.704773	185.600000
832.739380	182.800000
832.773926	180.700000
832.808472	179.400000
832.843079	180.500000
832.877563	183.400000
832.912170	178.900000
832.946716	175.300000
832.981201	183.300000
833.015808	183.300000
833.050293	180.700000
833.084839	176.700000
833.119446	178.900000
833.153992	184.800000
833.188477	179.100000
833.223022	178.300000
833.257568	181.400000
833.292114	186.000000
833.326660	189.000000
833.361145	179.500000
833.395691	174.800000
833.430237	180.900000
833.464783	181.900000
833.499329	178.600000
833.533875	176.600000
833.568359	182.200000
833.602905	183.600000
833.637390	184.900000
833.671875	178.300000
833.706421	179.500000
833.740906	178.800000
833.775452	175.200000
833.809998	178.500000
833.844482	187.200000
833.879028	180.300000
833.913513	180.100000
833.947998	182.700000
833.982544	178.400000
834.017090	178.600000
834.051514	174.300000
834.086060	182.400000
834.120544	180.700000
834.155029	183.200000
834.189575	180.300000
834.223999	183.000000
834.258545	182.000000
834.293030	181.500000
834.327515	181.500000
834.362000	178.900000
834.396545	183.700000
834.430969	181.900000
834.465454	184.500000
834.500000	175.900000
834.534424	182.700000
834.568970	174.400000
834.603455	174.900000
834.637878	177.800000
834.672363	180.600000
834.706909	181.600000
834.741333	181.500000
834.775818	175.700000
834.810242	177.700000
834.844727	181.700000
834.879211	179.000000
834.913635	181.100000
834.948181	180.800000
834.982666	180.500000
835.017090	178.500000
835.051575	182.200000
835.086060	177.800000
835.120483	182.600000
835.154907	183.000000
835.189331	180.000000
835.223816	182.100000
835.258301	176.500000
835.292786	176.600000
835.327209	183.600000
835.361694	178.800000
835.396057	178.100000
835.430542	182.500000
835.465027	181.000000
835.499390	178.100000
835.533875	207.300000
835.568359	179.900000
835.602722	177.600000
835.637207	182.000000
835.671692	177.100000
835.706055	195.400000
835.740540	183.000000
835.774902	181.900000
835.809387	182.200000
835.843811	177.400000
835.878235	185.800000
835.912659	178.200000
835.947083	179.800000
835.981506	180.800000
836.015930	175.500000
836.050354	184.600000
836.084778	187.300000
836.119202	184.400000
836.153625	191.700000
836.187988	178.000000
836.222473	178.800000
836.256897	181.400000
836.291260	179.300000
836.325684	183.600000
836.360046	178.900000
836.394470	180.500000
836.428894	185.800000
836.463318	178.300000
836.497681	182.900000
836.532104	184.800000
836.566467	180.200000
836.600891	179.100000
836.635315	182.600000
836.669678	183.300000
836.704102	184.000000
836.738525	182.400000
836.772888	175.300000
836.807251	178.500000
836.841675	184.200000
836.876038	178.100000
836.910461	177.400000
836.944763	183.500000
836.979187	178.900000
837.013611	185.000000
837.047974	177.700000
837.082336	190.400000
837.116699	184.400000
837.151062	181.500000
837.185486	175.900000
837.219849	178.800000
837.254211	184.300000
837.288574	181.400000
837.322937	177.900000
837.357300	174.200000
837.391663	189.600000
837.426086	182.600000
837.460388	182.900000
837.494751	183.400000
837.529114	178.700000
837.563477	186.900000
837.597839	182.300000
837.632141	180.700000
837.666565	180.200000
837.700928	184.600000
837.735229	182.500000
837.769592	183.600000
837.803955	184.000000
837.838257	179.400000
837.872620	179.800000
837.906982	186.600000
837.941284	179.500000
837.975647	181.700000
838.010010	186.400000
838.044312	179.700000
838.078674	179.400000
838.112976	181.900000
838.147339	182.600000
838.181702	180.800000
838.216003	186.500000
838.250366	182.100000
838.284668	182.300000
838.318970	175.600000
838.353333	180.600000
838.387634	179.500000
838.421936	181.900000
838.456299	182.000000
838.490601	184.800000
838.524902	184.500000
838.559265	184.600000
838.593567	184.100000
838.627869	177.000000
838.662170	181.900000
838.696472	177.600000
838.730774	178.300000
838.765137	182.200000
838.799377	172.600000
838.833740	181.100000
838.868042	184.300000
838.902283	175.100000
838.936646	185.500000
838.970947	182.300000
839.005188	185.500000
839.039551	177.300000
839.073792	186.300000
839.108093	178.700000
839.142395	188.700000
839.176697	175.800000
839.210937	182.800000
839.245300	189.200000
839.279541	177.500000
839.313843	179.300000
839.348145	183.500000
839.382385	184.500000
839.416687	186.200000
839.450989	182.900000
839.485229	181.100000
839.519531	177.800000
839.553833	185.700000
839.588013	179.700000
839.622314	182.500000
839.656555	181.200000
839.690857	180.700000
839.725159	176.400000
839.759460	180.100000
839.793640	177.500000
839.827942	180.900000
839.862183	176.800000
839.896423	180.700000
839.930725	191.300000
839.964966	187.700000
839.999207	184.500000
840.033508	186.100000
840.067688	179.000000
840.101990	187.400000
840.136230	179.400000
840.170471	186.500000
840.204712	177.600000
840.238953	177.700000
840.273193	180.700000
840.307434	183.200000
840.341736	178.100000
840.375916	177.100000
840.410217	178.600000
840.444397	184.600000
840.478638	182.100000
840.512878	185.100000
840.547119	182.600000
840.581360	185.100000
840.615601	187.700000
840.649780	190.500000
840.684021	181.600000
840.718262	187.000000
840.752441	187.200000
840.786682	182.900000
840.820862	183.100000
840.855103	187.200000
840.889343	182.000000
840.923584	186.300000
840.957764	183.600000
840.992004	184.100000
841.026184	192.600000
841.060425	181.800000
841.094666	179.400000
841.128845	183.900000
841.163025	182.300000
841.197266	182.400000
841.231445	181.500000
841.265686	183.200000
841.299866	178.500000
841.334045	186.200000
841.368286	180.600000
841.402405	185.600000
841.436646	183.800000
841.470825	179.300000
841.505005	180.600000
841.539185	178.000000
841.573425	179.100000
841.607544	180.400000
841.641785	179.800000
841.675964	177.900000
841.710144	181.100000
841.744324	179.500000
841.778503	179.900000
841.812683	177.900000
841.846863	185.500000
841.881042	186.800000
841.915222	178.900000
841.949402	191.300000
841.983521	175.900000
842.017700	180.100000
842.051880	182.700000
842.086060	183.700000
842.120239	182.000000
842.154419	181.000000
842.188538	181.800000
842.222717	179.300000
842.256897	188.300000
842.291016	182.000000
842.325195	183.600000
842.359375	189.500000
842.393494	186.900000
842.427673	182.300000
842.461853	183.600000
842.495911	188.500000
842.530090	183.200000
842.564209	182.500000
842.598389	182.000000
842.632568	182.100000
842.666626	184.400000
842.700806	179.800000
842.734985	180.000000
842.769043	184.400000
842.803223	181.100000
842.837402	180.600000
842.871460	179.000000
842.905640	189.400000
842.939697	178.600000
842.973877	181.700000
843.007996	185.200000
843.042175	188.300000
843.076233	179.400000
843.110413	183.600000
843.144470	186.000000
843.178589	185.000000
843.212769	180.000000
843.246826	186.000000
843.280945	180.400000
843.315125	180.500000
843.349182	177.800000
843.383301	185.700000
843.417419	190.200000
843.451538	183.000000
843.485657	180.000000
843.519714	180.700000
843.553833	182.800000
843.587952	179.900000
843.622070	178.900000
843.656128	184.000000
843.690247	179.300000
843.724304	181.900000
843.758423	183.300000
843.792542	180.800000
843.826599	181.600000
843.860718	181.700000
843.894836	176.600000
843.928894	182.300000
843.963013	183.800000
843.997070	179.400000
844.031128	178.900000
844.065247	185.600000
844.099304	185.000000
844.133362	184.500000
844.167480	184.100000
844.201599	187.300000
844.235596	183.400000
844.269714	184.100000
844.303711	183.900000
844.337830	177.700000
844.371948	183.700000
844.405945	181.300000
844.440063	179.300000
844.474121	192.600000
844.508118	180.900000
844.542236	180.900000
844.576294	180.800000
844.610352	177.900000
844.644409	181.300000
844.678406	176.400000
844.712524	186.600000
844.746582	187.100000
844.780640	182.900000
844.814636	182.200000
844.848755	189.500000
844.882751	179.200000
844.916809	183.500000
844.950867	183.400000
844.984863	187.400000
845.018921	180.400000
845.052979	179.600000
845.086975	181.800000
845.121033	178.600000
845.155090	181.500000
845.189087	188.000000
845.223145	181.000000
845.257141	183.100000
845.291199	184.800000
845.325256	186.200000
845.359253	183.300000
845.393250	194.700000
845.427307	182.300000
845.461304	184.400000
845.495361	184.000000
845.529358	189.700000
845.563354	181.400000
845.597412	179.500000
845.631409	190.700000
845.665405	188.000000
845.699463	185.100000
845.733459	180.700000
845.767456	191.300000
845.801453	181.300000
845.835449	187.200000
845.869446	185.300000
845.903503	186.400000
845.937439	179.100000
845.971497	187.200000
846.005493	178.100000
846.039429	186.400000
846.073486	189.500000
846.107483	182.100000
846.141418	182.200000
846.175476	183.400000
846.209473	186.600000
846.243408	180.000000
846.277405	182.500000
846.311401	180.000000
846.345337	181.200000
846.379395	185.200000
846.413330	179.800000
846.447327	190.900000
846.481323	178.400000
846.515259	180.200000
846.549255	181.500000
846.583252	184.900000
846.617187	178.800000
846.651184	183.500000
846.685120	181.900000
846.719055	188.800000
846.753052	184.200000
846.786987	185.200000
846.820984	178.100000
846.854980	188.700000
846.888916	179.200000
846.922852	185.300000
846.956848	186.600000
846.990723	181.100000
847.024719	183.400000
847.058716	182.800000
847.092590	188.100000
847.126587	184.800000
847.160522	181.600000
847.194458	184.900000
847.228455	179.700000
847.262390	180.500000
847.296265	182.100000
847.330261	186.800000
847.364136	181.400000
847.398132	181.800000
847.432068	183.800000
847.466003	181.000000
847.499939	181.800000
847.533875	185.300000
847.567749	182.800000
847.601746	180.900000
847.635681	184.200000
847.669556	177.000000
847.703491	186.400000
847.737427	191.700000
847.771301	177.900000
847.805237	184.200000
847.839233	182.900000
847.873108	182.200000
847.907043	181.600000
847.940918	188.200000
847.974854	183.500000
848.008789	185.300000
848.042664	181.500000
848.076538	182.900000
848.110474	183.000000
848.144348	182.800000
848.178284	178.800000
848.212219	183.600000
848.246094	180.600000
848.279968	184.000000
848.313904	184.500000
848.347778	182.400000
848.381653	181.900000
848.415588	180.600000
848.449463	180.000000
848.483337	184.800000
848.517212	188.400000
848.551086	183.400000
848.585022	180.500000
848.618835	192.000000
848.652771	181.200000
848.686646	180.600000
848.720520	189.100000
848.754395	182.400000
848.788330	185.400000
848.822144	185.900000
848.856018	180.200000
848.889954	191.100000
848.923767	178.600000
848.957642	180.600000
848.991577	184.400000
849.025391	183.000000
849.059265	181.500000
849.093079	180.800000
849.126953	178.200000
849.160828	188.600000
849.194641	183.600000
849.228577	181.800000
849.262451	181.100000
849.296265	182.000000
849.330139	180.300000
849.364014	181.800000
849.397827	184.400000
849.431702	184.100000
849.465515	185.500000
849.499329	176.300000
849.533203	179.000000
849.567078	176.900000
849.600891	182.500000
849.634766	180.800000
849.668518	184.000000
849.702393	182.100000
849.736267	177.400000
849.770020	189.800000
849.803894	183.200000
849.837769	184.200000
849.871521	181.300000
849.905396	184.600000
849.939270	178.900000
849.973022	181.100000
850.006897	183.700000
850.040710	185.200000
850.074524	186.100000
850.108337	181.500000
850.142151	185.900000
850.175964	187.100000
850.209778	182.200000
850.243530	175.100000
850.277405	185.000000
850.311218	182.500000
850.344971	181.100000
850.378845	188.900000
850.412659	181.200000
850.446411	183.800000
850.480225	183.000000
850.514038	186.200000
850.547791	186.300000
850.581665	183.800000
850.615417	181.000000
850.649231	183.100000
850.683044	181.500000
850.716858	182.200000
850.750610	184.000000
850.784424	184.200000
850.818176	179.100000
850.851929	181.500000
850.885742	180.700000
850.919495	182.100000
850.953308	187.800000
850.987122	187.500000
851.020874	179.000000
851.054626	178.000000
851.088440	184.500000
851.122192	184.900000
851.156006	184.100000
851.189697	181.300000
851.223511	177.700000
851.257263	185.500000
851.291077	184.500000
851.324829	181.200000
851.358582	179.900000
851.392334	182.700000
851.426086	180.400000
851.459900	189.300000
851.493591	182.300000
851.527344	180.900000
851.561157	181.800000
851.594849	183.300000
851.628662	181.800000
851.662415	188.700000
851.696106	184.900000
851.729858	186.400000
851.763611	177.700000
851.797363	184.100000
851.831116	178.500000
851.864868	184.900000
851.898560	187.400000
851.932312	181.000000
851.966064	185.800000
851.999817	183.900000
852.033569	182.500000
852.067261	186.900000
852.101013	181.100000
852.134766	181.900000
852.168457	176.200000
852.202209	186.200000
852.235901	180.100000
852.269592	185.100000
852.303345	189.000000
852.337036	186.900000
852.370789	182.000000
852.404541	186.600000
852.438171	179.300000
852.471924	183.700000
852.505676	177.800000
852.539307	184.200000
852.573059	181.000000
852.606812	182.300000
852.640442	181.700000
852.674194	187.000000
852.707886	189.200000
852.741577	186.700000
852.775269	177.800000
852.809021	182.800000
852.842651	184.300000
852.876404	187.200000
852.910034	182.400000
852.943787	186.900000
852.977478	184.000000
853.011108	178.700000
853.044861	179.700000
853.078552	186.800000
853.112183	182.200000
853.145874	182.100000
853.179626	175.500000
853.213257	183.300000
853.246948	180.600000
853.280640	189.000000
853.314270	181.200000
853.347961	187.000000
853.381653	186.100000
853.415283	187.700000
853.448975	180.300000
853.482605	184.100000
853.516296	183.100000
853.549988	178.400000
853.583618	183.600000
853.617310	186.200000
853.651001	183.500000
853.684631	181.200000
853.718323	179.600000
853.751953	188.200000
853.785583	176.800000
853.819275	185.600000
853.852966	184.900000
853.886536	177.600000
853.920227	179.300000
853.953918	186.100000
853.987488	183.200000
854.021179	186.700000
854.054749	189.500000
854.088440	185.300000
854.122131	180.400000
854.155701	183.700000
854.189331	180.000000
854.223022	182.500000
854.256592	183.800000
854.290283	180.300000
854.323914	184.400000
854.357483	184.300000
854.391174	185.300000
854.424744	187.800000
854.458374	183.400000
854.492065	191.000000
854.525696	181.100000
854.559265	186.600000
854.592896	191.300000
854.626465	181.900000
854.660095	182.900000
854.693787	184.400000
854.727356	182.400000
854.760986	186.300000
854.794617	184.600000
854.828186	181.900000
854.861816	185.200000
854.895447	184.000000
854.929016	184.400000
854.962585	183.800000
854.996155	191.900000
855.029785	183.800000
855.063416	184.800000
855.097046	185.300000
855.130615	179.100000
855.164185	187.400000
855.197754	183.600000
855.231384	184.500000
855.264954	181.700000
855.298523	186.200000
855.332153	184.600000
855.365723	187.800000
855.399292	180.700000
855.432922	182.300000
855.466492	183.900000
855.500061	178.900000
855.533630	180.500000
855.567200	185.400000
855.600769	185.500000
855.634338	188.200000
855.667969	184.200000
855.701477	181.600000
855.735046	179.400000
855.768616	177.800000
855.802185	184.400000
855.835754	193.800000
855.869324	175.200000
855.902893	182.900000
855.936401	185.700000
855.969971	183.000000
856.003540	176.900000
856.037109	184.000000
856.070618	181.500000
856.104187	179.000000
856.137695	178.600000
856.171265	176.300000
856.204834	183.200000
856.238403	187.200000
856.271912	179.800000
856.305481	185.000000
856.338989	178.000000
856.372559	185.900000
856.406128	185.400000
856.439636	186.200000
856.473145	182.200000
856.506653	188.400000
856.540222	182.800000
856.573792	186.300000
856.607300	187.500000
856.640808	180.900000
856.674377	183.400000
856.707825	216.200000
856.741394	187.400000
856.774902	179.400000
856.808472	177.400000
856.841980	185.400000
856.875488	187.700000
856.908936	178.400000
856.942505	182.400000
856.976013	182.400000
857.009521	181.300000
857.043030	184.000000
857.076477	181.800000
857.110046	187.500000
857.143555	183.400000
857.177063	185.900000
857.210571	181.100000
857.244080	178.400000
857.277527	184.400000
857.311035	182.600000
857.344543	186.700000
857.378052	181.500000
857.411499	187.200000
857.445068	187.800000
857.478516	182.500000
857.512024	179.000000
857.545532	180.800000
857.578979	182.900000
857.612427	183.000000
857.645874	179.600000
857.679382	182.900000
857.712891	185.700000
857.746399	183.400000
857.779846	186.500000
857.813354	186.400000
857.846741	182.400000
857.880249	179.100000
857.913757	183.200000
857.947266	184.400000
857.980652	185.100000
858.014160	181.000000
858.047546	180.700000
858.081055	181.800000
858.114563	190.600000
858.147949	179.400000
858.181458	185.400000
858.214844	181.300000
858.248352	177.800000
858.281799	186.700000
858.315308	191.200000
858.348694	186.100000
858.382141	189.500000
858.415588	187.200000
858.449036	186.300000
858.482483	184.300000
858.515930	181.200000
858.549377	182.500000
858.582825	188.300000
858.616211	185.400000
858.649658	186.100000
858.683105	179.300000
858.716553	183.100000
858.750000	178.700000
858.783386	180.200000
858.816833	178.600000
858.850281	183.400000
858.883728	183.900000
858.917114	183.900000
858.950562	189.200000
858.983948	187.800000
859.017395	185.000000
859.050781	181.500000
859.084167	178.200000
859.117615	179.100000
859.151062	183.100000
859.184448	180.700000
859.217834	180.900000
859.251282	181.500000
859.284668	178.600000
859.318054	176.400000
859.351440	181.100000
859.384888	187.200000
859.418274	177.600000
859.451721	176.900000
859.485046	183.200000
859.518494	184.300000
859.551819	179.000000
859.585266	184.000000
859.618652	186.100000
859.652039	179.700000
859.685425	179.200000
859.718811	179.200000
859.752197	175.000000
859.785583	187.500000
859.819031	188.700000
859.852356	186.400000
859.885742	180.300000
859.919067	184.000000
859.952454	181.900000
859.985901	185.700000
860.019287	182.900000
860.052612	0.000000
860.085999	0.000000
860.119324	0.000000
860.152710	0.000000
860.186096	0.000000
860.219421	0.000000
860.252808	0.000000
860.286133	0.000000
860.319519	0.000000
860.352905	0.000000
860.386292	0.000000
860.419617	0.000000
860.452942	0.000000
860.486267	0.000000
860.519653	0.000000
860.553040	0.000000
860.586365	0.000000
860.619690	0.000000
860.653076	0.000000
860.686340	0.000000
860.719727	0.000000
860.753113	0.000000
860.786377	0.000000
860.819763	0.000000
860.853027	0.000000
860.886414	0.000000
860.919739	0.000000
860.953125	0.000000
860.986389	0.000000
861.019714	0.000000
861.053040	0.000000
861.086365	0.000000
861.119690	0.000000
861.153076	0.000000
861.186340	0.000000
861.219666	0.000000
861.252930	0.000000
861.286316	0.000000
861.319641	0.000000
861.352905	0.000000
861.386230	0.000000
861.419495	0.000000
861.452820	0.000000
861.486145	0.000000
861.519470	0.000000
861.552734	0.000000
861.586060	0.000000
861.619324	0.000000
861.652649	0.000000
861.685974	0.000000
861.719238	0.000000
861.752563	0.000000
861.785828	0.000000
861.819092	0.000000
861.852417	0.000000
861.885742	0.000000
861.918945	0.000000
861.952271	0.000000
861.985535	0.000000
862.018799	0.000000
862.052124	0.000000
862.085449	0.000000
862.118652	0.000000
862.151978	0.000000
862.185181	0.000000
862.218506	0.000000
862.251770	0.000000
862.285034	0.000000
862.318298	0.000000
862.351562	0.000000
862.384827	0.000000
862.418091	0.000000
862.451355	0.000000
862.484619	0.000000
862.517883	0.000000
862.551086	0.000000
862.584351	0.000000
862.617676	0.000000
862.650940	0.000000
862.684143	0.000000
862.717407	0.000000
862.750610	0.000000
862.783875	0.000000
862.817139	0.000000
862.850342	0.000000
862.883606	0.000000
862.916870	0.000000
862.950073	0.000000
862.983337	0.000000
863.016602	0.000000
863.049805	0.000000
863.083069	0.000000
863.116211	0.000000
863.149475	0.000000
863.182739	0.000000
863.216003	0.000000
863.249146	0.000000
863.282410	0.000000
863.315613	0.000000
863.348816	0.000000
863.382080	0.000000
863.415222	0.000000
863.448486	0.000000
863.481689	0.000000
863.514893	0.000000
863.548157	0.000000
863.581360	0.000000
863.614502	0.000000
863.647766	0.000000
863.680908	0.000000
863.714172	0.000000
863.747375	0.000000
863.780579	0.000000
863.813721	0.000000
863.846985	0.000000
863.880127	0.000000
863.913330	0.000000
863.946533	0.000000
863.979675	0.000000
864.012939	0.000000
