Model Number: SPM-001-M   
Serial Number: 10090201
Firmware Version: 004.17.6
Exposure Time: 300000.000000us
Data Taken on: 28-01-2021 10:37:27.478
Wavelength	Amplitude
733.770752	0.000000
733.808716	0.000000
733.846619	0.000000
733.884583	0.000000
733.922546	0.000000
733.960449	0.000000
733.998413	0.000000
734.036377	0.000000
734.074219	0.000000
734.112183	0.000000
734.150085	0.000000
734.188049	0.000000
734.226013	0.000000
734.263916	0.000000
734.301819	0.000000
734.339783	0.000000
734.377686	0.000000
734.415588	0.000000
734.453552	0.000000
734.491455	0.000000
734.529419	0.000000
734.567322	0.000000
734.605225	0.000000
734.643127	0.000000
734.681091	0.000000
734.718994	0.000000
734.756897	0.000000
734.794800	0.000000
734.832703	0.000000
734.870667	0.000000
734.908508	0.000000
734.946472	0.000000
734.984375	0.000000
735.022278	0.000000
735.060181	0.000000
735.098083	0.000000
735.135986	0.000000
735.173889	0.000000
735.211792	0.000000
735.249695	0.000000
735.287598	0.000000
735.325439	0.000000
735.363403	0.000000
735.401306	0.000000
735.439148	0.000000
735.477051	0.000000
735.515015	0.000000
735.552856	0.000000
735.590759	0.000000
735.628662	0.000000
735.666504	0.000000
735.704407	0.000000
735.742310	0.000000
735.780212	0.000000
735.818115	0.000000
735.856018	0.000000
735.893860	0.000000
735.931763	0.000000
735.969604	0.000000
736.007507	0.000000
736.045410	0.000000
736.083252	0.000000
736.121094	0.000000
736.158997	0.000000
736.196838	0.000000
736.234741	0.000000
736.272644	0.000000
736.310486	0.000000
736.348389	0.000000
736.386230	0.000000
736.424072	0.000000
736.461975	0.000000
736.499878	0.000000
736.537720	0.000000
736.575562	0.000000
736.613403	0.000000
736.651306	0.000000
736.689148	0.000000
736.726990	0.000000
736.764893	0.000000
736.802734	0.000000
736.840576	0.000000
736.878418	0.000000
736.916321	0.000000
736.954102	0.000000
736.992004	0.000000
737.029846	0.000000
737.067688	0.000000
737.105530	0.000000
737.143372	0.000000
737.181213	0.000000
737.219116	0.000000
737.256897	0.000000
737.294739	0.000000
737.332642	0.000000
737.370422	0.000000
737.408325	0.000000
737.446167	0.000000
737.483948	0.000000
737.521790	0.000000
737.559692	0.000000
737.597473	0.000000
737.635315	0.000000
737.673157	0.000000
737.710999	0.000000
737.748840	0.000000
737.786621	0.000000
737.824463	0.000000
737.862305	0.000000
737.900085	0.000000
737.937927	0.000000
737.975769	0.000000
738.013550	0.000000
738.051392	0.000000
738.089233	0.000000
738.127014	0.000000
738.164856	0.000000
738.202698	0.000000
738.240479	0.000000
738.278320	0.000000
738.316162	0.000000
738.353943	0.000000
738.391785	0.000000
738.429565	0.000000
738.467407	0.000000
738.505188	0.000000
738.542969	0.000000
738.580811	0.000000
738.618652	0.000000
738.656372	0.000000
738.694214	0.000000
738.732056	0.000000
738.769836	0.000000
738.807617	0.000000
738.845459	0.000000
738.883240	0.000000
738.921021	0.000000
738.958862	0.000000
738.996582	0.000000
739.034424	0.000000
739.072205	0.000000
739.109985	0.000000
739.147827	0.000000
739.185547	0.000000
739.223389	0.000000
739.261169	0.000000
739.298889	0.000000
739.336731	0.000000
739.374512	0.000000
739.412292	0.000000
739.450073	0.000000
739.487854	0.000000
739.525635	0.000000
739.563416	0.000000
739.601135	0.000000
739.638977	0.000000
739.676758	0.000000
739.714478	0.000000
739.752258	0.000000
739.790100	0.000000
739.827820	0.000000
739.865601	0.000000
739.903381	0.000000
739.941101	0.000000
739.978882	184.700000
740.016724	179.700000
740.054443	183.700000
740.092224	180.100000
740.130005	178.600000
740.167725	178.400000
740.205505	180.400000
740.243225	183.300000
740.281006	182.200000
740.318787	176.300000
740.356506	185.300000
740.394287	183.900000
740.432068	178.500000
740.469727	176.400000
740.507507	184.400000
740.545288	182.000000
740.583008	183.400000
740.620789	180.600000
740.658569	177.200000
740.696228	181.200000
740.734009	185.200000
740.771790	173.400000
740.809509	184.100000
740.847229	178.900000
740.884949	180.700000
740.922729	176.500000
740.960449	179.200000
740.998169	178.100000
741.035950	178.600000
741.073669	182.300000
741.111389	182.000000
741.149170	188.000000
741.186890	187.700000
741.224609	184.900000
741.262329	181.600000
741.300110	188.100000
741.337769	178.000000
741.375549	177.800000
741.413208	181.400000
741.450989	178.500000
741.488708	179.300000
741.526367	179.000000
741.564148	184.100000
741.601868	183.100000
741.639526	180.400000
741.677307	183.100000
741.715027	183.200000
741.752686	179.000000
741.790466	185.100000
741.828186	183.900000
741.865845	179.000000
741.903564	176.300000
741.941345	180.400000
741.979004	178.800000
742.016724	185.000000
742.054382	181.600000
742.092102	183.900000
742.129822	177.500000
742.167480	181.200000
742.205200	180.100000
742.242920	183.100000
742.280640	183.700000
742.318359	178.200000
742.356079	181.100000
742.393738	183.500000
742.431396	182.000000
742.469116	184.100000
742.506775	174.700000
742.544495	181.400000
742.582214	184.500000
742.619873	180.600000
742.657593	185.800000
742.695251	186.200000
742.732971	180.800000
742.770630	182.600000
742.808289	181.700000
742.846008	181.900000
742.883728	182.400000
742.921326	182.100000
742.959045	180.000000
742.996765	180.500000
743.034424	181.400000
743.072083	180.100000
743.109802	180.400000
743.147400	177.700000
743.185120	181.300000
743.222839	180.800000
743.260437	186.200000
743.298157	183.100000
743.335754	175.600000
743.373474	180.300000
743.411133	175.800000
743.448792	180.300000
743.486450	179.400000
743.524170	177.000000
743.561768	180.200000
743.599487	185.100000
743.637146	187.900000
743.674744	179.700000
743.712463	178.500000
743.750122	181.800000
743.787720	182.200000
743.825439	179.800000
743.863037	179.100000
743.900696	180.500000
743.938416	203.700000
743.976013	180.300000
744.013672	187.000000
744.051331	182.900000
744.088928	187.400000
744.126587	185.000000
744.164307	182.800000
744.201904	179.600000
744.239563	182.100000
744.277222	184.000000
744.314819	181.100000
744.352478	186.100000
744.390137	182.600000
744.427734	182.300000
744.465393	180.100000
744.502991	178.700000
744.540649	184.000000
744.578308	181.100000
744.615906	178.600000
744.653564	174.900000
744.691223	182.500000
744.728821	177.500000
744.766418	182.500000
744.804077	180.400000
744.841675	181.100000
744.879333	176.700000
744.916992	180.400000
744.954529	180.000000
744.992187	184.600000
745.029785	178.900000
745.067444	179.800000
745.105042	180.400000
745.142639	182.100000
745.180298	187.900000
745.217896	179.400000
745.255493	178.800000
745.293152	184.100000
745.330750	184.900000
745.368347	186.700000
745.405945	183.100000
745.443604	181.800000
745.481140	183.900000
745.518799	182.100000
745.556396	182.000000
745.593994	183.100000
745.631592	181.100000
745.669189	178.900000
745.706787	181.400000
745.744385	178.400000
745.781982	182.400000
745.819580	180.400000
745.857178	180.300000
745.894775	180.600000
745.932373	182.400000
745.969971	181.500000
746.007568	176.500000
746.045166	185.900000
746.082764	186.900000
746.120300	184.200000
746.157898	182.900000
746.195557	181.800000
746.233093	177.600000
746.270691	183.700000
746.308228	183.500000
746.345825	184.100000
746.383423	184.000000
746.420959	177.900000
746.458557	179.100000
746.496155	180.100000
746.533691	182.300000
746.571289	177.200000
746.608887	181.200000
746.646423	181.600000
746.684021	180.700000
746.721619	179.000000
746.759155	183.600000
746.796753	175.200000
746.834351	177.400000
746.871826	178.300000
746.909424	186.000000
746.946960	180.100000
746.984558	181.300000
747.022156	179.700000
747.059631	187.400000
747.097229	183.000000
747.134827	179.300000
747.172363	185.800000
747.209900	183.600000
747.247498	178.200000
747.285034	186.900000
747.322571	186.000000
747.360168	181.600000
747.397644	176.700000
747.435242	184.600000
747.472778	185.500000
747.510315	181.300000
747.547913	180.600000
747.585388	187.100000
747.622925	179.100000
747.660522	177.900000
747.697998	178.400000
747.735596	180.400000
747.773132	179.900000
747.810669	181.900000
747.848206	184.700000
747.885742	178.600000
747.923279	178.000000
747.960815	183.100000
747.998352	183.900000
748.035889	185.000000
748.073425	183.700000
748.110901	180.600000
748.148437	178.500000
748.185974	180.000000
748.223511	187.700000
748.261047	183.600000
748.298584	181.800000
748.336060	180.500000
748.373596	182.200000
748.411133	207.300000
748.448608	179.300000
748.486145	182.400000
748.523682	185.200000
748.561218	187.800000
748.598755	182.900000
748.636292	183.800000
748.673706	179.500000
748.711243	186.900000
748.748718	182.300000
748.786255	182.200000
748.823792	182.400000
748.861267	177.000000
748.898804	183.600000
748.936340	182.700000
748.973816	178.700000
749.011292	185.600000
749.048828	182.600000
749.086304	182.900000
749.123840	188.800000
749.161316	179.300000
749.198792	186.500000
749.236328	184.600000
749.273743	181.100000
749.311279	180.800000
749.348816	183.500000
749.386230	182.300000
749.423767	175.300000
749.461304	183.900000
749.498718	183.100000
749.536255	185.400000
749.573730	190.000000
749.611206	185.700000
749.648682	182.400000
749.686218	181.300000
749.723633	183.000000
749.761169	180.800000
749.798645	179.100000
749.836060	181.500000
749.873596	178.900000
749.911011	183.900000
749.948547	185.600000
749.986023	181.800000
750.023437	180.700000
750.060913	176.800000
750.098450	176.500000
750.135864	180.300000
750.173340	181.300000
750.210815	185.300000
750.248291	177.700000
750.285767	181.700000
750.323242	183.300000
750.360657	184.400000
750.398132	177.200000
750.435608	184.300000
750.473022	178.800000
750.510498	178.600000
750.547974	178.300000
750.585449	180.700000
750.622925	174.600000
750.660339	191.400000
750.697815	181.200000
750.735291	181.100000
750.772644	181.000000
750.810120	182.900000
750.847595	183.300000
750.885010	179.100000
750.922485	186.800000
750.959961	182.400000
750.997375	185.600000
751.034851	185.600000
751.072266	183.200000
751.109680	177.500000
751.147156	187.000000
751.184570	183.300000
751.221985	181.300000
751.259460	176.900000
751.296875	182.400000
751.334290	181.500000
751.371765	184.600000
751.409180	184.500000
751.446594	186.100000
751.484070	183.300000
751.521423	182.600000
751.558899	182.900000
751.596375	190.000000
751.633728	186.900000
751.671204	189.200000
751.708618	180.000000
751.746033	182.800000
751.783447	176.500000
751.820801	180.000000
751.858276	184.300000
751.895691	180.700000
751.933105	179.100000
751.970520	178.900000
752.007935	180.000000
752.045349	185.100000
752.082764	180.500000
752.120178	179.700000
752.157532	179.600000
752.195007	179.600000
752.232422	183.400000
752.269775	184.700000
752.307190	183.200000
752.344543	179.100000
752.382019	181.100000
752.419434	180.700000
752.456787	183.100000
752.494202	185.500000
752.531616	182.200000
752.568970	183.900000
752.606384	183.000000
752.643799	183.700000
752.681152	185.800000
752.718567	184.000000
752.755981	178.100000
752.793335	184.900000
752.830750	177.200000
752.868164	185.400000
752.905518	178.700000
752.942932	185.100000
752.980225	178.600000
753.017639	184.100000
753.055054	185.400000
753.092407	183.300000
753.129822	185.500000
753.167175	188.700000
753.204529	181.500000
753.241943	179.800000
753.279358	178.700000
753.316650	184.100000
753.354065	182.200000
753.391479	184.000000
753.428772	187.400000
753.466187	183.100000
753.503479	178.100000
753.540894	180.800000
753.578308	178.400000
753.615601	178.200000
753.653015	182.200000
753.690369	180.300000
753.727722	179.300000
753.765076	176.700000
753.802490	179.600000
753.839783	177.000000
753.877136	180.200000
753.914551	189.100000
753.951843	179.100000
753.989258	183.900000
754.026611	182.100000
754.063904	182.700000
754.101257	179.000000
754.138611	174.700000
754.175964	182.700000
754.213318	188.400000
754.250610	178.600000
754.288025	179.000000
754.325378	178.200000
754.362671	182.600000
754.400024	182.000000
754.437378	188.500000
754.474670	187.300000
754.512085	179.200000
754.549438	184.400000
754.586731	180.000000
754.624084	182.200000
754.661438	179.300000
754.698730	188.100000
754.736084	181.500000
754.773376	180.400000
754.810730	183.300000
754.848083	182.400000
754.885315	186.100000
754.922668	177.300000
754.960022	179.900000
754.997314	185.700000
755.034668	182.000000
755.072021	183.000000
755.109253	181.300000
755.146606	186.500000
755.183960	181.700000
755.221252	187.700000
755.258545	185.600000
755.295898	187.500000
755.333191	186.400000
755.370544	183.700000
755.407776	182.400000
755.445129	183.900000
755.482422	186.700000
755.519714	181.500000
755.557068	177.300000
755.594360	176.600000
755.631653	185.000000
755.668945	188.300000
755.706299	183.900000
755.743530	190.900000
755.780884	188.600000
755.818176	184.700000
755.855408	187.600000
755.892761	183.500000
755.930054	182.800000
755.967346	185.700000
756.004639	186.300000
756.041870	182.700000
756.079224	188.300000
756.116516	181.000000
756.153748	186.600000
756.191040	190.200000
756.228394	185.600000
756.265625	180.500000
756.302917	185.200000
756.340210	182.300000
756.377441	187.700000
756.414795	188.900000
756.452087	184.800000
756.489319	179.300000
756.526611	188.300000
756.563843	184.900000
756.601135	191.200000
756.638428	193.000000
756.675659	185.000000
756.712952	186.700000
756.750244	186.400000
756.787476	186.200000
756.824768	189.300000
756.862061	184.600000
756.899292	229.600000
756.936584	188.800000
756.973816	192.700000
757.011047	193.300000
757.048340	185.100000
757.085632	185.600000
757.122864	198.400000
757.160156	184.900000
757.197327	188.000000
757.234619	190.800000
757.271912	183.800000
757.309082	190.300000
757.346375	183.600000
757.383667	189.700000
757.420837	187.000000
757.458130	187.100000
757.495422	184.700000
757.532593	188.900000
757.569885	181.300000
757.607117	184.300000
757.644348	188.800000
757.681580	195.900000
757.718811	177.800000
757.756042	188.200000
757.793335	184.300000
757.830505	189.000000
757.867798	185.600000
757.905029	183.900000
757.942200	187.900000
757.979492	185.300000
758.016724	186.900000
758.053894	187.000000
758.091187	199.400000
758.128418	189.100000
758.165588	187.400000
758.202820	195.600000
758.240112	189.400000
758.277283	195.300000
758.314514	189.900000
758.351685	186.900000
758.388916	194.000000
758.426147	195.100000
758.463379	193.800000
758.500610	190.200000
758.537842	190.400000
758.575012	194.800000
758.612244	186.900000
758.649475	198.300000
758.686646	187.400000
758.723877	193.700000
758.761108	196.200000
758.798279	190.500000
758.835510	191.600000
758.872742	194.800000
758.909851	191.400000
758.947083	192.400000
758.984253	192.600000
759.021484	194.500000
759.058716	192.900000
759.095886	194.300000
759.133057	191.000000
759.170288	194.600000
759.207458	191.700000
759.244690	199.000000
759.281860	199.700000
759.319031	191.900000
759.356262	190.400000
759.393433	189.800000
759.430603	192.500000
759.467773	191.900000
759.505005	197.200000
759.542175	198.700000
759.579346	191.900000
759.616516	192.400000
759.653687	195.800000
759.690918	190.700000
759.728027	194.900000
759.765259	195.600000
759.802429	197.100000
759.839539	195.500000
759.876770	198.900000
759.913940	201.200000
759.951111	194.900000
759.988281	197.300000
760.025452	194.700000
760.062561	192.300000
760.099792	203.600000
760.136963	197.400000
760.174072	195.600000
760.211243	192.700000
760.248413	193.700000
760.285583	192.800000
760.322754	202.400000
760.359863	200.600000
760.397034	202.600000
760.434204	197.600000
760.471375	196.300000
760.508545	195.900000
760.545715	197.500000
760.582825	195.200000
760.619995	200.800000
760.657166	193.600000
760.694275	202.200000
760.731445	198.000000
760.768555	199.900000
760.805664	201.800000
760.842834	199.000000
760.879944	202.800000
760.917114	198.600000
760.954285	196.900000
760.991394	194.900000
761.028564	202.600000
761.065674	200.100000
761.102783	196.900000
761.139954	201.500000
761.177124	201.700000
761.214172	203.400000
761.251343	199.400000
761.288452	199.000000
761.325562	202.600000
761.362732	198.400000
761.399841	201.100000
761.436951	200.500000
761.474121	197.800000
761.511169	200.600000
761.548340	205.400000
761.585449	203.600000
761.622559	204.900000
761.659668	203.000000
761.696838	206.800000
761.733887	204.500000
761.771057	200.500000
761.808167	202.000000
761.845276	204.700000
761.882385	211.900000
761.919434	205.200000
761.956604	215.300000
761.993713	202.100000
762.030762	207.600000
762.067871	204.700000
762.105042	203.700000
762.142090	210.000000
762.179199	206.300000
762.216309	209.500000
762.253418	215.100000
762.290527	213.600000
762.327637	209.400000
762.364685	202.700000
762.401794	209.100000
762.438904	207.600000
762.475952	203.600000
762.513062	202.500000
762.550110	204.500000
762.587219	213.600000
762.624329	214.600000
762.661377	208.900000
762.698486	208.500000
762.735596	207.600000
762.772644	205.100000
762.809753	203.300000
762.846863	208.100000
762.883911	212.500000
762.921021	210.200000
762.958069	208.000000
762.995117	215.100000
763.032227	212.600000
763.069336	208.100000
763.106323	206.400000
763.143433	205.200000
763.180481	209.000000
763.217590	211.100000
763.254639	208.500000
763.291687	209.600000
763.328735	215.800000
763.365845	210.700000
763.402893	209.300000
763.439941	214.000000
763.477051	213.700000
763.514038	214.000000
763.551147	210.900000
763.588196	212.400000
763.625244	211.700000
763.662292	217.500000
763.699402	221.600000
763.736389	216.600000
763.773499	224.000000
763.810486	218.000000
763.847534	215.800000
763.884644	219.000000
763.921631	215.100000
763.958679	222.600000
763.995728	217.400000
764.032776	219.900000
764.069824	214.900000
764.106873	219.800000
764.143860	227.300000
764.180969	219.600000
764.218018	225.500000
764.255005	218.800000
764.292053	219.500000
764.329102	226.400000
764.366089	227.200000
764.403137	224.600000
764.440125	221.700000
764.477173	221.400000
764.514221	224.600000
764.551208	223.800000
764.588257	221.500000
764.625305	226.900000
764.662292	232.300000
764.699341	233.300000
764.736389	228.600000
764.773376	237.200000
764.810425	230.200000
764.847473	235.300000
764.884399	232.100000
764.921448	237.000000
764.958435	235.100000
764.995483	229.800000
765.032532	240.900000
765.069458	229.900000
765.106506	234.300000
765.143555	230.800000
765.180481	234.500000
765.217529	238.700000
765.254578	229.900000
765.291504	236.200000
765.328552	235.000000
765.365540	233.300000
765.402527	243.900000
765.439575	233.300000
765.476501	230.400000
765.513550	230.200000
765.550537	236.400000
765.587463	239.200000
765.624512	234.400000
765.661499	230.200000
765.698486	241.600000
765.735474	235.000000
765.772461	236.900000
765.809448	242.600000
765.846436	240.300000
765.883423	244.600000
765.920410	240.200000
765.957397	238.200000
765.994385	240.300000
766.031311	247.600000
766.068359	242.000000
766.105286	243.400000
766.142273	247.800000
766.179260	245.000000
766.216187	241.600000
766.253174	237.700000
766.290161	244.200000
766.327148	249.600000
766.364136	246.200000
766.401123	257.700000
766.438049	243.700000
766.475037	252.000000
766.512024	248.100000
766.548950	261.400000
766.585937	254.800000
766.622864	253.800000
766.659790	252.900000
766.696777	247.000000
766.733704	255.100000
766.770691	249.000000
766.807678	256.700000
766.844604	253.500000
766.881531	255.600000
766.918518	258.500000
766.955444	258.100000
766.992432	254.900000
767.029358	257.100000
767.066284	260.000000
767.103271	257.800000
767.140198	289.000000
767.177124	267.400000
767.214050	261.000000
767.251038	262.000000
767.287964	257.700000
767.324890	259.300000
767.361816	260.600000
767.398743	264.100000
767.435730	260.000000
767.472595	263.900000
767.509583	266.300000
767.546509	258.600000
767.583374	262.300000
767.620361	260.400000
767.657288	261.200000
767.694214	261.900000
767.731140	262.700000
767.768066	264.800000
767.804993	266.000000
767.841919	261.000000
767.878845	265.500000
767.915710	272.000000
767.952698	265.100000
767.989563	266.500000
768.026489	267.700000
768.063416	263.600000
768.100281	263.300000
768.137207	272.600000
768.174133	269.000000
768.211060	271.100000
768.247986	268.100000
768.284912	269.100000
768.321777	270.200000
768.358704	269.100000
768.395630	270.400000
768.432495	267.400000
768.469421	271.200000
768.506348	276.700000
768.543152	279.700000
768.580078	275.800000
768.616943	276.200000
768.653870	278.000000
768.690796	278.400000
768.727661	276.400000
768.764587	280.900000
768.801453	275.200000
768.838318	280.700000
768.875244	281.800000
768.912109	286.100000
768.948975	280.400000
768.985901	281.800000
769.022766	279.800000
769.059631	283.500000
769.096558	281.900000
769.133362	282.600000
769.170288	283.500000
769.207214	283.800000
769.244019	286.300000
769.280945	285.000000
769.317810	293.000000
769.354675	289.100000
769.391541	293.600000
769.428406	293.100000
769.465271	300.600000
769.502136	292.100000
769.539062	294.100000
769.575867	294.200000
769.612732	295.500000
769.649597	300.200000
769.686462	301.700000
769.723328	299.100000
769.760193	296.500000
769.797058	298.700000
769.833923	302.600000
769.870728	303.500000
769.907593	305.300000
769.944519	302.100000
769.981323	305.500000
770.018188	306.500000
770.055054	303.800000
770.091858	306.400000
770.128723	313.200000
770.165588	319.400000
770.202393	308.700000
770.239258	316.200000
770.276062	313.000000
770.312927	316.500000
770.349792	318.700000
770.386597	319.300000
770.423462	326.400000
770.460327	330.700000
770.497131	320.500000
770.533997	316.800000
770.570862	327.300000
770.607605	328.500000
770.644470	328.800000
770.681335	327.300000
770.718140	328.400000
770.754944	326.700000
770.791809	324.900000
770.828613	326.100000
770.865479	327.000000
770.902222	334.700000
770.939087	331.500000
770.975952	324.800000
771.012695	329.000000
771.049561	341.500000
771.086365	335.200000
771.123169	329.000000
771.159973	333.200000
771.196838	334.000000
771.233582	338.200000
771.270447	336.300000
771.307251	339.900000
771.344055	336.300000
771.380859	340.800000
771.417664	337.600000
771.454468	343.300000
771.491272	342.400000
771.528076	345.800000
771.564880	343.300000
771.601685	348.000000
771.638428	341.400000
771.675293	348.500000
771.712097	340.800000
771.748840	352.600000
771.785645	345.900000
771.822449	352.600000
771.859253	352.700000
771.896057	351.700000
771.932861	357.400000
771.969604	350.700000
772.006409	347.200000
772.043213	357.900000
772.079956	352.700000
772.116760	350.500000
772.153503	355.200000
772.190308	363.500000
772.227112	359.200000
772.263855	354.700000
772.300659	358.000000
772.337463	363.100000
772.374207	356.300000
772.411011	354.900000
772.447754	356.800000
772.484497	369.100000
772.521301	365.600000
772.558105	362.900000
772.594849	364.800000
772.631592	369.500000
772.668396	369.200000
772.705139	372.000000
772.741882	371.000000
772.778625	376.900000
772.815430	373.900000
772.852173	373.800000
772.888916	378.500000
772.925720	378.700000
772.962463	388.400000
772.999207	377.900000
773.035950	379.900000
773.072754	378.900000
773.109436	378.600000
773.146240	379.100000
773.182922	379.300000
773.219727	384.800000
773.256470	382.000000
773.293152	373.900000
773.329956	380.100000
773.366699	382.000000
773.403381	379.900000
773.440186	385.600000
773.476929	384.500000
773.513611	382.400000
773.550354	380.800000
773.587158	383.600000
773.623840	382.900000
773.660583	387.700000
773.697327	395.200000
773.734009	387.900000
773.770813	388.300000
773.807495	385.100000
773.844238	388.100000
773.880981	398.200000
773.917664	390.300000
773.954407	393.700000
773.991150	391.800000
774.027832	396.500000
774.064575	393.800000
774.101318	398.000000
774.138000	398.700000
774.174744	397.400000
774.211487	398.800000
774.248108	392.100000
774.284851	393.000000
774.321594	397.800000
774.358276	402.100000
774.395020	405.000000
774.431702	405.200000
774.468384	398.200000
774.505127	396.800000
774.541809	406.500000
774.578491	410.400000
774.615234	412.200000
774.651917	402.800000
774.688599	407.300000
774.725342	414.800000
774.762024	414.000000
774.798706	420.700000
774.835449	419.400000
774.872070	421.100000
774.908813	419.200000
774.945496	421.100000
774.982178	423.900000
775.018860	427.600000
775.055542	428.700000
775.092224	428.400000
775.128967	433.900000
775.165588	431.100000
775.202271	426.200000
775.239014	438.400000
775.275635	440.100000
775.312317	431.500000
775.349060	434.500000
775.385681	438.700000
775.422363	434.600000
775.459045	440.500000
775.495667	444.300000
775.532410	445.300000
775.569092	445.200000
775.605713	444.000000
775.642395	442.500000
775.679016	445.400000
775.715698	451.300000
775.752380	452.500000
775.789001	449.100000
775.825684	447.900000
775.862366	448.200000
775.898987	461.400000
775.935669	456.100000
775.972351	472.300000
776.008972	467.900000
776.045654	467.300000
776.082336	463.600000
776.118958	466.500000
776.155640	468.400000
776.192322	474.400000
776.228882	479.400000
776.265564	477.800000
776.302185	473.500000
776.338867	482.200000
776.375488	474.500000
776.412109	482.600000
776.448792	484.600000
776.485413	492.100000
776.522034	480.700000
776.558716	478.900000
776.595337	480.800000
776.631958	490.100000
776.668579	487.600000
776.705261	495.700000
776.741882	489.500000
776.778503	489.900000
776.815186	491.800000
776.851746	499.000000
776.888367	497.300000
776.924988	505.900000
776.961609	503.100000
776.998291	502.600000
777.034851	498.600000
777.071472	508.200000
777.108154	504.700000
777.144714	510.700000
777.181335	511.000000
777.218018	506.500000
777.254578	513.600000
777.291199	511.900000
777.327759	515.700000
777.364380	523.200000
777.401062	525.900000
777.437622	533.000000
777.474243	522.700000
777.510864	532.100000
777.547424	525.700000
777.584045	530.400000
777.620667	526.700000
777.657227	528.800000
777.693848	532.000000
777.730469	539.900000
777.767029	536.600000
777.803650	539.400000
777.840271	531.500000
777.876831	533.200000
777.913452	540.200000
777.950012	525.700000
777.986633	529.000000
778.023193	528.300000
778.059753	528.400000
778.096375	533.900000
778.132996	547.400000
778.169556	534.500000
778.206116	536.600000
778.242737	535.400000
778.279297	536.800000
778.315857	528.900000
778.352478	538.300000
778.389038	543.200000
778.425598	546.000000
778.462219	548.400000
778.498718	552.000000
778.535339	554.600000
778.571838	557.000000
778.608459	561.400000
778.645020	546.900000
778.681580	556.800000
778.718140	557.400000
778.754761	551.900000
778.791260	553.800000
778.827881	562.800000
778.864441	561.300000
778.900940	564.600000
778.937561	566.200000
778.974121	565.400000
779.010620	557.300000
779.047241	560.800000
779.083801	567.300000
779.120300	566.600000
779.156860	568.000000
779.193359	563.100000
779.229980	569.900000
779.266541	572.800000
779.303040	577.000000
779.339600	569.200000
779.376160	567.800000
779.412659	566.900000
779.449219	560.300000
779.485779	569.500000
779.522278	569.000000
779.558838	572.500000
779.595398	569.900000
779.631897	564.900000
779.668457	563.300000
779.705017	572.500000
779.741516	572.300000
779.778076	569.400000
779.814575	567.100000
779.851074	573.100000
779.887634	569.100000
779.924133	573.500000
779.960693	570.200000
779.997253	583.500000
780.033691	586.900000
780.070251	583.100000
780.106812	588.400000
780.143250	585.400000
780.179810	587.700000
780.216370	590.900000
780.252808	593.400000
780.289368	597.600000
780.325867	599.400000
780.362366	594.500000
780.398865	598.900000
780.435364	595.800000
780.471863	602.500000
780.508423	601.200000
780.544861	602.200000
780.581421	601.300000
780.617920	593.100000
780.654419	597.200000
780.690918	606.400000
780.727417	613.600000
780.763916	607.000000
780.800415	610.500000
780.836914	601.500000
780.873352	609.800000
780.909912	610.200000
780.946411	617.100000
780.982849	622.500000
781.019348	629.200000
781.055786	622.400000
781.092346	619.200000
781.128845	628.300000
781.165283	636.000000
781.201782	646.000000
781.238281	645.500000
781.274719	645.900000
781.311218	642.800000
781.347717	648.100000
781.384155	643.000000
781.420654	648.500000
781.457092	656.000000
781.493591	648.700000
781.530090	640.200000
781.566528	645.800000
781.602966	649.300000
781.639465	646.800000
781.675903	644.500000
781.712402	650.900000
781.748901	658.900000
781.785278	648.000000
781.821777	657.200000
781.858276	661.800000
781.894714	672.900000
781.931152	668.700000
781.967651	677.600000
782.004089	668.200000
782.040527	674.000000
782.076965	672.700000
782.113403	679.800000
782.149902	683.400000
782.186340	677.300000
782.222778	688.500000
782.259277	673.400000
782.295654	680.400000
782.332092	689.200000
782.368591	688.700000
782.404968	684.100000
782.441467	688.300000
782.477905	693.200000
782.514282	692.900000
782.550781	702.300000
782.587219	699.500000
782.623596	710.600000
782.660095	716.300000
782.696472	714.200000
782.732910	723.200000
782.769348	726.500000
782.805786	742.600000
782.842224	735.100000
782.878662	729.400000
782.915039	729.300000
782.951477	737.100000
782.987915	725.900000
783.024292	735.800000
783.060730	735.800000
783.097168	724.300000
783.133545	719.700000
783.169983	715.400000
783.206421	711.100000
783.242798	711.600000
783.279236	701.400000
783.315613	700.800000
783.352051	702.400000
783.388489	697.400000
783.424866	685.400000
783.461304	687.800000
783.497681	690.900000
783.534058	682.000000
783.570496	671.900000
783.606934	656.700000
783.643250	642.000000
783.679687	630.700000
783.716125	608.100000
783.752441	589.500000
783.788879	582.500000
783.825317	571.900000
783.861633	554.700000
783.898071	553.700000
783.934448	563.900000
783.970825	572.100000
784.007263	582.000000
784.043579	600.800000
784.080017	618.600000
784.116394	635.000000
784.152710	660.700000
784.189148	676.800000
784.225525	691.800000
784.261902	705.900000
784.298279	716.100000
784.334656	727.400000
784.371033	734.300000
784.407410	739.600000
784.443787	726.100000
784.480164	725.000000
784.516541	713.800000
784.552856	727.200000
784.589233	728.400000
784.625610	727.100000
784.661987	745.500000
784.698364	739.800000
784.734741	734.200000
784.771057	738.400000
784.807434	745.400000
784.843811	756.800000
784.880127	753.000000
784.916504	774.100000
784.952881	776.400000
784.989197	773.600000
785.025574	775.800000
785.061951	777.400000
785.098267	793.900000
785.134644	798.500000
785.170959	789.100000
785.207275	783.000000
785.243652	784.500000
785.279968	769.600000
785.316345	770.900000
785.352722	769.000000
785.388977	761.300000
785.425354	744.300000
785.461731	732.600000
785.498047	731.300000
785.534363	728.700000
785.570679	732.300000
785.606995	733.500000
785.643372	733.600000
785.679687	729.600000
785.716003	723.900000
785.752380	728.900000
785.788635	736.700000
785.825012	749.900000
785.861328	756.300000
785.897644	750.400000
785.933960	756.500000
785.970337	770.000000
786.006592	786.500000
786.042908	793.300000
786.079285	800.900000
786.115540	802.600000
786.151855	800.200000
786.188171	799.700000
786.224487	802.200000
786.260803	802.100000
786.297119	803.300000
786.333435	793.200000
786.369751	791.000000
786.406006	784.700000
786.442322	774.500000
786.478638	762.700000
786.514954	776.400000
786.551270	766.800000
786.587585	768.900000
786.623840	759.000000
786.660156	757.000000
786.696472	747.300000
786.732727	743.600000
786.769043	753.400000
786.805298	743.000000
786.841614	747.200000
786.877930	765.100000
786.914124	761.400000
786.950439	775.200000
786.986755	785.600000
787.023010	800.700000
787.059326	802.900000
787.095642	806.900000
787.131836	815.800000
787.168152	814.200000
787.204468	828.700000
787.240723	837.500000
787.276978	842.500000
787.313293	846.200000
787.349548	837.900000
787.385803	839.000000
787.422058	831.100000
787.458313	834.700000
787.494629	832.000000
787.530823	826.300000
787.567139	811.000000
787.603455	796.700000
787.639648	789.600000
787.675903	795.800000
787.712219	795.100000
787.748413	792.500000
787.784729	797.300000
787.820984	789.300000
787.857178	788.100000
787.893494	782.000000
787.929749	788.100000
787.965942	799.700000
788.002258	813.800000
788.038452	826.400000
788.074707	820.600000
788.110962	820.300000
788.147217	831.300000
788.183472	842.800000
788.219727	850.500000
788.255920	861.900000
788.292175	865.800000
788.328430	857.700000
788.364624	840.100000
788.400879	845.200000
788.437134	856.100000
788.473328	855.100000
788.509583	850.700000
788.545837	847.900000
788.582031	847.500000
788.618286	853.300000
788.654480	853.800000
788.690735	860.400000
788.726990	867.800000
788.763184	866.500000
788.799377	870.100000
788.835632	869.400000
788.871826	880.800000
788.908081	877.300000
788.944336	876.900000
788.980469	894.400000
789.016724	886.000000
789.052979	885.300000
789.089111	870.700000
789.125366	882.600000
789.161621	875.000000
789.197754	877.800000
789.234009	866.800000
789.270142	865.500000
789.306396	856.800000
789.342590	848.900000
789.378784	840.100000
789.414978	837.600000
789.451233	854.800000
789.487366	860.700000
789.523621	856.700000
789.559814	855.300000
789.595947	846.600000
789.632202	856.100000
789.668335	875.200000
789.704529	894.400000
789.740784	901.400000
789.776917	893.400000
789.813110	895.200000
789.849304	904.600000
789.885498	902.400000
789.921692	917.500000
789.957886	924.000000
789.994019	913.400000
790.030212	917.300000
790.066406	920.700000
790.102539	927.100000
790.138733	936.600000
790.174927	937.800000
790.211060	946.400000
790.247253	932.200000
790.283386	918.400000
790.319580	908.000000
790.355774	900.700000
790.391907	909.100000
790.428101	918.000000
790.464294	921.900000
790.500427	914.600000
790.536621	895.900000
790.572754	885.000000
790.608887	879.800000
790.645081	892.700000
790.681274	904.500000
790.717346	901.300000
790.753540	892.300000
790.789734	874.300000
790.825867	867.100000
790.862000	872.000000
790.898132	887.100000
790.934265	886.700000
790.970459	882.500000
791.006592	885.500000
791.042725	878.600000
791.078918	875.700000
791.114990	881.400000
791.151184	883.900000
791.187317	892.200000
791.223389	887.300000
791.259583	875.200000
791.295715	877.000000
791.331848	882.500000
791.367981	889.400000
791.404114	896.300000
791.440247	893.800000
791.476379	894.400000
791.512451	875.500000
791.548584	873.100000
791.584778	864.000000
791.620850	881.400000
791.656982	890.500000
791.693115	886.900000
791.729187	882.400000
791.765381	872.800000
791.801514	875.700000
791.837585	879.100000
791.873718	895.100000
791.909851	909.400000
791.945923	909.500000
791.982056	876.300000
792.018188	871.200000
792.054260	872.800000
792.090393	883.900000
792.126465	880.600000
792.162598	886.400000
792.198669	869.100000
792.234741	859.400000
792.270874	850.400000
792.307007	846.700000
792.343079	854.900000
792.379150	863.900000
792.415283	849.400000
792.451355	849.400000
792.487488	831.700000
792.523560	825.300000
792.559631	802.400000
792.595764	758.800000
792.631836	725.500000
792.667908	716.100000
792.703979	720.000000
792.740051	754.300000
792.776184	779.100000
792.812256	790.700000
792.848328	798.600000
792.884399	799.700000
792.920471	801.000000
792.956543	799.800000
792.992615	795.000000
793.028748	792.900000
793.064758	809.000000
793.100830	830.600000
793.136963	836.900000
793.172974	829.500000
793.209045	819.300000
793.245178	831.400000
793.281189	820.900000
793.317261	825.600000
793.353271	832.700000
793.389404	841.200000
793.425476	829.200000
793.461487	811.100000
793.497559	808.800000
793.533630	813.200000
793.569641	813.600000
793.605713	824.600000
793.641785	826.900000
793.677795	835.800000
793.713867	824.800000
793.749878	828.000000
793.785950	837.100000
793.822021	845.600000
793.858032	830.700000
793.894104	842.600000
793.930176	832.500000
793.966187	828.300000
794.002258	827.600000
794.038269	840.500000
794.074280	837.300000
794.110352	858.700000
794.146423	841.600000
794.182373	839.200000
794.218445	831.300000
794.254517	826.600000
794.290466	813.900000
794.326538	821.700000
794.362549	827.100000
794.398560	827.100000
794.434631	824.500000
794.470581	805.800000
794.506653	803.500000
794.542664	806.500000
794.578674	810.100000
794.614685	815.800000
794.650757	811.200000
794.686707	812.500000
794.722778	809.300000
794.758789	824.500000
794.794739	836.000000
794.830811	858.200000
794.866821	872.000000
794.902771	869.300000
794.938843	858.000000
794.974792	851.700000
795.010803	853.100000
795.046814	855.200000
795.082825	846.100000
795.118835	857.300000
795.154846	837.400000
795.190796	840.600000
795.226807	831.400000
795.262817	837.500000
795.298767	838.000000
795.334778	848.300000
795.370850	836.100000
795.406799	835.700000
795.442810	819.900000
795.478821	823.000000
795.514709	819.500000
795.550720	847.100000
795.586670	828.100000
795.622681	828.600000
795.658691	825.300000
795.694641	832.200000
795.730652	822.800000
795.766663	832.900000
795.802551	838.800000
795.838562	851.000000
795.874573	832.000000
795.910522	827.900000
795.946472	815.000000
795.982483	825.800000
796.018433	834.500000
796.054382	844.000000
796.090393	836.800000
796.126282	825.200000
796.162292	812.300000
796.198242	811.100000
796.234192	813.400000
796.270203	814.700000
796.306091	825.800000
796.342041	830.100000
796.378052	821.200000
796.413940	817.400000
796.449951	816.700000
796.485901	823.900000
796.521790	831.900000
796.557800	839.300000
796.593689	836.600000
796.629639	832.900000
796.665649	830.600000
796.701599	828.900000
796.737488	830.200000
796.773437	834.200000
796.809387	836.400000
796.845337	837.600000
796.881287	826.600000
796.917175	813.100000
796.953125	814.300000
796.989075	825.800000
797.024963	826.000000
797.060913	822.500000
797.096863	816.600000
797.132751	808.400000
797.168701	790.900000
797.204590	800.800000
797.240540	801.700000
797.276489	811.400000
797.312439	815.300000
797.348328	801.100000
797.384277	796.800000
797.420166	790.300000
797.456055	790.400000
797.492004	794.600000
797.527893	805.200000
797.563843	805.500000
797.599731	797.400000
797.635620	792.700000
797.671570	799.800000
797.707520	803.400000
797.743347	803.000000
797.779297	809.500000
797.815125	800.900000
797.851074	785.600000
797.887024	779.700000
797.922913	778.900000
797.958801	790.200000
797.994690	786.200000
798.030579	791.000000
798.066467	790.800000
798.102356	779.400000
798.138245	773.500000
798.174133	767.600000
798.210083	774.800000
798.245911	786.800000
798.281799	787.600000
798.317749	785.000000
798.353577	781.700000
798.389465	773.300000
798.425293	775.200000
798.461243	775.700000
798.497131	782.100000
798.532959	779.800000
798.568848	778.000000
798.604736	769.400000
798.640564	757.500000
798.676453	758.800000
798.712402	762.900000
798.748230	765.600000
798.784119	764.600000
798.820007	766.200000
798.855835	759.000000
798.891724	750.800000
798.927551	754.000000
798.963379	758.300000
798.999268	762.500000
799.035095	751.100000
799.070984	739.600000
799.106873	732.600000
799.142700	742.500000
799.178528	733.700000
799.214417	742.300000
799.250244	750.500000
799.286133	740.200000
799.321960	736.000000
799.357788	736.600000
799.393677	730.000000
799.429504	731.700000
799.465332	734.300000
799.501221	747.600000
799.537048	745.400000
799.572876	736.200000
799.608704	739.300000
799.644531	749.900000
799.680359	745.400000
799.716248	755.600000
799.752014	757.300000
799.787903	745.500000
799.823730	743.500000
799.859558	742.000000
799.895386	741.800000
799.931213	746.300000
799.967041	741.000000
800.002869	740.400000
800.038696	742.000000
800.074463	728.900000
800.110352	736.400000
800.146179	732.100000
800.181946	737.600000
800.217773	739.000000
800.253540	734.700000
800.289429	725.300000
800.325256	726.000000
800.361023	724.300000
800.396851	730.100000
800.432678	731.200000
800.468445	726.200000
800.504272	720.500000
800.540100	710.700000
800.575867	710.000000
800.611694	720.500000
800.647461	712.600000
800.683289	720.600000
800.719116	721.800000
800.754883	715.700000
800.790649	701.900000
800.826477	701.600000
800.862244	717.000000
800.898071	707.900000
800.933838	710.000000
800.969604	705.200000
801.005432	706.400000
801.041199	703.400000
801.076965	697.200000
801.112793	693.000000
801.148560	689.000000
801.184326	689.600000
801.220154	690.500000
801.255859	683.700000
801.291687	679.800000
801.327454	680.400000
801.363281	680.500000
801.398987	675.200000
801.434814	676.300000
801.470520	685.600000
801.506287	674.300000
801.542114	667.900000
801.577820	671.900000
801.613647	668.400000
801.649414	666.500000
801.685120	669.400000
801.720886	667.500000
801.756714	660.900000
801.792419	654.300000
801.828186	654.100000
801.863892	661.400000
801.899719	656.100000
801.935486	652.600000
801.971252	667.100000
802.006958	657.100000
802.042725	647.700000
802.078430	650.300000
802.114197	647.300000
802.149963	656.800000
802.185669	649.400000
802.221436	647.900000
802.257202	651.800000
802.292908	645.700000
802.328674	650.900000
802.364441	657.200000
802.400146	652.600000
802.435913	650.300000
802.471558	646.100000
802.507324	644.400000
802.543091	644.500000
802.578796	650.000000
802.614502	655.800000
802.650269	659.100000
802.685974	645.400000
802.721741	644.800000
802.757446	645.800000
802.793152	647.200000
802.828918	655.400000
802.864624	654.300000
802.900330	645.100000
802.936035	645.100000
802.971802	641.100000
803.007446	636.300000
803.043213	635.400000
803.078857	644.700000
803.114624	625.600000
803.150330	632.000000
803.185974	628.400000
803.221741	626.700000
803.257446	632.000000
803.293152	632.200000
803.328857	628.300000
803.364563	629.700000
803.400208	623.900000
803.435974	627.200000
803.471680	621.600000
803.507324	619.800000
803.543030	629.400000
803.578735	628.400000
803.614441	625.400000
803.650146	631.800000
803.685791	620.200000
803.721497	616.900000
803.757202	607.100000
803.792847	621.000000
803.828552	616.800000
803.864258	608.400000
803.899902	607.100000
803.935608	598.600000
803.971313	607.500000
804.006958	602.100000
804.042664	600.900000
804.078308	606.400000
804.113953	599.000000
804.149658	605.800000
804.185364	594.900000
804.221008	603.800000
804.256714	591.800000
804.292297	589.500000
804.328003	586.400000
804.363708	585.500000
804.399292	586.800000
804.434998	583.800000
804.470703	583.000000
804.506287	591.000000
804.541992	580.600000
804.577637	584.000000
804.613281	572.200000
804.648926	568.400000
804.684570	575.000000
804.720215	566.000000
804.755920	566.500000
804.791565	570.000000
804.827209	571.600000
804.862854	560.900000
804.898437	558.900000
804.934143	561.200000
804.969788	561.300000
805.005371	564.900000
805.041077	564.000000
805.076721	559.700000
805.112305	553.700000
805.147949	552.300000
805.183655	551.300000
805.219238	557.700000
805.254883	551.500000
805.290466	557.500000
805.326111	549.400000
805.361755	544.100000
805.397400	542.900000
805.432983	549.300000
805.468628	545.300000
805.504211	551.700000
805.539856	551.800000
805.575500	551.500000
805.611084	541.300000
805.646729	533.900000
805.682373	540.500000
805.717957	546.500000
805.753601	544.700000
805.789246	531.200000
805.824768	540.700000
805.860413	544.100000
805.895996	532.600000
805.931641	535.000000
805.967224	540.700000
806.002869	538.300000
806.038452	543.700000
806.074036	543.400000
806.109619	530.000000
806.145264	529.200000
806.180847	525.200000
806.216431	525.800000
806.252014	530.600000
806.287659	529.900000
806.323181	536.100000
806.358826	526.500000
806.394409	516.000000
806.429993	521.000000
806.465576	529.800000
806.501160	519.700000
806.536743	513.700000
806.572327	520.800000
806.607910	517.700000
806.643494	516.500000
806.679077	512.300000
806.714661	511.600000
806.750244	509.600000
806.785828	510.300000
806.821350	509.700000
806.856934	515.100000
806.892517	508.700000
806.928101	504.600000
806.963684	502.600000
806.999268	508.600000
807.034790	498.000000
807.070374	502.800000
807.105896	494.700000
807.141479	493.600000
807.177063	496.500000
807.212585	492.400000
807.248169	490.800000
807.283752	497.600000
807.319275	493.300000
807.354858	492.700000
807.390381	487.100000
807.425903	484.000000
807.461487	485.900000
807.497070	481.300000
807.532593	481.100000
807.568115	478.900000
807.603699	475.000000
807.639221	469.200000
807.674744	474.400000
807.710266	478.800000
807.745850	478.800000
807.781372	474.300000
807.816895	476.300000
807.852417	472.300000
807.888000	472.200000
807.923523	475.300000
807.959045	474.500000
807.994629	470.000000
808.030090	467.900000
808.065613	471.100000
808.101135	474.700000
808.136658	472.400000
808.172241	467.600000
808.207764	467.600000
808.243225	464.300000
808.278809	462.300000
808.314270	462.600000
808.349792	454.300000
808.385315	454.900000
808.420837	457.900000
808.456360	462.900000
808.491882	461.100000
808.527344	459.700000
808.562866	467.600000
808.598389	456.100000
808.633850	457.300000
808.669434	454.100000
808.704895	460.700000
808.740417	463.100000
808.775940	456.900000
808.811462	450.800000
808.846924	449.500000
808.882385	445.600000
808.917847	445.500000
808.953369	446.700000
808.988892	440.300000
809.024353	446.100000
809.059875	446.100000
809.095398	441.300000
809.130798	438.000000
809.166321	438.200000
809.201843	439.300000
809.237305	438.000000
809.272766	441.900000
809.308228	433.500000
809.343750	433.200000
809.379211	435.400000
809.414734	434.100000
809.450134	437.800000
809.485657	425.000000
809.521118	428.800000
809.556580	427.800000
809.592102	424.500000
809.627502	427.100000
809.663025	423.900000
809.698486	422.700000
809.733887	418.200000
809.769409	420.300000
809.804871	415.100000
809.840271	416.500000
809.875793	418.300000
809.911194	416.600000
809.946655	412.700000
809.982178	409.900000
810.017639	411.600000
810.053040	412.700000
810.088501	411.200000
810.123901	408.700000
810.159424	406.300000
810.194885	401.000000
810.230286	404.700000
810.265747	398.900000
810.301208	397.000000
810.336609	400.700000
810.372070	393.500000
810.407532	395.300000
810.442932	397.300000
810.478394	398.600000
810.513794	395.700000
810.549255	392.100000
810.584717	389.800000
810.620117	386.400000
810.655518	389.400000
810.690979	386.400000
810.726379	387.300000
810.761841	377.300000
810.797302	379.600000
810.832642	375.500000
810.868103	387.000000
810.903564	377.900000
810.938904	387.200000
810.974365	375.100000
811.009827	375.900000
811.045166	372.500000
811.080627	366.800000
811.115967	369.600000
811.151428	375.200000
811.186829	370.800000
811.222229	371.300000
811.257629	362.000000
811.293091	367.700000
811.328430	372.800000
811.363892	368.700000
811.399292	372.200000
811.434631	367.600000
811.470093	373.600000
811.505493	365.500000
811.540833	364.400000
811.576294	364.600000
811.611694	362.900000
811.647034	358.300000
811.682434	358.900000
811.717773	359.400000
811.753235	365.000000
811.788635	357.700000
811.823975	358.700000
811.859375	363.400000
811.894775	355.200000
811.930115	356.000000
811.965515	352.500000
812.000916	355.100000
812.036255	355.800000
812.071655	357.200000
812.106995	351.900000
812.142395	352.200000
812.177795	357.500000
812.213196	355.100000
812.248474	355.600000
812.283875	346.600000
812.319214	350.600000
812.354614	348.200000
812.390015	346.400000
812.425293	345.700000
812.460693	346.200000
812.496094	341.900000
812.531433	337.000000
812.566772	337.100000
812.602173	338.000000
812.637451	339.400000
812.672852	336.700000
812.708191	336.400000
812.743530	333.100000
812.778931	326.600000
812.814270	328.500000
812.849609	333.900000
812.884949	330.000000
812.920227	324.600000
812.955627	335.300000
812.990967	327.900000
813.026306	325.900000
813.061646	318.500000
813.096985	317.400000
813.132324	314.100000
813.167664	317.500000
813.203003	321.700000
813.238281	311.300000
813.273682	310.900000
813.308960	308.200000
813.344299	310.400000
813.379639	314.100000
813.414978	310.100000
813.450256	308.500000
813.485596	310.700000
813.520874	303.200000
813.556213	307.200000
813.591614	309.100000
813.626831	303.300000
813.662170	307.400000
813.697510	313.000000
813.732788	302.700000
813.768127	303.400000
813.803467	303.900000
813.838745	301.700000
813.874084	302.700000
813.909363	303.200000
813.944641	303.000000
813.979980	294.400000
814.015320	298.400000
814.050598	296.200000
814.085876	295.600000
814.121155	295.800000
814.156494	293.300000
814.191772	294.000000
814.227051	290.600000
814.262390	293.700000
814.297668	293.300000
814.332947	292.600000
814.368225	286.200000
814.403564	289.300000
814.438782	287.300000
814.474121	289.600000
814.509338	285.300000
814.544617	291.300000
814.579956	284.600000
814.615173	294.000000
814.650513	287.700000
814.685791	284.300000
814.721008	285.500000
814.756348	286.500000
814.791626	282.200000
814.826843	283.100000
814.862122	281.200000
814.897400	281.400000
814.932678	281.600000
814.967957	283.200000
815.003235	280.700000
815.038452	277.700000
815.073730	276.800000
815.108948	282.000000
815.144226	280.000000
815.179504	283.500000
815.214722	273.500000
815.250000	271.000000
815.285278	275.700000
815.320496	273.700000
815.355774	271.600000
815.391052	273.600000
815.426270	272.800000
815.461487	269.300000
815.496765	267.100000
815.531982	263.800000
815.567261	269.800000
815.602539	273.200000
815.637695	270.500000
815.672974	269.600000
815.708191	272.400000
815.743408	273.800000
815.778687	263.700000
815.813904	272.700000
815.849121	262.900000
815.884399	262.400000
815.919556	261.800000
815.954834	260.800000
815.990051	264.000000
816.025269	264.700000
816.060486	259.600000
816.095703	258.700000
816.130920	260.900000
816.166199	255.800000
816.201416	260.400000
816.236572	259.900000
816.271851	256.300000
816.307007	259.200000
816.342224	252.600000
816.377441	254.400000
816.412659	251.900000
816.447876	254.200000
816.483093	251.200000
816.518250	250.000000
816.553467	251.500000
816.588745	254.600000
816.623901	248.200000
816.659119	243.200000
816.694275	248.400000
816.729492	243.200000
816.764709	271.700000
816.799927	241.700000
816.835083	245.000000
816.870300	238.900000
816.905457	244.200000
816.940674	244.600000
816.975830	238.800000
817.010986	240.800000
817.046204	237.900000
817.081421	236.300000
817.116577	236.200000
817.151733	243.800000
817.186951	240.300000
817.222107	239.900000
817.257324	239.400000
817.292419	238.500000
817.327637	233.300000
817.362854	235.600000
817.398010	231.200000
817.433167	233.600000
817.468323	232.300000
817.503479	233.800000
817.538635	240.000000
817.573853	235.000000
817.608948	230.600000
817.644165	230.800000
817.679321	228.200000
817.714478	228.000000
817.749634	230.100000
817.784790	237.000000
817.819946	234.000000
817.855103	223.400000
817.890198	226.500000
817.925415	223.700000
817.960571	229.700000
817.995667	227.900000
818.030823	226.500000
818.066040	226.700000
818.101135	227.300000
818.136292	227.400000
818.171448	221.500000
818.206543	223.900000
818.241699	224.700000
818.276855	223.600000
818.311951	222.500000
818.347107	221.700000
818.382263	225.700000
818.417358	226.500000
818.452515	225.700000
818.487610	227.500000
818.522766	219.400000
818.557922	226.000000
818.593018	222.700000
818.628113	220.100000
818.663269	218.100000
818.698364	220.000000
818.733521	217.700000
818.768677	219.600000
818.803711	215.400000
818.838867	214.500000
818.874023	215.200000
818.909058	214.100000
818.944214	213.100000
818.979370	216.800000
819.014404	217.500000
819.049561	212.600000
819.084595	216.500000
819.119751	209.700000
819.154846	215.800000
819.189941	210.100000
819.225037	209.700000
819.260193	205.900000
819.295227	207.700000
819.330322	204.200000
819.365479	204.200000
819.400513	237.000000
819.435608	204.700000
819.470764	201.100000
819.505798	204.300000
819.540894	204.700000
819.575989	203.800000
819.611084	208.000000
819.646179	211.000000
819.681213	205.100000
819.716309	203.500000
819.751404	204.700000
819.786438	208.500000
819.821533	200.400000
819.856628	203.600000
819.891663	204.600000
819.926758	212.200000
819.961853	208.500000
819.996887	201.000000
820.031982	204.400000
820.067017	201.100000
820.102112	235.400000
820.137207	201.100000
820.172302	209.800000
820.207275	199.600000
820.242371	198.700000
820.277405	197.700000
820.312500	199.300000
820.347534	200.000000
820.382568	204.500000
820.417664	198.700000
820.452759	198.100000
820.487732	196.100000
820.522827	197.000000
820.557861	194.400000
820.592896	197.100000
820.627930	197.900000
820.662964	195.400000
820.698059	198.600000
820.733093	196.100000
820.768127	197.400000
820.803162	195.400000
820.838196	193.600000
820.873230	196.000000
820.908264	196.000000
820.943298	193.200000
820.978333	199.300000
821.013367	197.000000
821.048401	199.800000
821.083435	199.000000
821.118469	191.600000
821.153503	197.800000
821.188477	195.600000
821.223511	191.100000
821.258484	194.100000
821.293579	195.600000
821.328613	190.200000
821.363647	193.100000
821.398621	188.600000
821.433655	192.000000
821.468628	201.100000
821.503662	192.900000
821.538696	196.200000
821.573669	188.500000
821.608704	195.100000
821.643677	192.900000
821.678650	196.000000
821.713684	197.800000
821.748718	191.900000
821.783691	193.500000
821.818726	192.500000
821.853638	192.700000
821.888672	190.100000
821.923706	191.600000
821.958618	190.600000
821.993652	190.700000
822.028687	195.600000
822.063599	196.300000
822.098633	192.600000
822.133667	187.800000
822.168579	192.400000
822.203613	190.900000
822.238586	188.400000
822.273560	193.000000
822.308533	188.400000
822.343567	188.200000
822.378479	190.000000
822.413452	189.400000
822.448425	188.000000
822.483398	193.200000
822.518372	193.100000
822.553345	186.800000
822.588318	196.900000
822.623291	187.800000
822.658203	188.700000
822.693237	189.300000
822.728210	187.100000
822.763123	189.200000
822.798096	188.000000
822.833069	189.100000
822.867981	189.300000
822.902954	190.500000
822.937927	190.800000
822.972900	194.700000
823.007874	184.900000
823.042725	192.100000
823.077698	197.700000
823.112671	187.400000
823.147583	188.700000
823.182556	190.700000
823.217529	193.100000
823.252441	188.100000
823.287415	198.100000
823.322388	191.600000
823.357239	190.600000
823.392212	194.300000
823.427185	195.200000
823.462097	187.000000
823.497009	190.200000
823.531982	188.600000
823.566895	189.500000
823.601807	186.100000
823.636719	188.100000
823.671631	191.300000
823.706604	187.000000
823.741455	191.100000
823.776428	184.700000
823.811340	190.800000
823.846252	193.400000
823.881165	194.100000
823.916138	188.600000
823.950989	195.600000
823.985901	186.000000
824.020813	189.500000
824.055725	188.000000
824.090637	184.200000
824.125610	190.900000
824.160461	190.500000
824.195374	189.200000
824.230225	191.300000
824.265198	183.800000
824.300110	185.700000
824.334961	194.700000
824.369873	181.600000
824.404785	189.600000
824.439636	190.800000
824.474548	182.200000
824.509460	180.600000
824.544312	191.100000
824.579224	189.300000
824.614075	188.700000
824.648987	187.500000
824.683899	187.700000
824.718811	185.900000
824.753662	191.100000
824.788574	190.300000
824.823364	188.700000
824.858276	184.400000
824.893188	189.800000
824.928040	190.200000
824.962952	188.300000
824.997803	189.700000
825.032654	188.000000
825.067566	189.400000
825.102417	184.400000
825.137268	184.900000
825.172119	185.600000
825.206970	185.500000
825.241882	184.900000
825.276733	182.200000
825.311646	184.800000
825.346436	181.800000
825.381348	182.900000
825.416138	185.400000
825.450989	181.400000
825.485901	177.400000
825.520691	179.500000
825.555542	180.300000
825.590454	183.900000
825.625244	177.800000
825.660095	187.700000
825.695007	185.200000
825.729797	183.400000
825.764648	179.800000
825.799438	184.100000
825.834290	183.900000
825.869202	179.500000
825.903992	182.800000
825.938843	181.300000
825.973694	178.800000
826.008484	191.300000
826.043335	179.200000
826.078186	177.000000
826.112976	185.100000
826.147827	187.700000
826.182678	188.700000
826.217468	178.100000
826.252319	187.300000
826.287109	178.800000
826.321899	184.600000
826.356750	181.800000
826.391541	177.600000
826.426392	185.000000
826.461182	181.600000
826.495972	178.400000
826.530823	175.500000
826.565613	183.000000
826.600403	177.900000
826.635254	184.000000
826.670044	177.000000
826.704834	176.800000
826.739685	177.200000
826.774475	182.200000
826.809265	181.600000
826.844055	179.600000
826.878906	185.900000
826.913635	181.300000
826.948425	183.500000
826.983215	182.200000
827.018005	184.000000
827.052856	179.100000
827.087585	183.100000
827.122375	175.600000
827.157227	179.900000
827.191956	189.800000
827.226746	176.700000
827.261536	183.500000
827.296265	176.900000
827.331116	179.700000
827.365906	183.100000
827.400635	179.300000
827.435425	175.200000
827.470215	183.900000
827.504944	179.700000
827.539734	183.600000
827.574463	180.300000
827.609253	186.100000
827.644043	181.800000
827.678772	184.100000
827.713562	179.700000
827.748352	179.400000
827.783081	178.400000
827.817871	181.500000
827.852600	178.300000
827.887329	180.700000
827.922119	174.600000
827.956848	183.100000
827.991638	190.800000
828.026367	182.400000
828.061157	181.500000
828.095886	180.500000
828.130615	192.100000
828.165344	174.600000
828.200073	180.400000
828.234863	178.700000
828.269592	180.800000
828.304321	183.400000
828.339111	180.900000
828.373779	178.300000
828.408569	184.000000
828.443298	185.100000
828.477966	179.700000
828.512756	181.400000
828.547424	176.900000
828.582214	179.500000
828.616943	178.300000
828.651672	180.300000
828.686340	183.600000
828.721130	178.300000
828.755798	178.000000
828.790527	180.300000
828.825256	181.200000
828.859924	182.000000
828.894714	183.600000
828.929443	187.400000
828.964111	178.400000
828.998840	183.900000
829.033569	178.300000
829.068237	181.600000
829.102966	179.700000
829.137634	183.400000
829.172363	182.600000
829.207092	181.700000
829.241821	177.300000
829.276489	176.400000
829.311157	180.700000
829.345825	179.700000
829.380554	184.900000
829.415283	179.300000
829.449951	175.700000
829.484619	187.000000
829.519348	184.500000
829.554016	182.000000
829.588745	181.200000
829.623413	177.600000
829.658081	186.500000
829.692749	178.300000
829.727417	184.700000
829.762146	181.900000
829.796814	179.200000
829.831482	179.400000
829.866150	181.500000
829.900879	179.200000
829.935486	181.600000
829.970154	178.500000
830.004883	188.900000
830.039490	180.700000
830.074219	179.200000
830.108887	181.600000
830.143494	179.400000
830.178223	177.800000
830.212891	179.500000
830.247498	181.000000
830.282166	185.800000
830.316772	185.800000
830.351501	178.700000
830.386169	180.100000
830.420776	180.200000
830.455444	180.400000
830.490112	178.700000
830.524719	174.900000
830.559387	181.500000
830.594055	181.700000
830.628662	179.300000
830.663330	180.500000
830.697998	186.300000
830.732605	179.800000
830.767273	181.700000
830.801941	179.800000
830.836487	188.500000
830.871155	180.500000
830.905762	181.800000
830.940430	176.300000
830.975098	177.900000
831.009644	180.900000
831.044312	186.900000
831.078979	182.700000
831.113525	174.300000
831.148193	180.700000
831.182861	180.700000
831.217407	183.000000
831.252075	191.400000
831.286621	177.000000
831.321289	178.800000
831.355896	182.000000
831.390564	186.200000
831.425110	180.900000
831.459778	187.100000
831.494324	190.900000
831.528931	183.200000
831.563599	185.100000
831.598145	176.800000
831.632751	180.300000
831.667419	179.200000
831.701965	182.200000
831.736572	182.200000
831.771179	176.400000
831.805786	178.900000
831.840393	185.300000
831.874939	175.400000
831.909546	183.900000
831.944153	174.500000
831.978760	181.100000
832.013306	177.600000
832.047913	185.300000
832.082458	186.100000
832.117065	177.700000
832.151672	187.700000
832.186218	181.600000
832.220825	182.100000
832.255432	174.300000
832.289978	179.300000
832.324585	182.400000
832.359192	181.300000
832.393677	179.200000
832.428284	180.100000
832.462830	180.500000
832.497437	179.600000
832.531982	183.700000
832.566589	178.400000
832.601135	181.900000
832.635681	175.300000
832.670227	182.300000
832.704773	185.400000
832.739380	182.500000
832.773926	181.100000
832.808472	179.700000
832.843079	180.000000
832.877563	182.700000
832.912170	179.400000
832.946716	177.000000
832.981201	183.700000
833.015808	183.900000
833.050293	180.700000
833.084839	177.900000
833.119446	180.900000
833.153992	183.800000
833.188477	180.100000
833.223022	178.400000
833.257568	183.100000
833.292114	185.100000
833.326660	189.000000
833.361145	180.700000
833.395691	175.900000
833.430237	182.000000
833.464783	182.300000
833.499329	178.300000
833.533875	177.700000
833.568359	184.100000
833.602905	184.200000
833.637390	183.600000
833.671875	179.500000
833.706421	179.400000
833.740906	178.900000
833.775452	173.300000
833.809998	179.300000
833.844482	187.100000
833.879028	180.000000
833.913513	179.700000
833.947998	182.300000
833.982544	177.700000
834.017090	178.900000
834.051514	174.500000
834.086060	182.300000
834.120544	178.700000
834.155029	182.600000
834.189575	179.700000
834.223999	183.600000
834.258545	180.600000
834.293030	182.300000
834.327515	178.300000
834.362000	179.400000
834.396545	183.600000
834.430969	180.200000
834.465454	184.000000
834.500000	175.200000
834.534424	180.200000
834.568970	175.100000
834.603455	175.200000
834.637878	178.000000
834.672363	181.500000
834.706909	181.500000
834.741333	181.000000
834.775818	176.700000
834.810242	178.100000
834.844727	180.400000
834.879211	180.400000
834.913635	181.800000
834.948181	181.400000
834.982666	182.600000
835.017090	178.700000
835.051575	181.700000
835.086060	179.300000
835.120483	182.100000
835.154907	182.600000
835.189331	181.200000
835.223816	182.700000
835.258301	175.800000
835.292786	178.800000
835.327209	182.900000
835.361694	178.800000
835.396057	178.700000
835.430542	182.300000
835.465027	178.800000
835.499390	178.000000
835.533875	206.700000
835.568359	180.000000
835.602722	174.900000
835.637207	181.200000
835.671692	176.300000
835.706055	195.700000
835.740540	182.100000
835.774902	181.700000
835.809387	181.100000
835.843811	178.000000
835.878235	185.000000
835.912659	177.700000
835.947083	178.300000
835.981506	180.800000
836.015930	174.700000
836.050354	183.300000
836.084778	185.400000
836.119202	184.700000
836.153625	192.600000
836.187988	178.600000
836.222473	178.700000
836.256897	182.800000
836.291260	179.200000
836.325684	183.100000
836.360046	179.600000
836.394470	180.500000
836.428894	185.100000
836.463318	178.600000
836.497681	182.800000
836.532104	186.000000
836.566467	181.400000
836.600891	181.000000
836.635315	184.100000
836.669678	181.200000
836.704102	184.200000
836.738525	182.900000
836.772888	176.300000
836.807251	178.600000
836.841675	183.800000
836.876038	176.600000
836.910461	178.700000
836.944763	183.200000
836.979187	178.500000
837.013611	183.800000
837.047974	175.600000
837.082336	188.100000
837.116699	183.800000
837.151062	179.200000
837.185486	177.000000
837.219849	178.900000
837.254211	184.000000
837.288574	179.100000
837.322937	177.500000
837.357300	174.500000
837.391663	188.800000
837.426086	183.900000
837.460388	182.800000
837.494751	183.900000
837.529114	179.700000
837.563477	186.700000
837.597839	181.800000
837.632141	180.600000
837.666565	179.200000
837.700928	183.600000
837.735229	182.000000
837.769592	183.100000
837.803955	182.500000
837.838257	179.000000
837.872620	179.400000
837.906982	186.000000
837.941284	181.600000
837.975647	181.800000
838.010010	185.000000
838.044312	179.000000
838.078674	179.900000
838.112976	181.100000
838.147339	183.200000
838.181702	180.800000
838.216003	186.600000
838.250366	182.500000
838.284668	183.200000
838.318970	174.800000
838.353333	179.100000
838.387634	181.100000
838.421936	181.100000
838.456299	180.800000
838.490601	185.400000
838.524902	183.700000
838.559265	183.300000
838.593567	184.600000
838.627869	177.000000
838.662170	183.200000
838.696472	177.400000
838.730774	179.300000
838.765137	182.500000
838.799377	173.900000
838.833740	180.700000
838.868042	184.500000
838.902283	174.700000
838.936646	185.900000
838.970947	180.200000
839.005188	185.100000
839.039551	175.800000
839.073792	186.800000
839.108093	179.100000
839.142395	188.900000
839.176697	176.400000
839.210937	183.200000
839.245300	188.300000
839.279541	177.300000
839.313843	179.300000
839.348145	185.000000
839.382385	183.200000
839.416687	185.100000
839.450989	183.300000
839.485229	181.400000
839.519531	177.900000
839.553833	185.500000
839.588013	179.100000
839.622314	182.700000
839.656555	182.300000
839.690857	182.200000
839.725159	176.900000
839.759460	180.900000
839.793640	178.900000
839.827942	181.500000
839.862183	178.600000
839.896423	182.700000
839.930725	191.000000
839.964966	189.000000
839.999207	185.100000
840.033508	185.500000
840.067688	177.000000
840.101990	187.000000
840.136230	182.100000
840.170471	188.000000
840.204712	177.600000
840.238953	178.400000
840.273193	181.600000
840.307434	183.200000
840.341736	178.500000
840.375916	177.500000
840.410217	179.500000
840.444397	183.400000
840.478638	183.600000
840.512878	184.000000
840.547119	183.000000
840.581360	183.800000
840.615601	187.400000
840.649780	190.000000
840.684021	180.600000
840.718262	188.000000
840.752441	187.600000
840.786682	183.100000
840.820862	182.000000
840.855103	187.100000
840.889343	182.000000
840.923584	184.600000
840.957764	183.400000
840.992004	181.800000
841.026184	192.200000
841.060425	179.600000
841.094666	179.700000
841.128845	182.700000
841.163025	182.900000
841.197266	182.700000
841.231445	181.400000
841.265686	183.900000
841.299866	178.900000
841.334045	187.700000
841.368286	181.300000
841.402405	186.100000
841.436646	183.300000
841.470825	179.400000
841.505005	181.000000
841.539185	179.600000
841.573425	179.400000
841.607544	181.900000
841.641785	180.800000
841.675964	179.100000
841.710144	181.600000
841.744324	178.400000
841.778503	181.000000
841.812683	178.800000
841.846863	186.800000
841.881042	188.200000
841.915222	179.500000
841.949402	190.700000
841.983521	175.100000
842.017700	180.200000
842.051880	182.500000
842.086060	184.300000
842.120239	182.300000
842.154419	180.000000
842.188538	182.000000
842.222717	180.100000
842.256897	187.300000
842.291016	181.300000
842.325195	181.600000
842.359375	190.100000
842.393494	186.600000
842.427673	183.100000
842.461853	182.400000
842.495911	189.800000
842.530090	184.100000
842.564209	182.800000
842.598389	183.500000
842.632568	182.800000
842.666626	182.600000
842.700806	180.800000
842.734985	180.000000
842.769043	184.900000
842.803223	181.500000
842.837402	180.300000
842.871460	179.700000
842.905640	189.700000
842.939697	178.700000
842.973877	182.300000
843.007996	185.900000
843.042175	189.800000
843.076233	180.500000
843.110413	184.900000
843.144470	188.200000
843.178589	185.900000
843.212769	181.300000
843.246826	184.300000
843.280945	181.100000
843.315125	181.900000
843.349182	179.100000
843.383301	185.500000
843.417419	191.800000
843.451538	180.300000
843.485657	180.600000
843.519714	181.700000
843.553833	183.000000
843.587952	180.000000
843.622070	180.100000
843.656128	183.400000
843.690247	180.200000
843.724304	181.600000
843.758423	183.800000
843.792542	180.300000
843.826599	183.200000
843.860718	181.100000
843.894836	178.900000
843.928894	182.200000
843.963013	183.700000
843.997070	178.600000
844.031128	178.000000
844.065247	185.200000
844.099304	183.900000
844.133362	183.900000
844.167480	184.400000
844.201599	185.900000
844.235596	184.000000
844.269714	182.800000
844.303711	183.200000
844.337830	177.600000
844.371948	184.400000
844.405945	182.800000
844.440063	177.900000
844.474121	191.000000
844.508118	180.900000
844.542236	182.200000
844.576294	182.200000
844.610352	178.100000
844.644409	181.500000
844.678406	177.400000
844.712524	186.700000
844.746582	187.800000
844.780640	182.400000
844.814636	182.400000
844.848755	190.000000
844.882751	180.600000
844.916809	185.600000
844.950867	184.900000
844.984863	188.000000
845.018921	181.300000
845.052979	179.000000
845.086975	182.900000
845.121033	176.600000
845.155090	178.800000
845.189087	186.800000
845.223145	181.100000
845.257141	183.300000
845.291199	184.800000
845.325256	185.200000
845.359253	183.900000
845.393250	195.100000
845.427307	183.100000
845.461304	183.400000
845.495361	182.300000
845.529358	188.300000
845.563354	181.700000
845.597412	178.700000
845.631409	190.600000
845.665405	187.200000
845.699463	186.100000
845.733459	180.100000
845.767456	190.600000
845.801453	182.000000
845.835449	185.400000
845.869446	185.100000
845.903503	185.500000
845.937439	179.600000
845.971497	187.700000
846.005493	177.600000
846.039429	187.000000
846.073486	190.000000
846.107483	181.900000
846.141418	181.400000
846.175476	182.900000
846.209473	186.700000
846.243408	180.900000
846.277405	183.300000
846.311401	179.600000
846.345337	182.000000
846.379395	186.500000
846.413330	179.600000
846.447327	190.700000
846.481323	178.600000
846.515259	179.900000
846.549255	181.800000
846.583252	185.200000
846.617187	179.700000
846.651184	183.300000
846.685120	182.600000
846.719055	189.200000
846.753052	185.900000
846.786987	185.600000
846.820984	178.200000
846.854980	186.900000
846.888916	180.500000
846.922852	183.700000
846.956848	187.300000
846.990723	179.700000
847.024719	183.500000
847.058716	181.200000
847.092590	187.500000
847.126587	182.300000
847.160522	180.400000
847.194458	186.400000
847.228455	180.200000
847.262390	177.700000
847.296265	182.600000
847.330261	185.800000
847.364136	181.800000
847.398132	182.800000
847.432068	183.500000
847.466003	181.400000
847.499939	182.200000
847.533875	184.400000
847.567749	181.300000
847.601746	181.700000
847.635681	185.300000
847.669556	175.700000
847.703491	186.600000
847.737427	191.700000
847.771301	178.800000
847.805237	185.100000
847.839233	182.300000
847.873108	182.100000
847.907043	181.600000
847.940918	187.500000
847.974854	183.200000
848.008789	184.800000
848.042664	181.800000
848.076538	183.600000
848.110474	182.400000
848.144348	183.300000
848.178284	177.400000
848.212219	182.900000
848.246094	180.000000
848.279968	183.000000
848.313904	184.700000
848.347778	182.300000
848.381653	181.700000
848.415588	180.200000
848.449463	180.100000
848.483337	184.500000
848.517212	188.900000
848.551086	182.700000
848.585022	179.000000
848.618835	191.700000
848.652771	181.100000
848.686646	180.300000
848.720520	188.600000
848.754395	181.900000
848.788330	184.400000
848.822144	186.100000
848.856018	180.200000
848.889954	189.800000
848.923767	179.800000
848.957642	179.800000
848.991577	183.300000
849.025391	182.300000
849.059265	182.000000
849.093079	180.000000
849.126953	177.800000
849.160828	186.500000
849.194641	182.200000
849.228577	182.100000
849.262451	181.000000
849.296265	182.800000
849.330139	180.100000
849.364014	183.800000
849.397827	183.900000
849.431702	184.300000
849.465515	186.000000
849.499329	175.600000
849.533203	179.600000
849.567078	175.800000
849.600891	184.400000
849.634766	182.100000
849.668518	184.800000
849.702393	182.500000
849.736267	177.700000
849.770020	189.200000
849.803894	184.600000
849.837769	183.800000
849.871521	182.700000
849.905396	184.200000
849.939270	180.300000
849.973022	181.800000
850.006897	184.700000
850.040710	185.200000
850.074524	185.200000
850.108337	181.300000
850.142151	187.600000
850.175964	187.100000
850.209778	182.100000
850.243530	174.300000
850.277405	187.000000
850.311218	183.700000
850.344971	180.600000
850.378845	189.000000
850.412659	180.100000
850.446411	184.500000
850.480225	184.200000
850.514038	186.800000
850.547791	185.100000
850.581665	181.200000
850.615417	180.600000
850.649231	183.700000
850.683044	181.800000
850.716858	181.500000
850.750610	183.800000
850.784424	184.600000
850.818176	180.300000
850.851929	180.600000
850.885742	180.400000
850.919495	181.500000
850.953308	188.400000
850.987122	187.400000
851.020874	178.600000
851.054626	178.700000
851.088440	185.100000
851.122192	187.300000
851.156006	183.000000
851.189697	181.400000
851.223511	177.900000
851.257263	186.900000
851.291077	183.900000
851.324829	180.800000
851.358582	180.500000
851.392334	181.200000
851.426086	179.700000
851.459900	187.500000
851.493591	182.900000
851.527344	184.000000
851.561157	181.500000
851.594849	183.600000
851.628662	181.900000
851.662415	189.000000
851.696106	183.300000
851.729858	186.400000
851.763611	177.400000
851.797363	182.800000
851.831116	178.700000
851.864868	185.200000
851.898560	186.400000
851.932312	180.900000
851.966064	183.300000
851.999817	182.100000
852.033569	182.200000
852.067261	187.800000
852.101013	179.500000
852.134766	182.700000
852.168457	174.900000
852.202209	188.000000
852.235901	178.800000
852.269592	184.000000
852.303345	188.300000
852.337036	185.800000
852.370789	182.600000
852.404541	185.200000
852.438171	178.800000
852.471924	182.900000
852.505676	178.700000
852.539307	184.700000
852.573059	180.200000
852.606812	181.000000
852.640442	181.400000
852.674194	187.000000
852.707886	190.300000
852.741577	187.300000
852.775269	179.200000
852.809021	182.800000
852.842651	185.000000
852.876404	186.500000
852.910034	182.500000
852.943787	186.700000
852.977478	184.700000
853.011108	180.400000
853.044861	180.000000
853.078552	189.200000
853.112183	183.800000
853.145874	183.400000
853.179626	178.100000
853.213257	183.000000
853.246948	181.300000
853.280640	190.000000
853.314270	182.800000
853.347961	186.400000
853.381653	184.300000
853.415283	185.400000
853.448975	181.500000
853.482605	183.900000
853.516296	182.500000
853.549988	178.200000
853.583618	185.400000
853.617310	183.800000
853.651001	183.500000
853.684631	181.100000
853.718323	181.000000
853.751953	186.900000
853.785583	177.000000
853.819275	184.300000
853.852966	185.700000
853.886536	176.000000
853.920227	178.800000
853.953918	185.400000
853.987488	182.800000
854.021179	183.400000
854.054749	189.300000
854.088440	185.000000
854.122131	179.400000
854.155701	185.200000
854.189331	179.600000
854.223022	185.700000
854.256592	182.900000
854.290283	181.100000
854.323914	185.600000
854.357483	184.500000
854.391174	182.900000
854.424744	187.300000
854.458374	184.000000
854.492065	192.800000
854.525696	181.400000
854.559265	187.800000
854.592896	191.900000
854.626465	182.600000
854.660095	181.200000
854.693787	184.700000
854.727356	181.100000
854.760986	186.300000
854.794617	184.400000
854.828186	181.800000
854.861816	184.100000
854.895447	184.300000
854.929016	183.200000
854.962585	184.200000
854.996155	189.700000
855.029785	182.500000
855.063416	182.200000
855.097046	186.100000
855.130615	179.600000
855.164185	186.500000
855.197754	183.400000
855.231384	184.800000
855.264954	180.500000
855.298523	185.600000
855.332153	183.300000
855.365723	186.900000
855.399292	179.900000
855.432922	182.100000
855.466492	183.400000
855.500061	180.800000
855.533630	179.700000
855.567200	185.000000
855.600769	185.900000
855.634338	187.900000
855.667969	183.900000
855.701477	180.800000
855.735046	179.500000
855.768616	177.300000
855.802185	184.300000
855.835754	193.800000
855.869324	176.800000
855.902893	181.600000
855.936401	186.500000
855.969971	181.900000
856.003540	178.000000
856.037109	185.000000
856.070618	182.400000
856.104187	179.100000
856.137695	180.800000
856.171265	175.900000
856.204834	184.600000
856.238403	187.100000
856.271912	182.500000
856.305481	184.000000
856.338989	178.600000
856.372559	184.600000
856.406128	184.600000
856.439636	185.000000
856.473145	181.400000
856.506653	187.800000
856.540222	183.000000
856.573792	187.900000
856.607300	186.900000
856.640808	179.000000
856.674377	183.600000
856.707825	215.100000
856.741394	187.000000
856.774902	179.400000
856.808472	178.300000
856.841980	185.300000
856.875488	187.100000
856.908936	179.100000
856.942505	181.000000
856.976013	182.200000
857.009521	179.800000
857.043030	181.600000
857.076477	182.200000
857.110046	187.500000
857.143555	183.700000
857.177063	185.800000
857.210571	182.700000
857.244080	178.100000
857.277527	185.200000
857.311035	183.100000
857.344543	186.700000
857.378052	182.700000
857.411499	187.100000
857.445068	189.000000
857.478516	182.600000
857.512024	178.900000
857.545532	181.800000
857.578979	184.400000
857.612427	183.100000
857.645874	179.300000
857.679382	183.000000
857.712891	185.700000
857.746399	183.000000
857.779846	186.200000
857.813354	185.900000
857.846741	182.400000
857.880249	178.800000
857.913757	185.100000
857.947266	184.500000
857.980652	185.400000
858.014160	181.800000
858.047546	182.400000
858.081055	182.900000
858.114563	193.900000
858.147949	178.700000
858.181458	186.200000
858.214844	180.900000
858.248352	178.300000
858.281799	184.400000
858.315308	191.300000
858.348694	185.400000
858.382141	190.900000
858.415588	185.600000
858.449036	186.100000
858.482483	184.600000
858.515930	181.900000
858.549377	182.500000
858.582825	187.000000
858.616211	183.800000
858.649658	184.800000
858.683105	179.300000
858.716553	182.100000
858.750000	177.600000
858.783386	180.900000
858.816833	176.700000
858.850281	184.000000
858.883728	184.400000
858.917114	184.400000
858.950562	188.700000
858.983948	189.500000
859.017395	186.000000
859.050781	181.800000
859.084167	179.900000
859.117615	180.200000
859.151062	185.400000
859.184448	179.900000
859.217834	181.400000
859.251282	180.500000
859.284668	180.100000
859.318054	177.100000
859.351440	181.800000
859.384888	187.100000
859.418274	178.300000
859.451721	176.300000
859.485046	184.400000
859.518494	184.800000
859.551819	180.000000
859.585266	184.600000
859.618652	186.600000
859.652039	178.800000
859.685425	179.700000
859.718811	178.200000
859.752197	175.400000
859.785583	185.700000
859.819031	189.200000
859.852356	184.200000
859.885742	179.600000
859.919067	182.700000
859.952454	182.100000
859.985901	186.700000
860.019287	183.800000
860.052612	0.000000
860.085999	0.000000
860.119324	0.000000
860.152710	0.000000
860.186096	0.000000
860.219421	0.000000
860.252808	0.000000
860.286133	0.000000
860.319519	0.000000
860.352905	0.000000
860.386292	0.000000
860.419617	0.000000
860.452942	0.000000
860.486267	0.000000
860.519653	0.000000
860.553040	0.000000
860.586365	0.000000
860.619690	0.000000
860.653076	0.000000
860.686340	0.000000
860.719727	0.000000
860.753113	0.000000
860.786377	0.000000
860.819763	0.000000
860.853027	0.000000
860.886414	0.000000
860.919739	0.000000
860.953125	0.000000
860.986389	0.000000
861.019714	0.000000
861.053040	0.000000
861.086365	0.000000
861.119690	0.000000
861.153076	0.000000
861.186340	0.000000
861.219666	0.000000
861.252930	0.000000
861.286316	0.000000
861.319641	0.000000
861.352905	0.000000
861.386230	0.000000
861.419495	0.000000
861.452820	0.000000
861.486145	0.000000
861.519470	0.000000
861.552734	0.000000
861.586060	0.000000
861.619324	0.000000
861.652649	0.000000
861.685974	0.000000
861.719238	0.000000
861.752563	0.000000
861.785828	0.000000
861.819092	0.000000
861.852417	0.000000
861.885742	0.000000
861.918945	0.000000
861.952271	0.000000
861.985535	0.000000
862.018799	0.000000
862.052124	0.000000
862.085449	0.000000
862.118652	0.000000
862.151978	0.000000
862.185181	0.000000
862.218506	0.000000
862.251770	0.000000
862.285034	0.000000
862.318298	0.000000
862.351562	0.000000
862.384827	0.000000
862.418091	0.000000
862.451355	0.000000
862.484619	0.000000
862.517883	0.000000
862.551086	0.000000
862.584351	0.000000
862.617676	0.000000
862.650940	0.000000
862.684143	0.000000
862.717407	0.000000
862.750610	0.000000
862.783875	0.000000
862.817139	0.000000
862.850342	0.000000
862.883606	0.000000
862.916870	0.000000
862.950073	0.000000
862.983337	0.000000
863.016602	0.000000
863.049805	0.000000
863.083069	0.000000
863.116211	0.000000
863.149475	0.000000
863.182739	0.000000
863.216003	0.000000
863.249146	0.000000
863.282410	0.000000
863.315613	0.000000
863.348816	0.000000
863.382080	0.000000
863.415222	0.000000
863.448486	0.000000
863.481689	0.000000
863.514893	0.000000
863.548157	0.000000
863.581360	0.000000
863.614502	0.000000
863.647766	0.000000
863.680908	0.000000
863.714172	0.000000
863.747375	0.000000
863.780579	0.000000
863.813721	0.000000
863.846985	0.000000
863.880127	0.000000
863.913330	0.000000
863.946533	0.000000
863.979675	0.000000
864.012939	0.000000
