Model Number: SPM-001-M   
Serial Number: 10090201
Firmware Version: 004.17.6
Exposure Time: 300000.000000us
Data Taken on: 28-01-2021 10:40:15.176
Wavelength	Amplitude
733.770752	0.000000
733.808716	0.000000
733.846619	0.000000
733.884583	0.000000
733.922546	0.000000
733.960449	0.000000
733.998413	0.000000
734.036377	0.000000
734.074219	0.000000
734.112183	0.000000
734.150085	0.000000
734.188049	0.000000
734.226013	0.000000
734.263916	0.000000
734.301819	0.000000
734.339783	0.000000
734.377686	0.000000
734.415588	0.000000
734.453552	0.000000
734.491455	0.000000
734.529419	0.000000
734.567322	0.000000
734.605225	0.000000
734.643127	0.000000
734.681091	0.000000
734.718994	0.000000
734.756897	0.000000
734.794800	0.000000
734.832703	0.000000
734.870667	0.000000
734.908508	0.000000
734.946472	0.000000
734.984375	0.000000
735.022278	0.000000
735.060181	0.000000
735.098083	0.000000
735.135986	0.000000
735.173889	0.000000
735.211792	0.000000
735.249695	0.000000
735.287598	0.000000
735.325439	0.000000
735.363403	0.000000
735.401306	0.000000
735.439148	0.000000
735.477051	0.000000
735.515015	0.000000
735.552856	0.000000
735.590759	0.000000
735.628662	0.000000
735.666504	0.000000
735.704407	0.000000
735.742310	0.000000
735.780212	0.000000
735.818115	0.000000
735.856018	0.000000
735.893860	0.000000
735.931763	0.000000
735.969604	0.000000
736.007507	0.000000
736.045410	0.000000
736.083252	0.000000
736.121094	0.000000
736.158997	0.000000
736.196838	0.000000
736.234741	0.000000
736.272644	0.000000
736.310486	0.000000
736.348389	0.000000
736.386230	0.000000
736.424072	0.000000
736.461975	0.000000
736.499878	0.000000
736.537720	0.000000
736.575562	0.000000
736.613403	0.000000
736.651306	0.000000
736.689148	0.000000
736.726990	0.000000
736.764893	0.000000
736.802734	0.000000
736.840576	0.000000
736.878418	0.000000
736.916321	0.000000
736.954102	0.000000
736.992004	0.000000
737.029846	0.000000
737.067688	0.000000
737.105530	0.000000
737.143372	0.000000
737.181213	0.000000
737.219116	0.000000
737.256897	0.000000
737.294739	0.000000
737.332642	0.000000
737.370422	0.000000
737.408325	0.000000
737.446167	0.000000
737.483948	0.000000
737.521790	0.000000
737.559692	0.000000
737.597473	0.000000
737.635315	0.000000
737.673157	0.000000
737.710999	0.000000
737.748840	0.000000
737.786621	0.000000
737.824463	0.000000
737.862305	0.000000
737.900085	0.000000
737.937927	0.000000
737.975769	0.000000
738.013550	0.000000
738.051392	0.000000
738.089233	0.000000
738.127014	0.000000
738.164856	0.000000
738.202698	0.000000
738.240479	0.000000
738.278320	0.000000
738.316162	0.000000
738.353943	0.000000
738.391785	0.000000
738.429565	0.000000
738.467407	0.000000
738.505188	0.000000
738.542969	0.000000
738.580811	0.000000
738.618652	0.000000
738.656372	0.000000
738.694214	0.000000
738.732056	0.000000
738.769836	0.000000
738.807617	0.000000
738.845459	0.000000
738.883240	0.000000
738.921021	0.000000
738.958862	0.000000
738.996582	0.000000
739.034424	0.000000
739.072205	0.000000
739.109985	0.000000
739.147827	0.000000
739.185547	0.000000
739.223389	0.000000
739.261169	0.000000
739.298889	0.000000
739.336731	0.000000
739.374512	0.000000
739.412292	0.000000
739.450073	0.000000
739.487854	0.000000
739.525635	0.000000
739.563416	0.000000
739.601135	0.000000
739.638977	0.000000
739.676758	0.000000
739.714478	0.000000
739.752258	0.000000
739.790100	0.000000
739.827820	0.000000
739.865601	0.000000
739.903381	0.000000
739.941101	0.000000
739.978882	184.500000
740.016724	182.700000
740.054443	184.300000
740.092224	179.800000
740.130005	180.600000
740.167725	179.600000
740.205505	178.700000
740.243225	186.100000
740.281006	182.700000
740.318787	178.300000
740.356506	186.900000
740.394287	184.100000
740.432068	179.700000
740.469727	177.600000
740.507507	184.000000
740.545288	182.300000
740.583008	183.300000
740.620789	182.200000
740.658569	175.900000
740.696228	181.700000
740.734009	184.200000
740.771790	174.700000
740.809509	184.900000
740.847229	177.200000
740.884949	179.600000
740.922729	177.400000
740.960449	179.500000
740.998169	177.700000
741.035950	177.500000
741.073669	181.300000
741.111389	181.700000
741.149170	187.500000
741.186890	189.100000
741.224609	185.000000
741.262329	183.000000
741.300110	189.000000
741.337769	179.900000
741.375549	177.700000
741.413208	182.400000
741.450989	180.000000
741.488708	179.600000
741.526367	180.000000
741.564148	184.800000
741.601868	184.300000
741.639526	180.700000
741.677307	183.200000
741.715027	184.600000
741.752686	180.200000
741.790466	185.000000
741.828186	184.100000
741.865845	180.400000
741.903564	178.200000
741.941345	182.600000
741.979004	178.500000
742.016724	185.800000
742.054382	182.100000
742.092102	185.800000
742.129822	178.500000
742.167480	181.000000
742.205200	181.000000
742.242920	183.700000
742.280640	185.200000
742.318359	180.000000
742.356079	180.400000
742.393738	184.800000
742.431396	180.400000
742.469116	186.400000
742.506775	175.500000
742.544495	183.100000
742.582214	184.600000
742.619873	181.600000
742.657593	186.300000
742.695251	185.800000
742.732971	181.200000
742.770630	183.300000
742.808289	182.600000
742.846008	182.900000
742.883728	181.700000
742.921326	182.200000
742.959045	179.800000
742.996765	181.000000
743.034424	181.900000
743.072083	180.100000
743.109802	181.100000
743.147400	179.100000
743.185120	181.100000
743.222839	182.500000
743.260437	187.100000
743.298157	183.100000
743.335754	175.400000
743.373474	181.600000
743.411133	177.900000
743.448792	182.300000
743.486450	182.200000
743.524170	178.100000
743.561768	180.700000
743.599487	188.100000
743.637146	188.000000
743.674744	181.500000
743.712463	180.000000
743.750122	182.500000
743.787720	183.900000
743.825439	180.300000
743.863037	181.200000
743.900696	182.100000
743.938416	206.100000
743.976013	181.500000
744.013672	188.600000
744.051331	184.700000
744.088928	189.000000
744.126587	184.800000
744.164307	183.500000
744.201904	179.100000
744.239563	183.800000
744.277222	182.900000
744.314819	181.700000
744.352478	186.200000
744.390137	183.300000
744.427734	183.800000
744.465393	181.800000
744.502991	177.700000
744.540649	184.600000
744.578308	181.200000
744.615906	179.100000
744.653564	174.300000
744.691223	183.900000
744.728821	177.100000
744.766418	182.200000
744.804077	182.500000
744.841675	180.300000
744.879333	177.900000
744.916992	180.700000
744.954529	181.400000
744.992187	185.100000
745.029785	181.100000
745.067444	180.300000
745.105042	182.100000
745.142639	184.300000
745.180298	189.100000
745.217896	180.400000
745.255493	180.000000
745.293152	185.000000
745.330750	186.800000
745.368347	186.300000
745.405945	185.400000
745.443604	182.400000
745.481140	183.400000
745.518799	181.800000
745.556396	186.800000
745.593994	184.300000
745.631592	183.300000
745.669189	179.200000
745.706787	182.700000
745.744385	178.500000
745.781982	185.400000
745.819580	180.300000
745.857178	180.900000
745.894775	181.200000
745.932373	184.000000
745.969971	183.500000
746.007568	176.400000
746.045166	188.200000
746.082764	187.300000
746.120300	183.200000
746.157898	183.800000
746.195557	180.200000
746.233093	177.800000
746.270691	181.900000
746.308228	183.400000
746.345825	184.700000
746.383423	184.900000
746.420959	178.100000
746.458557	179.400000
746.496155	178.300000
746.533691	182.200000
746.571289	177.600000
746.608887	181.300000
746.646423	181.800000
746.684021	182.500000
746.721619	179.200000
746.759155	183.900000
746.796753	177.400000
746.834351	178.300000
746.871826	179.500000
746.909424	186.200000
746.946960	181.400000
746.984558	182.000000
747.022156	179.800000
747.059631	188.600000
747.097229	184.200000
747.134827	181.500000
747.172363	185.200000
747.209900	185.900000
747.247498	178.900000
747.285034	187.100000
747.322571	186.300000
747.360168	181.900000
747.397644	177.500000
747.435242	184.700000
747.472778	186.600000
747.510315	182.400000
747.547913	181.100000
747.585388	185.300000
747.622925	182.200000
747.660522	177.300000
747.697998	181.100000
747.735596	180.500000
747.773132	180.700000
747.810669	180.900000
747.848206	183.100000
747.885742	178.000000
747.923279	178.400000
747.960815	182.200000
747.998352	183.100000
748.035889	184.000000
748.073425	184.400000
748.110901	180.000000
748.148437	178.300000
748.185974	181.400000
748.223511	188.400000
748.261047	183.900000
748.298584	182.700000
748.336060	181.300000
748.373596	183.400000
748.411133	208.600000
748.448608	179.200000
748.486145	184.200000
748.523682	185.600000
748.561218	186.900000
748.598755	183.600000
748.636292	184.100000
748.673706	181.500000
748.711243	188.300000
748.748718	183.800000
748.786255	182.900000
748.823792	183.800000
748.861267	179.100000
748.898804	184.600000
748.936340	184.400000
748.973816	180.600000
749.011292	187.800000
749.048828	183.200000
749.086304	182.400000
749.123840	190.200000
749.161316	180.900000
749.198792	188.900000
749.236328	186.600000
749.273743	181.400000
749.311279	182.200000
749.348816	185.600000
749.386230	184.200000
749.423767	174.400000
749.461304	185.900000
749.498718	181.800000
749.536255	186.400000
749.573730	189.300000
749.611206	187.200000
749.648682	181.900000
749.686218	183.200000
749.723633	183.200000
749.761169	180.900000
749.798645	179.000000
749.836060	181.500000
749.873596	178.700000
749.911011	183.900000
749.948547	185.500000
749.986023	181.400000
750.023437	180.400000
750.060913	177.300000
750.098450	177.500000
750.135864	181.600000
750.173340	182.700000
750.210815	186.900000
750.248291	179.500000
750.285767	182.400000
750.323242	185.400000
750.360657	183.800000
750.398132	179.600000
750.435608	184.900000
750.473022	178.500000
750.510498	179.900000
750.547974	179.500000
750.585449	181.600000
750.622925	177.100000
750.660339	191.400000
750.697815	182.000000
750.735291	182.500000
750.772644	182.300000
750.810120	184.900000
750.847595	184.300000
750.885010	179.700000
750.922485	187.400000
750.959961	181.000000
750.997375	187.200000
751.034851	186.200000
751.072266	186.500000
751.109680	177.700000
751.147156	186.800000
751.184570	183.000000
751.221985	183.300000
751.259460	177.000000
751.296875	182.400000
751.334290	180.300000
751.371765	187.400000
751.409180	184.600000
751.446594	185.900000
751.484070	181.900000
751.521423	182.200000
751.558899	182.400000
751.596375	189.200000
751.633728	186.100000
751.671204	190.200000
751.708618	178.400000
751.746033	183.200000
751.783447	177.500000
751.820801	180.100000
751.858276	184.600000
751.895691	181.800000
751.933105	180.700000
751.970520	180.500000
752.007935	179.600000
752.045349	185.000000
752.082764	181.700000
752.120178	181.700000
752.157532	180.700000
752.195007	182.200000
752.232422	183.300000
752.269775	184.800000
752.307190	185.000000
752.344543	179.100000
752.382019	182.800000
752.419434	181.200000
752.456787	184.300000
752.494202	187.100000
752.531616	183.100000
752.568970	185.000000
752.606384	184.600000
752.643799	184.200000
752.681152	188.800000
752.718567	185.200000
752.755981	177.300000
752.793335	184.400000
752.830750	176.600000
752.868164	185.100000
752.905518	180.200000
752.942932	186.900000
752.980225	178.800000
753.017639	183.000000
753.055054	186.600000
753.092407	182.300000
753.129822	186.700000
753.167175	189.500000
753.204529	183.200000
753.241943	178.900000
753.279358	179.300000
753.316650	183.700000
753.354065	183.900000
753.391479	185.300000
753.428772	188.000000
753.466187	183.200000
753.503479	179.900000
753.540894	180.100000
753.578308	179.300000
753.615601	179.200000
753.653015	182.400000
753.690369	181.300000
753.727722	179.300000
753.765076	177.300000
753.802490	180.100000
753.839783	176.900000
753.877136	181.000000
753.914551	191.500000
753.951843	179.700000
753.989258	185.300000
754.026611	183.400000
754.063904	182.500000
754.101257	179.100000
754.138611	176.800000
754.175964	182.800000
754.213318	189.500000
754.250610	177.600000
754.288025	180.500000
754.325378	178.400000
754.362671	186.800000
754.400024	182.400000
754.437378	189.800000
754.474670	188.200000
754.512085	180.200000
754.549438	183.300000
754.586731	180.500000
754.624084	183.000000
754.661438	179.700000
754.698730	187.900000
754.736084	182.200000
754.773376	179.700000
754.810730	185.400000
754.848083	181.500000
754.885315	185.900000
754.922668	178.100000
754.960022	179.200000
754.997314	185.900000
755.034668	182.700000
755.072021	181.600000
755.109253	181.200000
755.146606	186.700000
755.183960	182.600000
755.221252	187.100000
755.258545	186.900000
755.295898	186.200000
755.333191	186.500000
755.370544	184.400000
755.407776	183.200000
755.445129	183.800000
755.482422	188.200000
755.519714	181.100000
755.557068	179.100000
755.594360	177.900000
755.631653	186.300000
755.668945	188.300000
755.706299	185.600000
755.743530	192.200000
755.780884	188.700000
755.818176	187.500000
755.855408	187.400000
755.892761	186.400000
755.930054	183.800000
755.967346	185.500000
756.004639	186.300000
756.041870	184.800000
756.079224	188.500000
756.116516	181.900000
756.153748	187.100000
756.191040	191.900000
756.228394	186.500000
756.265625	182.500000
756.302917	185.300000
756.340210	183.900000
756.377441	188.100000
756.414795	188.700000
756.452087	185.400000
756.489319	181.700000
756.526611	187.400000
756.563843	184.700000
756.601135	191.500000
756.638428	191.900000
756.675659	184.000000
756.712952	187.100000
756.750244	187.000000
756.787476	187.400000
756.824768	189.200000
756.862061	184.700000
756.899292	230.400000
756.936584	187.600000
756.973816	192.300000
757.011047	193.500000
757.048340	185.800000
757.085632	185.800000
757.122864	199.000000
757.160156	184.000000
757.197327	186.000000
757.234619	190.700000
757.271912	184.500000
757.309082	189.000000
757.346375	184.700000
757.383667	191.900000
757.420837	188.000000
757.458130	189.100000
757.495422	185.400000
757.532593	189.700000
757.569885	184.200000
757.607117	185.500000
757.644348	188.700000
757.681580	197.700000
757.718811	179.200000
757.756042	186.800000
757.793335	185.700000
757.830505	190.300000
757.867798	186.500000
757.905029	185.000000
757.942200	188.500000
757.979492	186.800000
758.016724	188.200000
758.053894	187.600000
758.091187	201.500000
758.128418	188.400000
758.165588	187.400000
758.202820	196.600000
758.240112	189.800000
758.277283	194.400000
758.314514	190.700000
758.351685	186.200000
758.388916	195.300000
758.426147	194.200000
758.463379	195.200000
758.500610	190.700000
758.537842	190.400000
758.575012	193.500000
758.612244	188.600000
758.649475	198.300000
758.686646	186.800000
758.723877	194.200000
758.761108	195.800000
758.798279	189.900000
758.835510	193.200000
758.872742	196.200000
758.909851	193.400000
758.947083	193.400000
758.984253	193.700000
759.021484	195.000000
759.058716	193.700000
759.095886	194.100000
759.133057	193.000000
759.170288	192.900000
759.207458	190.600000
759.244690	200.100000
759.281860	199.100000
759.319031	194.300000
759.356262	192.200000
759.393433	191.300000
759.430603	192.600000
759.467773	193.500000
759.505005	197.000000
759.542175	198.600000
759.579346	194.200000
759.616516	194.800000
759.653687	197.100000
759.690918	193.400000
759.728027	194.400000
759.765259	196.100000
759.802429	197.000000
759.839539	196.000000
759.876770	200.300000
759.913940	202.700000
759.951111	196.600000
759.988281	195.400000
760.025452	193.700000
760.062561	194.000000
760.099792	203.200000
760.136963	198.800000
760.174072	194.500000
760.211243	194.000000
760.248413	192.000000
760.285583	193.000000
760.322754	203.000000
760.359863	200.300000
760.397034	201.100000
760.434204	196.100000
760.471375	196.500000
760.508545	196.800000
760.545715	196.900000
760.582825	193.800000
760.619995	199.600000
760.657166	193.900000
760.694275	202.500000
760.731445	199.500000
760.768555	201.200000
760.805664	201.800000
760.842834	199.000000
760.879944	202.100000
760.917114	199.700000
760.954285	197.600000
760.991394	194.800000
761.028564	204.100000
761.065674	201.300000
761.102783	196.800000
761.139954	203.100000
761.177124	201.900000
761.214172	204.000000
761.251343	200.300000
761.288452	199.400000
761.325562	203.900000
761.362732	200.300000
761.399841	200.200000
761.436951	202.500000
761.474121	199.400000
761.511169	200.400000
761.548340	203.900000
761.585449	204.200000
761.622559	204.300000
761.659668	203.100000
761.696838	205.400000
761.733887	203.900000
761.771057	200.800000
761.808167	202.300000
761.845276	205.600000
761.882385	212.400000
761.919434	203.700000
761.956604	216.000000
761.993713	201.100000
762.030762	209.600000
762.067871	203.400000
762.105042	202.700000
762.142090	209.500000
762.179199	206.000000
762.216309	208.100000
762.253418	215.500000
762.290527	211.600000
762.327637	209.100000
762.364685	202.900000
762.401794	210.100000
762.438904	207.400000
762.475952	205.100000
762.513062	203.100000
762.550110	204.400000
762.587219	214.300000
762.624329	213.800000
762.661377	208.900000
762.698486	208.900000
762.735596	209.800000
762.772644	205.500000
762.809753	203.200000
762.846863	209.200000
762.883911	213.300000
762.921021	211.900000
762.958069	209.400000
762.995117	216.400000
763.032227	215.000000
763.069336	208.300000
763.106323	208.200000
763.143433	206.600000
763.180481	212.600000
763.217590	212.700000
763.254639	210.700000
763.291687	210.300000
763.328735	219.300000
763.365845	212.300000
763.402893	211.700000
763.439941	212.000000
763.477051	215.200000
763.514038	214.200000
763.551147	213.300000
763.588196	212.800000
763.625244	213.400000
763.662292	219.400000
763.699402	221.200000
763.736389	216.600000
763.773499	224.600000
763.810486	217.200000
763.847534	217.600000
763.884644	217.800000
763.921631	216.200000
763.958679	223.400000
763.995728	218.500000
764.032776	222.400000
764.069824	215.900000
764.106873	220.500000
764.143860	226.200000
764.180969	218.100000
764.218018	225.400000
764.255005	219.000000
764.292053	221.400000
764.329102	227.700000
764.366089	228.400000
764.403137	225.500000
764.440125	221.800000
764.477173	223.400000
764.514221	226.700000
764.551208	224.700000
764.588257	222.000000
764.625305	226.900000
764.662292	234.200000
764.699341	234.800000
764.736389	228.800000
764.773376	239.800000
764.810425	230.200000
764.847473	234.400000
764.884399	232.200000
764.921448	237.400000
764.958435	234.200000
764.995483	231.700000
765.032532	240.000000
765.069458	231.100000
765.106506	233.300000
765.143555	232.200000
765.180481	232.900000
765.217529	241.100000
765.254578	229.900000
765.291504	237.800000
765.328552	235.900000
765.365540	233.400000
765.402527	243.300000
765.439575	234.500000
765.476501	229.100000
765.513550	231.200000
765.550537	235.600000
765.587463	242.000000
765.624512	235.200000
765.661499	231.700000
765.698486	241.000000
765.735474	237.800000
765.772461	236.400000
765.809448	241.900000
765.846436	239.000000
765.883423	244.000000
765.920410	239.800000
765.957397	238.100000
765.994385	241.000000
766.031311	245.900000
766.068359	240.900000
766.105286	245.100000
766.142273	250.100000
766.179260	244.300000
766.216187	243.800000
766.253174	239.900000
766.290161	245.300000
766.327148	247.700000
766.364136	246.500000
766.401123	258.600000
766.438049	244.400000
766.475037	252.100000
766.512024	250.100000
766.548950	261.600000
766.585937	256.700000
766.622864	253.600000
766.659790	254.400000
766.696777	245.600000
766.733704	258.200000
766.770691	250.400000
766.807678	259.000000
766.844604	256.100000
766.881531	255.600000
766.918518	257.900000
766.955444	260.500000
766.992432	255.000000
767.029358	259.300000
767.066284	259.400000
767.103271	259.900000
767.140198	288.800000
767.177124	269.700000
767.214050	261.600000
767.251038	262.100000
767.287964	258.800000
767.324890	258.500000
767.361816	260.900000
767.398743	264.400000
767.435730	260.200000
767.472595	265.400000
767.509583	266.100000
767.546509	261.800000
767.583374	264.400000
767.620361	258.700000
767.657288	263.300000
767.694214	263.500000
767.731140	260.700000
767.768066	262.800000
767.804993	265.200000
767.841919	261.900000
767.878845	266.600000
767.915710	271.700000
767.952698	266.100000
767.989563	268.500000
768.026489	268.400000
768.063416	265.900000
768.100281	265.700000
768.137207	275.700000
768.174133	271.200000
768.211060	272.500000
768.247986	272.800000
768.284912	270.900000
768.321777	271.200000
768.358704	268.500000
768.395630	271.200000
768.432495	269.500000
768.469421	274.300000
768.506348	277.800000
768.543152	282.300000
768.580078	275.500000
768.616943	276.700000
768.653870	278.100000
768.690796	278.300000
768.727661	275.700000
768.764587	279.500000
768.801453	275.700000
768.838318	281.500000
768.875244	279.300000
768.912109	285.900000
768.948975	277.900000
768.985901	282.200000
769.022766	279.900000
769.059631	283.800000
769.096558	281.900000
769.133362	281.900000
769.170288	281.200000
769.207214	284.700000
769.244019	289.200000
769.280945	287.800000
769.317810	290.700000
769.354675	290.300000
769.391541	296.400000
769.428406	292.900000
769.465271	298.700000
769.502136	294.200000
769.539062	296.300000
769.575867	295.000000
769.612732	294.900000
769.649597	299.200000
769.686462	304.500000
769.723328	299.400000
769.760193	299.100000
769.797058	301.500000
769.833923	304.700000
769.870728	304.200000
769.907593	304.200000
769.944519	307.000000
769.981323	309.400000
770.018188	306.000000
770.055054	306.000000
770.091858	305.400000
770.128723	314.600000
770.165588	317.300000
770.202393	312.000000
770.239258	318.500000
770.276062	316.500000
770.312927	318.800000
770.349792	323.600000
770.386597	320.300000
770.423462	327.200000
770.460327	331.900000
770.497131	321.300000
770.533997	318.400000
770.570862	329.500000
770.607605	329.000000
770.644470	329.500000
770.681335	327.500000
770.718140	327.100000
770.754944	322.100000
770.791809	326.000000
770.828613	325.400000
770.865479	328.800000
770.902222	334.300000
770.939087	331.500000
770.975952	324.200000
771.012695	328.900000
771.049561	340.800000
771.086365	332.600000
771.123169	330.200000
771.159973	334.100000
771.196838	334.100000
771.233582	336.500000
771.270447	335.600000
771.307251	338.700000
771.344055	337.900000
771.380859	342.600000
771.417664	338.000000
771.454468	343.700000
771.491272	342.500000
771.528076	344.200000
771.564880	342.100000
771.601685	349.400000
771.638428	341.700000
771.675293	346.700000
771.712097	342.300000
771.748840	357.200000
771.785645	350.200000
771.822449	354.500000
771.859253	352.500000
771.896057	351.800000
771.932861	360.800000
771.969604	354.500000
772.006409	349.200000
772.043213	358.600000
772.079956	357.500000
772.116760	351.100000
772.153503	353.600000
772.190308	363.200000
772.227112	356.700000
772.263855	356.000000
772.300659	359.800000
772.337463	360.200000
772.374207	357.300000
772.411011	354.300000
772.447754	357.800000
772.484497	370.800000
772.521301	364.100000
772.558105	362.100000
772.594849	363.200000
772.631592	365.700000
772.668396	365.400000
772.705139	369.400000
772.741882	369.200000
772.778625	374.400000
772.815430	377.700000
772.852173	373.700000
772.888916	379.000000
772.925720	380.300000
772.962463	385.700000
772.999207	378.900000
773.035950	378.400000
773.072754	381.600000
773.109436	380.400000
773.146240	382.900000
773.182922	379.700000
773.219727	385.000000
773.256470	383.100000
773.293152	376.600000
773.329956	381.400000
773.366699	384.100000
773.403381	380.100000
773.440186	384.000000
773.476929	386.100000
773.513611	383.400000
773.550354	378.500000
773.587158	383.500000
773.623840	384.200000
773.660583	389.100000
773.697327	393.100000
773.734009	388.000000
773.770813	384.000000
773.807495	388.700000
773.844238	388.400000
773.880981	400.800000
773.917664	398.000000
773.954407	399.100000
773.991150	389.100000
774.027832	399.300000
774.064575	392.000000
774.101318	397.900000
774.138000	399.100000
774.174744	397.600000
774.211487	395.000000
774.248108	392.000000
774.284851	392.800000
774.321594	401.300000
774.358276	401.100000
774.395020	408.800000
774.431702	406.000000
774.468384	399.900000
774.505127	398.300000
774.541809	408.800000
774.578491	411.700000
774.615234	412.200000
774.651917	405.800000
774.688599	412.400000
774.725342	415.700000
774.762024	415.000000
774.798706	421.500000
774.835449	422.500000
774.872070	422.800000
774.908813	421.400000
774.945496	419.300000
774.982178	422.000000
775.018860	425.400000
775.055542	427.300000
775.092224	427.800000
775.128967	433.300000
775.165588	431.200000
775.202271	426.900000
775.239014	440.100000
775.275635	437.200000
775.312317	432.600000
775.349060	437.100000
775.385681	437.200000
775.422363	433.700000
775.459045	443.200000
775.495667	442.000000
775.532410	442.500000
775.569092	445.000000
775.605713	445.600000
775.642395	447.300000
775.679016	452.800000
775.715698	452.800000
775.752380	454.000000
775.789001	448.100000
775.825684	448.900000
775.862366	451.800000
775.898987	462.900000
775.935669	459.200000
775.972351	473.800000
776.008972	467.600000
776.045654	468.800000
776.082336	460.200000
776.118958	464.600000
776.155640	469.000000
776.192322	477.300000
776.228882	475.500000
776.265564	477.500000
776.302185	477.700000
776.338867	480.600000
776.375488	475.400000
776.412109	485.800000
776.448792	487.300000
776.485413	492.400000
776.522034	487.300000
776.558716	483.400000
776.595337	485.200000
776.631958	492.000000
776.668579	490.800000
776.705261	497.000000
776.741882	493.000000
776.778503	491.400000
776.815186	493.600000
776.851746	500.200000
776.888367	498.100000
776.924988	506.000000
776.961609	502.200000
776.998291	502.100000
777.034851	497.900000
777.071472	506.700000
777.108154	503.500000
777.144714	511.600000
777.181335	513.500000
777.218018	510.700000
777.254578	513.600000
777.291199	512.900000
777.327759	518.400000
777.364380	521.600000
777.401062	525.600000
777.437622	530.800000
777.474243	522.900000
777.510864	526.700000
777.547424	524.700000
777.584045	530.300000
777.620667	534.400000
777.657227	533.200000
777.693848	530.100000
777.730469	537.700000
777.767029	532.600000
777.803650	538.300000
777.840271	533.800000
777.876831	537.900000
777.913452	540.500000
777.950012	528.700000
777.986633	531.800000
778.023193	531.200000
778.059753	528.400000
778.096375	533.100000
778.132996	542.500000
778.169556	537.500000
778.206116	542.600000
778.242737	534.400000
778.279297	538.800000
778.315857	533.500000
778.352478	543.800000
778.389038	547.500000
778.425598	548.500000
778.462219	551.700000
778.498718	550.800000
778.535339	552.600000
778.571838	557.700000
778.608459	560.900000
778.645020	550.800000
778.681580	556.100000
778.718140	553.000000
778.754761	552.400000
778.791260	557.100000
778.827881	565.000000
778.864441	562.800000
778.900940	569.200000
778.937561	564.400000
778.974121	567.300000
779.010620	560.600000
779.047241	566.300000
779.083801	567.000000
779.120300	568.700000
779.156860	568.900000
779.193359	565.500000
779.229980	571.900000
779.266541	576.100000
779.303040	575.300000
779.339600	568.100000
779.376160	558.600000
779.412659	565.000000
779.449219	564.800000
779.485779	568.700000
779.522278	566.800000
779.558838	570.000000
779.595398	573.600000
779.631897	575.600000
779.668457	567.100000
779.705017	575.500000
779.741516	566.700000
779.778076	568.900000
779.814575	575.100000
779.851074	575.100000
779.887634	573.300000
779.924133	576.100000
779.960693	567.300000
779.997253	583.400000
780.033691	586.500000
780.070251	584.400000
780.106812	589.900000
780.143250	587.800000
780.179810	588.000000
780.216370	591.000000
780.252808	594.400000
780.289368	601.300000
780.325867	599.500000
780.362366	593.800000
780.398865	605.900000
780.435364	601.900000
780.471863	609.100000
780.508423	602.100000
780.544861	606.300000
780.581421	604.300000
780.617920	598.300000
780.654419	598.200000
780.690918	605.100000
780.727417	603.700000
780.763916	606.700000
780.800415	607.600000
780.836914	602.100000
780.873352	609.000000
780.909912	604.200000
780.946411	611.500000
780.982849	622.100000
781.019348	630.900000
781.055786	624.100000
781.092346	620.800000
781.128845	627.900000
781.165283	636.700000
781.201782	652.200000
781.238281	645.800000
781.274719	649.100000
781.311218	642.100000
781.347717	647.500000
781.384155	645.000000
781.420654	653.200000
781.457092	656.000000
781.493591	649.300000
781.530090	644.800000
781.566528	647.200000
781.602966	649.500000
781.639465	648.200000
781.675903	647.700000
781.712402	654.800000
781.748901	654.100000
781.785278	653.400000
781.821777	657.200000
781.858276	657.200000
781.894714	664.800000
781.931152	659.900000
781.967651	671.500000
782.004089	663.300000
782.040527	672.500000
782.076965	677.900000
782.113403	681.300000
782.149902	684.300000
782.186340	680.300000
782.222778	687.700000
782.259277	679.900000
782.295654	680.200000
782.332092	690.100000
782.368591	687.000000
782.404968	691.200000
782.441467	694.500000
782.477905	689.800000
782.514282	689.600000
782.550781	701.000000
782.587219	700.600000
782.623596	703.300000
782.660095	710.200000
782.696472	711.600000
782.732910	716.700000
782.769348	718.400000
782.805786	728.800000
782.842224	728.900000
782.878662	722.200000
782.915039	720.900000
782.951477	725.000000
782.987915	721.300000
783.024292	729.700000
783.060730	730.200000
783.097168	717.400000
783.133545	707.300000
783.169983	706.200000
783.206421	700.900000
783.242798	697.300000
783.279236	693.300000
783.315613	687.900000
783.352051	679.100000
783.388489	658.300000
783.424866	607.100000
783.461304	542.600000
783.497681	457.600000
783.534058	368.400000
783.570496	305.500000
783.606934	263.900000
783.643250	247.100000
783.679687	241.300000
783.716125	227.800000
783.752441	230.100000
783.788879	240.100000
783.825317	256.000000
783.861633	278.000000
783.898071	303.400000
783.934448	321.500000
783.970825	319.200000
784.007263	301.900000
784.043579	309.700000
784.080017	366.500000
784.116394	469.500000
784.152710	578.700000
784.189148	670.700000
784.225525	717.400000
784.261902	731.400000
784.298279	738.900000
784.334656	743.700000
784.371033	733.100000
784.407410	740.400000
784.443787	734.800000
784.480164	728.400000
784.516541	714.200000
784.552856	722.900000
784.589233	722.500000
784.625610	720.800000
784.661987	743.200000
784.698364	735.400000
784.734741	732.900000
784.771057	734.700000
784.807434	741.800000
784.843811	761.200000
784.880127	764.800000
784.916504	776.700000
784.952881	775.300000
784.989197	775.400000
785.025574	780.200000
785.061951	784.500000
785.098267	799.000000
785.134644	794.300000
785.170959	785.900000
785.207275	786.800000
785.243652	787.300000
785.279968	774.800000
785.316345	771.400000
785.352722	771.200000
785.388977	761.100000
785.425354	740.700000
785.461731	728.700000
785.498047	725.800000
785.534363	730.200000
785.570679	734.000000
785.606995	737.300000
785.643372	736.100000
785.679687	735.500000
785.716003	731.400000
785.752380	730.200000
785.788635	737.800000
785.825012	749.800000
785.861328	759.900000
785.897644	752.900000
785.933960	760.500000
785.970337	768.000000
786.006592	786.800000
786.042908	795.400000
786.079285	798.900000
786.115540	807.500000
786.151855	804.400000
786.188171	800.700000
786.224487	804.300000
786.260803	799.200000
786.297119	802.500000
786.333435	798.400000
786.369751	788.400000
786.406006	786.000000
786.442322	776.200000
786.478638	770.100000
786.514954	779.900000
786.551270	769.000000
786.587585	770.700000
786.623840	758.700000
786.660156	751.800000
786.696472	745.400000
786.732727	746.800000
786.769043	753.400000
786.805298	753.500000
786.841614	756.600000
786.877930	767.600000
786.914124	754.200000
786.950439	775.700000
786.986755	787.500000
787.023010	794.100000
787.059326	798.700000
787.095642	804.500000
787.131836	819.000000
787.168152	821.600000
787.204468	827.500000
787.240723	839.700000
787.276978	839.400000
787.313293	845.100000
787.349548	835.700000
787.385803	832.700000
787.422058	833.600000
787.458313	832.100000
787.494629	823.000000
787.530823	825.200000
787.567139	807.300000
787.603455	802.500000
787.639648	796.600000
787.675903	798.500000
787.712219	797.700000
787.748413	795.700000
787.784729	796.500000
787.820984	795.400000
787.857178	788.500000
787.893494	784.200000
787.929749	793.100000
787.965942	806.300000
788.002258	818.600000
788.038452	828.900000
788.074707	824.000000
788.110962	828.300000
788.147217	821.300000
788.183472	838.300000
788.219727	852.500000
788.255920	865.200000
788.292175	866.600000
788.328430	863.200000
788.364624	850.600000
788.400879	846.600000
788.437134	859.100000
788.473328	857.200000
788.509583	856.200000
788.545837	847.800000
788.582031	849.000000
788.618286	847.100000
788.654480	844.400000
788.690735	854.000000
788.726990	869.300000
788.763184	868.400000
788.799377	878.100000
788.835632	863.700000
788.871826	875.800000
788.908081	878.100000
788.944336	877.900000
788.980469	888.200000
789.016724	879.900000
789.052979	886.000000
789.089111	870.600000
789.125366	877.200000
789.161621	877.700000
789.197754	880.800000
789.234009	878.000000
789.270142	864.300000
789.306396	857.000000
789.342590	847.200000
789.378784	828.400000
789.414978	835.400000
789.451233	849.000000
789.487366	852.600000
789.523621	858.700000
789.559814	859.100000
789.595947	852.800000
789.632202	857.100000
789.668335	874.300000
789.704529	881.500000
789.740784	898.800000
789.776917	900.400000
789.813110	892.900000
789.849304	903.500000
789.885498	908.200000
789.921692	921.100000
789.957886	925.400000
789.994019	919.200000
790.030212	914.100000
790.066406	923.700000
790.102539	928.700000
790.138733	938.600000
790.174927	938.800000
790.211060	946.400000
790.247253	939.900000
790.283386	932.400000
790.319580	917.000000
790.355774	903.200000
790.391907	906.700000
790.428101	918.300000
790.464294	920.200000
790.500427	913.300000
790.536621	899.600000
790.572754	890.500000
790.608887	881.500000
790.645081	890.500000
790.681274	908.100000
790.717346	904.400000
790.753540	890.700000
790.789734	880.200000
790.825867	870.200000
790.862000	875.100000
790.898132	889.100000
790.934265	889.600000
790.970459	891.300000
791.006592	881.700000
791.042725	869.200000
791.078918	866.100000
791.114990	872.100000
791.151184	891.100000
791.187317	900.400000
791.223389	884.000000
791.259583	868.700000
791.295715	877.700000
791.331848	878.200000
791.367981	888.300000
791.404114	895.400000
791.440247	887.800000
791.476379	884.300000
791.512451	874.800000
791.548584	870.200000
791.584778	868.000000
791.620850	878.700000
791.656982	881.400000
791.693115	878.700000
791.729187	873.600000
791.765381	878.400000
791.801514	880.200000
791.837585	885.400000
791.873718	887.900000
791.909851	895.000000
791.945923	904.300000
791.982056	881.600000
792.018188	880.400000
792.054260	877.700000
792.090393	875.100000
792.126465	879.900000
792.162598	887.700000
792.198669	871.100000
792.234741	867.200000
792.270874	856.700000
792.307007	850.500000
792.343079	859.500000
792.379150	863.100000
792.415283	850.300000
792.451355	850.600000
792.487488	830.600000
792.523560	821.200000
792.559631	801.500000
792.595764	753.200000
792.631836	722.300000
792.667908	719.300000
792.703979	719.500000
792.740051	742.100000
792.776184	767.000000
792.812256	776.800000
792.848328	786.500000
792.884399	794.600000
792.920471	793.400000
792.956543	794.200000
792.992615	797.400000
793.028748	792.900000
793.064758	806.500000
793.100830	823.500000
793.136963	827.800000
793.172974	828.000000
793.209045	820.100000
793.245178	827.700000
793.281189	820.300000
793.317261	821.100000
793.353271	824.800000
793.389404	830.200000
793.425476	823.400000
793.461487	811.700000
793.497559	807.500000
793.533630	812.000000
793.569641	815.900000
793.605713	815.700000
793.641785	819.500000
793.677795	827.700000
793.713867	825.000000
793.749878	827.100000
793.785950	836.900000
793.822021	841.900000
793.858032	836.300000
793.894104	850.600000
793.930176	840.900000
793.966187	839.000000
794.002258	825.200000
794.038269	843.200000
794.074280	841.500000
794.110352	863.700000
794.146423	846.500000
794.182373	842.100000
794.218445	833.000000
794.254517	826.300000
794.290466	818.100000
794.326538	825.900000
794.362549	829.500000
794.398560	829.200000
794.434631	827.500000
794.470581	802.800000
794.506653	797.700000
794.542664	803.500000
794.578674	806.700000
794.614685	809.200000
794.650757	814.200000
794.686707	814.000000
794.722778	804.400000
794.758789	814.100000
794.794739	825.600000
794.830811	853.400000
794.866821	859.700000
794.902771	865.800000
794.938843	858.000000
794.974792	857.700000
795.010803	858.000000
795.046814	857.200000
795.082825	846.200000
795.118835	858.400000
795.154846	835.900000
795.190796	839.400000
795.226807	823.500000
795.262817	826.400000
795.298767	829.200000
795.334778	842.300000
795.370850	839.200000
795.406799	834.000000
795.442810	814.900000
795.478821	813.400000
795.514709	819.500000
795.550720	846.400000
795.586670	825.300000
795.622681	830.600000
795.658691	832.800000
795.694641	833.300000
795.730652	822.800000
795.766663	833.000000
795.802551	834.800000
795.838562	842.700000
795.874573	832.300000
795.910522	828.400000
795.946472	819.400000
795.982483	824.000000
796.018433	826.300000
796.054382	834.700000
796.090393	827.700000
796.126282	815.100000
796.162292	806.800000
796.198242	803.900000
796.234192	810.800000
796.270203	810.400000
796.306091	818.300000
796.342041	820.700000
796.378052	812.100000
796.413940	811.500000
796.449951	811.900000
796.485901	815.300000
796.521790	831.700000
796.557800	841.600000
796.593689	840.200000
796.629639	827.700000
796.665649	821.100000
796.701599	817.600000
796.737488	819.800000
796.773437	825.800000
796.809387	830.400000
796.845337	833.000000
796.881287	824.800000
796.917175	808.800000
796.953125	811.600000
796.989075	818.400000
797.024963	816.700000
797.060913	814.100000
797.096863	809.800000
797.132751	797.600000
797.168701	790.500000
797.204590	801.300000
797.240540	804.200000
797.276489	806.800000
797.312439	813.900000
797.348328	803.800000
797.384277	796.000000
797.420166	787.500000
797.456055	795.700000
797.492004	800.400000
797.527893	805.400000
797.563843	803.900000
797.599731	797.700000
797.635620	793.200000
797.671570	793.900000
797.707520	797.300000
797.743347	792.100000
797.779297	807.000000
797.815125	792.700000
797.851074	776.100000
797.887024	771.600000
797.922913	775.700000
797.958801	783.900000
797.994690	786.800000
798.030579	787.800000
798.066467	785.400000
798.102356	772.900000
798.138245	772.800000
798.174133	770.400000
798.210083	777.900000
798.245911	785.700000
798.281799	782.900000
798.317749	777.400000
798.353577	776.000000
798.389465	770.900000
798.425293	773.400000
798.461243	771.600000
798.497131	778.000000
798.532959	780.200000
798.568848	778.400000
798.604736	768.400000
798.640564	753.800000
798.676453	750.600000
798.712402	761.400000
798.748230	760.300000
798.784119	766.500000
798.820007	759.600000
798.855835	755.300000
798.891724	751.500000
798.927551	752.800000
798.963379	757.400000
798.999268	757.500000
799.035095	744.100000
799.070984	736.800000
799.106873	729.700000
799.142700	740.200000
799.178528	730.400000
799.214417	736.100000
799.250244	747.000000
799.286133	742.700000
799.321960	739.500000
799.357788	733.900000
799.393677	734.900000
799.429504	737.000000
799.465332	741.700000
799.501221	746.000000
799.537048	742.300000
799.572876	735.800000
799.608704	735.800000
799.644531	749.100000
799.680359	745.800000
799.716248	755.200000
799.752014	757.000000
799.787903	746.100000
799.823730	741.700000
799.859558	737.000000
799.895386	735.500000
799.931213	733.300000
799.967041	736.600000
800.002869	730.900000
800.038696	743.100000
800.074463	728.200000
800.110352	732.200000
800.146179	721.600000
800.181946	726.400000
800.217773	728.900000
800.253540	730.200000
800.289429	719.700000
800.325256	723.400000
800.361023	717.900000
800.396851	722.300000
800.432678	725.400000
800.468445	725.800000
800.504272	726.500000
800.540100	712.700000
800.575867	710.600000
800.611694	716.100000
800.647461	716.100000
800.683289	719.500000
800.719116	724.500000
800.754883	718.400000
800.790649	702.200000
800.826477	702.500000
800.862244	717.000000
800.898071	704.500000
800.933838	704.800000
800.969604	709.600000
801.005432	705.600000
801.041199	700.300000
801.076965	695.800000
801.112793	692.100000
801.148560	687.000000
801.184326	685.900000
801.220154	688.300000
801.255859	683.200000
801.291687	682.000000
801.327454	675.200000
801.363281	680.900000
801.398987	675.300000
801.434814	678.600000
801.470520	685.500000
801.506287	674.700000
801.542114	663.400000
801.577820	667.500000
801.613647	668.400000
801.649414	672.900000
801.685120	665.100000
801.720886	670.200000
801.756714	662.600000
801.792419	657.300000
801.828186	659.400000
801.863892	661.900000
801.899719	657.900000
801.935486	650.600000
801.971252	656.500000
802.006958	652.000000
802.042725	653.300000
802.078430	651.700000
802.114197	647.900000
802.149963	659.700000
802.185669	646.700000
802.221436	651.300000
802.257202	648.300000
802.292908	646.900000
802.328674	651.300000
802.364441	656.400000
802.400146	652.500000
802.435913	646.100000
802.471558	646.200000
802.507324	650.800000
802.543091	643.600000
802.578796	650.300000
802.614502	651.300000
802.650269	655.700000
802.685974	641.700000
802.721741	636.600000
802.757446	645.900000
802.793152	648.100000
802.828918	653.000000
802.864624	646.100000
802.900330	647.300000
802.936035	643.200000
802.971802	639.100000
803.007446	632.300000
803.043213	627.300000
803.078857	641.100000
803.114624	628.700000
803.150330	632.300000
803.185974	626.500000
803.221741	628.800000
803.257446	637.400000
803.293152	635.300000
803.328857	631.200000
803.364563	627.200000
803.400208	621.400000
803.435974	624.700000
803.471680	618.200000
803.507324	617.900000
803.543030	628.900000
803.578735	629.000000
803.614441	625.200000
803.650146	628.700000
803.685791	614.700000
803.721497	617.300000
803.757202	612.000000
803.792847	616.300000
803.828552	609.200000
803.864258	606.600000
803.899902	605.500000
803.935608	599.500000
803.971313	601.300000
804.006958	600.300000
804.042664	604.700000
804.078308	606.000000
804.113953	595.700000
804.149658	599.900000
804.185364	587.100000
804.221008	604.200000
804.256714	581.100000
804.292297	585.200000
804.328003	585.300000
804.363708	586.100000
804.399292	588.700000
804.434998	582.900000
804.470703	580.000000
804.506287	590.000000
804.541992	580.400000
804.577637	581.900000
804.613281	573.500000
804.648926	565.700000
804.684570	569.700000
804.720215	567.000000
804.755920	567.100000
804.791565	568.600000
804.827209	572.000000
804.862854	564.500000
804.898437	557.400000
804.934143	562.900000
804.969788	564.700000
805.005371	563.200000
805.041077	565.000000
805.076721	568.200000
805.112305	556.100000
805.147949	554.500000
805.183655	546.900000
805.219238	551.500000
805.254883	548.300000
805.290466	553.600000
805.326111	547.500000
805.361755	541.300000
805.397400	542.200000
805.432983	545.300000
805.468628	547.000000
805.504211	552.700000
805.539856	546.700000
805.575500	547.900000
805.611084	542.700000
805.646729	534.700000
805.682373	538.900000
805.717957	546.500000
805.753601	549.000000
805.789246	536.200000
805.824768	540.100000
805.860413	542.900000
805.895996	536.500000
805.931641	533.500000
805.967224	539.900000
806.002869	533.800000
806.038452	542.100000
806.074036	544.000000
806.109619	532.000000
806.145264	528.200000
806.180847	529.500000
806.216431	523.100000
806.252014	525.500000
806.287659	528.100000
806.323181	533.100000
806.358826	526.500000
806.394409	513.200000
806.429993	516.100000
806.465576	524.800000
806.501160	518.900000
806.536743	515.200000
806.572327	521.200000
806.607910	514.700000
806.643494	512.700000
806.679077	510.000000
806.714661	511.100000
806.750244	512.200000
806.785828	503.300000
806.821350	508.100000
806.856934	509.800000
806.892517	502.900000
806.928101	504.100000
806.963684	505.300000
806.999268	509.600000
807.034790	491.800000
807.070374	497.700000
807.105896	492.300000
807.141479	491.900000
807.177063	494.600000
807.212585	490.600000
807.248169	493.000000
807.283752	494.400000
807.319275	492.000000
807.354858	492.200000
807.390381	487.200000
807.425903	486.000000
807.461487	484.100000
807.497070	479.700000
807.532593	479.400000
807.568115	477.800000
807.603699	473.700000
807.639221	471.200000
807.674744	473.800000
807.710266	476.100000
807.745850	480.100000
807.781372	475.800000
807.816895	470.400000
807.852417	471.800000
807.888000	468.300000
807.923523	467.400000
807.959045	469.000000
807.994629	463.400000
808.030090	464.600000
808.065613	466.900000
808.101135	469.000000
808.136658	466.400000
808.172241	463.300000
808.207764	467.000000
808.243225	462.500000
808.278809	457.900000
808.314270	461.100000
808.349792	455.700000
808.385315	454.000000
808.420837	455.000000
808.456360	458.200000
808.491882	458.000000
808.527344	455.700000
808.562866	459.000000
808.598389	453.300000
808.633850	454.800000
808.669434	449.900000
808.704895	453.800000
808.740417	457.900000
808.775940	450.400000
808.811462	447.900000
808.846924	446.700000
808.882385	441.400000
808.917847	442.700000
808.953369	445.700000
808.988892	441.000000
809.024353	447.700000
809.059875	448.000000
809.095398	444.300000
809.130798	440.100000
809.166321	441.500000
809.201843	439.100000
809.237305	440.800000
809.272766	442.000000
809.308228	433.800000
809.343750	433.100000
809.379211	433.200000
809.414734	428.700000
809.450134	436.600000
809.485657	424.300000
809.521118	431.800000
809.556580	426.800000
809.592102	427.400000
809.627502	423.200000
809.663025	422.100000
809.698486	419.000000
809.733887	417.700000
809.769409	418.300000
809.804871	410.900000
809.840271	412.000000
809.875793	416.200000
809.911194	421.300000
809.946655	411.300000
809.982178	407.300000
810.017639	413.500000
810.053040	408.800000
810.088501	407.700000
810.123901	404.200000
810.159424	402.600000
810.194885	401.900000
810.230286	403.100000
810.265747	398.500000
810.301208	396.600000
810.336609	397.300000
810.372070	394.400000
810.407532	393.300000
810.442932	396.600000
810.478394	395.400000
810.513794	393.000000
810.549255	394.300000
810.584717	390.400000
810.620117	386.400000
810.655518	389.600000
810.690979	389.400000
810.726379	385.500000
810.761841	382.700000
810.797302	379.200000
810.832642	376.600000
810.868103	384.400000
810.903564	378.200000
810.938904	384.500000
810.974365	371.900000
811.009827	374.200000
811.045166	370.100000
811.080627	364.100000
811.115967	369.400000
811.151428	372.800000
811.186829	369.300000
811.222229	369.100000
811.257629	363.600000
811.293091	365.800000
811.328430	374.400000
811.363892	367.300000
811.399292	372.400000
811.434631	363.500000
811.470093	367.600000
811.505493	360.800000
811.540833	361.800000
811.576294	364.600000
811.611694	361.700000
811.647034	356.000000
811.682434	360.100000
811.717773	359.200000
811.753235	364.600000
811.788635	357.800000
811.823975	357.600000
811.859375	361.700000
811.894775	353.800000
811.930115	353.400000
811.965515	351.200000
812.000916	353.200000
812.036255	349.500000
812.071655	353.600000
812.106995	349.800000
812.142395	352.000000
812.177795	357.000000
812.213196	355.200000
812.248474	352.700000
812.283875	345.100000
812.319214	350.400000
812.354614	348.000000
812.390015	345.600000
812.425293	345.300000
812.460693	346.300000
812.496094	340.400000
812.531433	336.100000
812.566772	339.200000
812.602173	339.400000
812.637451	341.500000
812.672852	335.900000
812.708191	336.500000
812.743530	330.100000
812.778931	330.100000
812.814270	328.800000
812.849609	332.900000
812.884949	330.600000
812.920227	325.600000
812.955627	335.000000
812.990967	329.100000
813.026306	323.300000
813.061646	316.800000
813.096985	313.300000
813.132324	312.700000
813.167664	317.900000
813.203003	320.600000
813.238281	312.400000
813.273682	311.700000
813.308960	308.500000
813.344299	311.300000
813.379639	315.300000
813.414978	308.300000
813.450256	309.500000
813.485596	310.600000
813.520874	303.700000
813.556213	305.700000
813.591614	308.500000
813.626831	300.900000
813.662170	305.200000
813.697510	310.900000
813.732788	301.000000
813.768127	304.000000
813.803467	304.300000
813.838745	301.300000
813.874084	305.300000
813.909363	300.800000
813.944641	302.700000
813.979980	294.300000
814.015320	296.800000
814.050598	296.800000
814.085876	297.500000
814.121155	295.600000
814.156494	295.300000
814.191772	295.000000
814.227051	292.300000
814.262390	295.000000
814.297668	292.200000
814.332947	292.400000
814.368225	288.400000
814.403564	287.300000
814.438782	287.000000
814.474121	289.900000
814.509338	287.500000
814.544617	291.000000
814.579956	284.400000
814.615173	291.700000
814.650513	286.500000
814.685791	284.100000
814.721008	284.900000
814.756348	283.900000
814.791626	282.200000
814.826843	280.900000
814.862122	281.300000
814.897400	280.600000
814.932678	282.400000
814.967957	281.800000
815.003235	281.400000
815.038452	278.300000
815.073730	275.000000
815.108948	284.400000
815.144226	282.500000
815.179504	283.800000
815.214722	274.100000
815.250000	270.900000
815.285278	275.700000
815.320496	271.200000
815.355774	273.700000
815.391052	276.100000
815.426270	273.000000
815.461487	270.400000
815.496765	266.400000
815.531982	263.700000
815.567261	270.500000
815.602539	275.000000
815.637695	272.700000
815.672974	272.400000
815.708191	272.700000
815.743408	272.100000
815.778687	268.100000
815.813904	272.600000
815.849121	261.700000
815.884399	261.700000
815.919556	259.900000
815.954834	261.700000
815.990051	263.400000
816.025269	264.800000
816.060486	258.500000
816.095703	258.000000
816.130920	258.400000
816.166199	256.900000
816.201416	256.800000
816.236572	261.500000
816.271851	256.900000
816.307007	258.500000
816.342224	251.100000
816.377441	255.200000
816.412659	248.000000
816.447876	256.000000
816.483093	249.500000
816.518250	251.100000
816.553467	248.600000
816.588745	252.500000
816.623901	244.800000
816.659119	243.100000
816.694275	245.000000
816.729492	244.300000
816.764709	271.100000
816.799927	240.800000
816.835083	244.300000
816.870300	239.200000
816.905457	241.900000
816.940674	243.100000
816.975830	238.700000
817.010986	237.400000
817.046204	239.300000
817.081421	235.700000
817.116577	234.700000
817.151733	243.400000
817.186951	240.400000
817.222107	239.000000
817.257324	240.700000
817.292419	238.600000
817.327637	233.100000
817.362854	235.900000
817.398010	232.200000
817.433167	235.400000
817.468323	233.900000
817.503479	235.300000
817.538635	241.400000
817.573853	234.400000
817.608948	232.300000
817.644165	231.700000
817.679321	231.300000
817.714478	228.900000
817.749634	231.100000
817.784790	237.900000
817.819946	234.800000
817.855103	223.200000
817.890198	227.900000
817.925415	221.600000
817.960571	231.100000
817.995667	228.200000
818.030823	228.200000
818.066040	223.500000
818.101135	226.500000
818.136292	226.500000
818.171448	221.500000
818.206543	222.200000
818.241699	224.200000
818.276855	223.600000
818.311951	221.600000
818.347107	219.500000
818.382263	224.800000
818.417358	227.700000
818.452515	226.700000
818.487610	227.600000
818.522766	218.800000
818.557922	226.000000
818.593018	223.500000
818.628113	220.100000
818.663269	217.300000
818.698364	219.400000
818.733521	218.100000
818.768677	218.700000
818.803711	214.800000
818.838867	215.600000
818.874023	216.700000
818.909058	215.400000
818.944214	213.700000
818.979370	217.100000
819.014404	216.400000
819.049561	212.800000
819.084595	216.400000
819.119751	211.100000
819.154846	214.700000
819.189941	213.600000
819.225037	210.500000
819.260193	205.700000
819.295227	208.000000
819.330322	204.400000
819.365479	203.400000
819.400513	239.600000
819.435608	204.000000
819.470764	201.700000
819.505798	203.100000
819.540894	204.400000
819.575989	202.300000
819.611084	208.300000
819.646179	210.200000
819.681213	206.300000
819.716309	201.900000
819.751404	205.500000
819.786438	207.700000
819.821533	200.900000
819.856628	202.700000
819.891663	204.200000
819.926758	210.600000
819.961853	208.200000
819.996887	200.700000
820.031982	203.600000
820.067017	201.200000
820.102112	234.200000
820.137207	198.600000
820.172302	210.700000
820.207275	196.600000
820.242371	198.800000
820.277405	198.700000
820.312500	200.500000
820.347534	201.300000
820.382568	204.800000
820.417664	198.700000
820.452759	198.700000
820.487732	195.900000
820.522827	198.400000
820.557861	195.900000
820.592896	197.800000
820.627930	197.800000
820.662964	195.800000
820.698059	199.700000
820.733093	194.900000
820.768127	198.500000
820.803162	196.100000
820.838196	194.700000
820.873230	196.100000
820.908264	198.700000
820.943298	194.400000
820.978333	199.300000
821.013367	195.000000
821.048401	200.000000
821.083435	197.300000
821.118469	190.100000
821.153503	198.700000
821.188477	197.100000
821.223511	190.400000
821.258484	195.100000
821.293579	196.400000
821.328613	192.100000
821.363647	192.900000
821.398621	190.000000
821.433655	192.100000
821.468628	202.100000
821.503662	192.200000
821.538696	195.200000
821.573669	188.700000
821.608704	196.500000
821.643677	190.200000
821.678650	196.900000
821.713684	198.400000
821.748718	192.200000
821.783691	191.300000
821.818726	193.200000
821.853638	193.600000
821.888672	190.800000
821.923706	191.900000
821.958618	191.400000
821.993652	190.600000
822.028687	195.900000
822.063599	198.100000
822.098633	193.200000
822.133667	189.400000
822.168579	192.300000
822.203613	193.300000
822.238586	189.000000
822.273560	194.300000
822.308533	189.600000
822.343567	190.100000
822.378479	190.100000
822.413452	190.200000
822.448425	189.000000
822.483398	194.200000
822.518372	194.100000
822.553345	188.900000
822.588318	196.800000
822.623291	190.600000
822.658203	189.100000
822.693237	192.000000
822.728210	187.500000
822.763123	191.500000
822.798096	188.100000
822.833069	189.000000
822.867981	189.600000
822.902954	192.000000
822.937927	191.300000
822.972900	196.800000
823.007874	184.700000
823.042725	193.800000
823.077698	196.400000
823.112671	186.500000
823.147583	187.300000
823.182556	191.500000
823.217529	193.200000
823.252441	187.000000
823.287415	196.300000
823.322388	193.700000
823.357239	188.700000
823.392212	195.100000
823.427185	194.600000
823.462097	187.000000
823.497009	190.800000
823.531982	187.500000
823.566895	189.400000
823.601807	186.700000
823.636719	188.500000
823.671631	192.500000
823.706604	187.300000
823.741455	190.700000
823.776428	185.000000
823.811340	191.500000
823.846252	194.700000
823.881165	194.900000
823.916138	189.700000
823.950989	196.300000
823.985901	187.800000
824.020813	190.400000
824.055725	188.700000
824.090637	185.800000
824.125610	190.100000
824.160461	191.700000
824.195374	190.800000
824.230225	193.000000
824.265198	184.100000
824.300110	185.700000
824.334961	195.500000
824.369873	181.600000
824.404785	190.800000
824.439636	191.900000
824.474548	183.500000
824.509460	181.700000
824.544312	193.000000
824.579224	189.600000
824.614075	190.100000
824.648987	186.500000
824.683899	188.100000
824.718811	185.700000
824.753662	191.900000
824.788574	190.500000
824.823364	189.200000
824.858276	183.700000
824.893188	190.000000
824.928040	189.000000
824.962952	189.000000
824.997803	189.500000
825.032654	188.900000
825.067566	188.500000
825.102417	184.600000
825.137268	185.600000
825.172119	186.900000
825.206970	184.200000
825.241882	186.000000
825.276733	182.500000
825.311646	184.700000
825.346436	183.200000
825.381348	183.400000
825.416138	185.200000
825.450989	183.300000
825.485901	179.000000
825.520691	180.700000
825.555542	181.300000
825.590454	185.100000
825.625244	180.200000
825.660095	190.100000
825.695007	187.800000
825.729797	183.500000
825.764648	182.400000
825.799438	183.500000
825.834290	183.900000
825.869202	179.800000
825.903992	185.100000
825.938843	182.400000
825.973694	179.100000
826.008484	191.700000
826.043335	181.600000
826.078186	177.700000
826.112976	187.300000
826.147827	186.600000
826.182678	189.300000
826.217468	176.900000
826.252319	187.500000
826.287109	177.900000
826.321899	186.900000
826.356750	180.500000
826.391541	179.100000
826.426392	185.000000
826.461182	182.500000
826.495972	177.400000
826.530823	175.500000
826.565613	181.500000
826.600403	178.000000
826.635254	182.000000
826.670044	176.800000
826.704834	177.900000
826.739685	179.300000
826.774475	183.300000
826.809265	181.400000
826.844055	179.500000
826.878906	186.500000
826.913635	182.500000
826.948425	183.800000
826.983215	183.300000
827.018005	185.600000
827.052856	179.700000
827.087585	184.700000
827.122375	176.200000
827.157227	180.800000
827.191956	192.000000
827.226746	179.900000
827.261536	183.100000
827.296265	178.800000
827.331116	180.100000
827.365906	184.000000
827.400635	179.600000
827.435425	176.700000
827.470215	185.800000
827.504944	180.900000
827.539734	185.100000
827.574463	181.200000
827.609253	187.100000
827.644043	180.100000
827.678772	185.200000
827.713562	179.100000
827.748352	181.100000
827.783081	178.600000
827.817871	183.700000
827.852600	179.100000
827.887329	180.800000
827.922119	174.500000
827.956848	182.500000
827.991638	189.700000
828.026367	182.700000
828.061157	181.500000
828.095886	182.900000
828.130615	192.000000
828.165344	174.600000
828.200073	179.800000
828.234863	181.100000
828.269592	180.500000
828.304321	184.200000
828.339111	180.400000
828.373779	178.500000
828.408569	184.400000
828.443298	184.700000
828.477966	179.800000
828.512756	182.100000
828.547424	176.200000
828.582214	180.500000
828.616943	181.000000
828.651672	180.400000
828.686340	184.400000
828.721130	179.500000
828.755798	181.600000
828.790527	182.200000
828.825256	181.900000
828.859924	181.600000
828.894714	185.800000
828.929443	187.800000
828.964111	180.400000
828.998840	184.500000
829.033569	178.700000
829.068237	181.900000
829.102966	180.800000
829.137634	181.300000
829.172363	184.200000
829.207092	183.300000
829.241821	180.000000
829.276489	176.200000
829.311157	181.000000
829.345825	180.600000
829.380554	185.300000
829.415283	178.600000
829.449951	177.000000
829.484619	187.100000
829.519348	187.100000
829.554016	180.700000
829.588745	181.900000
829.623413	176.200000
829.658081	188.400000
829.692749	177.100000
829.727417	185.300000
829.762146	182.800000
829.796814	179.800000
829.831482	180.900000
829.866150	182.400000
829.900879	178.500000
829.935486	181.900000
829.970154	178.800000
830.004883	188.700000
830.039490	181.200000
830.074219	178.000000
830.108887	180.400000
830.143494	179.800000
830.178223	176.400000
830.212891	180.100000
830.247498	181.600000
830.282166	187.500000
830.316772	185.500000
830.351501	180.100000
830.386169	181.500000
830.420776	180.900000
830.455444	182.800000
830.490112	180.100000
830.524719	176.700000
830.559387	183.000000
830.594055	183.300000
830.628662	181.900000
830.663330	182.200000
830.697998	187.500000
830.732605	181.900000
830.767273	181.400000
830.801941	180.400000
830.836487	188.100000
830.871155	182.600000
830.905762	183.500000
830.940430	176.800000
830.975098	177.900000
831.009644	180.800000
831.044312	185.900000
831.078979	183.000000
831.113525	175.000000
831.148193	182.000000
831.182861	179.900000
831.217407	184.400000
831.252075	191.000000
831.286621	180.100000
831.321289	178.200000
831.355896	181.900000
831.390564	185.100000
831.425110	182.400000
831.459778	184.500000
831.494324	189.800000
831.528931	181.900000
831.563599	185.300000
831.598145	176.400000
831.632751	181.600000
831.667419	179.700000
831.701965	182.600000
831.736572	183.400000
831.771179	178.000000
831.805786	180.200000
831.840393	186.000000
831.874939	176.400000
831.909546	184.100000
831.944153	176.900000
831.978760	181.000000
832.013306	177.700000
832.047913	187.000000
832.082458	188.500000
832.117065	178.900000
832.151672	188.900000
832.186218	183.600000
832.220825	184.500000
832.255432	177.100000
832.289978	180.300000
832.324585	183.200000
832.359192	182.900000
832.393677	182.100000
832.428284	182.400000
832.462830	181.300000
832.497437	180.800000
832.531982	183.700000
832.566589	180.500000
832.601135	181.500000
832.635681	175.100000
832.670227	180.200000
832.704773	186.700000
832.739380	181.900000
832.773926	183.000000
832.808472	179.500000
832.843079	181.100000
832.877563	182.600000
832.912170	179.400000
832.946716	175.100000
832.981201	184.400000
833.015808	181.900000
833.050293	181.400000
833.084839	176.500000
833.119446	180.200000
833.153992	184.600000
833.188477	181.600000
833.223022	180.100000
833.257568	183.000000
833.292114	185.300000
833.326660	189.600000
833.361145	179.900000
833.395691	175.800000
833.430237	181.100000
833.464783	183.900000
833.499329	178.400000
833.533875	179.000000
833.568359	182.700000
833.602905	186.000000
833.637390	186.300000
833.671875	180.000000
833.706421	180.100000
833.740906	179.200000
833.775452	175.000000
833.809998	180.600000
833.844482	186.800000
833.879028	179.700000
833.913513	180.600000
833.947998	184.500000
833.982544	179.500000
834.017090	179.700000
834.051514	174.700000
834.086060	182.100000
834.120544	181.900000
834.155029	182.700000
834.189575	180.800000
834.223999	182.400000
834.258545	182.500000
834.293030	181.800000
834.327515	181.600000
834.362000	179.400000
834.396545	183.700000
834.430969	179.300000
834.465454	184.800000
834.500000	176.500000
834.534424	182.800000
834.568970	174.000000
834.603455	174.600000
834.637878	177.500000
834.672363	181.900000
834.706909	181.800000
834.741333	181.900000
834.775818	176.700000
834.810242	178.200000
834.844727	180.900000
834.879211	180.600000
834.913635	180.000000
834.948181	182.800000
834.982666	181.400000
835.017090	181.000000
835.051575	181.900000
835.086060	179.100000
835.120483	183.300000
835.154907	183.700000
835.189331	181.500000
835.223816	183.900000
835.258301	176.200000
835.292786	179.200000
835.327209	183.800000
835.361694	178.900000
835.396057	179.600000
835.430542	183.400000
835.465027	182.000000
835.499390	178.700000
835.533875	209.200000
835.568359	180.900000
835.602722	177.400000
835.637207	183.700000
835.671692	176.900000
835.706055	196.200000
835.740540	182.500000
835.774902	182.600000
835.809387	182.700000
835.843811	176.300000
835.878235	186.600000
835.912659	177.500000
835.947083	179.000000
835.981506	180.400000
836.015930	177.200000
836.050354	184.800000
836.084778	187.300000
836.119202	183.400000
836.153625	193.300000
836.187988	177.200000
836.222473	178.400000
836.256897	181.200000
836.291260	181.000000
836.325684	182.000000
836.360046	179.200000
836.394470	180.900000
836.428894	185.300000
836.463318	178.100000
836.497681	183.900000
836.532104	185.200000
836.566467	181.200000
836.600891	179.400000
836.635315	184.100000
836.669678	183.400000
836.704102	184.300000
836.738525	181.800000
836.772888	175.400000
836.807251	179.500000
836.841675	182.900000
836.876038	178.400000
836.910461	180.300000
836.944763	184.900000
836.979187	180.000000
837.013611	185.800000
837.047974	178.500000
837.082336	191.000000
837.116699	184.700000
837.151062	180.800000
837.185486	177.400000
837.219849	181.400000
837.254211	185.800000
837.288574	180.700000
837.322937	179.000000
837.357300	174.100000
837.391663	189.900000
837.426086	184.700000
837.460388	181.200000
837.494751	183.700000
837.529114	179.600000
837.563477	186.500000
837.597839	181.200000
837.632141	181.800000
837.666565	178.600000
837.700928	184.100000
837.735229	182.900000
837.769592	184.700000
837.803955	183.500000
837.838257	181.200000
837.872620	177.300000
837.906982	186.800000
837.941284	180.700000
837.975647	183.200000
838.010010	184.500000
838.044312	180.600000
838.078674	180.100000
838.112976	182.500000
838.147339	182.900000
838.181702	181.900000
838.216003	186.700000
838.250366	182.600000
838.284668	183.700000
838.318970	177.200000
838.353333	179.900000
838.387634	181.400000
838.421936	182.100000
838.456299	182.600000
838.490601	187.400000
838.524902	186.100000
838.559265	185.300000
838.593567	185.800000
838.627869	178.600000
838.662170	182.900000
838.696472	177.900000
838.730774	179.200000
838.765137	183.800000
838.799377	173.200000
838.833740	183.300000
838.868042	186.200000
838.902283	176.400000
838.936646	186.400000
838.970947	183.300000
839.005188	187.100000
839.039551	177.000000
839.073792	187.300000
839.108093	180.100000
839.142395	187.800000
839.176697	176.900000
839.210937	183.000000
839.245300	189.300000
839.279541	176.700000
839.313843	180.700000
839.348145	182.800000
839.382385	184.700000
839.416687	184.000000
839.450989	182.500000
839.485229	181.100000
839.519531	178.800000
839.553833	185.100000
839.588013	181.600000
839.622314	182.100000
839.656555	183.300000
839.690857	181.300000
839.725159	177.500000
839.759460	180.200000
839.793640	179.400000
839.827942	181.100000
839.862183	178.400000
839.896423	182.600000
839.930725	191.900000
839.964966	187.600000
839.999207	185.800000
840.033508	186.700000
840.067688	179.500000
840.101990	187.300000
840.136230	182.500000
840.170471	187.800000
840.204712	179.600000
840.238953	179.400000
840.273193	182.900000
840.307434	185.100000
840.341736	180.500000
840.375916	178.100000
840.410217	179.200000
840.444397	185.200000
840.478638	183.500000
840.512878	186.000000
840.547119	182.500000
840.581360	185.700000
840.615601	188.800000
840.649780	190.100000
840.684021	181.100000
840.718262	188.800000
840.752441	187.500000
840.786682	183.800000
840.820862	182.500000
840.855103	188.600000
840.889343	180.900000
840.923584	185.600000
840.957764	182.100000
840.992004	182.400000
841.026184	190.600000
841.060425	180.800000
841.094666	178.700000
841.128845	185.100000
841.163025	180.600000
841.197266	184.300000
841.231445	181.000000
841.265686	184.000000
841.299866	178.100000
841.334045	187.800000
841.368286	180.700000
841.402405	187.400000
841.436646	182.900000
841.470825	180.100000
841.505005	180.700000
841.539185	179.700000
841.573425	178.600000
841.607544	182.600000
841.641785	181.400000
841.675964	178.400000
841.710144	183.100000
841.744324	180.100000
841.778503	181.600000
841.812683	180.300000
841.846863	187.400000
841.881042	188.300000
841.915222	180.500000
841.949402	193.000000
841.983521	176.700000
842.017700	181.100000
842.051880	182.400000
842.086060	184.400000
842.120239	183.000000
842.154419	180.100000
842.188538	182.300000
842.222717	180.200000
842.256897	188.700000
842.291016	181.900000
842.325195	184.600000
842.359375	189.800000
842.393494	187.900000
842.427673	181.900000
842.461853	182.400000
842.495911	189.700000
842.530090	182.900000
842.564209	181.800000
842.598389	182.600000
842.632568	182.700000
842.666626	184.400000
842.700806	178.600000
842.734985	180.600000
842.769043	182.900000
842.803223	181.100000
842.837402	180.700000
842.871460	179.500000
842.905640	189.400000
842.939697	179.400000
842.973877	182.000000
843.007996	185.600000
843.042175	189.800000
843.076233	180.700000
843.110413	183.300000
843.144470	187.700000
843.178589	186.500000
843.212769	180.800000
843.246826	186.200000
843.280945	181.300000
843.315125	180.800000
843.349182	179.700000
843.383301	186.300000
843.417419	191.600000
843.451538	182.300000
843.485657	181.000000
843.519714	182.300000
843.553833	183.400000
843.587952	182.200000
843.622070	179.600000
843.656128	185.300000
843.690247	180.500000
843.724304	183.000000
843.758423	184.000000
843.792542	181.500000
843.826599	183.000000
843.860718	180.900000
843.894836	177.200000
843.928894	182.100000
843.963013	182.100000
843.997070	179.800000
844.031128	177.200000
844.065247	184.600000
844.099304	185.000000
844.133362	183.400000
844.167480	183.600000
844.201599	186.800000
844.235596	183.300000
844.269714	185.100000
844.303711	183.200000
844.337830	177.100000
844.371948	183.000000
844.405945	183.900000
844.440063	176.900000
844.474121	192.100000
844.508118	179.600000
844.542236	181.700000
844.576294	181.500000
844.610352	178.600000
844.644409	181.200000
844.678406	177.700000
844.712524	186.500000
844.746582	186.700000
844.780640	182.800000
844.814636	181.600000
844.848755	190.300000
844.882751	181.600000
844.916809	183.600000
844.950867	184.400000
844.984863	188.900000
845.018921	181.900000
845.052979	180.400000
845.086975	184.000000
845.121033	179.000000
845.155090	180.100000
845.189087	186.700000
845.223145	181.500000
845.257141	185.400000
845.291199	184.100000
845.325256	185.900000
845.359253	183.700000
845.393250	192.700000
845.427307	180.700000
845.461304	183.200000
845.495361	183.600000
845.529358	190.400000
845.563354	181.100000
845.597412	179.400000
845.631409	188.600000
845.665405	186.800000
845.699463	184.900000
845.733459	179.300000
845.767456	189.700000
845.801453	181.700000
845.835449	186.500000
845.869446	184.900000
845.903503	183.700000
845.937439	178.500000
845.971497	186.400000
846.005493	178.300000
846.039429	184.900000
846.073486	189.100000
846.107483	180.500000
846.141418	182.600000
846.175476	182.500000
846.209473	187.000000
846.243408	178.600000
846.277405	183.500000
846.311401	179.700000
846.345337	183.100000
846.379395	186.300000
846.413330	181.300000
846.447327	190.600000
846.481323	180.000000
846.515259	180.900000
846.549255	183.900000
846.583252	185.700000
846.617187	180.100000
846.651184	182.900000
846.685120	182.000000
846.719055	190.000000
846.753052	186.100000
846.786987	186.600000
846.820984	179.100000
846.854980	187.300000
846.888916	180.800000
846.922852	184.400000
846.956848	187.700000
846.990723	181.800000
847.024719	184.200000
847.058716	181.600000
847.092590	187.000000
847.126587	185.000000
847.160522	180.600000
847.194458	186.900000
847.228455	180.900000
847.262390	179.000000
847.296265	182.000000
847.330261	186.600000
847.364136	180.600000
847.398132	181.300000
847.432068	183.000000
847.466003	181.200000
847.499939	180.600000
847.533875	184.300000
847.567749	181.400000
847.601746	181.900000
847.635681	183.600000
847.669556	177.400000
847.703491	186.500000
847.737427	193.000000
847.771301	179.700000
847.805237	184.700000
847.839233	184.300000
847.873108	182.400000
847.907043	181.300000
847.940918	189.500000
847.974854	183.800000
848.008789	185.300000
848.042664	182.200000
848.076538	184.500000
848.110474	182.200000
848.144348	184.200000
848.178284	177.500000
848.212219	184.500000
848.246094	182.100000
848.279968	183.600000
848.313904	185.000000
848.347778	183.900000
848.381653	182.700000
848.415588	181.600000
848.449463	181.100000
848.483337	184.900000
848.517212	189.900000
848.551086	183.100000
848.585022	179.600000
848.618835	191.700000
848.652771	180.600000
848.686646	178.900000
848.720520	188.500000
848.754395	181.700000
848.788330	185.800000
848.822144	185.500000
848.856018	180.700000
848.889954	188.700000
848.923767	180.500000
848.957642	178.800000
848.991577	184.900000
849.025391	181.400000
849.059265	180.600000
849.093079	179.200000
849.126953	179.800000
849.160828	185.800000
849.194641	183.300000
849.228577	180.000000
849.262451	181.700000
849.296265	180.600000
849.330139	179.500000
849.364014	183.000000
849.397827	184.800000
849.431702	183.500000
849.465515	186.600000
849.499329	177.200000
849.533203	179.700000
849.567078	175.300000
849.600891	185.400000
849.634766	181.400000
849.668518	185.100000
849.702393	183.100000
849.736267	180.000000
849.770020	191.000000
849.803894	185.700000
849.837769	183.900000
849.871521	183.500000
849.905396	186.100000
849.939270	180.800000
849.973022	181.300000
850.006897	185.700000
850.040710	185.600000
850.074524	185.400000
850.108337	182.500000
850.142151	187.500000
850.175964	188.900000
850.209778	183.000000
850.243530	175.000000
850.277405	185.900000
850.311218	183.800000
850.344971	180.100000
850.378845	189.600000
850.412659	179.300000
850.446411	185.600000
850.480225	182.600000
850.514038	186.300000
850.547791	186.000000
850.581665	183.000000
850.615417	180.100000
850.649231	184.000000
850.683044	180.900000
850.716858	182.600000
850.750610	183.800000
850.784424	185.800000
850.818176	178.600000
850.851929	181.600000
850.885742	179.300000
850.919495	183.100000
850.953308	187.200000
850.987122	189.900000
851.020874	179.100000
851.054626	178.200000
851.088440	184.600000
851.122192	187.500000
851.156006	183.400000
851.189697	184.000000
851.223511	178.300000
851.257263	188.100000
851.291077	185.300000
851.324829	182.900000
851.358582	182.000000
851.392334	182.900000
851.426086	180.700000
851.459900	189.800000
851.493591	184.200000
851.527344	184.000000
851.561157	183.600000
851.594849	185.000000
851.628662	183.300000
851.662415	191.200000
851.696106	184.600000
851.729858	187.300000
851.763611	179.500000
851.797363	183.700000
851.831116	179.600000
851.864868	184.500000
851.898560	188.000000
851.932312	181.500000
851.966064	185.800000
851.999817	183.400000
852.033569	182.000000
852.067261	186.600000
852.101013	181.100000
852.134766	181.600000
852.168457	176.000000
852.202209	186.700000
852.235901	179.700000
852.269592	184.200000
852.303345	187.400000
852.337036	186.100000
852.370789	182.400000
852.404541	185.500000
852.438171	179.100000
852.471924	181.800000
852.505676	179.700000
852.539307	182.700000
852.573059	180.100000
852.606812	182.000000
852.640442	182.900000
852.674194	186.000000
852.707886	190.600000
852.741577	186.800000
852.775269	180.100000
852.809021	183.800000
852.842651	185.800000
852.876404	189.400000
852.910034	184.900000
852.943787	187.000000
852.977478	185.300000
853.011108	180.200000
853.044861	181.100000
853.078552	187.500000
853.112183	184.300000
853.145874	183.400000
853.179626	177.400000
853.213257	185.100000
853.246948	181.000000
853.280640	189.200000
853.314270	181.300000
853.347961	188.000000
853.381653	185.900000
853.415283	189.100000
853.448975	180.600000
853.482605	185.000000
853.516296	182.400000
853.549988	179.500000
853.583618	184.400000
853.617310	184.600000
853.651001	184.200000
853.684631	181.400000
853.718323	180.500000
853.751953	188.500000
853.785583	176.500000
853.819275	185.100000
853.852966	185.200000
853.886536	178.100000
853.920227	177.600000
853.953918	186.400000
853.987488	181.300000
854.021179	186.100000
854.054749	187.800000
854.088440	185.100000
854.122131	179.100000
854.155701	184.500000
854.189331	180.100000
854.223022	185.200000
854.256592	184.300000
854.290283	180.300000
854.323914	185.700000
854.357483	184.500000
854.391174	185.600000
854.424744	189.600000
854.458374	183.400000
854.492065	192.500000
854.525696	183.800000
854.559265	187.800000
854.592896	192.600000
854.626465	182.400000
854.660095	183.200000
854.693787	186.700000
854.727356	182.600000
854.760986	188.400000
854.794617	185.700000
854.828186	182.600000
854.861816	185.700000
854.895447	185.100000
854.929016	184.600000
854.962585	184.500000
854.996155	190.900000
855.029785	184.200000
855.063416	184.600000
855.097046	185.900000
855.130615	179.500000
855.164185	187.000000
855.197754	183.600000
855.231384	184.100000
855.264954	181.100000
855.298523	186.000000
855.332153	184.600000
855.365723	187.000000
855.399292	181.200000
855.432922	181.800000
855.466492	184.000000
855.500061	180.600000
855.533630	181.000000
855.567200	184.400000
855.600769	185.300000
855.634338	187.000000
855.667969	183.800000
855.701477	180.200000
855.735046	182.100000
855.768616	178.200000
855.802185	184.500000
855.835754	193.500000
855.869324	179.000000
855.902893	181.500000
855.936401	187.100000
855.969971	183.700000
856.003540	178.800000
856.037109	185.700000
856.070618	182.500000
856.104187	180.100000
856.137695	181.700000
856.171265	177.700000
856.204834	184.500000
856.238403	186.100000
856.271912	182.500000
856.305481	185.400000
856.338989	179.600000
856.372559	185.300000
856.406128	185.500000
856.439636	185.900000
856.473145	181.000000
856.506653	189.100000
856.540222	182.900000
856.573792	187.500000
856.607300	186.500000
856.640808	179.600000
856.674377	182.900000
856.707825	216.200000
856.741394	187.200000
856.774902	178.800000
856.808472	177.100000
856.841980	185.100000
856.875488	187.400000
856.908936	178.600000
856.942505	181.800000
856.976013	181.400000
857.009521	179.000000
857.043030	181.900000
857.076477	180.300000
857.110046	187.100000
857.143555	182.700000
857.177063	185.900000
857.210571	181.400000
857.244080	178.900000
857.277527	183.700000
857.311035	183.700000
857.344543	186.200000
857.378052	181.000000
857.411499	186.200000
857.445068	188.300000
857.478516	182.100000
857.512024	178.900000
857.545532	181.300000
857.578979	185.500000
857.612427	183.700000
857.645874	180.800000
857.679382	184.200000
857.712891	187.900000
857.746399	183.600000
857.779846	187.500000
857.813354	186.200000
857.846741	183.600000
857.880249	179.900000
857.913757	184.000000
857.947266	184.100000
857.980652	186.400000
858.014160	182.100000
858.047546	181.500000
858.081055	181.200000
858.114563	192.900000
858.147949	179.400000
858.181458	185.000000
858.214844	182.000000
858.248352	177.100000
858.281799	185.900000
858.315308	190.300000
858.348694	185.500000
858.382141	189.000000
858.415588	186.700000
858.449036	186.200000
858.482483	185.400000
858.515930	180.900000
858.549377	183.200000
858.582825	186.500000
858.616211	184.300000
858.649658	185.000000
858.683105	180.100000
858.716553	180.100000
858.750000	178.300000
858.783386	181.500000
858.816833	178.300000
858.850281	182.600000
858.883728	184.400000
858.917114	183.800000
858.950562	188.800000
858.983948	187.900000
859.017395	186.400000
859.050781	181.500000
859.084167	181.500000
859.117615	179.400000
859.151062	185.900000
859.184448	181.400000
859.217834	182.300000
859.251282	182.000000
859.284668	180.600000
859.318054	177.800000
859.351440	182.100000
859.384888	188.400000
859.418274	177.700000
859.451721	177.800000
859.485046	185.100000
859.518494	184.500000
859.551819	179.400000
859.585266	185.200000
859.618652	187.600000
859.652039	178.900000
859.685425	178.900000
859.718811	180.200000
859.752197	176.000000
859.785583	186.900000
859.819031	188.100000
859.852356	184.200000
859.885742	181.100000
859.919067	183.500000
859.952454	181.700000
859.985901	187.500000
860.019287	181.500000
860.052612	0.000000
860.085999	0.000000
860.119324	0.000000
860.152710	0.000000
860.186096	0.000000
860.219421	0.000000
860.252808	0.000000
860.286133	0.000000
860.319519	0.000000
860.352905	0.000000
860.386292	0.000000
860.419617	0.000000
860.452942	0.000000
860.486267	0.000000
860.519653	0.000000
860.553040	0.000000
860.586365	0.000000
860.619690	0.000000
860.653076	0.000000
860.686340	0.000000
860.719727	0.000000
860.753113	0.000000
860.786377	0.000000
860.819763	0.000000
860.853027	0.000000
860.886414	0.000000
860.919739	0.000000
860.953125	0.000000
860.986389	0.000000
861.019714	0.000000
861.053040	0.000000
861.086365	0.000000
861.119690	0.000000
861.153076	0.000000
861.186340	0.000000
861.219666	0.000000
861.252930	0.000000
861.286316	0.000000
861.319641	0.000000
861.352905	0.000000
861.386230	0.000000
861.419495	0.000000
861.452820	0.000000
861.486145	0.000000
861.519470	0.000000
861.552734	0.000000
861.586060	0.000000
861.619324	0.000000
861.652649	0.000000
861.685974	0.000000
861.719238	0.000000
861.752563	0.000000
861.785828	0.000000
861.819092	0.000000
861.852417	0.000000
861.885742	0.000000
861.918945	0.000000
861.952271	0.000000
861.985535	0.000000
862.018799	0.000000
862.052124	0.000000
862.085449	0.000000
862.118652	0.000000
862.151978	0.000000
862.185181	0.000000
862.218506	0.000000
862.251770	0.000000
862.285034	0.000000
862.318298	0.000000
862.351562	0.000000
862.384827	0.000000
862.418091	0.000000
862.451355	0.000000
862.484619	0.000000
862.517883	0.000000
862.551086	0.000000
862.584351	0.000000
862.617676	0.000000
862.650940	0.000000
862.684143	0.000000
862.717407	0.000000
862.750610	0.000000
862.783875	0.000000
862.817139	0.000000
862.850342	0.000000
862.883606	0.000000
862.916870	0.000000
862.950073	0.000000
862.983337	0.000000
863.016602	0.000000
863.049805	0.000000
863.083069	0.000000
863.116211	0.000000
863.149475	0.000000
863.182739	0.000000
863.216003	0.000000
863.249146	0.000000
863.282410	0.000000
863.315613	0.000000
863.348816	0.000000
863.382080	0.000000
863.415222	0.000000
863.448486	0.000000
863.481689	0.000000
863.514893	0.000000
863.548157	0.000000
863.581360	0.000000
863.614502	0.000000
863.647766	0.000000
863.680908	0.000000
863.714172	0.000000
863.747375	0.000000
863.780579	0.000000
863.813721	0.000000
863.846985	0.000000
863.880127	0.000000
863.913330	0.000000
863.946533	0.000000
863.979675	0.000000
864.012939	0.000000
