Model Number: SPM-001-M   
Serial Number: 10090201
Firmware Version: 004.17.6
Exposure Time: 300000.000000us
Data Taken on: 28-01-2021 10:46:11.872
Wavelength	Amplitude
733.770752	0.000000
733.808716	0.000000
733.846619	0.000000
733.884583	0.000000
733.922546	0.000000
733.960449	0.000000
733.998413	0.000000
734.036377	0.000000
734.074219	0.000000
734.112183	0.000000
734.150085	0.000000
734.188049	0.000000
734.226013	0.000000
734.263916	0.000000
734.301819	0.000000
734.339783	0.000000
734.377686	0.000000
734.415588	0.000000
734.453552	0.000000
734.491455	0.000000
734.529419	0.000000
734.567322	0.000000
734.605225	0.000000
734.643127	0.000000
734.681091	0.000000
734.718994	0.000000
734.756897	0.000000
734.794800	0.000000
734.832703	0.000000
734.870667	0.000000
734.908508	0.000000
734.946472	0.000000
734.984375	0.000000
735.022278	0.000000
735.060181	0.000000
735.098083	0.000000
735.135986	0.000000
735.173889	0.000000
735.211792	0.000000
735.249695	0.000000
735.287598	0.000000
735.325439	0.000000
735.363403	0.000000
735.401306	0.000000
735.439148	0.000000
735.477051	0.000000
735.515015	0.000000
735.552856	0.000000
735.590759	0.000000
735.628662	0.000000
735.666504	0.000000
735.704407	0.000000
735.742310	0.000000
735.780212	0.000000
735.818115	0.000000
735.856018	0.000000
735.893860	0.000000
735.931763	0.000000
735.969604	0.000000
736.007507	0.000000
736.045410	0.000000
736.083252	0.000000
736.121094	0.000000
736.158997	0.000000
736.196838	0.000000
736.234741	0.000000
736.272644	0.000000
736.310486	0.000000
736.348389	0.000000
736.386230	0.000000
736.424072	0.000000
736.461975	0.000000
736.499878	0.000000
736.537720	0.000000
736.575562	0.000000
736.613403	0.000000
736.651306	0.000000
736.689148	0.000000
736.726990	0.000000
736.764893	0.000000
736.802734	0.000000
736.840576	0.000000
736.878418	0.000000
736.916321	0.000000
736.954102	0.000000
736.992004	0.000000
737.029846	0.000000
737.067688	0.000000
737.105530	0.000000
737.143372	0.000000
737.181213	0.000000
737.219116	0.000000
737.256897	0.000000
737.294739	0.000000
737.332642	0.000000
737.370422	0.000000
737.408325	0.000000
737.446167	0.000000
737.483948	0.000000
737.521790	0.000000
737.559692	0.000000
737.597473	0.000000
737.635315	0.000000
737.673157	0.000000
737.710999	0.000000
737.748840	0.000000
737.786621	0.000000
737.824463	0.000000
737.862305	0.000000
737.900085	0.000000
737.937927	0.000000
737.975769	0.000000
738.013550	0.000000
738.051392	0.000000
738.089233	0.000000
738.127014	0.000000
738.164856	0.000000
738.202698	0.000000
738.240479	0.000000
738.278320	0.000000
738.316162	0.000000
738.353943	0.000000
738.391785	0.000000
738.429565	0.000000
738.467407	0.000000
738.505188	0.000000
738.542969	0.000000
738.580811	0.000000
738.618652	0.000000
738.656372	0.000000
738.694214	0.000000
738.732056	0.000000
738.769836	0.000000
738.807617	0.000000
738.845459	0.000000
738.883240	0.000000
738.921021	0.000000
738.958862	0.000000
738.996582	0.000000
739.034424	0.000000
739.072205	0.000000
739.109985	0.000000
739.147827	0.000000
739.185547	0.000000
739.223389	0.000000
739.261169	0.000000
739.298889	0.000000
739.336731	0.000000
739.374512	0.000000
739.412292	0.000000
739.450073	0.000000
739.487854	0.000000
739.525635	0.000000
739.563416	0.000000
739.601135	0.000000
739.638977	0.000000
739.676758	0.000000
739.714478	0.000000
739.752258	0.000000
739.790100	0.000000
739.827820	0.000000
739.865601	0.000000
739.903381	0.000000
739.941101	0.000000
739.978882	183.100000
740.016724	178.900000
740.054443	183.400000
740.092224	179.000000
740.130005	178.300000
740.167725	178.500000
740.205505	180.200000
740.243225	185.500000
740.281006	181.900000
740.318787	176.800000
740.356506	185.700000
740.394287	184.000000
740.432068	179.800000
740.469727	176.500000
740.507507	182.900000
740.545288	181.600000
740.583008	182.300000
740.620789	179.900000
740.658569	176.200000
740.696228	180.900000
740.734009	183.700000
740.771790	172.500000
740.809509	183.900000
740.847229	177.000000
740.884949	180.300000
740.922729	176.600000
740.960449	180.300000
740.998169	178.300000
741.035950	178.500000
741.073669	181.200000
741.111389	182.900000
741.149170	188.200000
741.186890	188.500000
741.224609	183.700000
741.262329	181.100000
741.300110	187.100000
741.337769	178.800000
741.375549	177.200000
741.413208	182.000000
741.450989	178.100000
741.488708	179.500000
741.526367	179.700000
741.564148	183.700000
741.601868	183.800000
741.639526	179.900000
741.677307	182.300000
741.715027	183.800000
741.752686	178.500000
741.790466	187.200000
741.828186	182.200000
741.865845	177.400000
741.903564	176.600000
741.941345	180.500000
741.979004	177.100000
742.016724	184.700000
742.054382	181.400000
742.092102	183.100000
742.129822	177.200000
742.167480	178.800000
742.205200	180.900000
742.242920	182.400000
742.280640	185.300000
742.318359	177.900000
742.356079	182.500000
742.393738	182.600000
742.431396	180.300000
742.469116	184.900000
742.506775	175.100000
742.544495	182.000000
742.582214	184.800000
742.619873	180.900000
742.657593	186.000000
742.695251	185.000000
742.732971	180.400000
742.770630	181.700000
742.808289	181.900000
742.846008	180.700000
742.883728	181.700000
742.921326	183.100000
742.959045	180.000000
742.996765	179.600000
743.034424	181.400000
743.072083	179.400000
743.109802	181.100000
743.147400	177.300000
743.185120	181.300000
743.222839	181.600000
743.260437	186.600000
743.298157	184.000000
743.335754	175.500000
743.373474	180.200000
743.411133	176.000000
743.448792	180.500000
743.486450	180.800000
743.524170	176.500000
743.561768	180.300000
743.599487	185.500000
743.637146	188.800000
743.674744	180.400000
743.712463	180.400000
743.750122	180.900000
743.787720	181.900000
743.825439	179.300000
743.863037	179.700000
743.900696	181.300000
743.938416	205.100000
743.976013	180.800000
744.013672	186.500000
744.051331	182.700000
744.088928	186.800000
744.126587	183.200000
744.164307	182.900000
744.201904	179.200000
744.239563	183.000000
744.277222	183.900000
744.314819	181.200000
744.352478	185.800000
744.390137	182.400000
744.427734	183.100000
744.465393	179.200000
744.502991	179.300000
744.540649	183.500000
744.578308	182.700000
744.615906	177.100000
744.653564	174.000000
744.691223	182.800000
744.728821	177.000000
744.766418	181.400000
744.804077	182.700000
744.841675	179.400000
744.879333	177.400000
744.916992	180.200000
744.954529	179.900000
744.992187	183.100000
745.029785	180.000000
745.067444	178.600000
745.105042	181.300000
745.142639	183.500000
745.180298	189.400000
745.217896	179.900000
745.255493	179.400000
745.293152	183.400000
745.330750	184.800000
745.368347	186.500000
745.405945	184.500000
745.443604	181.300000
745.481140	183.300000
745.518799	180.100000
745.556396	183.200000
745.593994	182.300000
745.631592	182.800000
745.669189	178.000000
745.706787	181.700000
745.744385	178.700000
745.781982	183.100000
745.819580	180.300000
745.857178	181.100000
745.894775	180.000000
745.932373	181.500000
745.969971	182.500000
746.007568	175.900000
746.045166	187.100000
746.082764	186.000000
746.120300	183.400000
746.157898	183.900000
746.195557	182.600000
746.233093	178.600000
746.270691	184.100000
746.308228	183.800000
746.345825	185.600000
746.383423	184.100000
746.420959	180.300000
746.458557	179.600000
746.496155	180.700000
746.533691	182.200000
746.571289	178.900000
746.608887	181.000000
746.646423	181.900000
746.684021	181.900000
746.721619	179.100000
746.759155	184.300000
746.796753	177.800000
746.834351	177.000000
746.871826	179.100000
746.909424	184.600000
746.946960	179.900000
746.984558	180.100000
747.022156	179.100000
747.059631	187.200000
747.097229	183.300000
747.134827	181.000000
747.172363	184.200000
747.209900	185.500000
747.247498	178.200000
747.285034	184.800000
747.322571	185.700000
747.360168	180.500000
747.397644	176.000000
747.435242	184.200000
747.472778	184.400000
747.510315	180.200000
747.547913	180.100000
747.585388	185.900000
747.622925	178.700000
747.660522	177.600000
747.697998	179.200000
747.735596	180.700000
747.773132	180.100000
747.810669	182.300000
747.848206	182.700000
747.885742	178.700000
747.923279	178.800000
747.960815	182.400000
747.998352	181.200000
748.035889	184.900000
748.073425	183.300000
748.110901	179.600000
748.148437	178.700000
748.185974	181.000000
748.223511	186.900000
748.261047	184.700000
748.298584	181.500000
748.336060	182.800000
748.373596	181.800000
748.411133	207.600000
748.448608	179.000000
748.486145	183.300000
748.523682	185.800000
748.561218	187.500000
748.598755	182.300000
748.636292	183.400000
748.673706	180.100000
748.711243	187.100000
748.748718	181.300000
748.786255	182.600000
748.823792	181.900000
748.861267	177.900000
748.898804	183.500000
748.936340	182.600000
748.973816	178.500000
749.011292	185.400000
749.048828	182.900000
749.086304	182.800000
749.123840	189.100000
749.161316	178.100000
749.198792	188.500000
749.236328	187.100000
749.273743	181.300000
749.311279	180.500000
749.348816	184.000000
749.386230	181.400000
749.423767	174.200000
749.461304	184.200000
749.498718	181.800000
749.536255	185.100000
749.573730	189.900000
749.611206	185.500000
749.648682	180.700000
749.686218	182.300000
749.723633	183.700000
749.761169	180.200000
749.798645	180.800000
749.836060	180.300000
749.873596	179.800000
749.911011	183.700000
749.948547	186.600000
749.986023	179.400000
750.023437	182.700000
750.060913	178.500000
750.098450	177.800000
750.135864	180.900000
750.173340	181.600000
750.210815	185.700000
750.248291	178.200000
750.285767	181.100000
750.323242	185.000000
750.360657	182.200000
750.398132	178.700000
750.435608	183.200000
750.473022	178.600000
750.510498	177.500000
750.547974	178.600000
750.585449	179.800000
750.622925	174.800000
750.660339	190.100000
750.697815	181.900000
750.735291	182.300000
750.772644	180.900000
750.810120	183.900000
750.847595	183.800000
750.885010	177.600000
750.922485	187.700000
750.959961	181.600000
750.997375	186.800000
751.034851	184.300000
751.072266	183.900000
751.109680	176.700000
751.147156	186.000000
751.184570	184.600000
751.221985	182.000000
751.259460	176.400000
751.296875	181.800000
751.334290	181.400000
751.371765	185.700000
751.409180	185.300000
751.446594	184.600000
751.484070	183.300000
751.521423	183.300000
751.558899	182.100000
751.596375	189.100000
751.633728	186.300000
751.671204	189.400000
751.708618	180.200000
751.746033	183.200000
751.783447	178.500000
751.820801	179.400000
751.858276	185.000000
751.895691	181.100000
751.933105	180.300000
751.970520	179.600000
752.007935	181.300000
752.045349	185.100000
752.082764	183.000000
752.120178	180.700000
752.157532	180.500000
752.195007	179.100000
752.232422	183.400000
752.269775	185.600000
752.307190	184.400000
752.344543	178.200000
752.382019	181.100000
752.419434	180.900000
752.456787	183.100000
752.494202	185.600000
752.531616	182.300000
752.568970	183.100000
752.606384	182.200000
752.643799	183.500000
752.681152	186.100000
752.718567	183.500000
752.755981	177.600000
752.793335	183.800000
752.830750	177.100000
752.868164	186.200000
752.905518	179.100000
752.942932	185.100000
752.980225	178.800000
753.017639	184.100000
753.055054	183.700000
753.092407	183.200000
753.129822	184.200000
753.167175	188.300000
753.204529	182.100000
753.241943	179.100000
753.279358	177.100000
753.316650	184.500000
753.354065	183.400000
753.391479	186.000000
753.428772	186.300000
753.466187	183.100000
753.503479	179.000000
753.540894	182.400000
753.578308	178.200000
753.615601	177.600000
753.653015	181.000000
753.690369	181.400000
753.727722	178.700000
753.765076	178.100000
753.802490	178.400000
753.839783	177.600000
753.877136	179.900000
753.914551	191.600000
753.951843	179.000000
753.989258	184.800000
754.026611	183.200000
754.063904	185.100000
754.101257	179.000000
754.138611	176.800000
754.175964	182.600000
754.213318	188.600000
754.250610	176.100000
754.288025	179.900000
754.325378	177.400000
754.362671	183.600000
754.400024	181.300000
754.437378	188.300000
754.474670	186.500000
754.512085	179.200000
754.549438	182.100000
754.586731	179.300000
754.624084	180.600000
754.661438	177.700000
754.698730	188.100000
754.736084	180.900000
754.773376	181.500000
754.810730	182.800000
754.848083	181.700000
754.885315	185.600000
754.922668	177.900000
754.960022	178.400000
754.997314	186.400000
755.034668	182.200000
755.072021	184.100000
755.109253	180.500000
755.146606	188.200000
755.183960	182.300000
755.221252	189.000000
755.258545	185.300000
755.295898	187.500000
755.333191	188.100000
755.370544	184.600000
755.407776	183.200000
755.445129	184.700000
755.482422	185.300000
755.519714	182.100000
755.557068	178.700000
755.594360	177.100000
755.631653	185.200000
755.668945	187.400000
755.706299	183.000000
755.743530	192.200000
755.780884	188.600000
755.818176	186.800000
755.855408	186.700000
755.892761	184.900000
755.930054	182.600000
755.967346	185.500000
756.004639	185.800000
756.041870	184.100000
756.079224	186.300000
756.116516	181.300000
756.153748	186.700000
756.191040	190.300000
756.228394	186.500000
756.265625	181.400000
756.302917	185.100000
756.340210	181.900000
756.377441	189.300000
756.414795	189.500000
756.452087	184.500000
756.489319	180.100000
756.526611	187.700000
756.563843	184.700000
756.601135	191.100000
756.638428	192.600000
756.675659	183.900000
756.712952	187.000000
756.750244	189.200000
756.787476	185.000000
756.824768	190.000000
756.862061	183.000000
756.899292	230.500000
756.936584	186.900000
756.973816	192.500000
757.011047	193.200000
757.048340	185.200000
757.085632	186.200000
757.122864	198.100000
757.160156	184.200000
757.197327	187.200000
757.234619	188.700000
757.271912	185.600000
757.309082	188.700000
757.346375	185.000000
757.383667	191.600000
757.420837	188.100000
757.458130	187.200000
757.495422	185.100000
757.532593	189.300000
757.569885	182.500000
757.607117	184.800000
757.644348	188.400000
757.681580	196.400000
757.718811	180.200000
757.756042	186.800000
757.793335	185.000000
757.830505	189.100000
757.867798	185.400000
757.905029	185.200000
757.942200	186.900000
757.979492	187.100000
758.016724	187.200000
758.053894	186.600000
758.091187	199.800000
758.128418	188.200000
758.165588	187.000000
758.202820	195.000000
758.240112	188.100000
758.277283	196.700000
758.314514	189.500000
758.351685	187.300000
758.388916	193.600000
758.426147	193.300000
758.463379	194.200000
758.500610	190.800000
758.537842	190.200000
758.575012	194.800000
758.612244	187.400000
758.649475	198.600000
758.686646	185.900000
758.723877	195.200000
758.761108	196.400000
758.798279	190.700000
758.835510	190.900000
758.872742	195.300000
758.909851	192.100000
758.947083	194.100000
758.984253	192.200000
759.021484	194.700000
759.058716	192.500000
759.095886	196.100000
759.133057	191.100000
759.170288	193.900000
759.207458	190.700000
759.244690	198.700000
759.281860	197.900000
759.319031	193.300000
759.356262	191.300000
759.393433	190.500000
759.430603	191.400000
759.467773	191.300000
759.505005	197.200000
759.542175	198.000000
759.579346	192.200000
759.616516	193.300000
759.653687	196.900000
759.690918	191.000000
759.728027	194.700000
759.765259	195.800000
759.802429	196.600000
759.839539	195.000000
759.876770	198.500000
759.913940	202.200000
759.951111	195.500000
759.988281	195.000000
760.025452	194.200000
760.062561	191.700000
760.099792	202.800000
760.136963	198.400000
760.174072	194.200000
760.211243	192.400000
760.248413	192.500000
760.285583	193.100000
760.322754	204.400000
760.359863	201.000000
760.397034	202.100000
760.434204	196.000000
760.471375	195.200000
760.508545	195.100000
760.545715	194.900000
760.582825	192.900000
760.619995	199.800000
760.657166	193.300000
760.694275	202.200000
760.731445	197.700000
760.768555	199.500000
760.805664	200.500000
760.842834	199.100000
760.879944	200.500000
760.917114	197.500000
760.954285	197.000000
760.991394	194.100000
761.028564	202.600000
761.065674	199.400000
761.102783	195.900000
761.139954	202.600000
761.177124	201.200000
761.214172	203.600000
761.251343	199.100000
761.288452	199.300000
761.325562	203.500000
761.362732	197.200000
761.399841	199.200000
761.436951	201.800000
761.474121	198.400000
761.511169	199.700000
761.548340	205.000000
761.585449	203.300000
761.622559	203.500000
761.659668	203.900000
761.696838	206.400000
761.733887	203.400000
761.771057	201.900000
761.808167	200.300000
761.845276	206.100000
761.882385	211.500000
761.919434	204.500000
761.956604	214.500000
761.993713	201.500000
762.030762	207.400000
762.067871	205.100000
762.105042	203.100000
762.142090	210.200000
762.179199	204.900000
762.216309	209.600000
762.253418	215.100000
762.290527	211.800000
762.327637	209.000000
762.364685	203.300000
762.401794	208.800000
762.438904	208.400000
762.475952	203.600000
762.513062	204.000000
762.550110	204.000000
762.587219	213.900000
762.624329	212.500000
762.661377	209.500000
762.698486	209.300000
762.735596	208.000000
762.772644	203.400000
762.809753	202.800000
762.846863	208.500000
762.883911	212.200000
762.921021	211.500000
762.958069	209.700000
762.995117	212.900000
763.032227	215.500000
763.069336	209.300000
763.106323	206.300000
763.143433	204.900000
763.180481	211.500000
763.217590	212.200000
763.254639	211.200000
763.291687	211.000000
763.328735	216.200000
763.365845	211.400000
763.402893	209.100000
763.439941	213.600000
763.477051	214.100000
763.514038	215.900000
763.551147	211.800000
763.588196	215.000000
763.625244	212.300000
763.662292	219.800000
763.699402	220.300000
763.736389	216.600000
763.773499	223.600000
763.810486	218.500000
763.847534	216.100000
763.884644	217.900000
763.921631	215.700000
763.958679	224.500000
763.995728	215.900000
764.032776	219.900000
764.069824	213.800000
764.106873	222.500000
764.143860	225.800000
764.180969	220.000000
764.218018	224.200000
764.255005	220.300000
764.292053	219.700000
764.329102	227.800000
764.366089	226.800000
764.403137	226.200000
764.440125	221.400000
764.477173	223.900000
764.514221	225.400000
764.551208	223.600000
764.588257	221.400000
764.625305	228.000000
764.662292	233.100000
764.699341	231.900000
764.736389	228.000000
764.773376	238.800000
764.810425	230.200000
764.847473	234.000000
764.884399	231.000000
764.921448	237.400000
764.958435	236.400000
764.995483	229.500000
765.032532	241.000000
765.069458	231.200000
765.106506	232.400000
765.143555	230.800000
765.180481	236.000000
765.217529	241.300000
765.254578	230.800000
765.291504	236.300000
765.328552	235.500000
765.365540	231.100000
765.402527	243.400000
765.439575	233.800000
765.476501	231.500000
765.513550	230.400000
765.550537	237.100000
765.587463	242.400000
765.624512	235.200000
765.661499	231.200000
765.698486	240.800000
765.735474	234.600000
765.772461	238.800000
765.809448	242.100000
765.846436	242.700000
765.883423	244.500000
765.920410	240.500000
765.957397	238.100000
765.994385	242.300000
766.031311	246.800000
766.068359	242.800000
766.105286	241.900000
766.142273	248.900000
766.179260	244.900000
766.216187	240.300000
766.253174	238.300000
766.290161	245.000000
766.327148	247.700000
766.364136	247.100000
766.401123	255.600000
766.438049	243.000000
766.475037	252.600000
766.512024	249.600000
766.548950	260.600000
766.585937	253.500000
766.622864	250.600000
766.659790	252.300000
766.696777	246.000000
766.733704	255.300000
766.770691	250.100000
766.807678	258.700000
766.844604	254.000000
766.881531	255.500000
766.918518	259.200000
766.955444	259.800000
766.992432	255.500000
767.029358	258.000000
767.066284	259.700000
767.103271	258.400000
767.140198	289.200000
767.177124	269.200000
767.214050	261.600000
767.251038	261.800000
767.287964	260.900000
767.324890	258.000000
767.361816	262.800000
767.398743	264.400000
767.435730	261.600000
767.472595	263.100000
767.509583	267.800000
767.546509	259.100000
767.583374	263.800000
767.620361	257.300000
767.657288	262.000000
767.694214	262.200000
767.731140	262.200000
767.768066	262.900000
767.804993	264.900000
767.841919	260.300000
767.878845	266.600000
767.915710	270.100000
767.952698	265.000000
767.989563	266.600000
768.026489	267.800000
768.063416	263.300000
768.100281	263.700000
768.137207	273.500000
768.174133	270.000000
768.211060	270.600000
768.247986	270.100000
768.284912	269.000000
768.321777	270.500000
768.358704	268.600000
768.395630	269.400000
768.432495	267.300000
768.469421	271.800000
768.506348	275.300000
768.543152	277.900000
768.580078	276.800000
768.616943	275.600000
768.653870	278.900000
768.690796	276.200000
768.727661	277.500000
768.764587	278.700000
768.801453	275.500000
768.838318	280.800000
768.875244	279.900000
768.912109	284.600000
768.948975	277.600000
768.985901	279.500000
769.022766	280.700000
769.059631	286.500000
769.096558	282.400000
769.133362	283.100000
769.170288	283.500000
769.207214	283.000000
769.244019	290.500000
769.280945	285.900000
769.317810	292.500000
769.354675	288.100000
769.391541	295.800000
769.428406	293.500000
769.465271	300.600000
769.502136	291.800000
769.539062	295.900000
769.575867	294.700000
769.612732	297.200000
769.649597	299.800000
769.686462	302.500000
769.723328	298.300000
769.760193	298.300000
769.797058	298.900000
769.833923	303.700000
769.870728	302.300000
769.907593	305.800000
769.944519	304.400000
769.981323	309.400000
770.018188	308.800000
770.055054	307.000000
770.091858	305.100000
770.128723	312.700000
770.165588	319.000000
770.202393	308.300000
770.239258	318.100000
770.276062	315.800000
770.312927	317.400000
770.349792	321.300000
770.386597	319.600000
770.423462	327.400000
770.460327	331.100000
770.497131	320.600000
770.533997	318.100000
770.570862	328.700000
770.607605	329.600000
770.644470	328.200000
770.681335	327.500000
770.718140	326.800000
770.754944	322.600000
770.791809	322.600000
770.828613	328.600000
770.865479	326.200000
770.902222	334.200000
770.939087	330.500000
770.975952	323.300000
771.012695	327.900000
771.049561	338.900000
771.086365	332.200000
771.123169	330.500000
771.159973	331.700000
771.196838	335.100000
771.233582	334.700000
771.270447	337.200000
771.307251	342.300000
771.344055	336.500000
771.380859	339.800000
771.417664	336.800000
771.454468	341.300000
771.491272	338.700000
771.528076	344.900000
771.564880	343.500000
771.601685	349.400000
771.638428	341.500000
771.675293	346.400000
771.712097	340.800000
771.748840	353.200000
771.785645	345.900000
771.822449	353.000000
771.859253	353.400000
771.896057	353.200000
771.932861	357.800000
771.969604	352.700000
772.006409	347.900000
772.043213	358.300000
772.079956	357.000000
772.116760	351.400000
772.153503	351.600000
772.190308	363.500000
772.227112	357.200000
772.263855	355.100000
772.300659	356.000000
772.337463	361.000000
772.374207	353.300000
772.411011	355.500000
772.447754	361.500000
772.484497	370.400000
772.521301	364.600000
772.558105	363.700000
772.594849	364.000000
772.631592	369.400000
772.668396	366.300000
772.705139	372.600000
772.741882	370.200000
772.778625	375.500000
772.815430	374.900000
772.852173	374.500000
772.888916	377.000000
772.925720	381.800000
772.962463	385.400000
772.999207	380.800000
773.035950	380.600000
773.072754	381.300000
773.109436	380.100000
773.146240	379.500000
773.182922	379.800000
773.219727	386.600000
773.256470	383.000000
773.293152	374.400000
773.329956	380.800000
773.366699	383.000000
773.403381	379.900000
773.440186	385.400000
773.476929	383.900000
773.513611	381.400000
773.550354	382.900000
773.587158	383.800000
773.623840	381.400000
773.660583	388.300000
773.697327	394.500000
773.734009	388.700000
773.770813	386.600000
773.807495	383.700000
773.844238	390.800000
773.880981	400.500000
773.917664	393.700000
773.954407	397.400000
773.991150	391.400000
774.027832	395.800000
774.064575	392.800000
774.101318	398.200000
774.138000	400.300000
774.174744	397.000000
774.211487	399.100000
774.248108	390.200000
774.284851	393.600000
774.321594	403.300000
774.358276	403.000000
774.395020	405.400000
774.431702	407.300000
774.468384	397.100000
774.505127	400.500000
774.541809	404.300000
774.578491	410.800000
774.615234	413.400000
774.651917	404.600000
774.688599	407.300000
774.725342	414.200000
774.762024	414.900000
774.798706	419.100000
774.835449	420.000000
774.872070	422.300000
774.908813	421.700000
774.945496	419.900000
774.982178	421.800000
775.018860	422.800000
775.055542	425.800000
775.092224	425.500000
775.128967	431.500000
775.165588	431.600000
775.202271	426.200000
775.239014	437.000000
775.275635	435.100000
775.312317	430.600000
775.349060	436.700000
775.385681	439.900000
775.422363	434.400000
775.459045	441.200000
775.495667	443.600000
775.532410	443.000000
775.569092	444.300000
775.605713	444.600000
775.642395	442.300000
775.679016	449.500000
775.715698	452.200000
775.752380	450.500000
775.789001	446.400000
775.825684	448.600000
775.862366	453.700000
775.898987	463.900000
775.935669	458.300000
775.972351	471.600000
776.008972	466.000000
776.045654	466.300000
776.082336	462.000000
776.118958	462.500000
776.155640	473.600000
776.192322	476.100000
776.228882	477.200000
776.265564	474.800000
776.302185	473.300000
776.338867	479.900000
776.375488	480.200000
776.412109	483.600000
776.448792	485.300000
776.485413	490.500000
776.522034	482.000000
776.558716	479.000000
776.595337	485.300000
776.631958	490.600000
776.668579	491.700000
776.705261	497.800000
776.741882	490.400000
776.778503	491.700000
776.815186	492.400000
776.851746	499.500000
776.888367	501.700000
776.924988	506.600000
776.961609	497.700000
776.998291	502.700000
777.034851	500.000000
777.071472	507.400000
777.108154	506.500000
777.144714	514.100000
777.181335	507.600000
777.218018	506.700000
777.254578	516.700000
777.291199	515.100000
777.327759	518.700000
777.364380	523.000000
777.401062	526.300000
777.437622	535.200000
777.474243	522.700000
777.510864	527.400000
777.547424	525.100000
777.584045	530.300000
777.620667	532.500000
777.657227	530.800000
777.693848	531.400000
777.730469	539.800000
777.767029	533.800000
777.803650	538.100000
777.840271	534.600000
777.876831	536.100000
777.913452	538.700000
777.950012	525.800000
777.986633	527.800000
778.023193	530.300000
778.059753	533.600000
778.096375	533.300000
778.132996	543.200000
778.169556	534.500000
778.206116	539.400000
778.242737	535.800000
778.279297	542.900000
778.315857	534.100000
778.352478	540.000000
778.389038	545.700000
778.425598	546.700000
778.462219	555.600000
778.498718	550.300000
778.535339	552.600000
778.571838	555.900000
778.608459	561.200000
778.645020	554.200000
778.681580	555.400000
778.718140	558.000000
778.754761	551.300000
778.791260	554.700000
778.827881	562.600000
778.864441	563.800000
778.900940	564.800000
778.937561	566.000000
778.974121	562.900000
779.010620	560.200000
779.047241	565.500000
779.083801	570.300000
779.120300	570.600000
779.156860	569.800000
779.193359	566.100000
779.229980	573.000000
779.266541	575.500000
779.303040	575.700000
779.339600	569.100000
779.376160	564.200000
779.412659	568.300000
779.449219	565.900000
779.485779	571.100000
779.522278	567.400000
779.558838	570.200000
779.595398	571.800000
779.631897	573.000000
779.668457	564.600000
779.705017	573.800000
779.741516	569.900000
779.778076	565.000000
779.814575	568.400000
779.851074	571.100000
779.887634	568.100000
779.924133	574.100000
779.960693	570.200000
779.997253	577.900000
780.033691	581.200000
780.070251	584.600000
780.106812	593.300000
780.143250	583.900000
780.179810	585.500000
780.216370	590.900000
780.252808	598.800000
780.289368	598.400000
780.325867	596.400000
780.362366	590.800000
780.398865	602.100000
780.435364	595.800000
780.471863	604.300000
780.508423	605.200000
780.544861	606.000000
780.581421	601.400000
780.617920	595.500000
780.654419	595.000000
780.690918	603.500000
780.727417	607.200000
780.763916	604.900000
780.800415	608.100000
780.836914	599.500000
780.873352	608.600000
780.909912	607.800000
780.946411	610.700000
780.982849	621.700000
781.019348	630.300000
781.055786	623.000000
781.092346	625.100000
781.128845	630.900000
781.165283	638.800000
781.201782	649.900000
781.238281	649.000000
781.274719	652.700000
781.311218	648.300000
781.347717	652.400000
781.384155	641.700000
781.420654	647.400000
781.457092	655.200000
781.493591	649.400000
781.530090	642.200000
781.566528	643.900000
781.602966	650.400000
781.639465	650.100000
781.675903	654.300000
781.712402	658.400000
781.748901	661.400000
781.785278	650.800000
781.821777	657.300000
781.858276	662.400000
781.894714	670.600000
781.931152	665.100000
781.967651	672.400000
782.004089	660.400000
782.040527	669.400000
782.076965	674.300000
782.113403	676.300000
782.149902	676.800000
782.186340	679.400000
782.222778	688.600000
782.259277	676.400000
782.295654	680.200000
782.332092	688.100000
782.368591	691.100000
782.404968	688.300000
782.441467	690.100000
782.477905	688.200000
782.514282	688.800000
782.550781	706.000000
782.587219	707.000000
782.623596	709.600000
782.660095	704.300000
782.696472	714.600000
782.732910	717.600000
782.769348	723.600000
782.805786	742.400000
782.842224	736.700000
782.878662	731.400000
782.915039	730.700000
782.951477	732.100000
782.987915	724.000000
783.024292	732.700000
783.060730	739.600000
783.097168	736.700000
783.133545	723.600000
783.169983	715.900000
783.206421	710.700000
783.242798	711.900000
783.279236	708.300000
783.315613	707.300000
783.352051	707.000000
783.388489	697.900000
783.424866	697.100000
783.461304	699.800000
783.497681	705.300000
783.534058	699.200000
783.570496	699.300000
783.606934	693.400000
783.643250	689.500000
783.679687	689.400000
783.716125	673.200000
783.752441	653.500000
783.788879	629.400000
783.825317	600.000000
783.861633	560.200000
783.898071	516.700000
783.934448	491.100000
783.970825	501.700000
784.007263	554.300000
784.043579	636.500000
784.080017	704.500000
784.116394	746.800000
784.152710	760.100000
784.189148	766.300000
784.225525	763.500000
784.261902	754.600000
784.298279	752.600000
784.334656	755.100000
784.371033	752.000000
784.407410	750.100000
784.443787	735.200000
784.480164	729.000000
784.516541	721.600000
784.552856	731.700000
784.589233	726.800000
784.625610	724.500000
784.661987	748.000000
784.698364	738.200000
784.734741	730.500000
784.771057	738.500000
784.807434	747.300000
784.843811	761.200000
784.880127	768.000000
784.916504	783.500000
784.952881	776.700000
784.989197	773.600000
785.025574	781.800000
785.061951	788.700000
785.098267	804.800000
785.134644	794.100000
785.170959	780.600000
785.207275	782.700000
785.243652	787.300000
785.279968	767.100000
785.316345	768.200000
785.352722	768.600000
785.388977	762.600000
785.425354	748.300000
785.461731	737.300000
785.498047	729.000000
785.534363	727.700000
785.570679	726.200000
785.606995	729.600000
785.643372	734.800000
785.679687	730.700000
785.716003	726.400000
785.752380	732.300000
785.788635	737.900000
785.825012	750.600000
785.861328	752.800000
785.897644	751.000000
785.933960	765.200000
785.970337	770.300000
786.006592	791.000000
786.042908	795.400000
786.079285	800.200000
786.115540	808.900000
786.151855	797.800000
786.188171	795.800000
786.224487	802.200000
786.260803	801.700000
786.297119	802.100000
786.333435	799.700000
786.369751	789.900000
786.406006	789.000000
786.442322	779.800000
786.478638	773.900000
786.514954	780.200000
786.551270	763.600000
786.587585	767.400000
786.623840	758.500000
786.660156	754.400000
786.696472	744.500000
786.732727	747.900000
786.769043	756.300000
786.805298	746.200000
786.841614	751.800000
786.877930	765.900000
786.914124	756.600000
786.950439	778.300000
786.986755	791.800000
787.023010	801.700000
787.059326	807.300000
787.095642	804.200000
787.131836	816.200000
787.168152	817.700000
787.204468	830.600000
787.240723	841.600000
787.276978	841.600000
787.313293	846.600000
787.349548	839.500000
787.385803	840.300000
787.422058	840.400000
787.458313	825.200000
787.494629	826.700000
787.530823	824.500000
787.567139	809.600000
787.603455	799.600000
787.639648	796.700000
787.675903	801.100000
787.712219	801.200000
787.748413	797.700000
787.784729	798.000000
787.820984	787.200000
787.857178	787.800000
787.893494	787.000000
787.929749	792.700000
787.965942	797.500000
788.002258	806.000000
788.038452	814.400000
788.074707	814.300000
788.110962	828.000000
788.147217	833.700000
788.183472	844.000000
788.219727	850.900000
788.255920	861.800000
788.292175	866.300000
788.328430	860.100000
788.364624	846.000000
788.400879	846.300000
788.437134	855.600000
788.473328	856.100000
788.509583	858.900000
788.545837	852.500000
788.582031	853.000000
788.618286	852.800000
788.654480	849.400000
788.690735	862.700000
788.726990	868.800000
788.763184	866.300000
788.799377	873.800000
788.835632	871.600000
788.871826	877.800000
788.908081	881.500000
788.944336	881.900000
788.980469	889.800000
789.016724	875.800000
789.052979	879.100000
789.089111	861.000000
789.125366	874.100000
789.161621	873.100000
789.197754	880.600000
789.234009	874.200000
789.270142	871.500000
789.306396	857.500000
789.342590	852.900000
789.378784	838.800000
789.414978	838.000000
789.451233	845.600000
789.487366	856.500000
789.523621	857.700000
789.559814	850.600000
789.595947	852.000000
789.632202	862.900000
789.668335	870.200000
789.704529	885.300000
789.740784	900.000000
789.776917	894.200000
789.813110	891.600000
789.849304	899.300000
789.885498	906.400000
789.921692	917.300000
789.957886	919.800000
789.994019	921.600000
790.030212	927.400000
790.066406	928.800000
790.102539	925.500000
790.138733	936.300000
790.174927	938.700000
790.211060	945.900000
790.247253	939.500000
790.283386	929.400000
790.319580	916.000000
790.355774	900.900000
790.391907	903.500000
790.428101	923.900000
790.464294	919.300000
790.500427	920.600000
790.536621	903.800000
790.572754	891.500000
790.608887	881.700000
790.645081	891.900000
790.681274	906.600000
790.717346	906.800000
790.753540	889.000000
790.789734	881.700000
790.825867	874.400000
790.862000	877.500000
790.898132	886.300000
790.934265	887.000000
790.970459	886.400000
791.006592	883.800000
791.042725	876.600000
791.078918	870.600000
791.114990	879.000000
791.151184	880.700000
791.187317	897.800000
791.223389	891.100000
791.259583	879.100000
791.295715	883.700000
791.331848	886.400000
791.367981	893.900000
791.404114	900.900000
791.440247	894.100000
791.476379	888.900000
791.512451	881.200000
791.548584	872.200000
791.584778	868.600000
791.620850	882.700000
791.656982	888.800000
791.693115	884.100000
791.729187	881.800000
791.765381	875.900000
791.801514	873.700000
791.837585	878.400000
791.873718	891.100000
791.909851	896.600000
791.945923	898.900000
791.982056	871.000000
792.018188	871.600000
792.054260	872.400000
792.090393	874.400000
792.126465	871.500000
792.162598	878.700000
792.198669	867.300000
792.234741	858.000000
792.270874	849.400000
792.307007	846.800000
792.343079	850.000000
792.379150	864.000000
792.415283	857.100000
792.451355	849.100000
792.487488	822.700000
792.523560	815.600000
792.559631	795.100000
792.595764	751.700000
792.631836	721.900000
792.667908	718.600000
792.703979	713.300000
792.740051	745.400000
792.776184	771.400000
792.812256	780.200000
792.848328	791.000000
792.884399	797.700000
792.920471	794.500000
792.956543	791.500000
792.992615	792.400000
793.028748	792.500000
793.064758	801.800000
793.100830	813.900000
793.136963	826.000000
793.172974	829.300000
793.209045	818.300000
793.245178	824.900000
793.281189	816.100000
793.317261	819.300000
793.353271	820.800000
793.389404	825.900000
793.425476	818.500000
793.461487	804.200000
793.497559	805.300000
793.533630	806.800000
793.569641	809.400000
793.605713	816.500000
793.641785	824.800000
793.677795	827.100000
793.713867	816.400000
793.749878	812.800000
793.785950	826.100000
793.822021	836.400000
793.858032	830.300000
793.894104	840.900000
793.930176	834.900000
793.966187	838.600000
794.002258	834.100000
794.038269	837.700000
794.074280	841.000000
794.110352	858.100000
794.146423	840.800000
794.182373	834.600000
794.218445	825.200000
794.254517	815.600000
794.290466	808.700000
794.326538	817.200000
794.362549	820.100000
794.398560	827.100000
794.434631	817.800000
794.470581	800.500000
794.506653	797.100000
794.542664	805.300000
794.578674	803.100000
794.614685	808.100000
794.650757	809.000000
794.686707	810.600000
794.722778	805.900000
794.758789	820.800000
794.794739	834.100000
794.830811	854.700000
794.866821	872.800000
794.902771	864.200000
794.938843	853.300000
794.974792	853.700000
795.010803	850.600000
795.046814	850.400000
795.082825	849.600000
795.118835	856.400000
795.154846	836.200000
795.190796	826.100000
795.226807	810.700000
795.262817	827.200000
795.298767	832.900000
795.334778	836.900000
795.370850	829.300000
795.406799	832.300000
795.442810	816.400000
795.478821	812.400000
795.514709	809.200000
795.550720	834.600000
795.586670	820.500000
795.622681	827.300000
795.658691	827.300000
795.694641	824.200000
795.730652	817.300000
795.766663	825.800000
795.802551	827.400000
795.838562	841.700000
795.874573	830.200000
795.910522	824.700000
795.946472	822.400000
795.982483	831.300000
796.018433	825.700000
796.054382	836.000000
796.090393	828.500000
796.126282	816.700000
796.162292	807.200000
796.198242	804.600000
796.234192	802.200000
796.270203	810.200000
796.306091	814.700000
796.342041	819.300000
796.378052	807.100000
796.413940	807.100000
796.449951	813.200000
796.485901	820.600000
796.521790	828.000000
796.557800	834.700000
796.593689	830.800000
796.629639	822.300000
796.665649	820.100000
796.701599	813.900000
796.737488	817.700000
796.773437	826.200000
796.809387	825.500000
796.845337	823.100000
796.881287	812.900000
796.917175	809.500000
796.953125	811.600000
796.989075	821.800000
797.024963	822.900000
797.060913	817.300000
797.096863	809.300000
797.132751	803.800000
797.168701	791.000000
797.204590	799.800000
797.240540	801.600000
797.276489	806.500000
797.312439	808.300000
797.348328	802.900000
797.384277	790.700000
797.420166	785.000000
797.456055	788.500000
797.492004	792.800000
797.527893	800.700000
797.563843	800.700000
797.599731	796.200000
797.635620	783.000000
797.671570	782.800000
797.707520	788.900000
797.743347	793.700000
797.779297	805.700000
797.815125	800.100000
797.851074	788.500000
797.887024	771.300000
797.922913	768.000000
797.958801	780.100000
797.994690	775.400000
798.030579	780.500000
798.066467	781.200000
798.102356	775.600000
798.138245	772.900000
798.174133	764.700000
798.210083	775.100000
798.245911	782.200000
798.281799	784.400000
798.317749	772.400000
798.353577	766.800000
798.389465	765.100000
798.425293	765.900000
798.461243	770.100000
798.497131	778.700000
798.532959	776.900000
798.568848	773.300000
798.604736	766.500000
798.640564	754.300000
798.676453	757.900000
798.712402	758.200000
798.748230	762.300000
798.784119	762.400000
798.820007	756.700000
798.855835	752.100000
798.891724	753.000000
798.927551	750.700000
798.963379	753.400000
798.999268	750.500000
799.035095	744.900000
799.070984	734.000000
799.106873	728.000000
799.142700	736.400000
799.178528	725.600000
799.214417	736.400000
799.250244	748.200000
799.286133	735.400000
799.321960	735.400000
799.357788	733.500000
799.393677	727.900000
799.429504	733.800000
799.465332	731.400000
799.501221	738.300000
799.537048	736.700000
799.572876	732.200000
799.608704	728.300000
799.644531	740.800000
799.680359	740.800000
799.716248	753.400000
799.752014	760.200000
799.787903	740.600000
799.823730	737.000000
799.859558	724.300000
799.895386	734.600000
799.931213	736.500000
799.967041	731.600000
800.002869	730.800000
800.038696	739.500000
800.074463	722.500000
800.110352	726.300000
800.146179	726.200000
800.181946	731.500000
800.217773	731.600000
800.253540	726.400000
800.289429	720.400000
800.325256	719.600000
800.361023	717.000000
800.396851	722.300000
800.432678	732.100000
800.468445	724.400000
800.504272	719.500000
800.540100	709.800000
800.575867	712.500000
800.611694	717.500000
800.647461	713.100000
800.683289	713.300000
800.719116	717.600000
800.754883	711.000000
800.790649	699.500000
800.826477	696.600000
800.862244	716.600000
800.898071	705.200000
800.933838	704.500000
800.969604	700.300000
801.005432	697.000000
801.041199	693.500000
801.076965	689.500000
801.112793	683.800000
801.148560	683.200000
801.184326	685.900000
801.220154	690.000000
801.255859	682.500000
801.291687	673.100000
801.327454	669.900000
801.363281	673.600000
801.398987	672.500000
801.434814	674.400000
801.470520	677.200000
801.506287	668.400000
801.542114	663.800000
801.577820	667.200000
801.613647	670.800000
801.649414	667.000000
801.685120	668.100000
801.720886	666.400000
801.756714	661.500000
801.792419	660.400000
801.828186	651.400000
801.863892	661.000000
801.899719	656.800000
801.935486	653.900000
801.971252	656.500000
802.006958	652.700000
802.042725	650.600000
802.078430	654.900000
802.114197	647.000000
802.149963	655.300000
802.185669	641.100000
802.221436	641.900000
802.257202	644.700000
802.292908	642.200000
802.328674	651.700000
802.364441	651.400000
802.400146	645.300000
802.435913	642.800000
802.471558	637.700000
802.507324	644.200000
802.543091	637.300000
802.578796	643.900000
802.614502	646.000000
802.650269	654.900000
802.685974	640.400000
802.721741	643.700000
802.757446	643.700000
802.793152	642.000000
802.828918	649.400000
802.864624	644.500000
802.900330	642.800000
802.936035	640.000000
802.971802	639.100000
803.007446	631.300000
803.043213	629.800000
803.078857	638.900000
803.114624	627.200000
803.150330	626.900000
803.185974	617.400000
803.221741	616.700000
803.257446	629.300000
803.293152	633.500000
803.328857	626.000000
803.364563	623.800000
803.400208	620.400000
803.435974	620.400000
803.471680	615.700000
803.507324	618.500000
803.543030	620.600000
803.578735	622.600000
803.614441	617.700000
803.650146	625.500000
803.685791	616.700000
803.721497	617.100000
803.757202	607.000000
803.792847	612.600000
803.828552	606.900000
803.864258	609.800000
803.899902	605.600000
803.935608	591.500000
803.971313	592.000000
804.006958	596.700000
804.042664	598.700000
804.078308	602.100000
804.113953	588.100000
804.149658	595.000000
804.185364	592.300000
804.221008	600.800000
804.256714	582.900000
804.292297	584.200000
804.328003	580.900000
804.363708	576.700000
804.399292	581.000000
804.434998	581.100000
804.470703	576.900000
804.506287	586.600000
804.541992	581.400000
804.577637	584.100000
804.613281	569.100000
804.648926	565.400000
804.684570	571.800000
804.720215	568.500000
804.755920	564.200000
804.791565	566.000000
804.827209	570.800000
804.862854	563.000000
804.898437	555.300000
804.934143	561.600000
804.969788	558.700000
805.005371	559.500000
805.041077	560.900000
805.076721	555.600000
805.112305	550.500000
805.147949	547.500000
805.183655	545.700000
805.219238	550.400000
805.254883	548.700000
805.290466	555.400000
805.326111	552.700000
805.361755	545.900000
805.397400	542.500000
805.432983	540.800000
805.468628	547.200000
805.504211	548.900000
805.539856	548.700000
805.575500	548.900000
805.611084	539.400000
805.646729	529.700000
805.682373	533.700000
805.717957	539.200000
805.753601	543.700000
805.789246	530.800000
805.824768	540.000000
805.860413	540.300000
805.895996	527.400000
805.931641	532.800000
805.967224	538.200000
806.002869	534.800000
806.038452	540.800000
806.074036	540.200000
806.109619	530.400000
806.145264	523.500000
806.180847	524.900000
806.216431	527.400000
806.252014	526.800000
806.287659	525.600000
806.323181	529.400000
806.358826	525.100000
806.394409	514.400000
806.429993	515.200000
806.465576	519.000000
806.501160	515.200000
806.536743	508.200000
806.572327	516.600000
806.607910	515.400000
806.643494	515.600000
806.679077	508.400000
806.714661	507.500000
806.750244	509.700000
806.785828	505.500000
806.821350	502.800000
806.856934	505.900000
806.892517	503.100000
806.928101	501.900000
806.963684	504.400000
806.999268	505.000000
807.034790	494.700000
807.070374	497.200000
807.105896	491.500000
807.141479	488.800000
807.177063	492.900000
807.212585	488.700000
807.248169	489.000000
807.283752	493.500000
807.319275	486.500000
807.354858	486.000000
807.390381	487.000000
807.425903	479.700000
807.461487	480.300000
807.497070	474.900000
807.532593	474.700000
807.568115	476.200000
807.603699	472.000000
807.639221	466.500000
807.674744	471.700000
807.710266	476.200000
807.745850	475.200000
807.781372	472.000000
807.816895	466.900000
807.852417	470.900000
807.888000	467.600000
807.923523	467.200000
807.959045	469.700000
807.994629	463.100000
808.030090	464.000000
808.065613	463.800000
808.101135	470.200000
808.136658	463.700000
808.172241	461.500000
808.207764	463.300000
808.243225	460.600000
808.278809	457.000000
808.314270	462.400000
808.349792	451.000000
808.385315	452.500000
808.420837	456.100000
808.456360	458.900000
808.491882	456.900000
808.527344	455.800000
808.562866	459.200000
808.598389	455.600000
808.633850	449.600000
808.669434	445.800000
808.704895	451.100000
808.740417	456.500000
808.775940	447.600000
808.811462	445.100000
808.846924	439.400000
808.882385	438.700000
808.917847	441.100000
808.953369	444.600000
808.988892	438.500000
809.024353	444.500000
809.059875	446.700000
809.095398	441.000000
809.130798	435.900000
809.166321	437.500000
809.201843	437.000000
809.237305	439.000000
809.272766	440.200000
809.308228	431.700000
809.343750	431.200000
809.379211	429.400000
809.414734	430.500000
809.450134	432.200000
809.485657	424.300000
809.521118	429.000000
809.556580	425.500000
809.592102	424.600000
809.627502	424.200000
809.663025	422.300000
809.698486	416.600000
809.733887	415.000000
809.769409	420.500000
809.804871	410.900000
809.840271	414.200000
809.875793	414.300000
809.911194	417.600000
809.946655	410.900000
809.982178	412.300000
810.017639	408.200000
810.053040	410.200000
810.088501	407.500000
810.123901	407.800000
810.159424	404.700000
810.194885	401.600000
810.230286	404.300000
810.265747	397.500000
810.301208	395.500000
810.336609	399.200000
810.372070	390.000000
810.407532	393.600000
810.442932	393.000000
810.478394	395.000000
810.513794	390.000000
810.549255	389.500000
810.584717	386.600000
810.620117	382.800000
810.655518	387.400000
810.690979	383.900000
810.726379	384.500000
810.761841	378.900000
810.797302	375.000000
810.832642	372.600000
810.868103	383.000000
810.903564	374.600000
810.938904	380.900000
810.974365	368.300000
811.009827	371.600000
811.045166	368.400000
811.080627	364.100000
811.115967	367.300000
811.151428	372.000000
811.186829	367.300000
811.222229	367.900000
811.257629	362.300000
811.293091	367.500000
811.328430	371.700000
811.363892	369.100000
811.399292	370.000000
811.434631	365.000000
811.470093	365.100000
811.505493	358.800000
811.540833	361.700000
811.576294	363.300000
811.611694	359.600000
811.647034	356.000000
811.682434	356.500000
811.717773	359.700000
811.753235	364.900000
811.788635	355.700000
811.823975	355.000000
811.859375	361.000000
811.894775	350.200000
811.930115	352.500000
811.965515	353.000000
812.000916	354.400000
812.036255	351.400000
812.071655	358.000000
812.106995	350.300000
812.142395	348.200000
812.177795	356.200000
812.213196	350.700000
812.248474	350.800000
812.283875	343.600000
812.319214	346.900000
812.354614	347.400000
812.390015	342.500000
812.425293	342.600000
812.460693	343.300000
812.496094	338.600000
812.531433	335.900000
812.566772	335.400000
812.602173	337.200000
812.637451	336.400000
812.672852	333.100000
812.708191	334.500000
812.743530	331.500000
812.778931	327.500000
812.814270	326.500000
812.849609	333.100000
812.884949	329.200000
812.920227	324.900000
812.955627	334.100000
812.990967	325.800000
813.026306	324.500000
813.061646	316.000000
813.096985	314.500000
813.132324	310.900000
813.167664	316.400000
813.203003	320.800000
813.238281	309.900000
813.273682	310.500000
813.308960	309.000000
813.344299	308.400000
813.379639	313.900000
813.414978	309.300000
813.450256	306.000000
813.485596	307.000000
813.520874	301.600000
813.556213	304.400000
813.591614	309.200000
813.626831	301.400000
813.662170	305.100000
813.697510	312.100000
813.732788	301.400000
813.768127	301.600000
813.803467	301.500000
813.838745	298.800000
813.874084	301.900000
813.909363	298.300000
813.944641	301.300000
813.979980	292.500000
814.015320	295.200000
814.050598	294.600000
814.085876	295.000000
814.121155	294.000000
814.156494	293.000000
814.191772	295.300000
814.227051	290.500000
814.262390	291.700000
814.297668	292.500000
814.332947	291.200000
814.368225	288.500000
814.403564	289.300000
814.438782	286.600000
814.474121	289.700000
814.509338	284.900000
814.544617	291.300000
814.579956	284.200000
814.615173	291.200000
814.650513	287.500000
814.685791	282.100000
814.721008	285.000000
814.756348	285.000000
814.791626	280.500000
814.826843	280.700000
814.862122	280.500000
814.897400	279.900000
814.932678	280.500000
814.967957	282.300000
815.003235	279.800000
815.038452	274.700000
815.073730	272.600000
815.108948	280.900000
815.144226	281.100000
815.179504	282.200000
815.214722	270.400000
815.250000	269.100000
815.285278	274.900000
815.320496	271.200000
815.355774	270.500000
815.391052	272.300000
815.426270	270.300000
815.461487	269.100000
815.496765	263.900000
815.531982	264.100000
815.567261	267.000000
815.602539	270.500000
815.637695	269.500000
815.672974	269.400000
815.708191	271.200000
815.743408	270.200000
815.778687	263.600000
815.813904	270.200000
815.849121	259.600000
815.884399	261.700000
815.919556	259.300000
815.954834	261.100000
815.990051	263.900000
816.025269	264.600000
816.060486	257.500000
816.095703	257.300000
816.130920	259.300000
816.166199	256.700000
816.201416	260.800000
816.236572	259.500000
816.271851	256.400000
816.307007	258.100000
816.342224	250.800000
816.377441	254.100000
816.412659	247.800000
816.447876	254.700000
816.483093	252.600000
816.518250	249.700000
816.553467	249.400000
816.588745	252.100000
816.623901	248.100000
816.659119	241.100000
816.694275	247.200000
816.729492	244.000000
816.764709	272.000000
816.799927	241.400000
816.835083	245.300000
816.870300	239.600000
816.905457	242.900000
816.940674	242.000000
816.975830	239.000000
817.010986	237.000000
817.046204	238.700000
817.081421	234.900000
817.116577	235.600000
817.151733	242.000000
817.186951	241.500000
817.222107	239.300000
817.257324	240.000000
817.292419	237.600000
817.327637	231.800000
817.362854	234.000000
817.398010	232.200000
817.433167	233.900000
817.468323	231.600000
817.503479	233.200000
817.538635	239.400000
817.573853	233.500000
817.608948	231.400000
817.644165	230.200000
817.679321	227.900000
817.714478	227.800000
817.749634	229.500000
817.784790	237.700000
817.819946	233.900000
817.855103	221.800000
817.890198	227.200000
817.925415	221.800000
817.960571	229.200000
817.995667	228.700000
818.030823	227.500000
818.066040	223.100000
818.101135	224.800000
818.136292	224.900000
818.171448	220.100000
818.206543	223.400000
818.241699	225.600000
818.276855	224.400000
818.311951	222.400000
818.347107	219.800000
818.382263	223.700000
818.417358	226.500000
818.452515	224.200000
818.487610	227.000000
818.522766	217.300000
818.557922	224.600000
818.593018	221.800000
818.628113	220.300000
818.663269	216.400000
818.698364	220.000000
818.733521	216.900000
818.768677	219.400000
818.803711	214.100000
818.838867	215.200000
818.874023	214.800000
818.909058	213.300000
818.944214	212.700000
818.979370	216.600000
819.014404	213.500000
819.049561	211.200000
819.084595	214.800000
819.119751	209.600000
819.154846	214.000000
819.189941	211.000000
819.225037	209.200000
819.260193	205.800000
819.295227	206.600000
819.330322	204.900000
819.365479	204.500000
819.400513	238.800000
819.435608	203.900000
819.470764	201.400000
819.505798	203.400000
819.540894	205.200000
819.575989	203.300000
819.611084	208.400000
819.646179	211.100000
819.681213	205.200000
819.716309	205.200000
819.751404	203.400000
819.786438	208.700000
819.821533	199.600000
819.856628	203.100000
819.891663	203.600000
819.926758	211.700000
819.961853	207.300000
819.996887	201.900000
820.031982	203.400000
820.067017	201.700000
820.102112	234.500000
820.137207	199.300000
820.172302	209.400000
820.207275	198.600000
820.242371	196.700000
820.277405	198.200000
820.312500	199.400000
820.347534	198.800000
820.382568	203.100000
820.417664	196.900000
820.452759	196.500000
820.487732	198.200000
820.522827	195.800000
820.557861	194.500000
820.592896	196.800000
820.627930	196.100000
820.662964	195.000000
820.698059	197.700000
820.733093	194.100000
820.768127	197.800000
820.803162	196.400000
820.838196	193.800000
820.873230	194.900000
820.908264	196.800000
820.943298	194.000000
820.978333	197.600000
821.013367	195.900000
821.048401	198.200000
821.083435	198.400000
821.118469	189.300000
821.153503	197.900000
821.188477	196.000000
821.223511	191.100000
821.258484	192.500000
821.293579	194.300000
821.328613	189.800000
821.363647	193.200000
821.398621	188.500000
821.433655	191.900000
821.468628	202.200000
821.503662	192.100000
821.538696	195.000000
821.573669	190.600000
821.608704	194.200000
821.643677	192.000000
821.678650	194.600000
821.713684	197.200000
821.748718	191.300000
821.783691	192.300000
821.818726	191.900000
821.853638	193.400000
821.888672	190.600000
821.923706	191.100000
821.958618	189.800000
821.993652	189.400000
822.028687	195.400000
822.063599	197.200000
822.098633	192.300000
822.133667	188.900000
822.168579	189.800000
822.203613	191.600000
822.238586	189.300000
822.273560	192.600000
822.308533	188.500000
822.343567	189.400000
822.378479	190.000000
822.413452	188.700000
822.448425	187.100000
822.483398	193.200000
822.518372	193.600000
822.553345	187.100000
822.588318	196.500000
822.623291	188.400000
822.658203	189.900000
822.693237	189.200000
822.728210	188.300000
822.763123	190.300000
822.798096	186.700000
822.833069	189.200000
822.867981	188.700000
822.902954	191.600000
822.937927	192.800000
822.972900	196.600000
823.007874	185.300000
823.042725	192.500000
823.077698	197.500000
823.112671	187.100000
823.147583	188.900000
823.182556	190.200000
823.217529	192.600000
823.252441	187.200000
823.287415	198.500000
823.322388	192.100000
823.357239	189.000000
823.392212	193.100000
823.427185	195.300000
823.462097	184.600000
823.497009	190.600000
823.531982	187.900000
823.566895	189.300000
823.601807	185.400000
823.636719	187.800000
823.671631	190.400000
823.706604	186.900000
823.741455	190.600000
823.776428	183.400000
823.811340	191.200000
823.846252	193.200000
823.881165	194.100000
823.916138	189.100000
823.950989	194.700000
823.985901	186.300000
824.020813	188.900000
824.055725	188.200000
824.090637	184.300000
824.125610	191.000000
824.160461	190.000000
824.195374	188.300000
824.230225	191.400000
824.265198	184.800000
824.300110	186.300000
824.334961	195.200000
824.369873	180.900000
824.404785	190.000000
824.439636	191.400000
824.474548	183.900000
824.509460	181.600000
824.544312	192.100000
824.579224	189.600000
824.614075	189.400000
824.648987	186.900000
824.683899	185.500000
824.718811	185.800000
824.753662	189.800000
824.788574	190.900000
824.823364	188.000000
824.858276	183.800000
824.893188	189.600000
824.928040	190.700000
824.962952	187.100000
824.997803	189.900000
825.032654	186.100000
825.067566	188.100000
825.102417	184.200000
825.137268	185.300000
825.172119	186.200000
825.206970	183.900000
825.241882	185.200000
825.276733	183.500000
825.311646	183.300000
825.346436	182.200000
825.381348	181.800000
825.416138	186.400000
825.450989	181.700000
825.485901	178.800000
825.520691	179.800000
825.555542	180.700000
825.590454	183.300000
825.625244	179.900000
825.660095	188.000000
825.695007	186.100000
825.729797	184.200000
825.764648	180.900000
825.799438	183.500000
825.834290	184.800000
825.869202	179.800000
825.903992	184.300000
825.938843	181.100000
825.973694	179.900000
826.008484	192.600000
826.043335	180.200000
826.078186	176.900000
826.112976	185.400000
826.147827	186.500000
826.182678	188.100000
826.217468	178.000000
826.252319	187.300000
826.287109	179.200000
826.321899	185.100000
826.356750	181.800000
826.391541	179.000000
826.426392	183.900000
826.461182	182.000000
826.495972	178.300000
826.530823	175.100000
826.565613	182.600000
826.600403	177.600000
826.635254	184.500000
826.670044	175.900000
826.704834	177.300000
826.739685	178.100000
826.774475	183.900000
826.809265	180.300000
826.844055	178.600000
826.878906	184.900000
826.913635	182.700000
826.948425	181.900000
826.983215	182.800000
827.018005	182.700000
827.052856	179.300000
827.087585	183.000000
827.122375	176.000000
827.157227	178.700000
827.191956	190.300000
827.226746	177.300000
827.261536	182.400000
827.296265	176.600000
827.331116	179.800000
827.365906	183.300000
827.400635	178.500000
827.435425	174.500000
827.470215	185.600000
827.504944	180.000000
827.539734	184.300000
827.574463	179.800000
827.609253	186.200000
827.644043	180.900000
827.678772	185.200000
827.713562	180.100000
827.748352	181.700000
827.783081	178.800000
827.817871	182.700000
827.852600	177.700000
827.887329	180.300000
827.922119	176.300000
827.956848	183.100000
827.991638	190.400000
828.026367	182.800000
828.061157	180.900000
828.095886	179.600000
828.130615	191.600000
828.165344	173.500000
828.200073	181.600000
828.234863	179.100000
828.269592	180.000000
828.304321	183.200000
828.339111	181.700000
828.373779	177.900000
828.408569	184.800000
828.443298	184.400000
828.477966	178.900000
828.512756	181.600000
828.547424	177.400000
828.582214	179.900000
828.616943	180.200000
828.651672	179.700000
828.686340	182.700000
828.721130	178.600000
828.755798	181.500000
828.790527	181.400000
828.825256	183.000000
828.859924	180.100000
828.894714	184.200000
828.929443	188.400000
828.964111	179.500000
828.998840	184.000000
829.033569	179.000000
829.068237	181.000000
829.102966	179.300000
829.137634	181.400000
829.172363	182.000000
829.207092	182.500000
829.241821	178.600000
829.276489	177.200000
829.311157	181.400000
829.345825	180.900000
829.380554	185.400000
829.415283	177.700000
829.449951	176.400000
829.484619	186.400000
829.519348	185.000000
829.554016	180.400000
829.588745	180.800000
829.623413	177.300000
829.658081	189.200000
829.692749	178.200000
829.727417	184.200000
829.762146	182.100000
829.796814	177.600000
829.831482	179.000000
829.866150	181.400000
829.900879	180.900000
829.935486	182.000000
829.970154	178.700000
830.004883	189.300000
830.039490	181.100000
830.074219	177.600000
830.108887	181.800000
830.143494	178.800000
830.178223	175.700000
830.212891	178.700000
830.247498	179.900000
830.282166	185.400000
830.316772	186.000000
830.351501	179.600000
830.386169	181.300000
830.420776	180.300000
830.455444	181.300000
830.490112	178.100000
830.524719	176.700000
830.559387	182.300000
830.594055	182.800000
830.628662	179.900000
830.663330	179.600000
830.697998	186.800000
830.732605	180.800000
830.767273	181.800000
830.801941	181.000000
830.836487	188.100000
830.871155	180.700000
830.905762	181.900000
830.940430	175.600000
830.975098	179.300000
831.009644	181.500000
831.044312	186.800000
831.078979	181.900000
831.113525	175.600000
831.148193	181.500000
831.182861	181.100000
831.217407	183.300000
831.252075	191.100000
831.286621	179.500000
831.321289	178.100000
831.355896	180.300000
831.390564	185.200000
831.425110	180.600000
831.459778	185.900000
831.494324	190.100000
831.528931	182.000000
831.563599	185.400000
831.598145	176.600000
831.632751	181.500000
831.667419	181.300000
831.701965	182.300000
831.736572	181.600000
831.771179	176.800000
831.805786	179.400000
831.840393	185.700000
831.874939	175.900000
831.909546	183.200000
831.944153	174.800000
831.978760	180.800000
832.013306	177.700000
832.047913	184.000000
832.082458	190.300000
832.117065	176.900000
832.151672	186.500000
832.186218	183.200000
832.220825	182.800000
832.255432	176.600000
832.289978	179.900000
832.324585	181.900000
832.359192	182.200000
832.393677	180.500000
832.428284	180.800000
832.462830	180.400000
832.497437	181.800000
832.531982	183.800000
832.566589	180.100000
832.601135	182.200000
832.635681	176.500000
832.670227	181.000000
832.704773	187.400000
832.739380	181.600000
832.773926	180.800000
832.808472	179.300000
832.843079	180.700000
832.877563	183.800000
832.912170	180.800000
832.946716	176.400000
832.981201	183.500000
833.015808	182.100000
833.050293	180.800000
833.084839	178.200000
833.119446	180.400000
833.153992	183.400000
833.188477	179.600000
833.223022	179.200000
833.257568	181.900000
833.292114	184.400000
833.326660	188.700000
833.361145	178.100000
833.395691	175.100000
833.430237	180.600000
833.464783	183.000000
833.499329	178.500000
833.533875	175.900000
833.568359	183.200000
833.602905	184.800000
833.637390	187.000000
833.671875	178.000000
833.706421	180.500000
833.740906	178.800000
833.775452	174.300000
833.809998	179.300000
833.844482	185.700000
833.879028	179.500000
833.913513	179.600000
833.947998	183.000000
833.982544	177.300000
834.017090	178.900000
834.051514	175.000000
834.086060	182.900000
834.120544	181.200000
834.155029	183.200000
834.189575	180.400000
834.223999	183.700000
834.258545	182.200000
834.293030	181.900000
834.327515	179.700000
834.362000	180.800000
834.396545	183.300000
834.430969	180.400000
834.465454	184.500000
834.500000	176.800000
834.534424	182.300000
834.568970	174.800000
834.603455	173.400000
834.637878	178.400000
834.672363	181.400000
834.706909	181.500000
834.741333	181.500000
834.775818	176.700000
834.810242	178.200000
834.844727	180.800000
834.879211	180.200000
834.913635	182.300000
834.948181	181.200000
834.982666	182.400000
835.017090	179.900000
835.051575	181.500000
835.086060	179.000000
835.120483	181.900000
835.154907	181.900000
835.189331	181.400000
835.223816	182.000000
835.258301	176.800000
835.292786	177.400000
835.327209	183.200000
835.361694	177.800000
835.396057	180.100000
835.430542	183.500000
835.465027	179.400000
835.499390	177.900000
835.533875	206.800000
835.568359	179.600000
835.602722	176.400000
835.637207	181.700000
835.671692	176.800000
835.706055	195.200000
835.740540	182.300000
835.774902	182.100000
835.809387	182.000000
835.843811	177.400000
835.878235	185.000000
835.912659	177.700000
835.947083	178.300000
835.981506	181.300000
836.015930	177.100000
836.050354	184.600000
836.084778	186.700000
836.119202	186.800000
836.153625	193.300000
836.187988	178.600000
836.222473	177.800000
836.256897	182.100000
836.291260	179.100000
836.325684	183.300000
836.360046	179.300000
836.394470	181.300000
836.428894	185.700000
836.463318	178.400000
836.497681	184.200000
836.532104	187.200000
836.566467	181.400000
836.600891	180.300000
836.635315	184.600000
836.669678	183.400000
836.704102	183.800000
836.738525	182.900000
836.772888	174.600000
836.807251	178.800000
836.841675	183.200000
836.876038	177.100000
836.910461	178.100000
836.944763	183.000000
836.979187	177.100000
837.013611	185.300000
837.047974	176.300000
837.082336	190.000000
837.116699	184.600000
837.151062	180.200000
837.185486	175.600000
837.219849	179.200000
837.254211	183.400000
837.288574	181.500000
837.322937	178.300000
837.357300	174.200000
837.391663	190.000000
837.426086	183.900000
837.460388	183.400000
837.494751	183.700000
837.529114	179.500000
837.563477	186.800000
837.597839	181.800000
837.632141	180.100000
837.666565	179.600000
837.700928	183.100000
837.735229	182.400000
837.769592	184.100000
837.803955	182.900000
837.838257	179.100000
837.872620	178.800000
837.906982	186.400000
837.941284	181.000000
837.975647	182.800000
838.010010	184.700000
838.044312	179.000000
838.078674	179.500000
838.112976	181.300000
838.147339	183.700000
838.181702	180.800000
838.216003	186.200000
838.250366	182.300000
838.284668	183.900000
838.318970	176.600000
838.353333	180.400000
838.387634	179.800000
838.421936	180.800000
838.456299	180.800000
838.490601	187.700000
838.524902	184.000000
838.559265	184.000000
838.593567	184.000000
838.627869	177.200000
838.662170	182.200000
838.696472	178.200000
838.730774	178.500000
838.765137	184.500000
838.799377	173.900000
838.833740	181.700000
838.868042	184.600000
838.902283	176.400000
838.936646	186.700000
838.970947	181.600000
839.005188	187.700000
839.039551	176.000000
839.073792	185.700000
839.108093	180.300000
839.142395	188.100000
839.176697	177.100000
839.210937	181.900000
839.245300	187.900000
839.279541	178.200000
839.313843	180.600000
839.348145	183.500000
839.382385	184.000000
839.416687	185.300000
839.450989	183.100000
839.485229	180.600000
839.519531	178.400000
839.553833	184.900000
839.588013	179.800000
839.622314	182.700000
839.656555	182.300000
839.690857	180.900000
839.725159	176.700000
839.759460	181.700000
839.793640	178.300000
839.827942	182.900000
839.862183	178.100000
839.896423	182.100000
839.930725	191.100000
839.964966	188.700000
839.999207	185.100000
840.033508	186.200000
840.067688	178.900000
840.101990	187.300000
840.136230	181.500000
840.170471	187.600000
840.204712	177.600000
840.238953	178.300000
840.273193	181.800000
840.307434	184.800000
840.341736	179.500000
840.375916	178.000000
840.410217	179.300000
840.444397	183.700000
840.478638	183.400000
840.512878	184.600000
840.547119	181.700000
840.581360	184.100000
840.615601	189.100000
840.649780	190.600000
840.684021	180.200000
840.718262	188.500000
840.752441	186.800000
840.786682	182.300000
840.820862	182.300000
840.855103	188.100000
840.889343	181.800000
840.923584	185.500000
840.957764	183.000000
840.992004	182.900000
841.026184	192.900000
841.060425	182.000000
841.094666	178.900000
841.128845	183.900000
841.163025	183.400000
841.197266	182.300000
841.231445	181.800000
841.265686	182.300000
841.299866	178.200000
841.334045	186.900000
841.368286	180.900000
841.402405	187.000000
841.436646	183.100000
841.470825	179.200000
841.505005	180.700000
841.539185	177.600000
841.573425	180.300000
841.607544	181.400000
841.641785	181.400000
841.675964	178.800000
841.710144	183.300000
841.744324	178.600000
841.778503	182.300000
841.812683	178.900000
841.846863	186.200000
841.881042	187.300000
841.915222	178.600000
841.949402	191.400000
841.983521	177.200000
842.017700	181.000000
842.051880	182.600000
842.086060	184.500000
842.120239	182.700000
842.154419	179.900000
842.188538	182.500000
842.222717	179.800000
842.256897	188.400000
842.291016	181.500000
842.325195	182.500000
842.359375	190.700000
842.393494	188.800000
842.427673	182.300000
842.461853	183.900000
842.495911	188.600000
842.530090	182.900000
842.564209	180.500000
842.598389	183.400000
842.632568	181.700000
842.666626	182.500000
842.700806	180.500000
842.734985	179.100000
842.769043	184.600000
842.803223	180.300000
842.837402	180.700000
842.871460	180.400000
842.905640	189.300000
842.939697	178.600000
842.973877	183.300000
843.007996	186.200000
843.042175	188.700000
843.076233	178.200000
843.110413	183.500000
843.144470	187.400000
843.178589	186.700000
843.212769	179.700000
843.246826	184.900000
843.280945	179.400000
843.315125	182.900000
843.349182	179.100000
843.383301	185.400000
843.417419	191.100000
843.451538	182.300000
843.485657	180.000000
843.519714	182.300000
843.553833	183.100000
843.587952	180.100000
843.622070	179.600000
843.656128	184.000000
843.690247	180.400000
843.724304	183.200000
843.758423	183.800000
843.792542	179.500000
843.826599	183.300000
843.860718	180.900000
843.894836	178.000000
843.928894	182.200000
843.963013	183.400000
843.997070	179.900000
844.031128	177.100000
844.065247	185.700000
844.099304	184.700000
844.133362	183.000000
844.167480	184.700000
844.201599	186.900000
844.235596	184.100000
844.269714	184.100000
844.303711	183.600000
844.337830	177.900000
844.371948	184.600000
844.405945	182.300000
844.440063	179.600000
844.474121	191.000000
844.508118	180.700000
844.542236	181.600000
844.576294	181.500000
844.610352	177.300000
844.644409	181.500000
844.678406	176.400000
844.712524	184.900000
844.746582	186.700000
844.780640	181.800000
844.814636	181.800000
844.848755	191.100000
844.882751	180.400000
844.916809	184.300000
844.950867	183.000000
844.984863	188.500000
845.018921	180.800000
845.052979	179.400000
845.086975	183.700000
845.121033	178.300000
845.155090	180.600000
845.189087	187.200000
845.223145	181.900000
845.257141	185.400000
845.291199	184.200000
845.325256	186.200000
845.359253	184.000000
845.393250	194.100000
845.427307	180.600000
845.461304	184.400000
845.495361	184.300000
845.529358	189.400000
845.563354	182.400000
845.597412	179.300000
845.631409	190.700000
845.665405	187.800000
845.699463	185.100000
845.733459	180.400000
845.767456	190.600000
845.801453	181.100000
845.835449	186.400000
845.869446	183.700000
845.903503	185.200000
845.937439	178.600000
845.971497	187.500000
846.005493	179.200000
846.039429	186.100000
846.073486	190.700000
846.107483	180.400000
846.141418	181.100000
846.175476	183.000000
846.209473	186.900000
846.243408	180.800000
846.277405	182.000000
846.311401	179.000000
846.345337	182.600000
846.379395	187.300000
846.413330	179.300000
846.447327	190.600000
846.481323	179.200000
846.515259	179.700000
846.549255	181.300000
846.583252	184.900000
846.617187	180.100000
846.651184	182.900000
846.685120	181.400000
846.719055	188.800000
846.753052	185.200000
846.786987	186.800000
846.820984	176.600000
846.854980	187.900000
846.888916	179.800000
846.922852	183.600000
846.956848	187.900000
846.990723	180.400000
847.024719	182.700000
847.058716	182.400000
847.092590	189.100000
847.126587	183.100000
847.160522	181.300000
847.194458	186.800000
847.228455	179.900000
847.262390	178.300000
847.296265	180.800000
847.330261	186.400000
847.364136	180.800000
847.398132	182.700000
847.432068	183.200000
847.466003	181.600000
847.499939	181.500000
847.533875	184.700000
847.567749	182.800000
847.601746	181.200000
847.635681	184.800000
847.669556	177.400000
847.703491	188.000000
847.737427	191.700000
847.771301	177.600000
847.805237	184.100000
847.839233	182.400000
847.873108	180.900000
847.907043	182.700000
847.940918	187.800000
847.974854	183.600000
848.008789	185.000000
848.042664	182.200000
848.076538	183.200000
848.110474	182.000000
848.144348	183.500000
848.178284	177.200000
848.212219	183.600000
848.246094	179.300000
848.279968	181.900000
848.313904	184.600000
848.347778	182.300000
848.381653	181.800000
848.415588	180.600000
848.449463	180.600000
848.483337	184.300000
848.517212	189.000000
848.551086	183.200000
848.585022	178.900000
848.618835	190.000000
848.652771	181.200000
848.686646	179.400000
848.720520	188.300000
848.754395	182.200000
848.788330	185.800000
848.822144	185.900000
848.856018	180.400000
848.889954	190.800000
848.923767	179.200000
848.957642	180.100000
848.991577	184.000000
849.025391	181.600000
849.059265	181.900000
849.093079	179.800000
849.126953	177.800000
849.160828	186.400000
849.194641	181.800000
849.228577	181.600000
849.262451	180.800000
849.296265	181.900000
849.330139	178.900000
849.364014	182.900000
849.397827	183.000000
849.431702	183.300000
849.465515	184.900000
849.499329	176.100000
849.533203	179.200000
849.567078	174.700000
849.600891	183.700000
849.634766	181.400000
849.668518	183.600000
849.702393	183.200000
849.736267	178.000000
849.770020	189.600000
849.803894	183.700000
849.837769	184.500000
849.871521	182.700000
849.905396	185.700000
849.939270	180.100000
849.973022	181.400000
850.006897	184.900000
850.040710	185.400000
850.074524	185.900000
850.108337	183.100000
850.142151	187.300000
850.175964	187.900000
850.209778	182.200000
850.243530	175.100000
850.277405	186.300000
850.311218	182.500000
850.344971	181.400000
850.378845	187.800000
850.412659	180.900000
850.446411	184.500000
850.480225	183.500000
850.514038	186.800000
850.547791	184.800000
850.581665	182.100000
850.615417	180.200000
850.649231	183.500000
850.683044	182.300000
850.716858	181.700000
850.750610	183.800000
850.784424	183.500000
850.818176	179.000000
850.851929	181.700000
850.885742	180.500000
850.919495	181.400000
850.953308	187.500000
850.987122	187.200000
851.020874	179.300000
851.054626	176.700000
851.088440	185.100000
851.122192	184.800000
851.156006	184.200000
851.189697	181.700000
851.223511	178.300000
851.257263	186.400000
851.291077	184.400000
851.324829	181.000000
851.358582	182.300000
851.392334	181.400000
851.426086	181.300000
851.459900	188.200000
851.493591	184.000000
851.527344	181.600000
851.561157	183.000000
851.594849	183.800000
851.628662	183.500000
851.662415	190.400000
851.696106	185.900000
851.729858	185.700000
851.763611	179.300000
851.797363	183.300000
851.831116	180.900000
851.864868	186.000000
851.898560	186.800000
851.932312	180.900000
851.966064	185.100000
851.999817	182.200000
852.033569	181.600000
852.067261	188.300000
852.101013	178.900000
852.134766	182.100000
852.168457	176.800000
852.202209	187.600000
852.235901	178.300000
852.269592	183.500000
852.303345	188.200000
852.337036	185.500000
852.370789	183.500000
852.404541	185.200000
852.438171	179.800000
852.471924	181.800000
852.505676	178.200000
852.539307	183.600000
852.573059	178.900000
852.606812	180.900000
852.640442	180.900000
852.674194	186.900000
852.707886	188.900000
852.741577	187.700000
852.775269	179.300000
852.809021	182.900000
852.842651	183.600000
852.876404	188.100000
852.910034	183.500000
852.943787	186.800000
852.977478	183.600000
853.011108	179.600000
853.044861	179.000000
853.078552	188.300000
853.112183	183.400000
853.145874	182.400000
853.179626	176.900000
853.213257	183.300000
853.246948	180.900000
853.280640	189.800000
853.314270	182.000000
853.347961	188.600000
853.381653	186.100000
853.415283	187.000000
853.448975	180.300000
853.482605	183.800000
853.516296	181.600000
853.549988	177.800000
853.583618	183.800000
853.617310	184.400000
853.651001	183.800000
853.684631	179.200000
853.718323	180.400000
853.751953	187.200000
853.785583	177.800000
853.819275	183.500000
853.852966	183.700000
853.886536	177.300000
853.920227	178.300000
853.953918	186.000000
853.987488	182.100000
854.021179	184.800000
854.054749	189.300000
854.088440	184.200000
854.122131	179.300000
854.155701	184.000000
854.189331	180.500000
854.223022	184.000000
854.256592	183.200000
854.290283	179.700000
854.323914	185.000000
854.357483	184.500000
854.391174	185.500000
854.424744	187.000000
854.458374	182.900000
854.492065	191.800000
854.525696	181.000000
854.559265	187.300000
854.592896	193.300000
854.626465	182.400000
854.660095	183.300000
854.693787	184.700000
854.727356	182.100000
854.760986	185.800000
854.794617	183.100000
854.828186	180.700000
854.861816	185.600000
854.895447	183.300000
854.929016	182.800000
854.962585	183.700000
854.996155	190.800000
855.029785	183.600000
855.063416	183.100000
855.097046	184.700000
855.130615	179.400000
855.164185	186.500000
855.197754	183.000000
855.231384	184.800000
855.264954	181.000000
855.298523	186.300000
855.332153	183.200000
855.365723	188.700000
855.399292	180.800000
855.432922	182.200000
855.466492	183.700000
855.500061	179.600000
855.533630	179.200000
855.567200	186.100000
855.600769	186.500000
855.634338	186.100000
855.667969	181.200000
855.701477	180.300000
855.735046	180.400000
855.768616	178.200000
855.802185	184.200000
855.835754	191.300000
855.869324	178.100000
855.902893	181.900000
855.936401	185.900000
855.969971	184.300000
856.003540	177.700000
856.037109	185.900000
856.070618	181.000000
856.104187	178.200000
856.137695	180.200000
856.171265	176.700000
856.204834	184.900000
856.238403	185.800000
856.271912	180.600000
856.305481	184.700000
856.338989	177.600000
856.372559	185.700000
856.406128	185.200000
856.439636	186.000000
856.473145	181.400000
856.506653	189.100000
856.540222	183.500000
856.573792	186.200000
856.607300	185.700000
856.640808	179.200000
856.674377	182.900000
856.707825	216.900000
856.741394	188.100000
856.774902	180.000000
856.808472	177.800000
856.841980	186.000000
856.875488	186.900000
856.908936	178.500000
856.942505	181.900000
856.976013	182.500000
857.009521	178.100000
857.043030	182.300000
857.076477	182.200000
857.110046	187.400000
857.143555	182.800000
857.177063	184.500000
857.210571	182.300000
857.244080	178.800000
857.277527	183.700000
857.311035	182.800000
857.344543	185.900000
857.378052	182.900000
857.411499	187.300000
857.445068	187.200000
857.478516	181.400000
857.512024	178.600000
857.545532	180.800000
857.578979	183.400000
857.612427	183.600000
857.645874	180.000000
857.679382	183.000000
857.712891	185.300000
857.746399	181.600000
857.779846	185.600000
857.813354	184.700000
857.846741	182.500000
857.880249	179.500000
857.913757	184.500000
857.947266	184.400000
857.980652	184.800000
858.014160	182.700000
858.047546	181.300000
858.081055	181.700000
858.114563	192.500000
858.147949	179.100000
858.181458	185.500000
858.214844	182.000000
858.248352	177.700000
858.281799	184.800000
858.315308	191.300000
858.348694	186.100000
858.382141	189.500000
858.415588	185.300000
858.449036	187.000000
858.482483	184.900000
858.515930	181.800000
858.549377	182.600000
858.582825	186.700000
858.616211	184.000000
858.649658	184.700000
858.683105	178.900000
858.716553	182.400000
858.750000	177.700000
858.783386	180.700000
858.816833	177.800000
858.850281	183.300000
858.883728	182.800000
858.917114	184.400000
858.950562	189.100000
858.983948	187.700000
859.017395	186.000000
859.050781	181.700000
859.084167	178.900000
859.117615	179.900000
859.151062	184.600000
859.184448	179.600000
859.217834	181.800000
859.251282	181.700000
859.284668	178.700000
859.318054	176.800000
859.351440	180.800000
859.384888	187.500000
859.418274	176.900000
859.451721	177.000000
859.485046	184.200000
859.518494	185.400000
859.551819	180.200000
859.585266	185.300000
859.618652	186.800000
859.652039	179.000000
859.685425	179.200000
859.718811	178.100000
859.752197	175.100000
859.785583	187.200000
859.819031	188.600000
859.852356	185.000000
859.885742	180.100000
859.919067	181.600000
859.952454	181.100000
859.985901	187.800000
860.019287	182.800000
860.052612	0.000000
860.085999	0.000000
860.119324	0.000000
860.152710	0.000000
860.186096	0.000000
860.219421	0.000000
860.252808	0.000000
860.286133	0.000000
860.319519	0.000000
860.352905	0.000000
860.386292	0.000000
860.419617	0.000000
860.452942	0.000000
860.486267	0.000000
860.519653	0.000000
860.553040	0.000000
860.586365	0.000000
860.619690	0.000000
860.653076	0.000000
860.686340	0.000000
860.719727	0.000000
860.753113	0.000000
860.786377	0.000000
860.819763	0.000000
860.853027	0.000000
860.886414	0.000000
860.919739	0.000000
860.953125	0.000000
860.986389	0.000000
861.019714	0.000000
861.053040	0.000000
861.086365	0.000000
861.119690	0.000000
861.153076	0.000000
861.186340	0.000000
861.219666	0.000000
861.252930	0.000000
861.286316	0.000000
861.319641	0.000000
861.352905	0.000000
861.386230	0.000000
861.419495	0.000000
861.452820	0.000000
861.486145	0.000000
861.519470	0.000000
861.552734	0.000000
861.586060	0.000000
861.619324	0.000000
861.652649	0.000000
861.685974	0.000000
861.719238	0.000000
861.752563	0.000000
861.785828	0.000000
861.819092	0.000000
861.852417	0.000000
861.885742	0.000000
861.918945	0.000000
861.952271	0.000000
861.985535	0.000000
862.018799	0.000000
862.052124	0.000000
862.085449	0.000000
862.118652	0.000000
862.151978	0.000000
862.185181	0.000000
862.218506	0.000000
862.251770	0.000000
862.285034	0.000000
862.318298	0.000000
862.351562	0.000000
862.384827	0.000000
862.418091	0.000000
862.451355	0.000000
862.484619	0.000000
862.517883	0.000000
862.551086	0.000000
862.584351	0.000000
862.617676	0.000000
862.650940	0.000000
862.684143	0.000000
862.717407	0.000000
862.750610	0.000000
862.783875	0.000000
862.817139	0.000000
862.850342	0.000000
862.883606	0.000000
862.916870	0.000000
862.950073	0.000000
862.983337	0.000000
863.016602	0.000000
863.049805	0.000000
863.083069	0.000000
863.116211	0.000000
863.149475	0.000000
863.182739	0.000000
863.216003	0.000000
863.249146	0.000000
863.282410	0.000000
863.315613	0.000000
863.348816	0.000000
863.382080	0.000000
863.415222	0.000000
863.448486	0.000000
863.481689	0.000000
863.514893	0.000000
863.548157	0.000000
863.581360	0.000000
863.614502	0.000000
863.647766	0.000000
863.680908	0.000000
863.714172	0.000000
863.747375	0.000000
863.780579	0.000000
863.813721	0.000000
863.846985	0.000000
863.880127	0.000000
863.913330	0.000000
863.946533	0.000000
863.979675	0.000000
864.012939	0.000000
