Model Number: SPM-001-M   
Serial Number: 10090201
Firmware Version: 004.17.6
Exposure Time: 300000.000000us
Data Taken on: 28-01-2021 10:47:07.372
Wavelength	Amplitude
733.770752	0.000000
733.808716	0.000000
733.846619	0.000000
733.884583	0.000000
733.922546	0.000000
733.960449	0.000000
733.998413	0.000000
734.036377	0.000000
734.074219	0.000000
734.112183	0.000000
734.150085	0.000000
734.188049	0.000000
734.226013	0.000000
734.263916	0.000000
734.301819	0.000000
734.339783	0.000000
734.377686	0.000000
734.415588	0.000000
734.453552	0.000000
734.491455	0.000000
734.529419	0.000000
734.567322	0.000000
734.605225	0.000000
734.643127	0.000000
734.681091	0.000000
734.718994	0.000000
734.756897	0.000000
734.794800	0.000000
734.832703	0.000000
734.870667	0.000000
734.908508	0.000000
734.946472	0.000000
734.984375	0.000000
735.022278	0.000000
735.060181	0.000000
735.098083	0.000000
735.135986	0.000000
735.173889	0.000000
735.211792	0.000000
735.249695	0.000000
735.287598	0.000000
735.325439	0.000000
735.363403	0.000000
735.401306	0.000000
735.439148	0.000000
735.477051	0.000000
735.515015	0.000000
735.552856	0.000000
735.590759	0.000000
735.628662	0.000000
735.666504	0.000000
735.704407	0.000000
735.742310	0.000000
735.780212	0.000000
735.818115	0.000000
735.856018	0.000000
735.893860	0.000000
735.931763	0.000000
735.969604	0.000000
736.007507	0.000000
736.045410	0.000000
736.083252	0.000000
736.121094	0.000000
736.158997	0.000000
736.196838	0.000000
736.234741	0.000000
736.272644	0.000000
736.310486	0.000000
736.348389	0.000000
736.386230	0.000000
736.424072	0.000000
736.461975	0.000000
736.499878	0.000000
736.537720	0.000000
736.575562	0.000000
736.613403	0.000000
736.651306	0.000000
736.689148	0.000000
736.726990	0.000000
736.764893	0.000000
736.802734	0.000000
736.840576	0.000000
736.878418	0.000000
736.916321	0.000000
736.954102	0.000000
736.992004	0.000000
737.029846	0.000000
737.067688	0.000000
737.105530	0.000000
737.143372	0.000000
737.181213	0.000000
737.219116	0.000000
737.256897	0.000000
737.294739	0.000000
737.332642	0.000000
737.370422	0.000000
737.408325	0.000000
737.446167	0.000000
737.483948	0.000000
737.521790	0.000000
737.559692	0.000000
737.597473	0.000000
737.635315	0.000000
737.673157	0.000000
737.710999	0.000000
737.748840	0.000000
737.786621	0.000000
737.824463	0.000000
737.862305	0.000000
737.900085	0.000000
737.937927	0.000000
737.975769	0.000000
738.013550	0.000000
738.051392	0.000000
738.089233	0.000000
738.127014	0.000000
738.164856	0.000000
738.202698	0.000000
738.240479	0.000000
738.278320	0.000000
738.316162	0.000000
738.353943	0.000000
738.391785	0.000000
738.429565	0.000000
738.467407	0.000000
738.505188	0.000000
738.542969	0.000000
738.580811	0.000000
738.618652	0.000000
738.656372	0.000000
738.694214	0.000000
738.732056	0.000000
738.769836	0.000000
738.807617	0.000000
738.845459	0.000000
738.883240	0.000000
738.921021	0.000000
738.958862	0.000000
738.996582	0.000000
739.034424	0.000000
739.072205	0.000000
739.109985	0.000000
739.147827	0.000000
739.185547	0.000000
739.223389	0.000000
739.261169	0.000000
739.298889	0.000000
739.336731	0.000000
739.374512	0.000000
739.412292	0.000000
739.450073	0.000000
739.487854	0.000000
739.525635	0.000000
739.563416	0.000000
739.601135	0.000000
739.638977	0.000000
739.676758	0.000000
739.714478	0.000000
739.752258	0.000000
739.790100	0.000000
739.827820	0.000000
739.865601	0.000000
739.903381	0.000000
739.941101	0.000000
739.978882	182.400000
740.016724	181.100000
740.054443	182.500000
740.092224	177.900000
740.130005	178.800000
740.167725	179.000000
740.205505	178.100000
740.243225	185.700000
740.281006	182.100000
740.318787	177.500000
740.356506	187.300000
740.394287	184.700000
740.432068	177.700000
740.469727	178.100000
740.507507	183.200000
740.545288	182.300000
740.583008	183.400000
740.620789	182.000000
740.658569	176.600000
740.696228	182.500000
740.734009	184.200000
740.771790	174.000000
740.809509	184.500000
740.847229	178.300000
740.884949	180.200000
740.922729	178.000000
740.960449	178.900000
740.998169	178.800000
741.035950	178.200000
741.073669	182.600000
741.111389	181.500000
741.149170	189.400000
741.186890	186.300000
741.224609	183.900000
741.262329	183.200000
741.300110	188.700000
741.337769	178.200000
741.375549	176.400000
741.413208	181.900000
741.450989	178.100000
741.488708	179.000000
741.526367	179.400000
741.564148	183.900000
741.601868	183.700000
741.639526	181.100000
741.677307	181.500000
741.715027	182.200000
741.752686	177.400000
741.790466	185.000000
741.828186	183.600000
741.865845	179.400000
741.903564	176.400000
741.941345	182.100000
741.979004	177.500000
742.016724	184.600000
742.054382	180.900000
742.092102	184.800000
742.129822	177.800000
742.167480	180.300000
742.205200	180.500000
742.242920	183.900000
742.280640	183.900000
742.318359	178.700000
742.356079	181.200000
742.393738	184.500000
742.431396	179.400000
742.469116	185.600000
742.506775	174.700000
742.544495	183.400000
742.582214	185.100000
742.619873	181.100000
742.657593	185.500000
742.695251	185.900000
742.732971	181.000000
742.770630	183.800000
742.808289	181.600000
742.846008	181.400000
742.883728	182.600000
742.921326	180.700000
742.959045	179.800000
742.996765	181.300000
743.034424	181.200000
743.072083	179.800000
743.109802	180.800000
743.147400	177.300000
743.185120	181.000000
743.222839	181.000000
743.260437	186.300000
743.298157	181.800000
743.335754	174.400000
743.373474	179.700000
743.411133	176.800000
743.448792	181.300000
743.486450	180.000000
743.524170	175.500000
743.561768	180.900000
743.599487	185.400000
743.637146	187.800000
743.674744	179.100000
743.712463	179.000000
743.750122	181.900000
743.787720	181.600000
743.825439	178.900000
743.863037	179.600000
743.900696	180.800000
743.938416	206.000000
743.976013	182.000000
744.013672	187.300000
744.051331	185.400000
744.088928	187.600000
744.126587	185.900000
744.164307	183.800000
744.201904	179.300000
744.239563	183.200000
744.277222	184.800000
744.314819	181.500000
744.352478	185.000000
744.390137	183.000000
744.427734	184.300000
744.465393	180.800000
744.502991	179.700000
744.540649	184.300000
744.578308	182.200000
744.615906	180.200000
744.653564	175.200000
744.691223	183.600000
744.728821	177.000000
744.766418	181.000000
744.804077	181.600000
744.841675	179.500000
744.879333	177.300000
744.916992	181.200000
744.954529	179.900000
744.992187	185.100000
745.029785	179.200000
745.067444	178.700000
745.105042	180.300000
745.142639	181.400000
745.180298	188.400000
745.217896	179.200000
745.255493	179.800000
745.293152	184.200000
745.330750	185.200000
745.368347	186.300000
745.405945	182.000000
745.443604	180.900000
745.481140	184.600000
745.518799	181.000000
745.556396	183.700000
745.593994	181.700000
745.631592	182.400000
745.669189	178.100000
745.706787	181.400000
745.744385	179.000000
745.781982	184.100000
745.819580	179.600000
745.857178	180.700000
745.894775	182.700000
745.932373	182.300000
745.969971	182.400000
746.007568	177.800000
746.045166	186.900000
746.082764	185.100000
746.120300	183.000000
746.157898	182.900000
746.195557	181.900000
746.233093	179.600000
746.270691	183.300000
746.308228	183.800000
746.345825	185.200000
746.383423	184.100000
746.420959	179.900000
746.458557	180.100000
746.496155	178.600000
746.533691	181.200000
746.571289	178.000000
746.608887	181.400000
746.646423	183.400000
746.684021	182.000000
746.721619	180.900000
746.759155	182.300000
746.796753	175.900000
746.834351	177.100000
746.871826	179.200000
746.909424	185.700000
746.946960	182.000000
746.984558	180.700000
747.022156	179.800000
747.059631	186.800000
747.097229	182.400000
747.134827	179.700000
747.172363	184.800000
747.209900	182.900000
747.247498	177.500000
747.285034	186.300000
747.322571	185.500000
747.360168	180.400000
747.397644	176.400000
747.435242	184.000000
747.472778	185.500000
747.510315	180.200000
747.547913	179.900000
747.585388	185.700000
747.622925	181.400000
747.660522	177.500000
747.697998	180.200000
747.735596	179.800000
747.773132	179.800000
747.810669	181.500000
747.848206	184.900000
747.885742	180.000000
747.923279	178.700000
747.960815	182.600000
747.998352	181.600000
748.035889	184.500000
748.073425	185.000000
748.110901	179.700000
748.148437	179.200000
748.185974	180.800000
748.223511	188.700000
748.261047	183.500000
748.298584	181.100000
748.336060	180.900000
748.373596	183.700000
748.411133	206.900000
748.448608	180.500000
748.486145	184.000000
748.523682	186.000000
748.561218	187.900000
748.598755	181.500000
748.636292	183.900000
748.673706	180.200000
748.711243	187.100000
748.748718	181.500000
748.786255	181.200000
748.823792	180.700000
748.861267	178.100000
748.898804	182.500000
748.936340	182.500000
748.973816	179.500000
749.011292	186.800000
749.048828	182.900000
749.086304	184.200000
749.123840	187.500000
749.161316	178.400000
749.198792	189.100000
749.236328	185.700000
749.273743	182.200000
749.311279	181.600000
749.348816	183.800000
749.386230	182.600000
749.423767	172.800000
749.461304	185.100000
749.498718	181.800000
749.536255	186.800000
749.573730	190.300000
749.611206	187.500000
749.648682	180.200000
749.686218	182.500000
749.723633	184.300000
749.761169	182.000000
749.798645	179.800000
749.836060	182.200000
749.873596	178.300000
749.911011	183.000000
749.948547	185.400000
749.986023	182.200000
750.023437	181.100000
750.060913	177.700000
750.098450	177.300000
750.135864	180.900000
750.173340	181.300000
750.210815	184.700000
750.248291	177.500000
750.285767	181.900000
750.323242	184.700000
750.360657	183.400000
750.398132	178.100000
750.435608	183.000000
750.473022	178.300000
750.510498	179.300000
750.547974	178.300000
750.585449	180.300000
750.622925	174.600000
750.660339	191.200000
750.697815	182.900000
750.735291	180.400000
750.772644	180.800000
750.810120	184.400000
750.847595	183.800000
750.885010	178.200000
750.922485	186.000000
750.959961	181.200000
750.997375	185.400000
751.034851	183.600000
751.072266	185.900000
751.109680	177.700000
751.147156	185.900000
751.184570	183.300000
751.221985	182.800000
751.259460	177.900000
751.296875	183.300000
751.334290	180.500000
751.371765	185.200000
751.409180	184.800000
751.446594	187.400000
751.484070	182.500000
751.521423	183.000000
751.558899	182.100000
751.596375	189.700000
751.633728	186.200000
751.671204	189.600000
751.708618	179.100000
751.746033	182.900000
751.783447	176.100000
751.820801	179.500000
751.858276	183.900000
751.895691	181.300000
751.933105	180.000000
751.970520	177.900000
752.007935	179.800000
752.045349	184.700000
752.082764	181.800000
752.120178	179.300000
752.157532	179.900000
752.195007	181.300000
752.232422	183.300000
752.269775	184.200000
752.307190	183.900000
752.344543	177.700000
752.382019	180.500000
752.419434	180.700000
752.456787	182.800000
752.494202	183.700000
752.531616	182.000000
752.568970	183.700000
752.606384	183.100000
752.643799	182.700000
752.681152	186.800000
752.718567	183.200000
752.755981	178.100000
752.793335	184.300000
752.830750	176.600000
752.868164	185.500000
752.905518	179.400000
752.942932	184.600000
752.980225	178.500000
753.017639	185.200000
753.055054	186.100000
753.092407	183.700000
753.129822	185.500000
753.167175	187.700000
753.204529	182.800000
753.241943	178.900000
753.279358	179.300000
753.316650	183.600000
753.354065	182.900000
753.391479	185.100000
753.428772	188.600000
753.466187	182.700000
753.503479	179.600000
753.540894	181.900000
753.578308	177.800000
753.615601	177.700000
753.653015	182.200000
753.690369	181.100000
753.727722	179.400000
753.765076	176.300000
753.802490	177.500000
753.839783	176.000000
753.877136	179.800000
753.914551	189.300000
753.951843	179.000000
753.989258	183.900000
754.026611	181.900000
754.063904	183.300000
754.101257	177.700000
754.138611	177.000000
754.175964	180.800000
754.213318	188.600000
754.250610	177.300000
754.288025	179.600000
754.325378	178.400000
754.362671	185.200000
754.400024	180.600000
754.437378	189.400000
754.474670	187.600000
754.512085	181.200000
754.549438	183.400000
754.586731	180.500000
754.624084	182.200000
754.661438	178.900000
754.698730	187.900000
754.736084	181.200000
754.773376	181.600000
754.810730	184.800000
754.848083	183.300000
754.885315	185.700000
754.922668	178.000000
754.960022	179.900000
754.997314	186.900000
755.034668	183.700000
755.072021	184.100000
755.109253	182.500000
755.146606	187.200000
755.183960	182.500000
755.221252	187.900000
755.258545	186.500000
755.295898	186.400000
755.333191	186.900000
755.370544	182.900000
755.407776	182.800000
755.445129	183.000000
755.482422	187.200000
755.519714	181.200000
755.557068	178.700000
755.594360	178.100000
755.631653	185.200000
755.668945	187.700000
755.706299	183.600000
755.743530	190.700000
755.780884	188.000000
755.818176	186.100000
755.855408	185.700000
755.892761	183.800000
755.930054	182.300000
755.967346	185.200000
756.004639	183.500000
756.041870	185.400000
756.079224	186.700000
756.116516	182.500000
756.153748	185.100000
756.191040	191.300000
756.228394	185.200000
756.265625	180.500000
756.302917	185.000000
756.340210	183.500000
756.377441	186.700000
756.414795	190.800000
756.452087	183.600000
756.489319	181.300000
756.526611	187.100000
756.563843	184.500000
756.601135	190.900000
756.638428	191.100000
756.675659	183.900000
756.712952	186.800000
756.750244	186.800000
756.787476	186.500000
756.824768	190.100000
756.862061	184.300000
756.899292	229.400000
756.936584	188.800000
756.973816	192.500000
757.011047	194.600000
757.048340	184.500000
757.085632	185.500000
757.122864	197.800000
757.160156	185.000000
757.197327	187.500000
757.234619	190.300000
757.271912	184.600000
757.309082	189.100000
757.346375	183.900000
757.383667	188.700000
757.420837	186.600000
757.458130	186.500000
757.495422	184.200000
757.532593	188.500000
757.569885	181.100000
757.607117	183.900000
757.644348	186.700000
757.681580	197.000000
757.718811	178.500000
757.756042	187.700000
757.793335	186.600000
757.830505	189.100000
757.867798	184.700000
757.905029	185.400000
757.942200	188.700000
757.979492	184.600000
758.016724	186.900000
758.053894	185.400000
758.091187	198.800000
758.128418	187.800000
758.165588	188.000000
758.202820	195.700000
758.240112	189.000000
758.277283	196.100000
758.314514	189.700000
758.351685	187.700000
758.388916	195.200000
758.426147	194.200000
758.463379	195.100000
758.500610	190.500000
758.537842	189.900000
758.575012	193.500000
758.612244	187.200000
758.649475	197.900000
758.686646	185.300000
758.723877	195.000000
758.761108	196.100000
758.798279	190.500000
758.835510	191.900000
758.872742	195.300000
758.909851	191.700000
758.947083	191.700000
758.984253	191.700000
759.021484	193.900000
759.058716	194.300000
759.095886	193.600000
759.133057	191.200000
759.170288	193.700000
759.207458	190.200000
759.244690	198.600000
759.281860	197.800000
759.319031	194.000000
759.356262	191.400000
759.393433	190.500000
759.430603	193.000000
759.467773	194.500000
759.505005	196.700000
759.542175	196.400000
759.579346	192.200000
759.616516	193.100000
759.653687	196.200000
759.690918	191.400000
759.728027	194.500000
759.765259	195.400000
759.802429	196.300000
759.839539	195.200000
759.876770	198.200000
759.913940	201.400000
759.951111	194.900000
759.988281	196.100000
760.025452	194.300000
760.062561	193.200000
760.099792	202.400000
760.136963	198.000000
760.174072	195.500000
760.211243	192.300000
760.248413	192.000000
760.285583	193.800000
760.322754	203.800000
760.359863	201.900000
760.397034	201.500000
760.434204	197.800000
760.471375	197.400000
760.508545	196.000000
760.545715	197.400000
760.582825	193.900000
760.619995	199.000000
760.657166	193.900000
760.694275	201.700000
760.731445	199.000000
760.768555	199.400000
760.805664	200.800000
760.842834	199.400000
760.879944	201.300000
760.917114	200.000000
760.954285	198.400000
760.991394	193.300000
761.028564	201.600000
761.065674	200.300000
761.102783	196.200000
761.139954	201.900000
761.177124	201.200000
761.214172	202.900000
761.251343	198.900000
761.288452	199.000000
761.325562	202.300000
761.362732	197.400000
761.399841	200.000000
761.436951	201.500000
761.474121	198.100000
761.511169	200.200000
761.548340	202.900000
761.585449	203.700000
761.622559	203.500000
761.659668	202.600000
761.696838	206.200000
761.733887	203.100000
761.771057	201.000000
761.808167	203.100000
761.845276	206.100000
761.882385	210.300000
761.919434	203.400000
761.956604	215.600000
761.993713	201.800000
762.030762	208.000000
762.067871	204.300000
762.105042	204.000000
762.142090	210.000000
762.179199	204.800000
762.216309	208.500000
762.253418	215.100000
762.290527	210.700000
762.327637	208.500000
762.364685	201.600000
762.401794	209.100000
762.438904	207.500000
762.475952	204.400000
762.513062	203.800000
762.550110	204.800000
762.587219	213.500000
762.624329	214.900000
762.661377	207.800000
762.698486	206.400000
762.735596	209.100000
762.772644	204.100000
762.809753	202.800000
762.846863	206.100000
762.883911	212.000000
762.921021	209.000000
762.958069	208.600000
762.995117	213.200000
763.032227	214.200000
763.069336	207.100000
763.106323	205.100000
763.143433	204.500000
763.180481	210.100000
763.217590	210.900000
763.254639	209.900000
763.291687	209.600000
763.328735	215.700000
763.365845	210.500000
763.402893	209.400000
763.439941	212.000000
763.477051	215.100000
763.514038	213.500000
763.551147	212.600000
763.588196	213.400000
763.625244	212.900000
763.662292	219.700000
763.699402	219.400000
763.736389	216.800000
763.773499	223.300000
763.810486	217.900000
763.847534	215.900000
763.884644	218.700000
763.921631	216.200000
763.958679	221.500000
763.995728	217.200000
764.032776	221.100000
764.069824	213.400000
764.106873	221.700000
764.143860	226.000000
764.180969	218.600000
764.218018	225.500000
764.255005	219.000000
764.292053	220.500000
764.329102	227.300000
764.366089	228.100000
764.403137	225.000000
764.440125	218.300000
764.477173	221.500000
764.514221	224.300000
764.551208	222.300000
764.588257	221.600000
764.625305	225.000000
764.662292	231.100000
764.699341	232.200000
764.736389	226.100000
764.773376	237.300000
764.810425	229.700000
764.847473	235.600000
764.884399	230.900000
764.921448	236.500000
764.958435	232.900000
764.995483	230.400000
765.032532	240.400000
765.069458	229.800000
765.106506	231.400000
765.143555	229.400000
765.180481	232.900000
765.217529	240.100000
765.254578	230.100000
765.291504	236.500000
765.328552	234.800000
765.365540	231.100000
765.402527	242.300000
765.439575	233.300000
765.476501	230.700000
765.513550	231.300000
765.550537	236.200000
765.587463	241.000000
765.624512	235.500000
765.661499	230.500000
765.698486	239.800000
765.735474	234.000000
765.772461	236.700000
765.809448	242.700000
765.846436	240.800000
765.883423	243.000000
765.920410	238.800000
765.957397	238.700000
765.994385	241.800000
766.031311	246.100000
766.068359	243.700000
766.105286	244.100000
766.142273	247.300000
766.179260	245.100000
766.216187	240.900000
766.253174	236.700000
766.290161	243.700000
766.327148	246.100000
766.364136	246.800000
766.401123	256.500000
766.438049	244.400000
766.475037	251.200000
766.512024	249.400000
766.548950	258.700000
766.585937	254.100000
766.622864	252.200000
766.659790	252.400000
766.696777	243.600000
766.733704	254.900000
766.770691	247.100000
766.807678	257.200000
766.844604	253.600000
766.881531	253.700000
766.918518	256.600000
766.955444	259.400000
766.992432	255.500000
767.029358	256.200000
767.066284	257.500000
767.103271	258.000000
767.140198	287.500000
767.177124	268.200000
767.214050	260.500000
767.251038	261.500000
767.287964	257.500000
767.324890	258.900000
767.361816	259.900000
767.398743	263.100000
767.435730	260.600000
767.472595	261.500000
767.509583	264.100000
767.546509	258.900000
767.583374	263.100000
767.620361	258.600000
767.657288	261.300000
767.694214	261.500000
767.731140	261.100000
767.768066	262.100000
767.804993	262.200000
767.841919	259.400000
767.878845	262.800000
767.915710	270.600000
767.952698	264.000000
767.989563	264.800000
768.026489	266.700000
768.063416	265.100000
768.100281	262.800000
768.137207	272.300000
768.174133	268.200000
768.211060	268.000000
768.247986	269.200000
768.284912	268.000000
768.321777	269.300000
768.358704	266.500000
768.395630	270.200000
768.432495	265.400000
768.469421	272.900000
768.506348	273.400000
768.543152	279.300000
768.580078	275.400000
768.616943	277.300000
768.653870	278.400000
768.690796	278.600000
768.727661	277.500000
768.764587	278.100000
768.801453	274.900000
768.838318	280.000000
768.875244	280.200000
768.912109	286.000000
768.948975	277.400000
768.985901	280.000000
769.022766	281.300000
769.059631	284.400000
769.096558	281.700000
769.133362	283.600000
769.170288	282.400000
769.207214	283.500000
769.244019	288.300000
769.280945	286.800000
769.317810	291.500000
769.354675	287.500000
769.391541	293.900000
769.428406	291.500000
769.465271	298.200000
769.502136	290.300000
769.539062	293.700000
769.575867	294.900000
769.612732	294.900000
769.649597	299.500000
769.686462	299.300000
769.723328	296.800000
769.760193	296.200000
769.797058	298.600000
769.833923	304.800000
769.870728	300.900000
769.907593	302.800000
769.944519	304.200000
769.981323	305.600000
770.018188	307.100000
770.055054	305.100000
770.091858	304.000000
770.128723	310.600000
770.165588	315.800000
770.202393	306.500000
770.239258	316.600000
770.276062	316.000000
770.312927	315.900000
770.349792	320.000000
770.386597	317.500000
770.423462	323.200000
770.460327	329.500000
770.497131	320.600000
770.533997	317.100000
770.570862	325.700000
770.607605	327.400000
770.644470	329.200000
770.681335	327.300000
770.718140	325.900000
770.754944	321.300000
770.791809	322.900000
770.828613	327.000000
770.865479	327.300000
770.902222	331.400000
770.939087	329.000000
770.975952	325.000000
771.012695	328.300000
771.049561	338.500000
771.086365	332.100000
771.123169	329.000000
771.159973	330.000000
771.196838	332.100000
771.233582	334.200000
771.270447	339.000000
771.307251	337.300000
771.344055	335.100000
771.380859	338.400000
771.417664	336.300000
771.454468	343.800000
771.491272	341.100000
771.528076	341.600000
771.564880	340.400000
771.601685	346.300000
771.638428	341.000000
771.675293	345.900000
771.712097	338.300000
771.748840	352.800000
771.785645	347.000000
771.822449	348.700000
771.859253	350.500000
771.896057	349.600000
771.932861	358.200000
771.969604	349.900000
772.006409	348.200000
772.043213	356.000000
772.079956	355.900000
772.116760	350.800000
772.153503	353.400000
772.190308	361.900000
772.227112	356.900000
772.263855	355.400000
772.300659	356.400000
772.337463	361.700000
772.374207	354.100000
772.411011	353.400000
772.447754	357.800000
772.484497	370.500000
772.521301	365.100000
772.558105	362.300000
772.594849	362.800000
772.631592	366.700000
772.668396	364.000000
772.705139	370.300000
772.741882	370.000000
772.778625	376.300000
772.815430	374.900000
772.852173	371.500000
772.888916	375.100000
772.925720	378.600000
772.962463	384.700000
772.999207	377.700000
773.035950	377.300000
773.072754	378.100000
773.109436	376.900000
773.146240	377.600000
773.182922	375.400000
773.219727	381.300000
773.256470	379.800000
773.293152	372.300000
773.329956	378.200000
773.366699	382.500000
773.403381	378.600000
773.440186	384.500000
773.476929	383.000000
773.513611	380.700000
773.550354	378.300000
773.587158	381.100000
773.623840	382.400000
773.660583	388.800000
773.697327	393.800000
773.734009	386.000000
773.770813	385.800000
773.807495	385.600000
773.844238	389.100000
773.880981	399.500000
773.917664	389.800000
773.954407	394.200000
773.991150	388.500000
774.027832	398.200000
774.064575	391.100000
774.101318	399.600000
774.138000	398.000000
774.174744	398.700000
774.211487	398.500000
774.248108	390.900000
774.284851	391.000000
774.321594	399.800000
774.358276	401.700000
774.395020	406.100000
774.431702	403.300000
774.468384	399.500000
774.505127	395.700000
774.541809	404.300000
774.578491	407.300000
774.615234	411.700000
774.651917	403.500000
774.688599	407.800000
774.725342	415.900000
774.762024	412.300000
774.798706	417.800000
774.835449	417.400000
774.872070	417.500000
774.908813	416.700000
774.945496	417.900000
774.982178	420.400000
775.018860	422.300000
775.055542	423.300000
775.092224	422.000000
775.128967	430.600000
775.165588	428.500000
775.202271	427.000000
775.239014	433.000000
775.275635	437.000000
775.312317	432.500000
775.349060	433.200000
775.385681	435.400000
775.422363	431.800000
775.459045	440.100000
775.495667	443.700000
775.532410	441.800000
775.569092	445.700000
775.605713	440.900000
775.642395	443.500000
775.679016	443.700000
775.715698	448.400000
775.752380	451.600000
775.789001	446.200000
775.825684	447.600000
775.862366	450.100000
775.898987	459.100000
775.935669	452.800000
775.972351	469.800000
776.008972	466.500000
776.045654	465.300000
776.082336	459.500000
776.118958	467.400000
776.155640	468.500000
776.192322	477.800000
776.228882	479.700000
776.265564	475.600000
776.302185	470.700000
776.338867	477.700000
776.375488	472.200000
776.412109	481.200000
776.448792	484.500000
776.485413	488.100000
776.522034	479.000000
776.558716	477.100000
776.595337	482.500000
776.631958	487.700000
776.668579	488.000000
776.705261	493.200000
776.741882	483.600000
776.778503	485.100000
776.815186	487.700000
776.851746	493.400000
776.888367	496.600000
776.924988	503.800000
776.961609	497.200000
776.998291	501.000000
777.034851	494.800000
777.071472	504.900000
777.108154	508.500000
777.144714	513.600000
777.181335	510.500000
777.218018	504.800000
777.254578	510.800000
777.291199	512.900000
777.327759	516.400000
777.364380	522.300000
777.401062	529.100000
777.437622	532.600000
777.474243	522.500000
777.510864	526.400000
777.547424	523.900000
777.584045	527.800000
777.620667	526.400000
777.657227	527.900000
777.693848	526.900000
777.730469	537.200000
777.767029	529.800000
777.803650	532.500000
777.840271	528.700000
777.876831	530.100000
777.913452	539.900000
777.950012	522.900000
777.986633	529.000000
778.023193	529.100000
778.059753	526.600000
778.096375	526.800000
778.132996	541.600000
778.169556	534.500000
778.206116	535.900000
778.242737	534.800000
778.279297	538.700000
778.315857	531.600000
778.352478	540.200000
778.389038	544.600000
778.425598	544.600000
778.462219	552.500000
778.498718	549.800000
778.535339	553.500000
778.571838	555.900000
778.608459	555.800000
778.645020	549.300000
778.681580	557.400000
778.718140	558.700000
778.754761	545.800000
778.791260	554.600000
778.827881	563.900000
778.864441	563.900000
778.900940	566.200000
778.937561	562.800000
778.974121	560.500000
779.010620	554.300000
779.047241	561.200000
779.083801	566.900000
779.120300	564.400000
779.156860	565.900000
779.193359	565.100000
779.229980	564.300000
779.266541	572.100000
779.303040	577.300000
779.339600	568.100000
779.376160	564.200000
779.412659	564.300000
779.449219	563.700000
779.485779	571.500000
779.522278	570.800000
779.558838	572.400000
779.595398	575.000000
779.631897	567.300000
779.668457	564.900000
779.705017	572.800000
779.741516	565.100000
779.778076	566.600000
779.814575	570.500000
779.851074	570.200000
779.887634	566.400000
779.924133	572.400000
779.960693	568.800000
779.997253	582.800000
780.033691	583.400000
780.070251	582.000000
780.106812	590.600000
780.143250	588.900000
780.179810	586.900000
780.216370	587.600000
780.252808	591.600000
780.289368	598.200000
780.325867	595.300000
780.362366	587.200000
780.398865	597.000000
780.435364	598.100000
780.471863	602.100000
780.508423	598.900000
780.544861	605.600000
780.581421	602.100000
780.617920	594.500000
780.654419	591.500000
780.690918	600.700000
780.727417	607.000000
780.763916	607.700000
780.800415	609.800000
780.836914	598.300000
780.873352	606.100000
780.909912	598.400000
780.946411	613.200000
780.982849	622.000000
781.019348	632.800000
781.055786	625.000000
781.092346	620.500000
781.128845	629.700000
781.165283	637.000000
781.201782	638.700000
781.238281	641.400000
781.274719	646.500000
781.311218	638.100000
781.347717	651.300000
781.384155	637.100000
781.420654	645.800000
781.457092	648.800000
781.493591	642.300000
781.530090	637.000000
781.566528	638.500000
781.602966	643.600000
781.639465	644.200000
781.675903	644.800000
781.712402	650.500000
781.748901	653.200000
781.785278	644.900000
781.821777	653.100000
781.858276	653.600000
781.894714	659.100000
781.931152	657.300000
781.967651	664.100000
782.004089	661.700000
782.040527	671.300000
782.076965	670.900000
782.113403	675.900000
782.149902	677.500000
782.186340	671.300000
782.222778	685.400000
782.259277	680.500000
782.295654	678.200000
782.332092	683.100000
782.368591	685.000000
782.404968	685.000000
782.441467	685.900000
782.477905	694.500000
782.514282	690.100000
782.550781	700.000000
782.587219	699.700000
782.623596	703.100000
782.660095	708.800000
782.696472	710.700000
782.732910	716.600000
782.769348	723.000000
782.805786	728.500000
782.842224	733.200000
782.878662	725.100000
782.915039	725.200000
782.951477	731.300000
782.987915	724.700000
783.024292	733.400000
783.060730	732.000000
783.097168	721.700000
783.133545	715.400000
783.169983	710.700000
783.206421	709.600000
783.242798	709.500000
783.279236	702.900000
783.315613	701.500000
783.352051	701.000000
783.388489	697.300000
783.424866	686.700000
783.461304	699.500000
783.497681	706.700000
783.534058	699.600000
783.570496	696.300000
783.606934	698.400000
783.643250	700.500000
783.679687	708.500000
783.716125	702.600000
783.752441	698.000000
783.788879	702.300000
783.825317	692.700000
783.861633	675.100000
783.898071	647.100000
783.934448	620.300000
783.970825	594.600000
784.007263	587.100000
784.043579	621.000000
784.080017	680.700000
784.116394	725.900000
784.152710	746.300000
784.189148	759.600000
784.225525	754.300000
784.261902	754.100000
784.298279	749.100000
784.334656	753.000000
784.371033	748.600000
784.407410	747.600000
784.443787	738.100000
784.480164	731.600000
784.516541	719.800000
784.552856	729.700000
784.589233	727.600000
784.625610	724.900000
784.661987	744.700000
784.698364	743.000000
784.734741	734.000000
784.771057	736.300000
784.807434	742.800000
784.843811	753.500000
784.880127	753.300000
784.916504	776.500000
784.952881	776.100000
784.989197	772.900000
785.025574	772.900000
785.061951	786.400000
785.098267	803.000000
785.134644	790.300000
785.170959	783.200000
785.207275	778.600000
785.243652	777.000000
785.279968	772.400000
785.316345	769.400000
785.352722	759.600000
785.388977	758.100000
785.425354	743.400000
785.461731	727.600000
785.498047	727.700000
785.534363	732.000000
785.570679	729.600000
785.606995	727.000000
785.643372	728.600000
785.679687	729.600000
785.716003	722.500000
785.752380	726.400000
785.788635	736.100000
785.825012	749.600000
785.861328	755.400000
785.897644	744.100000
785.933960	754.700000
785.970337	768.200000
786.006592	785.400000
786.042908	790.900000
786.079285	796.400000
786.115540	805.200000
786.151855	795.800000
786.188171	797.000000
786.224487	800.200000
786.260803	800.800000
786.297119	801.400000
786.333435	793.200000
786.369751	781.200000
786.406006	778.500000
786.442322	777.200000
786.478638	762.900000
786.514954	769.600000
786.551270	763.700000
786.587585	768.600000
786.623840	756.600000
786.660156	748.300000
786.696472	741.000000
786.732727	748.900000
786.769043	755.500000
786.805298	749.800000
786.841614	751.500000
786.877930	762.900000
786.914124	756.400000
786.950439	773.200000
786.986755	781.800000
787.023010	798.900000
787.059326	798.900000
787.095642	801.900000
787.131836	817.500000
787.168152	816.100000
787.204468	822.600000
787.240723	841.200000
787.276978	836.800000
787.313293	838.900000
787.349548	836.900000
787.385803	838.800000
787.422058	830.800000
787.458313	826.800000
787.494629	821.400000
787.530823	824.100000
787.567139	809.600000
787.603455	799.800000
787.639648	785.300000
787.675903	794.000000
787.712219	796.400000
787.748413	793.400000
787.784729	794.000000
787.820984	784.800000
787.857178	783.800000
787.893494	783.100000
787.929749	780.400000
787.965942	796.200000
788.002258	804.500000
788.038452	815.300000
788.074707	811.700000
788.110962	822.800000
788.147217	815.300000
788.183472	831.400000
788.219727	844.000000
788.255920	862.100000
788.292175	861.700000
788.328430	850.700000
788.364624	841.200000
788.400879	840.600000
788.437134	854.300000
788.473328	853.500000
788.509583	853.800000
788.545837	849.000000
788.582031	845.700000
788.618286	845.500000
788.654480	848.300000
788.690735	856.600000
788.726990	868.700000
788.763184	862.500000
788.799377	870.400000
788.835632	867.300000
788.871826	877.600000
788.908081	874.400000
788.944336	871.300000
788.980469	882.300000
789.016724	870.900000
789.052979	874.700000
789.089111	866.500000
789.125366	871.100000
789.161621	866.700000
789.197754	874.000000
789.234009	863.700000
789.270142	856.900000
789.306396	851.900000
789.342590	850.200000
789.378784	843.400000
789.414978	832.600000
789.451233	851.000000
789.487366	848.200000
789.523621	848.900000
789.559814	852.800000
789.595947	851.500000
789.632202	862.800000
789.668335	868.900000
789.704529	880.500000
789.740784	896.000000
789.776917	896.600000
789.813110	888.600000
789.849304	902.800000
789.885498	903.100000
789.921692	914.900000
789.957886	921.500000
789.994019	918.500000
790.030212	914.100000
790.066406	919.700000
790.102539	922.400000
790.138733	937.300000
790.174927	934.600000
790.211060	939.200000
790.247253	926.400000
790.283386	919.500000
790.319580	913.100000
790.355774	897.300000
790.391907	903.000000
790.428101	927.800000
790.464294	920.800000
790.500427	911.400000
790.536621	884.200000
790.572754	880.500000
790.608887	878.900000
790.645081	886.000000
790.681274	906.200000
790.717346	897.200000
790.753540	886.800000
790.789734	872.500000
790.825867	859.600000
790.862000	868.800000
790.898132	884.400000
790.934265	883.100000
790.970459	875.400000
791.006592	875.700000
791.042725	874.000000
791.078918	869.800000
791.114990	871.000000
791.151184	885.100000
791.187317	895.300000
791.223389	886.400000
791.259583	872.200000
791.295715	876.000000
791.331848	877.300000
791.367981	885.500000
791.404114	888.500000
791.440247	887.100000
791.476379	887.300000
791.512451	876.400000
791.548584	874.300000
791.584778	868.600000
791.620850	881.400000
791.656982	883.300000
791.693115	876.500000
791.729187	869.500000
791.765381	870.600000
791.801514	869.400000
791.837585	876.400000
791.873718	890.400000
791.909851	892.300000
791.945923	893.800000
791.982056	866.000000
792.018188	865.400000
792.054260	872.000000
792.090393	877.400000
792.126465	871.300000
792.162598	875.500000
792.198669	863.400000
792.234741	856.300000
792.270874	841.900000
792.307007	841.200000
792.343079	844.300000
792.379150	854.600000
792.415283	848.500000
792.451355	845.400000
792.487488	823.600000
792.523560	817.800000
792.559631	796.700000
792.595764	747.000000
792.631836	716.200000
792.667908	705.500000
792.703979	704.000000
792.740051	733.700000
792.776184	762.500000
792.812256	771.700000
792.848328	781.100000
792.884399	785.400000
792.920471	786.500000
792.956543	783.000000
792.992615	782.200000
793.028748	778.400000
793.064758	793.100000
793.100830	814.300000
793.136963	820.000000
793.172974	821.300000
793.209045	811.500000
793.245178	811.300000
793.281189	803.800000
793.317261	815.400000
793.353271	818.000000
793.389404	813.000000
793.425476	810.100000
793.461487	796.600000
793.497559	797.100000
793.533630	799.700000
793.569641	799.600000
793.605713	806.200000
793.641785	813.600000
793.677795	813.900000
793.713867	812.200000
793.749878	813.900000
793.785950	821.500000
793.822021	835.500000
793.858032	819.400000
793.894104	826.100000
793.930176	821.400000
793.966187	823.300000
794.002258	809.900000
794.038269	827.300000
794.074280	833.000000
794.110352	852.000000
794.146423	831.700000
794.182373	826.100000
794.218445	818.500000
794.254517	810.200000
794.290466	803.500000
794.326538	810.600000
794.362549	808.700000
794.398560	811.300000
794.434631	809.600000
794.470581	788.500000
794.506653	786.000000
794.542664	792.000000
794.578674	797.900000
794.614685	803.000000
794.650757	799.800000
794.686707	804.300000
794.722778	796.900000
794.758789	807.500000
794.794739	817.600000
794.830811	834.400000
794.866821	852.500000
794.902771	853.100000
794.938843	841.500000
794.974792	842.000000
795.010803	843.200000
795.046814	844.500000
795.082825	833.700000
795.118835	834.900000
795.154846	827.600000
795.190796	826.300000
795.226807	806.800000
795.262817	814.800000
795.298767	816.700000
795.334778	824.900000
795.370850	816.700000
795.406799	817.600000
795.442810	804.500000
795.478821	804.700000
795.514709	808.100000
795.550720	832.600000
795.586670	812.500000
795.622681	818.800000
795.658691	815.800000
795.694641	817.800000
795.730652	807.000000
795.766663	817.300000
795.802551	825.400000
795.838562	833.700000
795.874573	817.600000
795.910522	815.700000
795.946472	805.000000
795.982483	817.000000
796.018433	818.000000
796.054382	823.600000
796.090393	815.800000
796.126282	808.100000
796.162292	794.400000
796.198242	793.400000
796.234192	795.400000
796.270203	796.500000
796.306091	798.900000
796.342041	816.900000
796.378052	810.200000
796.413940	804.700000
796.449951	802.100000
796.485901	810.200000
796.521790	816.700000
796.557800	824.700000
796.593689	826.400000
796.629639	815.200000
796.665649	810.300000
796.701599	806.100000
796.737488	814.600000
796.773437	820.300000
796.809387	814.900000
796.845337	819.200000
796.881287	808.200000
796.917175	795.200000
796.953125	795.100000
796.989075	806.500000
797.024963	806.800000
797.060913	808.400000
797.096863	802.100000
797.132751	788.000000
797.168701	782.100000
797.204590	793.200000
797.240540	791.600000
797.276489	799.600000
797.312439	800.300000
797.348328	796.000000
797.384277	784.000000
797.420166	776.000000
797.456055	781.300000
797.492004	790.100000
797.527893	797.800000
797.563843	794.100000
797.599731	790.100000
797.635620	780.800000
797.671570	785.400000
797.707520	783.500000
797.743347	782.900000
797.779297	789.800000
797.815125	780.800000
797.851074	770.100000
797.887024	765.400000
797.922913	764.500000
797.958801	766.600000
797.994690	765.300000
798.030579	769.300000
798.066467	772.500000
798.102356	760.100000
798.138245	754.100000
798.174133	753.800000
798.210083	764.200000
798.245911	774.600000
798.281799	774.300000
798.317749	768.300000
798.353577	760.100000
798.389465	755.200000
798.425293	755.800000
798.461243	757.000000
798.497131	764.800000
798.532959	761.700000
798.568848	766.000000
798.604736	753.000000
798.640564	743.000000
798.676453	745.100000
798.712402	748.800000
798.748230	755.800000
798.784119	753.400000
798.820007	751.900000
798.855835	749.800000
798.891724	745.100000
798.927551	740.000000
798.963379	742.700000
798.999268	742.700000
799.035095	732.700000
799.070984	727.200000
799.106873	718.100000
799.142700	726.700000
799.178528	720.000000
799.214417	726.700000
799.250244	741.500000
799.286133	729.600000
799.321960	720.700000
799.357788	724.000000
799.393677	729.300000
799.429504	729.700000
799.465332	730.300000
799.501221	730.000000
799.537048	728.200000
799.572876	726.000000
799.608704	723.000000
799.644531	730.100000
799.680359	734.400000
799.716248	739.900000
799.752014	745.200000
799.787903	729.700000
799.823730	728.400000
799.859558	726.400000
799.895386	729.900000
799.931213	727.300000
799.967041	722.200000
800.002869	723.600000
800.038696	723.600000
800.074463	715.900000
800.110352	722.300000
800.146179	715.100000
800.181946	723.300000
800.217773	725.500000
800.253540	721.500000
800.289429	712.500000
800.325256	708.800000
800.361023	704.300000
800.396851	713.700000
800.432678	711.200000
800.468445	710.600000
800.504272	709.900000
800.540100	695.900000
800.575867	693.200000
800.611694	700.600000
800.647461	700.300000
800.683289	707.300000
800.719116	706.800000
800.754883	701.200000
800.790649	691.900000
800.826477	691.700000
800.862244	711.600000
800.898071	700.800000
800.933838	699.200000
800.969604	700.200000
801.005432	693.700000
801.041199	686.100000
801.076965	686.700000
801.112793	681.800000
801.148560	676.400000
801.184326	673.800000
801.220154	680.300000
801.255859	674.200000
801.291687	666.400000
801.327454	665.700000
801.363281	672.400000
801.398987	663.100000
801.434814	662.000000
801.470520	673.100000
801.506287	665.700000
801.542114	654.500000
801.577820	664.100000
801.613647	664.900000
801.649414	660.200000
801.685120	659.900000
801.720886	659.000000
801.756714	646.200000
801.792419	645.900000
801.828186	645.400000
801.863892	645.500000
801.899719	642.100000
801.935486	644.300000
801.971252	649.700000
802.006958	641.900000
802.042725	640.500000
802.078430	639.200000
802.114197	641.200000
802.149963	650.100000
802.185669	637.600000
802.221436	635.000000
802.257202	636.400000
802.292908	631.600000
802.328674	641.300000
802.364441	645.500000
802.400146	643.200000
802.435913	637.200000
802.471558	636.200000
802.507324	634.700000
802.543091	631.600000
802.578796	641.400000
802.614502	642.200000
802.650269	643.800000
802.685974	625.800000
802.721741	628.800000
802.757446	629.200000
802.793152	632.800000
802.828918	642.800000
802.864624	639.800000
802.900330	634.600000
802.936035	633.300000
802.971802	634.400000
803.007446	626.600000
803.043213	619.300000
803.078857	632.000000
803.114624	618.200000
803.150330	622.600000
803.185974	610.300000
803.221741	613.600000
803.257446	623.300000
803.293152	627.200000
803.328857	624.900000
803.364563	616.900000
803.400208	610.500000
803.435974	616.500000
803.471680	608.000000
803.507324	608.100000
803.543030	620.400000
803.578735	619.900000
803.614441	615.600000
803.650146	622.100000
803.685791	604.900000
803.721497	607.200000
803.757202	603.200000
803.792847	608.700000
803.828552	598.000000
803.864258	599.700000
803.899902	592.500000
803.935608	582.400000
803.971313	588.300000
804.006958	588.800000
804.042664	592.800000
804.078308	593.000000
804.113953	589.000000
804.149658	590.100000
804.185364	580.300000
804.221008	597.500000
804.256714	582.200000
804.292297	581.900000
804.328003	579.500000
804.363708	574.900000
804.399292	575.400000
804.434998	578.300000
804.470703	573.100000
804.506287	583.600000
804.541992	574.700000
804.577637	577.300000
804.613281	561.100000
804.648926	558.500000
804.684570	562.900000
804.720215	557.900000
804.755920	556.500000
804.791565	556.100000
804.827209	561.000000
804.862854	556.700000
804.898437	554.600000
804.934143	556.300000
804.969788	550.900000
805.005371	555.900000
805.041077	555.800000
805.076721	555.500000
805.112305	548.300000
805.147949	546.500000
805.183655	540.400000
805.219238	547.700000
805.254883	540.200000
805.290466	551.000000
805.326111	541.900000
805.361755	534.500000
805.397400	537.200000
805.432983	538.400000
805.468628	536.600000
805.504211	543.900000
805.539856	543.200000
805.575500	542.900000
805.611084	533.800000
805.646729	526.400000
805.682373	528.700000
805.717957	533.800000
805.753601	538.000000
805.789246	527.700000
805.824768	531.000000
805.860413	531.700000
805.895996	526.400000
805.931641	528.500000
805.967224	530.700000
806.002869	526.000000
806.038452	532.100000
806.074036	531.500000
806.109619	520.400000
806.145264	520.000000
806.180847	521.000000
806.216431	517.800000
806.252014	518.700000
806.287659	523.400000
806.323181	527.100000
806.358826	524.100000
806.394409	512.600000
806.429993	513.000000
806.465576	518.600000
806.501160	509.800000
806.536743	511.400000
806.572327	512.800000
806.607910	507.900000
806.643494	506.700000
806.679077	504.400000
806.714661	505.300000
806.750244	504.500000
806.785828	497.000000
806.821350	498.600000
806.856934	502.700000
806.892517	497.500000
806.928101	491.800000
806.963684	491.600000
806.999268	501.700000
807.034790	489.300000
807.070374	494.700000
807.105896	485.600000
807.141479	484.900000
807.177063	491.200000
807.212585	487.100000
807.248169	487.100000
807.283752	486.300000
807.319275	480.200000
807.354858	483.400000
807.390381	481.200000
807.425903	476.900000
807.461487	478.700000
807.497070	473.600000
807.532593	470.900000
807.568115	471.600000
807.603699	469.000000
807.639221	465.900000
807.674744	467.900000
807.710266	469.500000
807.745850	475.200000
807.781372	472.000000
807.816895	464.600000
807.852417	466.100000
807.888000	466.100000
807.923523	464.400000
807.959045	469.100000
807.994629	460.700000
808.030090	460.200000
808.065613	465.600000
808.101135	464.300000
808.136658	463.800000
808.172241	460.500000
808.207764	457.900000
808.243225	453.500000
808.278809	453.600000
808.314270	459.600000
808.349792	450.100000
808.385315	449.500000
808.420837	453.200000
808.456360	457.300000
808.491882	456.300000
808.527344	450.500000
808.562866	455.400000
808.598389	449.500000
808.633850	450.500000
808.669434	446.800000
808.704895	452.900000
808.740417	455.400000
808.775940	448.500000
808.811462	443.900000
808.846924	442.300000
808.882385	436.900000
808.917847	437.400000
808.953369	437.700000
808.988892	435.900000
809.024353	439.500000
809.059875	442.700000
809.095398	435.100000
809.130798	432.900000
809.166321	431.600000
809.201843	431.000000
809.237305	432.000000
809.272766	436.400000
809.308228	426.500000
809.343750	423.700000
809.379211	426.500000
809.414734	427.300000
809.450134	431.800000
809.485657	417.900000
809.521118	424.900000
809.556580	419.200000
809.592102	422.100000
809.627502	419.600000
809.663025	418.100000
809.698486	413.900000
809.733887	414.100000
809.769409	411.500000
809.804871	408.800000
809.840271	409.200000
809.875793	414.100000
809.911194	414.900000
809.946655	408.200000
809.982178	402.300000
810.017639	408.400000
810.053040	407.200000
810.088501	403.000000
810.123901	405.000000
810.159424	401.600000
810.194885	396.100000
810.230286	400.500000
810.265747	393.900000
810.301208	391.800000
810.336609	394.900000
810.372070	389.300000
810.407532	388.200000
810.442932	391.000000
810.478394	393.500000
810.513794	389.300000
810.549255	383.000000
810.584717	381.800000
810.620117	378.400000
810.655518	383.200000
810.690979	383.800000
810.726379	382.000000
810.761841	373.700000
810.797302	370.400000
810.832642	371.600000
810.868103	378.100000
810.903564	370.700000
810.938904	378.000000
810.974365	366.000000
811.009827	369.300000
811.045166	367.400000
811.080627	359.300000
811.115967	363.700000
811.151428	370.700000
811.186829	370.300000
811.222229	366.400000
811.257629	360.600000
811.293091	364.200000
811.328430	369.600000
811.363892	363.000000
811.399292	366.800000
811.434631	362.900000
811.470093	365.800000
811.505493	357.000000
811.540833	357.800000
811.576294	359.200000
811.611694	358.700000
811.647034	355.800000
811.682434	355.000000
811.717773	355.500000
811.753235	360.600000
811.788635	353.300000
811.823975	353.500000
811.859375	357.300000
811.894775	349.800000
811.930115	351.400000
811.965515	349.800000
812.000916	351.000000
812.036255	348.500000
812.071655	350.900000
812.106995	345.600000
812.142395	348.100000
812.177795	354.900000
812.213196	351.000000
812.248474	348.900000
812.283875	339.900000
812.319214	343.900000
812.354614	345.900000
812.390015	341.800000
812.425293	341.200000
812.460693	339.400000
812.496094	336.500000
812.531433	332.100000
812.566772	334.200000
812.602173	334.400000
812.637451	335.600000
812.672852	331.800000
812.708191	334.000000
812.743530	328.100000
812.778931	324.400000
812.814270	325.300000
812.849609	331.300000
812.884949	329.800000
812.920227	324.800000
812.955627	331.400000
812.990967	324.200000
813.026306	321.400000
813.061646	314.700000
813.096985	312.800000
813.132324	310.700000
813.167664	312.400000
813.203003	318.200000
813.238281	305.300000
813.273682	306.300000
813.308960	304.100000
813.344299	305.900000
813.379639	311.100000
813.414978	304.700000
813.450256	305.400000
813.485596	307.900000
813.520874	300.500000
813.556213	303.800000
813.591614	306.000000
813.626831	300.400000
813.662170	305.100000
813.697510	309.000000
813.732788	299.300000
813.768127	302.000000
813.803467	301.100000
813.838745	298.000000
813.874084	299.400000
813.909363	298.800000
813.944641	298.700000
813.979980	290.900000
814.015320	295.600000
814.050598	291.800000
814.085876	293.300000
814.121155	291.400000
814.156494	291.800000
814.191772	292.300000
814.227051	287.500000
814.262390	288.900000
814.297668	290.300000
814.332947	289.500000
814.368225	285.700000
814.403564	288.200000
814.438782	286.600000
814.474121	286.700000
814.509338	284.300000
814.544617	288.900000
814.579956	281.200000
814.615173	289.700000
814.650513	288.400000
814.685791	280.300000
814.721008	285.900000
814.756348	280.800000
814.791626	279.500000
814.826843	279.100000
814.862122	278.800000
814.897400	277.800000
814.932678	280.600000
814.967957	277.700000
815.003235	278.200000
815.038452	275.100000
815.073730	272.300000
815.108948	279.300000
815.144226	278.200000
815.179504	280.900000
815.214722	269.700000
815.250000	270.300000
815.285278	275.400000
815.320496	268.500000
815.355774	270.000000
815.391052	272.700000
815.426270	270.500000
815.461487	268.200000
815.496765	266.500000
815.531982	262.300000
815.567261	265.900000
815.602539	271.100000
815.637695	269.600000
815.672974	268.200000
815.708191	268.300000
815.743408	271.700000
815.778687	261.900000
815.813904	269.600000
815.849121	259.100000
815.884399	259.900000
815.919556	258.500000
815.954834	259.000000
815.990051	262.100000
816.025269	263.500000
816.060486	255.600000
816.095703	255.300000
816.130920	258.100000
816.166199	254.500000
816.201416	255.600000
816.236572	261.000000
816.271851	253.500000
816.307007	258.200000
816.342224	248.700000
816.377441	252.800000
816.412659	247.000000
816.447876	253.700000
816.483093	248.400000
816.518250	250.400000
816.553467	247.400000
816.588745	251.400000
816.623901	246.000000
816.659119	243.100000
816.694275	246.300000
816.729492	242.100000
816.764709	270.500000
816.799927	240.700000
816.835083	242.700000
816.870300	237.000000
816.905457	241.500000
816.940674	241.800000
816.975830	236.900000
817.010986	237.300000
817.046204	236.100000
817.081421	235.300000
817.116577	234.200000
817.151733	239.800000
817.186951	239.600000
817.222107	237.000000
817.257324	239.200000
817.292419	237.800000
817.327637	230.600000
817.362854	232.600000
817.398010	230.200000
817.433167	231.400000
817.468323	229.300000
817.503479	232.400000
817.538635	237.400000
817.573853	232.800000
817.608948	230.800000
817.644165	228.200000
817.679321	227.400000
817.714478	226.800000
817.749634	227.500000
817.784790	234.400000
817.819946	233.400000
817.855103	221.100000
817.890198	227.700000
817.925415	219.700000
817.960571	228.500000
817.995667	227.800000
818.030823	228.200000
818.066040	223.000000
818.101135	225.600000
818.136292	224.800000
818.171448	221.100000
818.206543	221.500000
818.241699	224.700000
818.276855	223.800000
818.311951	222.300000
818.347107	220.100000
818.382263	224.400000
818.417358	225.800000
818.452515	224.800000
818.487610	225.900000
818.522766	217.900000
818.557922	224.700000
818.593018	222.000000
818.628113	218.400000
818.663269	216.700000
818.698364	218.000000
818.733521	215.600000
818.768677	218.400000
818.803711	214.400000
818.838867	214.700000
818.874023	215.100000
818.909058	212.700000
818.944214	211.200000
818.979370	215.000000
819.014404	213.800000
819.049561	211.500000
819.084595	214.200000
819.119751	209.300000
819.154846	213.500000
819.189941	211.600000
819.225037	207.200000
819.260193	204.400000
819.295227	205.000000
819.330322	204.200000
819.365479	201.800000
819.400513	237.900000
819.435608	201.800000
819.470764	200.000000
819.505798	202.100000
819.540894	205.600000
819.575989	203.000000
819.611084	207.600000
819.646179	209.200000
819.681213	206.200000
819.716309	201.700000
819.751404	203.300000
819.786438	207.100000
819.821533	199.800000
819.856628	202.500000
819.891663	205.500000
819.926758	211.000000
819.961853	206.600000
819.996887	199.100000
820.031982	204.300000
820.067017	201.200000
820.102112	235.300000
820.137207	197.600000
820.172302	209.600000
820.207275	197.700000
820.242371	197.200000
820.277405	196.900000
820.312500	199.700000
820.347534	199.200000
820.382568	202.800000
820.417664	197.200000
820.452759	196.100000
820.487732	195.500000
820.522827	196.000000
820.557861	193.900000
820.592896	196.000000
820.627930	195.600000
820.662964	194.000000
820.698059	197.800000
820.733093	194.700000
820.768127	197.400000
820.803162	195.500000
820.838196	192.700000
820.873230	194.200000
820.908264	196.100000
820.943298	192.800000
820.978333	198.600000
821.013367	195.500000
821.048401	197.800000
821.083435	197.700000
821.118469	189.500000
821.153503	196.000000
821.188477	195.100000
821.223511	189.900000
821.258484	194.800000
821.293579	194.100000
821.328613	190.300000
821.363647	192.300000
821.398621	190.000000
821.433655	191.200000
821.468628	202.500000
821.503662	192.100000
821.538696	195.800000
821.573669	188.600000
821.608704	196.500000
821.643677	191.300000
821.678650	193.300000
821.713684	196.500000
821.748718	192.400000
821.783691	191.000000
821.818726	192.800000
821.853638	192.500000
821.888672	193.400000
821.923706	192.000000
821.958618	189.200000
821.993652	189.400000
822.028687	195.000000
822.063599	196.000000
822.098633	191.500000
822.133667	186.500000
822.168579	191.800000
822.203613	191.800000
822.238586	187.800000
822.273560	191.500000
822.308533	188.400000
822.343567	186.600000
822.378479	190.700000
822.413452	188.600000
822.448425	187.100000
822.483398	192.500000
822.518372	192.800000
822.553345	187.600000
822.588318	195.300000
822.623291	189.300000
822.658203	188.400000
822.693237	190.500000
822.728210	186.600000
822.763123	190.100000
822.798096	185.500000
822.833069	188.900000
822.867981	187.500000
822.902954	192.000000
822.937927	190.900000
822.972900	196.300000
823.007874	184.200000
823.042725	193.800000
823.077698	195.500000
823.112671	187.300000
823.147583	188.000000
823.182556	191.000000
823.217529	191.300000
823.252441	187.700000
823.287415	197.400000
823.322388	193.300000
823.357239	189.100000
823.392212	194.400000
823.427185	195.700000
823.462097	186.100000
823.497009	191.400000
823.531982	188.700000
823.566895	188.200000
823.601807	185.200000
823.636719	187.900000
823.671631	189.300000
823.706604	186.700000
823.741455	191.000000
823.776428	182.700000
823.811340	192.500000
823.846252	193.200000
823.881165	193.700000
823.916138	189.100000
823.950989	194.100000
823.985901	186.400000
824.020813	187.900000
824.055725	187.600000
824.090637	183.400000
824.125610	190.900000
824.160461	189.500000
824.195374	189.500000
824.230225	190.800000
824.265198	184.300000
824.300110	185.900000
824.334961	195.400000
824.369873	182.000000
824.404785	189.200000
824.439636	190.500000
824.474548	184.000000
824.509460	180.700000
824.544312	192.600000
824.579224	188.500000
824.614075	190.800000
824.648987	186.600000
824.683899	188.300000
824.718811	185.000000
824.753662	190.900000
824.788574	190.600000
824.823364	188.100000
824.858276	184.900000
824.893188	190.300000
824.928040	190.700000
824.962952	188.200000
824.997803	188.500000
825.032654	188.500000
825.067566	187.400000
825.102417	185.600000
825.137268	185.800000
825.172119	186.300000
825.206970	183.400000
825.241882	184.800000
825.276733	182.700000
825.311646	184.400000
825.346436	181.600000
825.381348	181.900000
825.416138	184.800000
825.450989	181.400000
825.485901	177.900000
825.520691	179.400000
825.555542	179.200000
825.590454	183.100000
825.625244	179.100000
825.660095	188.800000
825.695007	186.900000
825.729797	182.500000
825.764648	181.400000
825.799438	182.300000
825.834290	184.500000
825.869202	178.200000
825.903992	183.000000
825.938843	181.300000
825.973694	179.000000
826.008484	190.800000
826.043335	179.700000
826.078186	176.000000
826.112976	185.800000
826.147827	185.400000
826.182678	189.700000
826.217468	177.100000
826.252319	188.700000
826.287109	179.600000
826.321899	186.600000
826.356750	181.500000
826.391541	179.000000
826.426392	186.600000
826.461182	181.000000
826.495972	177.800000
826.530823	176.100000
826.565613	182.100000
826.600403	177.900000
826.635254	182.900000
826.670044	176.800000
826.704834	176.000000
826.739685	177.800000
826.774475	183.300000
826.809265	181.000000
826.844055	180.400000
826.878906	184.500000
826.913635	180.900000
826.948425	183.400000
826.983215	183.100000
827.018005	183.600000
827.052856	180.400000
827.087585	184.700000
827.122375	175.200000
827.157227	181.100000
827.191956	190.000000
827.226746	177.700000
827.261536	183.400000
827.296265	176.900000
827.331116	180.600000
827.365906	182.600000
827.400635	178.400000
827.435425	175.000000
827.470215	184.300000
827.504944	179.600000
827.539734	184.500000
827.574463	180.700000
827.609253	187.000000
827.644043	180.200000
827.678772	184.400000
827.713562	178.500000
827.748352	181.600000
827.783081	177.700000
827.817871	181.800000
827.852600	178.200000
827.887329	182.400000
827.922119	175.500000
827.956848	182.600000
827.991638	189.700000
828.026367	183.500000
828.061157	182.200000
828.095886	182.700000
828.130615	192.500000
828.165344	176.500000
828.200073	180.300000
828.234863	181.100000
828.269592	181.500000
828.304321	185.500000
828.339111	182.400000
828.373779	179.700000
828.408569	184.500000
828.443298	184.900000
828.477966	179.800000
828.512756	181.700000
828.547424	178.400000
828.582214	179.300000
828.616943	180.000000
828.651672	180.100000
828.686340	183.500000
828.721130	177.100000
828.755798	180.900000
828.790527	180.000000
828.825256	181.200000
828.859924	180.500000
828.894714	184.200000
828.929443	186.700000
828.964111	179.700000
828.998840	183.000000
829.033569	179.000000
829.068237	180.000000
829.102966	179.000000
829.137634	181.000000
829.172363	182.900000
829.207092	181.200000
829.241821	179.300000
829.276489	175.000000
829.311157	181.800000
829.345825	180.300000
829.380554	184.500000
829.415283	179.100000
829.449951	175.600000
829.484619	187.400000
829.519348	185.700000
829.554016	180.500000
829.588745	182.100000
829.623413	177.500000
829.658081	189.200000
829.692749	177.600000
829.727417	184.400000
829.762146	181.900000
829.796814	178.300000
829.831482	180.400000
829.866150	182.000000
829.900879	180.300000
829.935486	183.700000
829.970154	178.800000
830.004883	189.900000
830.039490	181.200000
830.074219	176.800000
830.108887	181.100000
830.143494	179.800000
830.178223	177.000000
830.212891	179.700000
830.247498	179.900000
830.282166	186.500000
830.316772	184.600000
830.351501	179.000000
830.386169	179.900000
830.420776	179.800000
830.455444	181.700000
830.490112	178.700000
830.524719	175.600000
830.559387	181.300000
830.594055	182.200000
830.628662	180.000000
830.663330	181.100000
830.697998	185.400000
830.732605	181.000000
830.767273	182.200000
830.801941	180.600000
830.836487	186.700000
830.871155	182.400000
830.905762	182.100000
830.940430	178.200000
830.975098	180.000000
831.009644	181.300000
831.044312	187.400000
831.078979	183.900000
831.113525	175.400000
831.148193	181.800000
831.182861	179.300000
831.217407	184.700000
831.252075	191.500000
831.286621	179.300000
831.321289	177.800000
831.355896	181.700000
831.390564	185.500000
831.425110	183.800000
831.459778	186.000000
831.494324	190.100000
831.528931	180.900000
831.563599	185.500000
831.598145	176.700000
831.632751	181.000000
831.667419	180.300000
831.701965	183.000000
831.736572	181.700000
831.771179	177.800000
831.805786	178.200000
831.840393	186.000000
831.874939	176.700000
831.909546	184.700000
831.944153	175.300000
831.978760	181.900000
832.013306	178.000000
832.047913	184.100000
832.082458	186.100000
832.117065	178.400000
832.151672	188.200000
832.186218	182.400000
832.220825	183.100000
832.255432	174.600000
832.289978	178.000000
832.324585	181.400000
832.359192	183.300000
832.393677	179.500000
832.428284	182.500000
832.462830	179.100000
832.497437	179.300000
832.531982	183.400000
832.566589	180.700000
832.601135	180.800000
832.635681	175.700000
832.670227	181.000000
832.704773	186.900000
832.739380	181.900000
832.773926	181.600000
832.808472	178.000000
832.843079	182.200000
832.877563	182.100000
832.912170	180.200000
832.946716	176.200000
832.981201	186.700000
833.015808	183.900000
833.050293	180.800000
833.084839	177.400000
833.119446	180.600000
833.153992	183.500000
833.188477	179.200000
833.223022	178.500000
833.257568	183.000000
833.292114	185.700000
833.326660	189.300000
833.361145	179.000000
833.395691	175.900000
833.430237	180.500000
833.464783	182.000000
833.499329	179.400000
833.533875	177.100000
833.568359	183.300000
833.602905	183.900000
833.637390	185.600000
833.671875	178.200000
833.706421	179.500000
833.740906	177.300000
833.775452	174.800000
833.809998	178.400000
833.844482	185.800000
833.879028	179.100000
833.913513	179.000000
833.947998	181.900000
833.982544	177.300000
834.017090	177.800000
834.051514	174.400000
834.086060	183.300000
834.120544	180.200000
834.155029	181.500000
834.189575	179.900000
834.223999	182.300000
834.258545	182.200000
834.293030	181.200000
834.327515	181.100000
834.362000	178.700000
834.396545	184.800000
834.430969	178.800000
834.465454	186.100000
834.500000	175.900000
834.534424	182.400000
834.568970	174.300000
834.603455	175.700000
834.637878	177.900000
834.672363	183.100000
834.706909	180.100000
834.741333	182.300000
834.775818	177.400000
834.810242	178.700000
834.844727	180.100000
834.879211	180.000000
834.913635	181.300000
834.948181	182.300000
834.982666	182.200000
835.017090	180.200000
835.051575	179.800000
835.086060	178.200000
835.120483	182.800000
835.154907	181.700000
835.189331	179.200000
835.223816	182.700000
835.258301	176.700000
835.292786	177.600000
835.327209	182.200000
835.361694	178.100000
835.396057	178.400000
835.430542	182.800000
835.465027	180.700000
835.499390	177.800000
835.533875	208.900000
835.568359	178.600000
835.602722	176.700000
835.637207	182.300000
835.671692	176.400000
835.706055	195.200000
835.740540	182.200000
835.774902	181.300000
835.809387	182.400000
835.843811	176.900000
835.878235	185.000000
835.912659	177.800000
835.947083	180.300000
835.981506	181.400000
836.015930	177.600000
836.050354	185.100000
836.084778	187.400000
836.119202	184.500000
836.153625	194.500000
836.187988	179.600000
836.222473	179.300000
836.256897	183.000000
836.291260	180.600000
836.325684	183.300000
836.360046	179.600000
836.394470	180.800000
836.428894	186.400000
836.463318	179.500000
836.497681	184.000000
836.532104	187.500000
836.566467	181.900000
836.600891	180.000000
836.635315	184.600000
836.669678	182.800000
836.704102	184.900000
836.738525	182.400000
836.772888	174.700000
836.807251	178.400000
836.841675	181.500000
836.876038	176.200000
836.910461	177.300000
836.944763	183.600000
836.979187	176.300000
837.013611	184.800000
837.047974	176.500000
837.082336	189.400000
837.116699	182.000000
837.151062	180.100000
837.185486	175.500000
837.219849	181.300000
837.254211	183.000000
837.288574	180.300000
837.322937	176.800000
837.357300	174.600000
837.391663	189.400000
837.426086	184.400000
837.460388	181.900000
837.494751	186.100000
837.529114	178.700000
837.563477	185.700000
837.597839	181.000000
837.632141	180.400000
837.666565	178.700000
837.700928	184.500000
837.735229	182.500000
837.769592	183.800000
837.803955	183.700000
837.838257	180.300000
837.872620	179.300000
837.906982	186.900000
837.941284	180.800000
837.975647	182.900000
838.010010	184.100000
838.044312	179.500000
838.078674	179.900000
838.112976	181.500000
838.147339	184.300000
838.181702	181.100000
838.216003	187.000000
838.250366	182.000000
838.284668	183.100000
838.318970	176.500000
838.353333	180.200000
838.387634	180.800000
838.421936	181.200000
838.456299	181.500000
838.490601	185.300000
838.524902	184.100000
838.559265	183.500000
838.593567	183.400000
838.627869	175.800000
838.662170	182.000000
838.696472	176.000000
838.730774	178.300000
838.765137	183.400000
838.799377	172.300000
838.833740	181.700000
838.868042	182.900000
838.902283	176.300000
838.936646	184.300000
838.970947	181.100000
839.005188	184.300000
839.039551	176.800000
839.073792	186.300000
839.108093	181.000000
839.142395	186.600000
839.176697	175.700000
839.210937	182.900000
839.245300	188.500000
839.279541	177.300000
839.313843	180.800000
839.348145	184.000000
839.382385	185.700000
839.416687	186.500000
839.450989	183.400000
839.485229	180.400000
839.519531	177.400000
839.553833	185.300000
839.588013	181.300000
839.622314	182.700000
839.656555	182.900000
839.690857	181.300000
839.725159	177.900000
839.759460	180.900000
839.793640	180.400000
839.827942	180.300000
839.862183	178.900000
839.896423	182.700000
839.930725	191.200000
839.964966	187.200000
839.999207	184.900000
840.033508	186.500000
840.067688	178.100000
840.101990	186.000000
840.136230	179.200000
840.170471	186.900000
840.204712	177.400000
840.238953	179.600000
840.273193	181.200000
840.307434	183.800000
840.341736	178.400000
840.375916	176.400000
840.410217	178.700000
840.444397	183.000000
840.478638	182.200000
840.512878	185.700000
840.547119	182.200000
840.581360	184.100000
840.615601	185.800000
840.649780	189.100000
840.684021	180.600000
840.718262	187.400000
840.752441	186.800000
840.786682	182.800000
840.820862	181.800000
840.855103	188.800000
840.889343	182.600000
840.923584	186.100000
840.957764	183.200000
840.992004	182.400000
841.026184	192.300000
841.060425	181.300000
841.094666	178.600000
841.128845	185.700000
841.163025	182.300000
841.197266	183.900000
841.231445	182.200000
841.265686	183.300000
841.299866	178.000000
841.334045	188.200000
841.368286	180.900000
841.402405	187.100000
841.436646	183.300000
841.470825	181.000000
841.505005	181.500000
841.539185	180.800000
841.573425	179.800000
841.607544	181.000000
841.641785	181.100000
841.675964	178.500000
841.710144	181.000000
841.744324	179.800000
841.778503	179.400000
841.812683	178.400000
841.846863	186.200000
841.881042	186.600000
841.915222	179.600000
841.949402	192.300000
841.983521	174.700000
842.017700	179.900000
842.051880	182.900000
842.086060	183.700000
842.120239	182.600000
842.154419	179.500000
842.188538	181.700000
842.222717	180.000000
842.256897	188.300000
842.291016	180.100000
842.325195	183.900000
842.359375	190.700000
842.393494	186.700000
842.427673	181.300000
842.461853	184.100000
842.495911	188.900000
842.530090	183.600000
842.564209	182.200000
842.598389	183.800000
842.632568	182.800000
842.666626	185.300000
842.700806	180.600000
842.734985	180.800000
842.769043	182.600000
842.803223	180.600000
842.837402	181.100000
842.871460	180.600000
842.905640	189.800000
842.939697	178.800000
842.973877	182.400000
843.007996	185.700000
843.042175	187.500000
843.076233	179.500000
843.110413	184.700000
843.144470	188.000000
843.178589	186.000000
843.212769	180.100000
843.246826	184.100000
843.280945	179.900000
843.315125	180.900000
843.349182	179.600000
843.383301	185.700000
843.417419	191.000000
843.451538	181.300000
843.485657	179.100000
843.519714	181.500000
843.553833	182.800000
843.587952	180.300000
843.622070	178.100000
843.656128	184.300000
843.690247	178.800000
843.724304	182.000000
843.758423	183.200000
843.792542	180.300000
843.826599	180.600000
843.860718	181.800000
843.894836	175.300000
843.928894	182.900000
843.963013	182.200000
843.997070	179.800000
844.031128	176.900000
844.065247	186.800000
844.099304	183.600000
844.133362	183.700000
844.167480	184.400000
844.201599	187.200000
844.235596	182.500000
844.269714	184.900000
844.303711	183.400000
844.337830	176.500000
844.371948	183.800000
844.405945	182.300000
844.440063	177.000000
844.474121	191.900000
844.508118	180.900000
844.542236	182.700000
844.576294	182.700000
844.610352	178.900000
844.644409	181.000000
844.678406	176.100000
844.712524	185.800000
844.746582	185.400000
844.780640	181.200000
844.814636	182.400000
844.848755	190.100000
844.882751	180.800000
844.916809	185.300000
844.950867	184.000000
844.984863	188.400000
845.018921	180.400000
845.052979	179.700000
845.086975	182.300000
845.121033	178.200000
845.155090	179.600000
845.189087	187.500000
845.223145	179.300000
845.257141	184.300000
845.291199	183.800000
845.325256	186.000000
845.359253	182.700000
845.393250	192.800000
845.427307	180.000000
845.461304	184.000000
845.495361	182.300000
845.529358	190.400000
845.563354	179.600000
845.597412	181.000000
845.631409	187.600000
845.665405	188.600000
845.699463	184.100000
845.733459	180.500000
845.767456	189.200000
845.801453	182.200000
845.835449	185.100000
845.869446	184.800000
845.903503	185.200000
845.937439	181.100000
845.971497	186.600000
846.005493	178.000000
846.039429	186.100000
846.073486	189.600000
846.107483	180.100000
846.141418	181.400000
846.175476	182.100000
846.209473	188.000000
846.243408	177.800000
846.277405	182.400000
846.311401	180.000000
846.345337	182.500000
846.379395	186.400000
846.413330	181.400000
846.447327	190.500000
846.481323	178.400000
846.515259	180.300000
846.549255	181.400000
846.583252	184.800000
846.617187	177.900000
846.651184	181.700000
846.685120	181.100000
846.719055	189.600000
846.753052	184.700000
846.786987	185.800000
846.820984	177.700000
846.854980	188.200000
846.888916	179.400000
846.922852	183.300000
846.956848	186.700000
846.990723	180.000000
847.024719	182.800000
847.058716	181.700000
847.092590	186.800000
847.126587	183.800000
847.160522	180.000000
847.194458	186.100000
847.228455	178.200000
847.262390	179.300000
847.296265	179.900000
847.330261	186.000000
847.364136	180.800000
847.398132	182.200000
847.432068	183.100000
847.466003	181.400000
847.499939	182.000000
847.533875	184.600000
847.567749	181.300000
847.601746	182.200000
847.635681	183.900000
847.669556	178.900000
847.703491	188.000000
847.737427	192.400000
847.771301	178.800000
847.805237	184.200000
847.839233	182.500000
847.873108	182.400000
847.907043	180.100000
847.940918	189.500000
847.974854	183.500000
848.008789	185.600000
848.042664	182.800000
848.076538	184.900000
848.110474	182.300000
848.144348	183.000000
848.178284	177.800000
848.212219	184.300000
848.246094	181.100000
848.279968	183.900000
848.313904	184.800000
848.347778	183.000000
848.381653	181.400000
848.415588	180.400000
848.449463	180.700000
848.483337	185.000000
848.517212	187.500000
848.551086	182.900000
848.585022	179.300000
848.618835	191.100000
848.652771	180.600000
848.686646	178.700000
848.720520	188.700000
848.754395	183.000000
848.788330	185.200000
848.822144	184.200000
848.856018	180.500000
848.889954	189.300000
848.923767	180.600000
848.957642	179.900000
848.991577	184.800000
849.025391	182.400000
849.059265	182.000000
849.093079	180.400000
849.126953	178.300000
849.160828	186.800000
849.194641	183.700000
849.228577	181.500000
849.262451	182.100000
849.296265	182.000000
849.330139	181.000000
849.364014	182.900000
849.397827	184.300000
849.431702	183.300000
849.465515	186.500000
849.499329	176.300000
849.533203	178.600000
849.567078	175.500000
849.600891	182.000000
849.634766	180.600000
849.668518	185.200000
849.702393	182.400000
849.736267	176.600000
849.770020	189.300000
849.803894	183.200000
849.837769	182.700000
849.871521	183.200000
849.905396	185.100000
849.939270	178.900000
849.973022	181.100000
850.006897	183.900000
850.040710	184.500000
850.074524	185.800000
850.108337	181.300000
850.142151	186.900000
850.175964	186.000000
850.209778	180.900000
850.243530	174.100000
850.277405	185.900000
850.311218	181.900000
850.344971	180.300000
850.378845	188.400000
850.412659	179.700000
850.446411	184.300000
850.480225	182.200000
850.514038	186.100000
850.547791	185.100000
850.581665	181.600000
850.615417	179.000000
850.649231	184.200000
850.683044	181.700000
850.716858	183.600000
850.750610	182.200000
850.784424	185.900000
850.818176	180.400000
850.851929	181.200000
850.885742	179.500000
850.919495	183.600000
850.953308	187.700000
850.987122	187.900000
851.020874	178.200000
851.054626	178.700000
851.088440	183.900000
851.122192	186.400000
851.156006	182.500000
851.189697	182.500000
851.223511	179.000000
851.257263	185.600000
851.291077	185.000000
851.324829	180.900000
851.358582	180.500000
851.392334	181.500000
851.426086	181.200000
851.459900	189.700000
851.493591	182.900000
851.527344	182.800000
851.561157	182.800000
851.594849	183.200000
851.628662	183.400000
851.662415	189.100000
851.696106	184.900000
851.729858	186.200000
851.763611	180.500000
851.797363	184.000000
851.831116	179.200000
851.864868	184.200000
851.898560	186.700000
851.932312	180.700000
851.966064	184.000000
851.999817	181.200000
852.033569	182.800000
852.067261	187.600000
852.101013	179.800000
852.134766	181.300000
852.168457	176.500000
852.202209	187.200000
852.235901	180.200000
852.269592	184.300000
852.303345	188.400000
852.337036	185.500000
852.370789	182.400000
852.404541	184.800000
852.438171	180.900000
852.471924	182.800000
852.505676	178.400000
852.539307	183.500000
852.573059	179.600000
852.606812	181.400000
852.640442	181.400000
852.674194	185.200000
852.707886	190.900000
852.741577	187.000000
852.775269	178.500000
852.809021	182.100000
852.842651	183.900000
852.876404	187.700000
852.910034	183.900000
852.943787	184.900000
852.977478	184.400000
853.011108	180.600000
853.044861	179.700000
853.078552	187.000000
853.112183	183.700000
853.145874	182.500000
853.179626	176.200000
853.213257	183.600000
853.246948	180.500000
853.280640	188.400000
853.314270	181.600000
853.347961	187.300000
853.381653	185.600000
853.415283	187.100000
853.448975	179.500000
853.482605	183.900000
853.516296	181.500000
853.549988	179.200000
853.583618	183.300000
853.617310	184.900000
853.651001	182.700000
853.684631	179.500000
853.718323	180.100000
853.751953	188.100000
853.785583	176.600000
853.819275	185.000000
853.852966	184.200000
853.886536	177.100000
853.920227	178.800000
853.953918	185.200000
853.987488	182.300000
854.021179	186.300000
854.054749	187.900000
854.088440	186.000000
854.122131	179.200000
854.155701	184.700000
854.189331	180.300000
854.223022	185.500000
854.256592	182.900000
854.290283	180.100000
854.323914	184.400000
854.357483	185.000000
854.391174	183.500000
854.424744	187.400000
854.458374	183.000000
854.492065	191.900000
854.525696	180.500000
854.559265	186.500000
854.592896	191.200000
854.626465	182.000000
854.660095	182.600000
854.693787	183.700000
854.727356	180.900000
854.760986	184.900000
854.794617	183.200000
854.828186	181.600000
854.861816	185.600000
854.895447	183.100000
854.929016	182.800000
854.962585	183.700000
854.996155	190.300000
855.029785	183.200000
855.063416	183.500000
855.097046	185.000000
855.130615	178.500000
855.164185	186.900000
855.197754	183.700000
855.231384	183.500000
855.264954	181.500000
855.298523	184.700000
855.332153	183.700000
855.365723	187.700000
855.399292	181.900000
855.432922	182.500000
855.466492	184.300000
855.500061	179.700000
855.533630	179.200000
855.567200	183.900000
855.600769	185.400000
855.634338	186.800000
855.667969	183.500000
855.701477	181.100000
855.735046	179.700000
855.768616	176.400000
855.802185	183.100000
855.835754	192.500000
855.869324	177.700000
855.902893	181.700000
855.936401	186.700000
855.969971	183.200000
856.003540	177.600000
856.037109	183.600000
856.070618	181.400000
856.104187	179.300000
856.137695	180.500000
856.171265	177.000000
856.204834	183.200000
856.238403	185.800000
856.271912	180.700000
856.305481	184.300000
856.338989	177.600000
856.372559	185.000000
856.406128	184.200000
856.439636	184.800000
856.473145	180.200000
856.506653	188.000000
856.540222	181.400000
856.573792	186.300000
856.607300	186.700000
856.640808	178.800000
856.674377	182.500000
856.707825	215.200000
856.741394	186.000000
856.774902	179.400000
856.808472	176.600000
856.841980	186.300000
856.875488	188.000000
856.908936	178.600000
856.942505	180.600000
856.976013	182.000000
857.009521	180.800000
857.043030	183.700000
857.076477	180.200000
857.110046	187.600000
857.143555	183.600000
857.177063	185.200000
857.210571	181.900000
857.244080	178.300000
857.277527	183.800000
857.311035	182.500000
857.344543	186.000000
857.378052	182.900000
857.411499	187.600000
857.445068	189.600000
857.478516	181.400000
857.512024	179.600000
857.545532	181.200000
857.578979	184.500000
857.612427	184.200000
857.645874	178.900000
857.679382	184.400000
857.712891	186.300000
857.746399	181.700000
857.779846	186.600000
857.813354	187.100000
857.846741	182.200000
857.880249	180.400000
857.913757	182.900000
857.947266	182.700000
857.980652	185.800000
858.014160	181.900000
858.047546	181.600000
858.081055	181.000000
858.114563	191.300000
858.147949	178.800000
858.181458	185.100000
858.214844	183.500000
858.248352	177.000000
858.281799	185.600000
858.315308	191.100000
858.348694	186.400000
858.382141	188.500000
858.415588	186.200000
858.449036	186.600000
858.482483	184.800000
858.515930	181.300000
858.549377	182.400000
858.582825	188.100000
858.616211	184.300000
858.649658	184.600000
858.683105	179.500000
858.716553	181.800000
858.750000	179.800000
858.783386	182.100000
858.816833	178.200000
858.850281	182.600000
858.883728	185.000000
858.917114	183.900000
858.950562	190.600000
858.983948	188.500000
859.017395	186.700000
859.050781	181.500000
859.084167	180.100000
859.117615	178.700000
859.151062	185.800000
859.184448	180.300000
859.217834	180.400000
859.251282	181.600000
859.284668	179.000000
859.318054	176.700000
859.351440	182.700000
859.384888	187.700000
859.418274	176.500000
859.451721	177.800000
859.485046	184.300000
859.518494	184.000000
859.551819	179.300000
859.585266	184.600000
859.618652	185.900000
859.652039	179.500000
859.685425	177.200000
859.718811	178.700000
859.752197	174.800000
859.785583	187.100000
859.819031	186.800000
859.852356	186.100000
859.885742	179.500000
859.919067	181.500000
859.952454	181.500000
859.985901	184.900000
860.019287	181.800000
860.052612	0.000000
860.085999	0.000000
860.119324	0.000000
860.152710	0.000000
860.186096	0.000000
860.219421	0.000000
860.252808	0.000000
860.286133	0.000000
860.319519	0.000000
860.352905	0.000000
860.386292	0.000000
860.419617	0.000000
860.452942	0.000000
860.486267	0.000000
860.519653	0.000000
860.553040	0.000000
860.586365	0.000000
860.619690	0.000000
860.653076	0.000000
860.686340	0.000000
860.719727	0.000000
860.753113	0.000000
860.786377	0.000000
860.819763	0.000000
860.853027	0.000000
860.886414	0.000000
860.919739	0.000000
860.953125	0.000000
860.986389	0.000000
861.019714	0.000000
861.053040	0.000000
861.086365	0.000000
861.119690	0.000000
861.153076	0.000000
861.186340	0.000000
861.219666	0.000000
861.252930	0.000000
861.286316	0.000000
861.319641	0.000000
861.352905	0.000000
861.386230	0.000000
861.419495	0.000000
861.452820	0.000000
861.486145	0.000000
861.519470	0.000000
861.552734	0.000000
861.586060	0.000000
861.619324	0.000000
861.652649	0.000000
861.685974	0.000000
861.719238	0.000000
861.752563	0.000000
861.785828	0.000000
861.819092	0.000000
861.852417	0.000000
861.885742	0.000000
861.918945	0.000000
861.952271	0.000000
861.985535	0.000000
862.018799	0.000000
862.052124	0.000000
862.085449	0.000000
862.118652	0.000000
862.151978	0.000000
862.185181	0.000000
862.218506	0.000000
862.251770	0.000000
862.285034	0.000000
862.318298	0.000000
862.351562	0.000000
862.384827	0.000000
862.418091	0.000000
862.451355	0.000000
862.484619	0.000000
862.517883	0.000000
862.551086	0.000000
862.584351	0.000000
862.617676	0.000000
862.650940	0.000000
862.684143	0.000000
862.717407	0.000000
862.750610	0.000000
862.783875	0.000000
862.817139	0.000000
862.850342	0.000000
862.883606	0.000000
862.916870	0.000000
862.950073	0.000000
862.983337	0.000000
863.016602	0.000000
863.049805	0.000000
863.083069	0.000000
863.116211	0.000000
863.149475	0.000000
863.182739	0.000000
863.216003	0.000000
863.249146	0.000000
863.282410	0.000000
863.315613	0.000000
863.348816	0.000000
863.382080	0.000000
863.415222	0.000000
863.448486	0.000000
863.481689	0.000000
863.514893	0.000000
863.548157	0.000000
863.581360	0.000000
863.614502	0.000000
863.647766	0.000000
863.680908	0.000000
863.714172	0.000000
863.747375	0.000000
863.780579	0.000000
863.813721	0.000000
863.846985	0.000000
863.880127	0.000000
863.913330	0.000000
863.946533	0.000000
863.979675	0.000000
864.012939	0.000000
