Model Number: SPM-001-M   
Serial Number: 10090201
Firmware Version: 004.17.6
Exposure Time: 300000.000000us
Data Taken on: 28-01-2021 10:53:39.168
Wavelength	Amplitude
733.770752	0.000000
733.808716	0.000000
733.846619	0.000000
733.884583	0.000000
733.922546	0.000000
733.960449	0.000000
733.998413	0.000000
734.036377	0.000000
734.074219	0.000000
734.112183	0.000000
734.150085	0.000000
734.188049	0.000000
734.226013	0.000000
734.263916	0.000000
734.301819	0.000000
734.339783	0.000000
734.377686	0.000000
734.415588	0.000000
734.453552	0.000000
734.491455	0.000000
734.529419	0.000000
734.567322	0.000000
734.605225	0.000000
734.643127	0.000000
734.681091	0.000000
734.718994	0.000000
734.756897	0.000000
734.794800	0.000000
734.832703	0.000000
734.870667	0.000000
734.908508	0.000000
734.946472	0.000000
734.984375	0.000000
735.022278	0.000000
735.060181	0.000000
735.098083	0.000000
735.135986	0.000000
735.173889	0.000000
735.211792	0.000000
735.249695	0.000000
735.287598	0.000000
735.325439	0.000000
735.363403	0.000000
735.401306	0.000000
735.439148	0.000000
735.477051	0.000000
735.515015	0.000000
735.552856	0.000000
735.590759	0.000000
735.628662	0.000000
735.666504	0.000000
735.704407	0.000000
735.742310	0.000000
735.780212	0.000000
735.818115	0.000000
735.856018	0.000000
735.893860	0.000000
735.931763	0.000000
735.969604	0.000000
736.007507	0.000000
736.045410	0.000000
736.083252	0.000000
736.121094	0.000000
736.158997	0.000000
736.196838	0.000000
736.234741	0.000000
736.272644	0.000000
736.310486	0.000000
736.348389	0.000000
736.386230	0.000000
736.424072	0.000000
736.461975	0.000000
736.499878	0.000000
736.537720	0.000000
736.575562	0.000000
736.613403	0.000000
736.651306	0.000000
736.689148	0.000000
736.726990	0.000000
736.764893	0.000000
736.802734	0.000000
736.840576	0.000000
736.878418	0.000000
736.916321	0.000000
736.954102	0.000000
736.992004	0.000000
737.029846	0.000000
737.067688	0.000000
737.105530	0.000000
737.143372	0.000000
737.181213	0.000000
737.219116	0.000000
737.256897	0.000000
737.294739	0.000000
737.332642	0.000000
737.370422	0.000000
737.408325	0.000000
737.446167	0.000000
737.483948	0.000000
737.521790	0.000000
737.559692	0.000000
737.597473	0.000000
737.635315	0.000000
737.673157	0.000000
737.710999	0.000000
737.748840	0.000000
737.786621	0.000000
737.824463	0.000000
737.862305	0.000000
737.900085	0.000000
737.937927	0.000000
737.975769	0.000000
738.013550	0.000000
738.051392	0.000000
738.089233	0.000000
738.127014	0.000000
738.164856	0.000000
738.202698	0.000000
738.240479	0.000000
738.278320	0.000000
738.316162	0.000000
738.353943	0.000000
738.391785	0.000000
738.429565	0.000000
738.467407	0.000000
738.505188	0.000000
738.542969	0.000000
738.580811	0.000000
738.618652	0.000000
738.656372	0.000000
738.694214	0.000000
738.732056	0.000000
738.769836	0.000000
738.807617	0.000000
738.845459	0.000000
738.883240	0.000000
738.921021	0.000000
738.958862	0.000000
738.996582	0.000000
739.034424	0.000000
739.072205	0.000000
739.109985	0.000000
739.147827	0.000000
739.185547	0.000000
739.223389	0.000000
739.261169	0.000000
739.298889	0.000000
739.336731	0.000000
739.374512	0.000000
739.412292	0.000000
739.450073	0.000000
739.487854	0.000000
739.525635	0.000000
739.563416	0.000000
739.601135	0.000000
739.638977	0.000000
739.676758	0.000000
739.714478	0.000000
739.752258	0.000000
739.790100	0.000000
739.827820	0.000000
739.865601	0.000000
739.903381	0.000000
739.941101	0.000000
739.978882	184.600000
740.016724	180.700000
740.054443	184.800000
740.092224	179.800000
740.130005	179.400000
740.167725	180.000000
740.205505	179.000000
740.243225	185.500000
740.281006	181.900000
740.318787	178.100000
740.356506	186.300000
740.394287	184.600000
740.432068	179.400000
740.469727	177.000000
740.507507	183.600000
740.545288	181.500000
740.583008	182.700000
740.620789	181.900000
740.658569	176.500000
740.696228	181.000000
740.734009	184.400000
740.771790	174.700000
740.809509	183.800000
740.847229	178.400000
740.884949	178.600000
740.922729	177.000000
740.960449	179.100000
740.998169	179.200000
741.035950	178.700000
741.073669	182.100000
741.111389	181.600000
741.149170	189.000000
741.186890	186.300000
741.224609	185.000000
741.262329	181.100000
741.300110	188.700000
741.337769	178.100000
741.375549	177.000000
741.413208	182.200000
741.450989	178.900000
741.488708	178.700000
741.526367	179.900000
741.564148	183.700000
741.601868	184.900000
741.639526	180.200000
741.677307	182.100000
741.715027	183.300000
741.752686	179.600000
741.790466	184.700000
741.828186	183.900000
741.865845	178.300000
741.903564	176.600000
741.941345	180.900000
741.979004	178.200000
742.016724	184.500000
742.054382	182.000000
742.092102	184.500000
742.129822	177.700000
742.167480	179.600000
742.205200	179.500000
742.242920	183.700000
742.280640	185.500000
742.318359	178.000000
742.356079	182.600000
742.393738	182.900000
742.431396	179.800000
742.469116	185.500000
742.506775	175.800000
742.544495	183.000000
742.582214	184.700000
742.619873	182.200000
742.657593	186.400000
742.695251	185.800000
742.732971	181.000000
742.770630	183.200000
742.808289	181.700000
742.846008	180.900000
742.883728	182.000000
742.921326	182.900000
742.959045	179.300000
742.996765	180.900000
743.034424	181.900000
743.072083	178.900000
743.109802	179.900000
743.147400	178.300000
743.185120	181.000000
743.222839	182.200000
743.260437	184.600000
743.298157	184.000000
743.335754	175.600000
743.373474	180.700000
743.411133	175.600000
743.448792	180.100000
743.486450	180.900000
743.524170	177.600000
743.561768	180.500000
743.599487	186.000000
743.637146	188.300000
743.674744	181.400000
743.712463	181.000000
743.750122	182.200000
743.787720	181.900000
743.825439	180.500000
743.863037	179.900000
743.900696	181.300000
743.938416	205.900000
743.976013	181.900000
744.013672	187.300000
744.051331	184.000000
744.088928	188.000000
744.126587	184.900000
744.164307	181.200000
744.201904	178.400000
744.239563	182.800000
744.277222	183.600000
744.314819	182.500000
744.352478	185.100000
744.390137	184.100000
744.427734	182.100000
744.465393	180.900000
744.502991	178.400000
744.540649	182.900000
744.578308	180.700000
744.615906	178.900000
744.653564	173.800000
744.691223	182.700000
744.728821	176.700000
744.766418	182.500000
744.804077	181.600000
744.841675	179.500000
744.879333	177.300000
744.916992	181.100000
744.954529	179.900000
744.992187	184.200000
745.029785	180.200000
745.067444	180.000000
745.105042	180.700000
745.142639	182.500000
745.180298	188.500000
745.217896	180.800000
745.255493	180.200000
745.293152	184.800000
745.330750	184.900000
745.368347	187.100000
745.405945	183.300000
745.443604	182.100000
745.481140	184.800000
745.518799	181.800000
745.556396	184.100000
745.593994	183.700000
745.631592	182.900000
745.669189	179.000000
745.706787	183.000000
745.744385	178.600000
745.781982	184.000000
745.819580	179.300000
745.857178	181.000000
745.894775	180.700000
745.932373	183.400000
745.969971	182.100000
746.007568	176.500000
746.045166	186.900000
746.082764	185.700000
746.120300	184.700000
746.157898	183.300000
746.195557	179.900000
746.233093	178.100000
746.270691	183.800000
746.308228	183.300000
746.345825	184.200000
746.383423	183.100000
746.420959	177.200000
746.458557	180.000000
746.496155	179.400000
746.533691	181.600000
746.571289	177.200000
746.608887	181.500000
746.646423	181.900000
746.684021	183.100000
746.721619	178.800000
746.759155	183.400000
746.796753	177.200000
746.834351	177.100000
746.871826	178.600000
746.909424	186.900000
746.946960	182.100000
746.984558	180.300000
747.022156	179.400000
747.059631	187.700000
747.097229	181.600000
747.134827	181.500000
747.172363	185.400000
747.209900	185.900000
747.247498	179.100000
747.285034	185.700000
747.322571	185.200000
747.360168	182.900000
747.397644	176.400000
747.435242	183.800000
747.472778	185.000000
747.510315	181.000000
747.547913	181.100000
747.585388	185.800000
747.622925	179.700000
747.660522	177.200000
747.697998	179.700000
747.735596	179.500000
747.773132	180.100000
747.810669	181.500000
747.848206	184.300000
747.885742	178.100000
747.923279	178.000000
747.960815	182.300000
747.998352	182.500000
748.035889	183.900000
748.073425	186.000000
748.110901	179.400000
748.148437	178.200000
748.185974	181.600000
748.223511	188.500000
748.261047	183.000000
748.298584	182.200000
748.336060	181.900000
748.373596	183.600000
748.411133	207.500000
748.448608	180.500000
748.486145	183.600000
748.523682	186.000000
748.561218	188.100000
748.598755	183.300000
748.636292	183.900000
748.673706	181.100000
748.711243	185.800000
748.748718	182.400000
748.786255	180.700000
748.823792	181.000000
748.861267	178.400000
748.898804	183.400000
748.936340	182.400000
748.973816	179.800000
749.011292	186.300000
749.048828	183.400000
749.086304	182.400000
749.123840	189.100000
749.161316	178.100000
749.198792	187.200000
749.236328	184.800000
749.273743	180.800000
749.311279	180.100000
749.348816	183.100000
749.386230	182.200000
749.423767	173.400000
749.461304	183.200000
749.498718	181.200000
749.536255	185.400000
749.573730	190.200000
749.611206	187.800000
749.648682	181.300000
749.686218	181.200000
749.723633	183.400000
749.761169	181.400000
749.798645	178.900000
749.836060	180.900000
749.873596	178.700000
749.911011	183.900000
749.948547	185.400000
749.986023	181.600000
750.023437	180.400000
750.060913	178.000000
750.098450	175.800000
750.135864	181.300000
750.173340	181.400000
750.210815	186.000000
750.248291	178.600000
750.285767	181.000000
750.323242	184.300000
750.360657	183.600000
750.398132	177.000000
750.435608	184.600000
750.473022	178.200000
750.510498	178.700000
750.547974	178.900000
750.585449	181.000000
750.622925	174.100000
750.660339	190.500000
750.697815	181.700000
750.735291	181.700000
750.772644	181.800000
750.810120	183.800000
750.847595	183.000000
750.885010	178.000000
750.922485	187.900000
750.959961	181.900000
750.997375	186.900000
751.034851	184.700000
751.072266	183.000000
751.109680	177.100000
751.147156	185.600000
751.184570	181.900000
751.221985	182.300000
751.259460	177.000000
751.296875	181.900000
751.334290	180.600000
751.371765	184.600000
751.409180	185.200000
751.446594	185.500000
751.484070	182.200000
751.521423	181.900000
751.558899	182.800000
751.596375	189.800000
751.633728	185.800000
751.671204	189.600000
751.708618	177.900000
751.746033	183.800000
751.783447	177.000000
751.820801	179.500000
751.858276	184.700000
751.895691	181.600000
751.933105	180.200000
751.970520	178.700000
752.007935	179.300000
752.045349	186.000000
752.082764	180.000000
752.120178	179.700000
752.157532	178.900000
752.195007	180.600000
752.232422	182.500000
752.269775	184.700000
752.307190	182.600000
752.344543	179.700000
752.382019	182.300000
752.419434	181.600000
752.456787	183.500000
752.494202	185.300000
752.531616	182.000000
752.568970	184.600000
752.606384	182.900000
752.643799	184.000000
752.681152	187.100000
752.718567	184.100000
752.755981	176.400000
752.793335	183.900000
752.830750	177.500000
752.868164	184.000000
752.905518	179.400000
752.942932	185.000000
752.980225	178.500000
753.017639	183.800000
753.055054	184.600000
753.092407	182.000000
753.129822	184.500000
753.167175	187.200000
753.204529	182.000000
753.241943	179.000000
753.279358	178.000000
753.316650	183.300000
753.354065	184.600000
753.391479	184.100000
753.428772	188.000000
753.466187	182.400000
753.503479	179.200000
753.540894	179.900000
753.578308	179.400000
753.615601	178.000000
753.653015	182.800000
753.690369	179.400000
753.727722	180.000000
753.765076	177.200000
753.802490	178.300000
753.839783	177.700000
753.877136	180.200000
753.914551	188.400000
753.951843	180.500000
753.989258	184.500000
754.026611	183.500000
754.063904	182.600000
754.101257	178.400000
754.138611	177.400000
754.175964	183.400000
754.213318	188.900000
754.250610	177.800000
754.288025	180.300000
754.325378	177.900000
754.362671	184.000000
754.400024	181.500000
754.437378	188.900000
754.474670	187.600000
754.512085	178.700000
754.549438	182.000000
754.586731	180.000000
754.624084	182.000000
754.661438	178.500000
754.698730	187.600000
754.736084	180.600000
754.773376	180.100000
754.810730	184.100000
754.848083	182.700000
754.885315	186.300000
754.922668	178.100000
754.960022	179.800000
754.997314	184.700000
755.034668	182.800000
755.072021	182.800000
755.109253	183.000000
755.146606	186.600000
755.183960	181.000000
755.221252	187.400000
755.258545	186.200000
755.295898	187.100000
755.333191	187.600000
755.370544	184.400000
755.407776	182.600000
755.445129	182.900000
755.482422	187.300000
755.519714	181.500000
755.557068	179.700000
755.594360	178.300000
755.631653	185.200000
755.668945	187.600000
755.706299	184.100000
755.743530	190.800000
755.780884	188.600000
755.818176	185.800000
755.855408	188.200000
755.892761	184.400000
755.930054	183.700000
755.967346	184.900000
756.004639	185.800000
756.041870	183.700000
756.079224	187.500000
756.116516	180.500000
756.153748	186.000000
756.191040	190.000000
756.228394	186.300000
756.265625	181.300000
756.302917	185.100000
756.340210	182.500000
756.377441	187.000000
756.414795	189.800000
756.452087	184.700000
756.489319	180.200000
756.526611	187.000000
756.563843	186.400000
756.601135	190.400000
756.638428	191.600000
756.675659	182.800000
756.712952	188.000000
756.750244	187.000000
756.787476	187.600000
756.824768	187.300000
756.862061	185.000000
756.899292	229.100000
756.936584	188.300000
756.973816	191.800000
757.011047	193.100000
757.048340	184.100000
757.085632	186.100000
757.122864	197.800000
757.160156	183.900000
757.197327	185.300000
757.234619	189.400000
757.271912	184.200000
757.309082	189.600000
757.346375	184.400000
757.383667	191.100000
757.420837	187.900000
757.458130	187.500000
757.495422	185.100000
757.532593	188.600000
757.569885	181.900000
757.607117	185.000000
757.644348	187.500000
757.681580	197.700000
757.718811	178.400000
757.756042	187.800000
757.793335	183.800000
757.830505	188.300000
757.867798	185.700000
757.905029	186.100000
757.942200	188.900000
757.979492	186.400000
758.016724	186.600000
758.053894	185.600000
758.091187	199.400000
758.128418	188.600000
758.165588	187.800000
758.202820	196.300000
758.240112	188.400000
758.277283	194.300000
758.314514	189.600000
758.351685	186.600000
758.388916	194.500000
758.426147	192.800000
758.463379	194.500000
758.500610	189.600000
758.537842	190.600000
758.575012	192.900000
758.612244	188.700000
758.649475	198.800000
758.686646	185.500000
758.723877	194.800000
758.761108	195.700000
758.798279	189.700000
758.835510	191.300000
758.872742	194.300000
758.909851	192.700000
758.947083	192.800000
758.984253	192.500000
759.021484	195.100000
759.058716	193.600000
759.095886	195.300000
759.133057	190.900000
759.170288	193.400000
759.207458	191.100000
759.244690	199.500000
759.281860	199.000000
759.319031	191.900000
759.356262	190.900000
759.393433	192.400000
759.430603	193.900000
759.467773	191.800000
759.505005	196.500000
759.542175	197.100000
759.579346	192.300000
759.616516	193.800000
759.653687	197.000000
759.690918	192.000000
759.728027	194.200000
759.765259	195.700000
759.802429	196.600000
759.839539	197.200000
759.876770	199.000000
759.913940	202.200000
759.951111	194.500000
759.988281	196.500000
760.025452	193.400000
760.062561	193.100000
760.099792	202.100000
760.136963	197.500000
760.174072	193.200000
760.211243	193.200000
760.248413	192.000000
760.285583	194.400000
760.322754	201.900000
760.359863	200.700000
760.397034	200.600000
760.434204	196.200000
760.471375	195.600000
760.508545	194.900000
760.545715	196.800000
760.582825	193.600000
760.619995	200.600000
760.657166	193.500000
760.694275	201.000000
760.731445	200.300000
760.768555	197.700000
760.805664	200.600000
760.842834	197.700000
760.879944	201.100000
760.917114	198.600000
760.954285	198.400000
760.991394	194.000000
761.028564	202.800000
761.065674	201.000000
761.102783	198.200000
761.139954	201.700000
761.177124	203.500000
761.214172	202.500000
761.251343	199.400000
761.288452	198.200000
761.325562	203.800000
761.362732	196.300000
761.399841	201.700000
761.436951	201.500000
761.474121	198.400000
761.511169	200.500000
761.548340	203.800000
761.585449	203.000000
761.622559	203.600000
761.659668	202.200000
761.696838	206.200000
761.733887	202.700000
761.771057	200.400000
761.808167	202.600000
761.845276	204.400000
761.882385	210.600000
761.919434	203.300000
761.956604	216.500000
761.993713	201.100000
762.030762	208.800000
762.067871	203.600000
762.105042	203.600000
762.142090	208.400000
762.179199	205.900000
762.216309	207.800000
762.253418	214.700000
762.290527	211.400000
762.327637	209.100000
762.364685	201.800000
762.401794	209.200000
762.438904	208.500000
762.475952	203.700000
762.513062	203.000000
762.550110	203.700000
762.587219	215.000000
762.624329	214.100000
762.661377	208.800000
762.698486	206.900000
762.735596	207.800000
762.772644	205.100000
762.809753	203.700000
762.846863	209.100000
762.883911	211.500000
762.921021	210.300000
762.958069	208.800000
762.995117	214.600000
763.032227	214.200000
763.069336	208.400000
763.106323	204.700000
763.143433	205.000000
763.180481	210.400000
763.217590	211.600000
763.254639	209.500000
763.291687	209.200000
763.328735	217.300000
763.365845	210.100000
763.402893	210.400000
763.439941	212.200000
763.477051	214.900000
763.514038	213.500000
763.551147	210.900000
763.588196	213.300000
763.625244	213.900000
763.662292	218.400000
763.699402	219.900000
763.736389	215.800000
763.773499	222.500000
763.810486	217.800000
763.847534	216.900000
763.884644	217.600000
763.921631	216.700000
763.958679	222.200000
763.995728	218.300000
764.032776	221.900000
764.069824	215.100000
764.106873	220.400000
764.143860	226.300000
764.180969	219.200000
764.218018	225.500000
764.255005	219.500000
764.292053	221.400000
764.329102	227.800000
764.366089	227.000000
764.403137	225.300000
764.440125	220.900000
764.477173	222.200000
764.514221	224.500000
764.551208	224.100000
764.588257	221.000000
764.625305	226.500000
764.662292	232.500000
764.699341	231.600000
764.736389	229.100000
764.773376	238.500000
764.810425	229.800000
764.847473	236.000000
764.884399	232.800000
764.921448	236.700000
764.958435	234.100000
764.995483	229.800000
765.032532	241.200000
765.069458	230.100000
765.106506	232.900000
765.143555	231.000000
765.180481	235.000000
765.217529	240.200000
765.254578	230.300000
765.291504	237.300000
765.328552	234.500000
765.365540	230.700000
765.402527	241.900000
765.439575	232.400000
765.476501	230.700000
765.513550	232.100000
765.550537	235.700000
765.587463	240.300000
765.624512	234.400000
765.661499	231.300000
765.698486	241.200000
765.735474	234.800000
765.772461	237.300000
765.809448	242.500000
765.846436	241.900000
765.883423	244.200000
765.920410	239.300000
765.957397	237.900000
765.994385	240.500000
766.031311	248.200000
766.068359	242.400000
766.105286	244.400000
766.142273	248.300000
766.179260	244.900000
766.216187	240.500000
766.253174	239.300000
766.290161	244.300000
766.327148	247.400000
766.364136	245.600000
766.401123	257.800000
766.438049	242.400000
766.475037	252.300000
766.512024	250.700000
766.548950	261.100000
766.585937	255.400000
766.622864	253.600000
766.659790	253.500000
766.696777	245.900000
766.733704	255.100000
766.770691	250.600000
766.807678	258.300000
766.844604	255.000000
766.881531	254.300000
766.918518	259.700000
766.955444	261.000000
766.992432	256.300000
767.029358	256.400000
767.066284	258.600000
767.103271	257.000000
767.140198	289.600000
767.177124	270.600000
767.214050	259.700000
767.251038	261.000000
767.287964	258.900000
767.324890	259.000000
767.361816	261.100000
767.398743	264.500000
767.435730	259.800000
767.472595	262.800000
767.509583	265.900000
767.546509	259.400000
767.583374	262.800000
767.620361	258.000000
767.657288	260.100000
767.694214	262.800000
767.731140	261.300000
767.768066	261.200000
767.804993	265.500000
767.841919	261.500000
767.878845	265.500000
767.915710	271.600000
767.952698	264.600000
767.989563	267.700000
768.026489	267.500000
768.063416	265.000000
768.100281	263.300000
768.137207	271.200000
768.174133	267.700000
768.211060	270.500000
768.247986	269.600000
768.284912	267.900000
768.321777	270.400000
768.358704	268.500000
768.395630	269.800000
768.432495	266.900000
768.469421	270.800000
768.506348	275.200000
768.543152	279.000000
768.580078	275.800000
768.616943	276.200000
768.653870	277.300000
768.690796	277.000000
768.727661	276.000000
768.764587	276.900000
768.801453	274.900000
768.838318	283.600000
768.875244	278.500000
768.912109	284.300000
768.948975	278.500000
768.985901	281.100000
769.022766	281.000000
769.059631	285.200000
769.096558	281.400000
769.133362	282.500000
769.170288	281.200000
769.207214	281.800000
769.244019	286.700000
769.280945	285.800000
769.317810	291.600000
769.354675	288.200000
769.391541	293.100000
769.428406	292.700000
769.465271	299.200000
769.502136	291.400000
769.539062	295.600000
769.575867	294.300000
769.612732	296.700000
769.649597	299.200000
769.686462	300.000000
769.723328	298.100000
769.760193	297.400000
769.797058	298.200000
769.833923	304.600000
769.870728	303.400000
769.907593	305.100000
769.944519	305.000000
769.981323	303.100000
770.018188	306.500000
770.055054	307.300000
770.091858	305.100000
770.128723	312.800000
770.165588	316.900000
770.202393	307.800000
770.239258	317.600000
770.276062	313.000000
770.312927	312.600000
770.349792	320.000000
770.386597	317.200000
770.423462	324.100000
770.460327	329.600000
770.497131	320.600000
770.533997	316.300000
770.570862	328.800000
770.607605	326.900000
770.644470	325.900000
770.681335	325.200000
770.718140	328.400000
770.754944	324.200000
770.791809	324.100000
770.828613	324.200000
770.865479	325.700000
770.902222	331.900000
770.939087	330.400000
770.975952	323.600000
771.012695	328.100000
771.049561	338.200000
771.086365	333.300000
771.123169	331.800000
771.159973	335.400000
771.196838	335.200000
771.233582	335.300000
771.270447	335.300000
771.307251	341.400000
771.344055	335.900000
771.380859	337.200000
771.417664	337.900000
771.454468	345.300000
771.491272	340.700000
771.528076	344.000000
771.564880	341.300000
771.601685	347.300000
771.638428	342.100000
771.675293	345.300000
771.712097	341.300000
771.748840	354.000000
771.785645	346.600000
771.822449	350.200000
771.859253	350.100000
771.896057	348.800000
771.932861	357.300000
771.969604	353.200000
772.006409	347.000000
772.043213	355.500000
772.079956	353.300000
772.116760	349.000000
772.153503	352.400000
772.190308	362.500000
772.227112	357.100000
772.263855	354.000000
772.300659	357.400000
772.337463	359.100000
772.374207	355.600000
772.411011	351.600000
772.447754	358.900000
772.484497	370.400000
772.521301	366.800000
772.558105	360.200000
772.594849	364.100000
772.631592	368.500000
772.668396	367.500000
772.705139	367.700000
772.741882	366.500000
772.778625	373.300000
772.815430	377.100000
772.852173	372.300000
772.888916	378.200000
772.925720	379.600000
772.962463	384.400000
772.999207	377.600000
773.035950	379.200000
773.072754	378.500000
773.109436	375.100000
773.146240	378.700000
773.182922	376.900000
773.219727	383.800000
773.256470	382.000000
773.293152	374.200000
773.329956	379.000000
773.366699	383.000000
773.403381	378.500000
773.440186	384.700000
773.476929	384.500000
773.513611	377.800000
773.550354	380.300000
773.587158	381.900000
773.623840	378.900000
773.660583	386.400000
773.697327	391.800000
773.734009	388.400000
773.770813	383.500000
773.807495	385.400000
773.844238	386.900000
773.880981	399.000000
773.917664	393.500000
773.954407	397.500000
773.991150	389.200000
774.027832	395.300000
774.064575	389.300000
774.101318	398.800000
774.138000	399.100000
774.174744	396.500000
774.211487	399.400000
774.248108	391.400000
774.284851	388.200000
774.321594	398.700000
774.358276	400.400000
774.395020	407.500000
774.431702	403.900000
774.468384	398.600000
774.505127	396.600000
774.541809	405.600000
774.578491	408.500000
774.615234	409.100000
774.651917	401.800000
774.688599	408.400000
774.725342	414.500000
774.762024	415.200000
774.798706	420.100000
774.835449	419.700000
774.872070	420.800000
774.908813	421.800000
774.945496	420.200000
774.982178	420.700000
775.018860	424.300000
775.055542	426.200000
775.092224	425.000000
775.128967	429.200000
775.165588	429.200000
775.202271	426.600000
775.239014	434.200000
775.275635	435.700000
775.312317	431.800000
775.349060	433.200000
775.385681	436.500000
775.422363	431.700000
775.459045	439.200000
775.495667	441.000000
775.532410	443.700000
775.569092	445.600000
775.605713	441.600000
775.642395	440.000000
775.679016	445.500000
775.715698	447.800000
775.752380	450.500000
775.789001	445.000000
775.825684	444.200000
775.862366	449.300000
775.898987	460.000000
775.935669	455.000000
775.972351	470.500000
776.008972	464.000000
776.045654	463.000000
776.082336	460.400000
776.118958	461.700000
776.155640	467.400000
776.192322	474.500000
776.228882	476.000000
776.265564	478.300000
776.302185	471.600000
776.338867	477.600000
776.375488	472.400000
776.412109	483.200000
776.448792	483.800000
776.485413	488.300000
776.522034	481.200000
776.558716	478.600000
776.595337	482.300000
776.631958	485.600000
776.668579	488.200000
776.705261	495.600000
776.741882	489.500000
776.778503	489.500000
776.815186	490.400000
776.851746	496.900000
776.888367	494.600000
776.924988	503.500000
776.961609	496.200000
776.998291	496.200000
777.034851	492.900000
777.071472	503.000000
777.108154	501.300000
777.144714	514.000000
777.181335	508.400000
777.218018	506.000000
777.254578	514.300000
777.291199	511.300000
777.327759	516.400000
777.364380	519.400000
777.401062	524.300000
777.437622	529.800000
777.474243	523.800000
777.510864	525.000000
777.547424	522.200000
777.584045	524.800000
777.620667	527.000000
777.657227	529.200000
777.693848	532.800000
777.730469	538.800000
777.767029	530.000000
777.803650	532.500000
777.840271	532.800000
777.876831	532.700000
777.913452	541.100000
777.950012	524.800000
777.986633	526.400000
778.023193	526.700000
778.059753	529.700000
778.096375	528.000000
778.132996	541.900000
778.169556	529.500000
778.206116	533.600000
778.242737	533.600000
778.279297	542.400000
778.315857	534.500000
778.352478	539.000000
778.389038	542.500000
778.425598	545.900000
778.462219	552.100000
778.498718	550.600000
778.535339	549.700000
778.571838	553.100000
778.608459	555.300000
778.645020	548.400000
778.681580	555.200000
778.718140	556.600000
778.754761	551.200000
778.791260	555.200000
778.827881	560.700000
778.864441	562.200000
778.900940	563.600000
778.937561	559.300000
778.974121	559.600000
779.010620	555.300000
779.047241	559.800000
779.083801	565.700000
779.120300	561.200000
779.156860	564.800000
779.193359	568.300000
779.229980	568.600000
779.266541	572.500000
779.303040	575.000000
779.339600	569.700000
779.376160	561.100000
779.412659	563.400000
779.449219	564.100000
779.485779	566.500000
779.522278	566.000000
779.558838	573.400000
779.595398	569.800000
779.631897	571.500000
779.668457	563.900000
779.705017	577.900000
779.741516	569.100000
779.778076	565.000000
779.814575	568.500000
779.851074	573.500000
779.887634	567.000000
779.924133	573.900000
779.960693	566.900000
779.997253	580.300000
780.033691	583.000000
780.070251	582.200000
780.106812	591.200000
780.143250	585.500000
780.179810	584.500000
780.216370	588.800000
780.252808	594.400000
780.289368	597.800000
780.325867	593.400000
780.362366	591.100000
780.398865	597.400000
780.435364	598.400000
780.471863	605.800000
780.508423	599.600000
780.544861	602.100000
780.581421	598.900000
780.617920	593.000000
780.654419	595.000000
780.690918	604.500000
780.727417	608.900000
780.763916	607.000000
780.800415	615.300000
780.836914	600.400000
780.873352	609.300000
780.909912	606.700000
780.946411	611.100000
780.982849	619.100000
781.019348	628.300000
781.055786	620.100000
781.092346	621.700000
781.128845	627.600000
781.165283	633.100000
781.201782	640.900000
781.238281	642.000000
781.274719	646.100000
781.311218	640.500000
781.347717	648.800000
781.384155	640.200000
781.420654	641.800000
781.457092	648.100000
781.493591	644.300000
781.530090	634.400000
781.566528	640.000000
781.602966	641.900000
781.639465	645.800000
781.675903	644.000000
781.712402	652.800000
781.748901	654.000000
781.785278	646.600000
781.821777	653.400000
781.858276	654.000000
781.894714	662.900000
781.931152	658.800000
781.967651	668.000000
782.004089	657.800000
782.040527	663.700000
782.076965	668.300000
782.113403	665.800000
782.149902	672.600000
782.186340	667.600000
782.222778	674.500000
782.259277	665.600000
782.295654	663.200000
782.332092	666.200000
782.368591	664.800000
782.404968	661.300000
782.441467	652.400000
782.477905	652.300000
782.514282	646.200000
782.550781	652.000000
782.587219	641.600000
782.623596	644.700000
782.660095	637.100000
782.696472	639.600000
782.732910	635.000000
782.769348	628.200000
782.805786	628.700000
782.842224	629.400000
782.878662	618.600000
782.915039	613.800000
782.951477	605.700000
782.987915	592.000000
783.024292	595.900000
783.060730	596.600000
783.097168	582.900000
783.133545	570.800000
783.169983	564.200000
783.206421	557.600000
783.242798	549.900000
783.279236	541.600000
783.315613	537.500000
783.352051	529.400000
783.388489	519.600000
783.424866	509.300000
783.461304	513.200000
783.497681	514.900000
783.534058	509.500000
783.570496	508.700000
783.606934	506.900000
783.643250	505.400000
783.679687	506.400000
783.716125	498.900000
783.752441	507.000000
783.788879	521.700000
783.825317	528.100000
783.861633	529.700000
783.898071	533.500000
783.934448	541.300000
783.970825	548.200000
784.007263	552.300000
784.043579	558.200000
784.080017	569.900000
784.116394	569.200000
784.152710	574.700000
784.189148	584.700000
784.225525	583.700000
784.261902	586.800000
784.298279	592.100000
784.334656	601.900000
784.371033	604.300000
784.407410	613.800000
784.443787	608.600000
784.480164	604.900000
784.516541	608.500000
784.552856	626.000000
784.589233	627.800000
784.625610	630.900000
784.661987	656.700000
784.698364	654.500000
784.734741	658.200000
784.771057	662.000000
784.807434	667.800000
784.843811	690.700000
784.880127	697.700000
784.916504	721.300000
784.952881	723.100000
784.989197	725.300000
785.025574	737.700000
785.061951	744.800000
785.098267	765.900000
785.134644	767.000000
785.170959	761.000000
785.207275	760.500000
785.243652	762.200000
785.279968	750.300000
785.316345	756.100000
785.352722	756.400000
785.388977	755.000000
785.425354	739.200000
785.461731	725.600000
785.498047	722.900000
785.534363	723.500000
785.570679	728.500000
785.606995	727.300000
785.643372	727.900000
785.679687	723.600000
785.716003	720.400000
785.752380	723.800000
785.788635	733.300000
785.825012	744.600000
785.861328	751.800000
785.897644	740.300000
785.933960	756.300000
785.970337	767.400000
786.006592	788.500000
786.042908	792.700000
786.079285	799.000000
786.115540	804.100000
786.151855	796.900000
786.188171	796.400000
786.224487	802.300000
786.260803	801.600000
786.297119	805.300000
786.333435	793.200000
786.369751	784.400000
786.406006	784.400000
786.442322	770.100000
786.478638	764.600000
786.514954	769.800000
786.551270	763.300000
786.587585	766.800000
786.623840	754.700000
786.660156	751.400000
786.696472	748.100000
786.732727	748.400000
786.769043	751.900000
786.805298	744.600000
786.841614	751.400000
786.877930	757.500000
786.914124	749.100000
786.950439	770.300000
786.986755	778.300000
787.023010	795.800000
787.059326	798.100000
787.095642	805.100000
787.131836	821.300000
787.168152	814.100000
787.204468	822.800000
787.240723	830.700000
787.276978	840.200000
787.313293	845.100000
787.349548	837.000000
787.385803	837.100000
787.422058	833.600000
787.458313	827.600000
787.494629	820.400000
787.530823	815.800000
787.567139	808.600000
787.603455	801.100000
787.639648	789.900000
787.675903	796.100000
787.712219	792.200000
787.748413	791.800000
787.784729	792.100000
787.820984	784.300000
787.857178	784.700000
787.893494	775.400000
787.929749	786.000000
787.965942	798.800000
788.002258	808.300000
788.038452	817.500000
788.074707	818.400000
788.110962	823.800000
788.147217	818.200000
788.183472	842.900000
788.219727	845.700000
788.255920	855.600000
788.292175	863.000000
788.328430	856.300000
788.364624	840.300000
788.400879	843.000000
788.437134	848.500000
788.473328	849.600000
788.509583	848.500000
788.545837	851.300000
788.582031	845.900000
788.618286	846.600000
788.654480	850.000000
788.690735	851.500000
788.726990	865.600000
788.763184	857.100000
788.799377	865.400000
788.835632	864.500000
788.871826	876.000000
788.908081	875.100000
788.944336	870.900000
788.980469	882.700000
789.016724	875.800000
789.052979	873.700000
789.089111	862.600000
789.125366	869.900000
789.161621	860.500000
789.197754	874.700000
789.234009	873.800000
789.270142	861.600000
789.306396	853.600000
789.342590	854.300000
789.378784	836.100000
789.414978	836.700000
789.451233	852.500000
789.487366	851.100000
789.523621	858.600000
789.559814	846.800000
789.595947	843.700000
789.632202	859.400000
789.668335	867.900000
789.704529	882.600000
789.740784	896.000000
789.776917	888.500000
789.813110	887.800000
789.849304	894.800000
789.885498	905.500000
789.921692	914.500000
789.957886	915.800000
789.994019	916.700000
790.030212	921.500000
790.066406	918.600000
790.102539	924.600000
790.138733	936.200000
790.174927	934.800000
790.211060	940.100000
790.247253	924.800000
790.283386	916.200000
790.319580	906.600000
790.355774	899.500000
790.391907	901.900000
790.428101	922.500000
790.464294	913.800000
790.500427	908.700000
790.536621	889.800000
790.572754	870.800000
790.608887	876.900000
790.645081	889.900000
790.681274	905.000000
790.717346	896.900000
790.753540	884.400000
790.789734	867.500000
790.825867	864.000000
790.862000	876.200000
790.898132	881.500000
790.934265	886.800000
790.970459	881.500000
791.006592	876.100000
791.042725	876.800000
791.078918	870.500000
791.114990	867.000000
791.151184	876.100000
791.187317	888.000000
791.223389	880.400000
791.259583	868.100000
791.295715	874.500000
791.331848	884.300000
791.367981	885.300000
791.404114	886.500000
791.440247	887.000000
791.476379	885.500000
791.512451	871.000000
791.548584	867.200000
791.584778	866.200000
791.620850	878.000000
791.656982	886.800000
791.693115	878.500000
791.729187	873.100000
791.765381	870.400000
791.801514	875.300000
791.837585	874.400000
791.873718	884.100000
791.909851	896.200000
791.945923	901.000000
791.982056	873.200000
792.018188	869.500000
792.054260	869.000000
792.090393	876.300000
792.126465	871.000000
792.162598	883.100000
792.198669	865.900000
792.234741	862.300000
792.270874	857.400000
792.307007	844.400000
792.343079	851.400000
792.379150	859.300000
792.415283	845.400000
792.451355	842.800000
792.487488	821.900000
792.523560	816.400000
792.559631	799.500000
792.595764	747.500000
792.631836	714.900000
792.667908	711.700000
792.703979	707.900000
792.740051	737.900000
792.776184	766.800000
792.812256	774.700000
792.848328	788.800000
792.884399	792.300000
792.920471	785.800000
792.956543	781.200000
792.992615	788.300000
793.028748	788.200000
793.064758	798.700000
793.100830	815.500000
793.136963	824.500000
793.172974	810.800000
793.209045	807.300000
793.245178	814.700000
793.281189	802.300000
793.317261	808.000000
793.353271	816.100000
793.389404	818.600000
793.425476	811.400000
793.461487	798.600000
793.497559	794.500000
793.533630	801.900000
793.569641	804.000000
793.605713	809.100000
793.641785	815.900000
793.677795	819.700000
793.713867	809.600000
793.749878	806.700000
793.785950	821.800000
793.822021	831.800000
793.858032	823.900000
793.894104	835.700000
793.930176	828.800000
793.966187	830.600000
794.002258	821.800000
794.038269	830.300000
794.074280	827.700000
794.110352	845.500000
794.146423	832.400000
794.182373	828.600000
794.218445	822.100000
794.254517	813.000000
794.290466	811.200000
794.326538	816.200000
794.362549	815.000000
794.398560	814.500000
794.434631	808.100000
794.470581	793.500000
794.506653	790.700000
794.542664	792.200000
794.578674	794.500000
794.614685	796.400000
794.650757	801.000000
794.686707	798.100000
794.722778	790.900000
794.758789	812.100000
794.794739	819.500000
794.830811	844.600000
794.866821	856.300000
794.902771	855.500000
794.938843	847.300000
794.974792	841.800000
795.010803	844.400000
795.046814	841.300000
795.082825	838.700000
795.118835	845.900000
795.154846	825.600000
795.190796	828.600000
795.226807	812.800000
795.262817	817.900000
795.298767	820.300000
795.334778	831.400000
795.370850	824.000000
795.406799	820.500000
795.442810	805.300000
795.478821	808.200000
795.514709	809.100000
795.550720	835.200000
795.586670	811.300000
795.622681	817.900000
795.658691	819.000000
795.694641	817.200000
795.730652	806.800000
795.766663	821.900000
795.802551	824.800000
795.838562	839.700000
795.874573	826.900000
795.910522	824.600000
795.946472	813.400000
795.982483	817.300000
796.018433	816.900000
796.054382	824.600000
796.090393	818.400000
796.126282	817.100000
796.162292	804.400000
796.198242	795.000000
796.234192	794.300000
796.270203	791.500000
796.306091	796.700000
796.342041	814.100000
796.378052	805.000000
796.413940	795.800000
796.449951	808.400000
796.485901	810.200000
796.521790	816.800000
796.557800	827.400000
796.593689	823.000000
796.629639	819.700000
796.665649	814.000000
796.701599	811.500000
796.737488	816.800000
796.773437	820.000000
796.809387	823.600000
796.845337	819.500000
796.881287	809.300000
796.917175	792.800000
796.953125	796.700000
796.989075	803.700000
797.024963	804.600000
797.060913	803.000000
797.096863	798.400000
797.132751	790.400000
797.168701	784.800000
797.204590	789.200000
797.240540	795.600000
797.276489	799.200000
797.312439	801.300000
797.348328	791.300000
797.384277	784.000000
797.420166	777.600000
797.456055	781.500000
797.492004	786.200000
797.527893	798.500000
797.563843	795.400000
797.599731	781.700000
797.635620	778.100000
797.671570	784.100000
797.707520	786.000000
797.743347	789.000000
797.779297	798.300000
797.815125	786.400000
797.851074	775.800000
797.887024	766.800000
797.922913	764.800000
797.958801	773.400000
797.994690	770.700000
798.030579	774.200000
798.066467	772.400000
798.102356	762.300000
798.138245	759.400000
798.174133	752.200000
798.210083	766.100000
798.245911	775.800000
798.281799	775.100000
798.317749	769.500000
798.353577	764.000000
798.389465	760.000000
798.425293	759.200000
798.461243	763.000000
798.497131	769.700000
798.532959	766.000000
798.568848	770.200000
798.604736	758.100000
798.640564	744.800000
798.676453	742.800000
798.712402	755.200000
798.748230	755.600000
798.784119	755.200000
798.820007	748.400000
798.855835	750.900000
798.891724	744.100000
798.927551	741.200000
798.963379	749.700000
798.999268	746.400000
799.035095	734.900000
799.070984	728.800000
799.106873	720.400000
799.142700	728.500000
799.178528	720.800000
799.214417	732.900000
799.250244	733.700000
799.286133	726.900000
799.321960	726.600000
799.357788	724.400000
799.393677	722.000000
799.429504	722.700000
799.465332	726.600000
799.501221	726.800000
799.537048	728.200000
799.572876	721.600000
799.608704	721.100000
799.644531	733.700000
799.680359	731.900000
799.716248	737.700000
799.752014	745.900000
799.787903	735.200000
799.823730	728.800000
799.859558	725.400000
799.895386	725.100000
799.931213	725.700000
799.967041	725.700000
800.002869	721.100000
800.038696	729.100000
800.074463	719.700000
800.110352	722.800000
800.146179	717.300000
800.181946	726.500000
800.217773	718.200000
800.253540	720.500000
800.289429	717.400000
800.325256	711.300000
800.361023	707.700000
800.396851	715.700000
800.432678	717.700000
800.468445	714.700000
800.504272	714.000000
800.540100	703.700000
800.575867	700.200000
800.611694	702.300000
800.647461	696.800000
800.683289	706.700000
800.719116	709.500000
800.754883	706.000000
800.790649	691.900000
800.826477	690.900000
800.862244	708.400000
800.898071	698.400000
800.933838	694.300000
800.969604	695.900000
801.005432	689.800000
801.041199	689.300000
801.076965	681.500000
801.112793	676.100000
801.148560	674.000000
801.184326	677.600000
801.220154	679.700000
801.255859	673.600000
801.291687	672.800000
801.327454	670.000000
801.363281	668.800000
801.398987	664.700000
801.434814	670.500000
801.470520	675.000000
801.506287	669.100000
801.542114	652.600000
801.577820	659.600000
801.613647	662.800000
801.649414	657.100000
801.685120	659.500000
801.720886	660.000000
801.756714	650.000000
801.792419	650.100000
801.828186	643.400000
801.863892	653.400000
801.899719	646.800000
801.935486	643.100000
801.971252	652.600000
802.006958	647.700000
802.042725	640.600000
802.078430	641.700000
802.114197	640.000000
802.149963	650.300000
802.185669	640.200000
802.221436	634.500000
802.257202	637.800000
802.292908	634.600000
802.328674	639.300000
802.364441	646.800000
802.400146	644.100000
802.435913	640.900000
802.471558	636.600000
802.507324	636.400000
802.543091	627.100000
802.578796	639.500000
802.614502	637.600000
802.650269	643.000000
802.685974	627.200000
802.721741	630.700000
802.757446	633.200000
802.793152	633.900000
802.828918	641.300000
802.864624	636.500000
802.900330	631.900000
802.936035	629.700000
802.971802	635.800000
803.007446	627.700000
803.043213	621.000000
803.078857	630.400000
803.114624	618.700000
803.150330	625.500000
803.185974	616.200000
803.221741	617.900000
803.257446	621.800000
803.293152	623.000000
803.328857	621.900000
803.364563	612.100000
803.400208	610.200000
803.435974	611.300000
803.471680	609.600000
803.507324	607.600000
803.543030	620.400000
803.578735	618.000000
803.614441	615.900000
803.650146	620.800000
803.685791	607.700000
803.721497	605.700000
803.757202	598.900000
803.792847	607.400000
803.828552	602.200000
803.864258	599.300000
803.899902	594.000000
803.935608	586.100000
803.971313	588.800000
804.006958	589.200000
804.042664	589.700000
804.078308	594.000000
804.113953	588.900000
804.149658	592.800000
804.185364	581.600000
804.221008	598.100000
804.256714	582.200000
804.292297	580.600000
804.328003	579.400000
804.363708	573.900000
804.399292	574.900000
804.434998	575.700000
804.470703	570.800000
804.506287	580.400000
804.541992	575.500000
804.577637	574.100000
804.613281	563.600000
804.648926	559.300000
804.684570	561.700000
804.720215	561.800000
804.755920	561.800000
804.791565	562.000000
804.827209	562.000000
804.862854	556.400000
804.898437	552.100000
804.934143	557.700000
804.969788	552.900000
805.005371	555.000000
805.041077	551.700000
805.076721	553.500000
805.112305	545.000000
805.147949	548.500000
805.183655	541.100000
805.219238	546.500000
805.254883	540.400000
805.290466	545.900000
805.326111	540.200000
805.361755	533.800000
805.397400	537.500000
805.432983	533.700000
805.468628	530.900000
805.504211	544.900000
805.539856	543.400000
805.575500	541.500000
805.611084	530.400000
805.646729	524.000000
805.682373	529.300000
805.717957	540.500000
805.753601	540.500000
805.789246	529.300000
805.824768	532.400000
805.860413	535.100000
805.895996	524.200000
805.931641	526.700000
805.967224	533.500000
806.002869	528.900000
806.038452	533.200000
806.074036	535.100000
806.109619	523.200000
806.145264	518.000000
806.180847	518.200000
806.216431	516.500000
806.252014	521.400000
806.287659	521.100000
806.323181	526.900000
806.358826	518.000000
806.394409	508.400000
806.429993	512.200000
806.465576	518.700000
806.501160	509.800000
806.536743	507.300000
806.572327	512.800000
806.607910	506.200000
806.643494	505.900000
806.679077	504.700000
806.714661	505.600000
806.750244	504.100000
806.785828	503.000000
806.821350	503.300000
806.856934	503.900000
806.892517	502.500000
806.928101	495.800000
806.963684	497.000000
806.999268	500.600000
807.034790	485.000000
807.070374	492.600000
807.105896	486.500000
807.141479	484.500000
807.177063	492.200000
807.212585	484.900000
807.248169	485.200000
807.283752	485.000000
807.319275	482.900000
807.354858	485.000000
807.390381	481.700000
807.425903	475.300000
807.461487	474.800000
807.497070	472.600000
807.532593	474.200000
807.568115	474.300000
807.603699	469.400000
807.639221	466.000000
807.674744	469.400000
807.710266	471.500000
807.745850	473.000000
807.781372	469.400000
807.816895	464.200000
807.852417	468.000000
807.888000	465.600000
807.923523	459.900000
807.959045	467.000000
807.994629	461.600000
808.030090	456.500000
808.065613	462.700000
808.101135	466.900000
808.136658	463.200000
808.172241	454.400000
808.207764	456.700000
808.243225	451.200000
808.278809	451.700000
808.314270	455.700000
808.349792	450.900000
808.385315	449.600000
808.420837	451.600000
808.456360	453.900000
808.491882	455.900000
808.527344	451.800000
808.562866	455.700000
808.598389	449.200000
808.633850	448.700000
808.669434	440.600000
808.704895	448.300000
808.740417	455.600000
808.775940	449.600000
808.811462	444.700000
808.846924	440.000000
808.882385	437.500000
808.917847	439.900000
808.953369	440.900000
808.988892	437.100000
809.024353	440.300000
809.059875	441.000000
809.095398	435.700000
809.130798	430.900000
809.166321	429.200000
809.201843	432.900000
809.237305	433.600000
809.272766	436.900000
809.308228	427.100000
809.343750	425.800000
809.379211	424.400000
809.414734	426.500000
809.450134	433.000000
809.485657	421.600000
809.521118	425.000000
809.556580	421.300000
809.592102	418.500000
809.627502	417.900000
809.663025	417.500000
809.698486	412.500000
809.733887	410.200000
809.769409	411.800000
809.804871	403.800000
809.840271	407.700000
809.875793	411.200000
809.911194	415.200000
809.946655	406.200000
809.982178	402.000000
810.017639	405.800000
810.053040	401.700000
810.088501	402.100000
810.123901	404.500000
810.159424	400.100000
810.194885	396.300000
810.230286	398.300000
810.265747	395.600000
810.301208	390.800000
810.336609	393.500000
810.372070	391.000000
810.407532	389.300000
810.442932	387.900000
810.478394	392.100000
810.513794	388.000000
810.549255	384.500000
810.584717	383.800000
810.620117	378.700000
810.655518	382.600000
810.690979	379.700000
810.726379	382.300000
810.761841	374.600000
810.797302	372.000000
810.832642	372.000000
810.868103	379.200000
810.903564	369.500000
810.938904	374.800000
810.974365	365.200000
811.009827	369.400000
811.045166	365.500000
811.080627	359.000000
811.115967	361.200000
811.151428	369.100000
811.186829	363.100000
811.222229	367.100000
811.257629	358.500000
811.293091	362.800000
811.328430	369.500000
811.363892	364.900000
811.399292	366.100000
811.434631	361.100000
811.470093	364.100000
811.505493	355.400000
811.540833	356.900000
811.576294	359.700000
811.611694	355.900000
811.647034	354.200000
811.682434	355.600000
811.717773	356.200000
811.753235	361.100000
811.788635	351.600000
811.823975	353.400000
811.859375	357.500000
811.894775	349.600000
811.930115	349.600000
811.965515	347.800000
812.000916	349.400000
812.036255	348.700000
812.071655	349.700000
812.106995	344.300000
812.142395	346.500000
812.177795	352.700000
812.213196	349.200000
812.248474	349.500000
812.283875	342.500000
812.319214	344.900000
812.354614	345.200000
812.390015	340.700000
812.425293	338.400000
812.460693	342.200000
812.496094	337.200000
812.531433	332.600000
812.566772	332.300000
812.602173	335.300000
812.637451	333.800000
812.672852	331.100000
812.708191	331.700000
812.743530	327.400000
812.778931	322.700000
812.814270	321.400000
812.849609	327.000000
812.884949	326.800000
812.920227	321.500000
812.955627	331.200000
812.990967	326.800000
813.026306	321.300000
813.061646	314.900000
813.096985	310.300000
813.132324	309.200000
813.167664	309.600000
813.203003	315.700000
813.238281	306.600000
813.273682	305.100000
813.308960	303.800000
813.344299	306.400000
813.379639	310.700000
813.414978	306.500000
813.450256	302.800000
813.485596	306.900000
813.520874	299.300000
813.556213	303.500000
813.591614	304.900000
813.626831	301.300000
813.662170	302.600000
813.697510	310.100000
813.732788	298.400000
813.768127	303.600000
813.803467	299.500000
813.838745	297.800000
813.874084	298.600000
813.909363	298.700000
813.944641	299.000000
813.979980	291.100000
814.015320	291.800000
814.050598	294.200000
814.085876	294.300000
814.121155	291.800000
814.156494	290.800000
814.191772	290.900000
814.227051	286.900000
814.262390	290.200000
814.297668	289.000000
814.332947	289.200000
814.368225	284.800000
814.403564	287.000000
814.438782	285.200000
814.474121	287.900000
814.509338	282.300000
814.544617	288.300000
814.579956	283.200000
814.615173	289.700000
814.650513	284.300000
814.685791	280.600000
814.721008	283.100000
814.756348	280.600000
814.791626	277.400000
814.826843	277.800000
814.862122	279.700000
814.897400	276.100000
814.932678	278.600000
814.967957	275.800000
815.003235	277.900000
815.038452	273.700000
815.073730	270.800000
815.108948	278.700000
815.144226	277.900000
815.179504	280.000000
815.214722	269.400000
815.250000	268.300000
815.285278	273.400000
815.320496	268.000000
815.355774	269.700000
815.391052	270.500000
815.426270	270.500000
815.461487	268.400000
815.496765	264.800000
815.531982	263.000000
815.567261	265.500000
815.602539	269.900000
815.637695	267.500000
815.672974	267.300000
815.708191	268.800000
815.743408	268.100000
815.778687	263.500000
815.813904	268.300000
815.849121	259.400000
815.884399	258.300000
815.919556	258.800000
815.954834	259.000000
815.990051	260.200000
816.025269	263.300000
816.060486	254.300000
816.095703	254.300000
816.130920	257.900000
816.166199	253.900000
816.201416	257.200000
816.236572	257.600000
816.271851	251.000000
816.307007	256.100000
816.342224	248.400000
816.377441	252.200000
816.412659	247.600000
816.447876	252.800000
816.483093	248.700000
816.518250	249.900000
816.553467	246.300000
816.588745	250.800000
816.623901	244.300000
816.659119	241.400000
816.694275	245.200000
816.729492	243.100000
816.764709	267.800000
816.799927	240.000000
816.835083	242.300000
816.870300	237.500000
816.905457	239.700000
816.940674	243.200000
816.975830	236.300000
817.010986	235.900000
817.046204	235.900000
817.081421	233.500000
817.116577	232.400000
817.151733	238.500000
817.186951	237.100000
817.222107	236.500000
817.257324	239.200000
817.292419	236.600000
817.327637	230.900000
817.362854	234.000000
817.398010	231.200000
817.433167	233.400000
817.468323	230.800000
817.503479	232.500000
817.538635	240.300000
817.573853	232.400000
817.608948	231.100000
817.644165	228.400000
817.679321	227.000000
817.714478	227.400000
817.749634	227.000000
817.784790	235.400000
817.819946	233.800000
817.855103	221.000000
817.890198	225.800000
817.925415	221.900000
817.960571	227.700000
817.995667	226.700000
818.030823	226.800000
818.066040	221.900000
818.101135	224.900000
818.136292	222.200000
818.171448	218.900000
818.206543	222.200000
818.241699	223.000000
818.276855	221.300000
818.311951	221.000000
818.347107	217.900000
818.382263	223.500000
818.417358	224.600000
818.452515	226.400000
818.487610	225.600000
818.522766	217.900000
818.557922	224.800000
818.593018	221.200000
818.628113	218.000000
818.663269	216.400000
818.698364	217.500000
818.733521	215.100000
818.768677	218.300000
818.803711	214.700000
818.838867	213.700000
818.874023	216.600000
818.909058	212.400000
818.944214	211.900000
818.979370	215.800000
819.014404	213.900000
819.049561	209.900000
819.084595	215.600000
819.119751	207.400000
819.154846	214.000000
819.189941	210.500000
819.225037	208.000000
819.260193	204.000000
819.295227	206.300000
819.330322	203.000000
819.365479	204.200000
819.400513	236.600000
819.435608	202.100000
819.470764	199.400000
819.505798	202.000000
819.540894	203.400000
819.575989	202.700000
819.611084	207.200000
819.646179	208.900000
819.681213	205.600000
819.716309	200.500000
819.751404	202.200000
819.786438	206.400000
819.821533	199.700000
819.856628	202.900000
819.891663	204.300000
819.926758	209.500000
819.961853	206.800000
819.996887	200.300000
820.031982	204.200000
820.067017	199.600000
820.102112	234.000000
820.137207	198.100000
820.172302	210.700000
820.207275	197.200000
820.242371	197.400000
820.277405	198.300000
820.312500	198.900000
820.347534	199.900000
820.382568	203.800000
820.417664	196.500000
820.452759	197.100000
820.487732	197.600000
820.522827	197.200000
820.557861	193.600000
820.592896	195.900000
820.627930	196.500000
820.662964	193.900000
820.698059	198.000000
820.733093	195.200000
820.768127	196.900000
820.803162	195.900000
820.838196	191.700000
820.873230	196.000000
820.908264	197.100000
820.943298	192.900000
820.978333	197.300000
821.013367	195.900000
821.048401	198.200000
821.083435	196.700000
821.118469	187.700000
821.153503	197.100000
821.188477	195.400000
821.223511	190.400000
821.258484	193.000000
821.293579	193.800000
821.328613	188.800000
821.363647	192.500000
821.398621	189.000000
821.433655	191.100000
821.468628	202.800000
821.503662	191.900000
821.538696	194.700000
821.573669	188.700000
821.608704	194.800000
821.643677	191.000000
821.678650	194.900000
821.713684	196.300000
821.748718	192.300000
821.783691	192.400000
821.818726	192.200000
821.853638	193.500000
821.888672	191.600000
821.923706	191.400000
821.958618	190.300000
821.993652	188.800000
822.028687	194.600000
822.063599	195.500000
822.098633	192.000000
822.133667	188.900000
822.168579	192.000000
822.203613	191.000000
822.238586	188.900000
822.273560	192.200000
822.308533	187.900000
822.343567	189.200000
822.378479	190.200000
822.413452	189.100000
822.448425	187.800000
822.483398	192.400000
822.518372	194.600000
822.553345	188.400000
822.588318	195.600000
822.623291	188.100000
822.658203	187.100000
822.693237	188.700000
822.728210	187.100000
822.763123	189.400000
822.798096	186.600000
822.833069	187.700000
822.867981	188.100000
822.902954	189.900000
822.937927	191.500000
822.972900	196.300000
823.007874	184.300000
823.042725	193.500000
823.077698	195.700000
823.112671	186.000000
823.147583	188.400000
823.182556	191.000000
823.217529	192.000000
823.252441	188.200000
823.287415	197.500000
823.322388	191.900000
823.357239	188.300000
823.392212	195.200000
823.427185	194.300000
823.462097	186.900000
823.497009	190.100000
823.531982	186.800000
823.566895	188.600000
823.601807	186.100000
823.636719	187.500000
823.671631	191.200000
823.706604	186.700000
823.741455	190.200000
823.776428	184.100000
823.811340	191.000000
823.846252	194.100000
823.881165	193.100000
823.916138	188.700000
823.950989	194.600000
823.985901	185.900000
824.020813	189.100000
824.055725	187.600000
824.090637	184.200000
824.125610	190.300000
824.160461	188.500000
824.195374	188.900000
824.230225	192.300000
824.265198	182.000000
824.300110	185.900000
824.334961	194.200000
824.369873	182.000000
824.404785	188.900000
824.439636	190.600000
824.474548	181.600000
824.509460	181.500000
824.544312	191.700000
824.579224	188.800000
824.614075	187.500000
824.648987	184.200000
824.683899	186.400000
824.718811	184.900000
824.753662	191.300000
824.788574	190.500000
824.823364	187.800000
824.858276	183.500000
824.893188	190.200000
824.928040	189.200000
824.962952	189.200000
824.997803	189.500000
825.032654	186.900000
825.067566	188.400000
825.102417	184.700000
825.137268	185.200000
825.172119	185.700000
825.206970	183.400000
825.241882	186.100000
825.276733	182.000000
825.311646	184.600000
825.346436	180.700000
825.381348	183.200000
825.416138	185.200000
825.450989	182.900000
825.485901	179.200000
825.520691	179.100000
825.555542	178.000000
825.590454	184.400000
825.625244	180.200000
825.660095	188.400000
825.695007	186.400000
825.729797	182.700000
825.764648	180.400000
825.799438	183.200000
825.834290	183.900000
825.869202	178.500000
825.903992	183.500000
825.938843	182.000000
825.973694	178.300000
826.008484	191.700000
826.043335	180.000000
826.078186	177.900000
826.112976	184.900000
826.147827	185.500000
826.182678	188.200000
826.217468	177.500000
826.252319	186.300000
826.287109	178.500000
826.321899	185.700000
826.356750	179.400000
826.391541	178.100000
826.426392	183.900000
826.461182	181.200000
826.495972	178.900000
826.530823	176.600000
826.565613	181.600000
826.600403	177.500000
826.635254	183.400000
826.670044	178.300000
826.704834	176.900000
826.739685	179.200000
826.774475	182.500000
826.809265	181.000000
826.844055	178.800000
826.878906	185.200000
826.913635	181.500000
826.948425	182.500000
826.983215	183.200000
827.018005	183.500000
827.052856	179.200000
827.087585	185.000000
827.122375	176.100000
827.157227	180.400000
827.191956	191.000000
827.226746	177.600000
827.261536	183.100000
827.296265	177.400000
827.331116	179.000000
827.365906	182.400000
827.400635	179.800000
827.435425	176.400000
827.470215	184.600000
827.504944	181.600000
827.539734	185.000000
827.574463	181.700000
827.609253	186.300000
827.644043	181.500000
827.678772	185.300000
827.713562	180.400000
827.748352	180.000000
827.783081	177.500000
827.817871	182.100000
827.852600	178.500000
827.887329	182.200000
827.922119	175.700000
827.956848	183.800000
827.991638	189.800000
828.026367	182.700000
828.061157	180.700000
828.095886	181.100000
828.130615	193.100000
828.165344	174.400000
828.200073	181.600000
828.234863	180.600000
828.269592	180.000000
828.304321	183.500000
828.339111	181.400000
828.373779	180.900000
828.408569	184.000000
828.443298	183.600000
828.477966	178.900000
828.512756	182.300000
828.547424	178.300000
828.582214	179.700000
828.616943	179.100000
828.651672	181.800000
828.686340	183.600000
828.721130	179.700000
828.755798	180.500000
828.790527	180.600000
828.825256	179.900000
828.859924	181.400000
828.894714	185.100000
828.929443	188.300000
828.964111	179.700000
828.998840	180.100000
829.033569	179.100000
829.068237	181.200000
829.102966	177.600000
829.137634	182.400000
829.172363	182.600000
829.207092	182.200000
829.241821	178.000000
829.276489	176.100000
829.311157	180.600000
829.345825	179.300000
829.380554	182.600000
829.415283	178.600000
829.449951	174.900000
829.484619	186.000000
829.519348	186.700000
829.554016	180.700000
829.588745	180.100000
829.623413	176.500000
829.658081	189.100000
829.692749	177.600000
829.727417	183.600000
829.762146	181.500000
829.796814	177.500000
829.831482	179.200000
829.866150	180.900000
829.900879	178.100000
829.935486	183.300000
829.970154	178.400000
830.004883	190.900000
830.039490	181.600000
830.074219	178.800000
830.108887	179.400000
830.143494	180.900000
830.178223	176.400000
830.212891	180.200000
830.247498	181.100000
830.282166	187.200000
830.316772	185.700000
830.351501	180.000000
830.386169	181.200000
830.420776	179.600000
830.455444	180.900000
830.490112	179.400000
830.524719	175.700000
830.559387	183.200000
830.594055	182.400000
830.628662	180.800000
830.663330	180.200000
830.697998	188.100000
830.732605	180.200000
830.767273	182.300000
830.801941	179.600000
830.836487	188.900000
830.871155	180.900000
830.905762	181.900000
830.940430	176.200000
830.975098	178.600000
831.009644	181.900000
831.044312	186.700000
831.078979	182.000000
831.113525	174.100000
831.148193	181.300000
831.182861	179.600000
831.217407	183.800000
831.252075	190.600000
831.286621	179.600000
831.321289	176.500000
831.355896	181.100000
831.390564	185.700000
831.425110	181.700000
831.459778	185.500000
831.494324	190.800000
831.528931	181.700000
831.563599	185.700000
831.598145	176.800000
831.632751	181.500000
831.667419	180.300000
831.701965	182.800000
831.736572	181.200000
831.771179	177.800000
831.805786	178.900000
831.840393	186.600000
831.874939	174.600000
831.909546	184.400000
831.944153	175.400000
831.978760	181.500000
832.013306	177.900000
832.047913	185.400000
832.082458	186.400000
832.117065	178.600000
832.151672	188.000000
832.186218	182.500000
832.220825	183.000000
832.255432	175.100000
832.289978	179.600000
832.324585	183.800000
832.359192	182.300000
832.393677	180.300000
832.428284	181.700000
832.462830	179.100000
832.497437	180.000000
832.531982	184.500000
832.566589	178.300000
832.601135	182.900000
832.635681	175.400000
832.670227	180.500000
832.704773	186.000000
832.739380	180.900000
832.773926	182.500000
832.808472	178.600000
832.843079	180.000000
832.877563	182.100000
832.912170	179.300000
832.946716	176.500000
832.981201	184.500000
833.015808	182.300000
833.050293	180.900000
833.084839	177.800000
833.119446	180.100000
833.153992	183.800000
833.188477	180.100000
833.223022	178.200000
833.257568	182.400000
833.292114	185.200000
833.326660	189.800000
833.361145	179.500000
833.395691	176.100000
833.430237	180.900000
833.464783	182.900000
833.499329	178.000000
833.533875	179.000000
833.568359	183.500000
833.602905	184.700000
833.637390	184.700000
833.671875	178.900000
833.706421	180.900000
833.740906	180.200000
833.775452	174.000000
833.809998	180.200000
833.844482	186.700000
833.879028	179.800000
833.913513	180.400000
833.947998	183.300000
833.982544	177.400000
834.017090	178.600000
834.051514	172.900000
834.086060	183.500000
834.120544	179.800000
834.155029	183.500000
834.189575	179.300000
834.223999	183.200000
834.258545	181.500000
834.293030	180.400000
834.327515	182.500000
834.362000	178.200000
834.396545	183.500000
834.430969	180.300000
834.465454	184.400000
834.500000	175.500000
834.534424	183.200000
834.568970	176.000000
834.603455	175.900000
834.637878	177.300000
834.672363	182.900000
834.706909	181.000000
834.741333	181.700000
834.775818	177.100000
834.810242	178.100000
834.844727	181.000000
834.879211	181.200000
834.913635	181.100000
834.948181	181.300000
834.982666	180.600000
835.017090	180.000000
835.051575	182.500000
835.086060	180.200000
835.120483	183.800000
835.154907	183.700000
835.189331	180.600000
835.223816	183.000000
835.258301	176.200000
835.292786	177.900000
835.327209	182.900000
835.361694	180.500000
835.396057	178.300000
835.430542	182.700000
835.465027	180.300000
835.499390	178.000000
835.533875	206.200000
835.568359	179.400000
835.602722	175.100000
835.637207	182.300000
835.671692	175.500000
835.706055	195.800000
835.740540	181.700000
835.774902	183.700000
835.809387	182.700000
835.843811	175.900000
835.878235	186.100000
835.912659	178.600000
835.947083	178.200000
835.981506	180.700000
836.015930	175.600000
836.050354	184.800000
836.084778	186.400000
836.119202	185.000000
836.153625	193.300000
836.187988	178.300000
836.222473	178.000000
836.256897	180.900000
836.291260	179.800000
836.325684	182.100000
836.360046	180.000000
836.394470	179.800000
836.428894	186.300000
836.463318	178.800000
836.497681	183.500000
836.532104	185.700000
836.566467	182.300000
836.600891	179.000000
836.635315	184.900000
836.669678	182.200000
836.704102	184.200000
836.738525	181.800000
836.772888	176.500000
836.807251	178.600000
836.841675	184.800000
836.876038	177.000000
836.910461	178.900000
836.944763	183.300000
836.979187	179.000000
837.013611	185.200000
837.047974	178.800000
837.082336	189.200000
837.116699	184.300000
837.151062	180.500000
837.185486	176.900000
837.219849	178.900000
837.254211	183.800000
837.288574	180.300000
837.322937	176.900000
837.357300	173.400000
837.391663	189.200000
837.426086	184.000000
837.460388	182.600000
837.494751	183.100000
837.529114	178.900000
837.563477	185.700000
837.597839	182.300000
837.632141	180.400000
837.666565	179.000000
837.700928	183.300000
837.735229	181.700000
837.769592	183.700000
837.803955	183.100000
837.838257	180.400000
837.872620	180.000000
837.906982	187.400000
837.941284	179.600000
837.975647	183.600000
838.010010	185.000000
838.044312	179.400000
838.078674	180.100000
838.112976	181.100000
838.147339	182.700000
838.181702	182.200000
838.216003	185.100000
838.250366	182.300000
838.284668	182.500000
838.318970	177.000000
838.353333	181.500000
838.387634	180.400000
838.421936	180.400000
838.456299	183.500000
838.490601	185.000000
838.524902	184.200000
838.559265	184.300000
838.593567	185.000000
838.627869	176.700000
838.662170	182.600000
838.696472	177.200000
838.730774	179.000000
838.765137	184.000000
838.799377	171.600000
838.833740	182.000000
838.868042	186.100000
838.902283	175.600000
838.936646	186.600000
838.970947	182.500000
839.005188	185.700000
839.039551	175.700000
839.073792	185.500000
839.108093	179.800000
839.142395	187.600000
839.176697	176.500000
839.210937	183.500000
839.245300	188.300000
839.279541	176.700000
839.313843	181.000000
839.348145	183.400000
839.382385	184.300000
839.416687	184.800000
839.450989	184.100000
839.485229	179.800000
839.519531	178.300000
839.553833	185.200000
839.588013	181.300000
839.622314	182.600000
839.656555	182.800000
839.690857	180.500000
839.725159	177.700000
839.759460	180.600000
839.793640	179.900000
839.827942	179.900000
839.862183	179.000000
839.896423	181.800000
839.930725	192.700000
839.964966	187.500000
839.999207	186.900000
840.033508	187.200000
840.067688	179.700000
840.101990	186.100000
840.136230	181.800000
840.170471	186.900000
840.204712	179.300000
840.238953	179.100000
840.273193	182.900000
840.307434	183.800000
840.341736	181.100000
840.375916	176.800000
840.410217	180.000000
840.444397	184.100000
840.478638	183.200000
840.512878	184.900000
840.547119	181.900000
840.581360	183.000000
840.615601	186.500000
840.649780	189.500000
840.684021	181.100000
840.718262	187.400000
840.752441	187.100000
840.786682	181.800000
840.820862	181.400000
840.855103	189.500000
840.889343	182.600000
840.923584	186.200000
840.957764	182.700000
840.992004	182.900000
841.026184	192.200000
841.060425	181.800000
841.094666	178.800000
841.128845	184.200000
841.163025	181.800000
841.197266	183.600000
841.231445	181.800000
841.265686	183.500000
841.299866	178.400000
841.334045	187.600000
841.368286	180.700000
841.402405	187.600000
841.436646	184.600000
841.470825	180.900000
841.505005	180.600000
841.539185	180.400000
841.573425	179.700000
841.607544	182.500000
841.641785	180.400000
841.675964	180.300000
841.710144	182.100000
841.744324	180.900000
841.778503	180.100000
841.812683	180.800000
841.846863	187.400000
841.881042	187.700000
841.915222	179.300000
841.949402	192.300000
841.983521	176.600000
842.017700	180.200000
842.051880	181.300000
842.086060	185.700000
842.120239	182.400000
842.154419	180.900000
842.188538	182.000000
842.222717	180.300000
842.256897	187.600000
842.291016	183.200000
842.325195	182.700000
842.359375	190.500000
842.393494	186.600000
842.427673	181.600000
842.461853	183.700000
842.495911	188.600000
842.530090	183.100000
842.564209	181.200000
842.598389	183.100000
842.632568	181.800000
842.666626	184.900000
842.700806	180.600000
842.734985	180.300000
842.769043	184.900000
842.803223	182.300000
842.837402	180.900000
842.871460	180.500000
842.905640	189.500000
842.939697	179.200000
842.973877	182.400000
843.007996	186.700000
843.042175	189.600000
843.076233	180.900000
843.110413	183.900000
843.144470	187.500000
843.178589	185.400000
843.212769	181.800000
843.246826	184.500000
843.280945	181.000000
843.315125	181.100000
843.349182	179.700000
843.383301	186.100000
843.417419	190.600000
843.451538	181.600000
843.485657	181.400000
843.519714	181.500000
843.553833	183.200000
843.587952	180.600000
843.622070	180.300000
843.656128	184.000000
843.690247	179.900000
843.724304	181.800000
843.758423	184.100000
843.792542	179.800000
843.826599	183.800000
843.860718	179.600000
843.894836	177.800000
843.928894	182.800000
843.963013	183.000000
843.997070	180.300000
844.031128	178.000000
844.065247	185.800000
844.099304	183.000000
844.133362	183.100000
844.167480	184.000000
844.201599	185.200000
844.235596	183.100000
844.269714	184.900000
844.303711	183.000000
844.337830	177.000000
844.371948	184.100000
844.405945	183.100000
844.440063	179.700000
844.474121	192.800000
844.508118	180.400000
844.542236	182.800000
844.576294	181.800000
844.610352	179.200000
844.644409	181.900000
844.678406	177.400000
844.712524	184.800000
844.746582	187.200000
844.780640	180.800000
844.814636	182.900000
844.848755	189.200000
844.882751	181.200000
844.916809	183.900000
844.950867	185.100000
844.984863	188.800000
845.018921	181.000000
845.052979	178.500000
845.086975	183.300000
845.121033	178.100000
845.155090	178.600000
845.189087	186.300000
845.223145	180.400000
845.257141	183.600000
845.291199	184.800000
845.325256	186.100000
845.359253	184.700000
845.393250	194.000000
845.427307	182.400000
845.461304	182.500000
845.495361	182.300000
845.529358	189.600000
845.563354	181.200000
845.597412	179.000000
845.631409	190.200000
845.665405	187.300000
845.699463	185.000000
845.733459	181.200000
845.767456	191.400000
845.801453	182.400000
845.835449	186.900000
845.869446	186.200000
845.903503	184.600000
845.937439	180.700000
845.971497	186.900000
846.005493	179.000000
846.039429	184.200000
846.073486	190.700000
846.107483	180.400000
846.141418	182.300000
846.175476	182.000000
846.209473	186.900000
846.243408	179.100000
846.277405	183.700000
846.311401	180.100000
846.345337	183.700000
846.379395	187.000000
846.413330	182.300000
846.447327	189.500000
846.481323	180.400000
846.515259	180.700000
846.549255	183.200000
846.583252	183.700000
846.617187	178.500000
846.651184	182.600000
846.685120	182.100000
846.719055	187.900000
846.753052	185.500000
846.786987	185.500000
846.820984	178.200000
846.854980	188.100000
846.888916	179.900000
846.922852	184.000000
846.956848	187.700000
846.990723	180.800000
847.024719	182.800000
847.058716	181.400000
847.092590	186.200000
847.126587	183.600000
847.160522	181.000000
847.194458	185.300000
847.228455	180.100000
847.262390	177.900000
847.296265	181.500000
847.330261	186.700000
847.364136	180.300000
847.398132	181.900000
847.432068	182.300000
847.466003	181.700000
847.499939	181.200000
847.533875	184.300000
847.567749	181.100000
847.601746	181.500000
847.635681	185.300000
847.669556	177.600000
847.703491	187.200000
847.737427	191.400000
847.771301	178.500000
847.805237	185.000000
847.839233	182.800000
847.873108	182.500000
847.907043	181.200000
847.940918	188.400000
847.974854	181.900000
848.008789	184.800000
848.042664	181.800000
848.076538	185.000000
848.110474	182.500000
848.144348	184.800000
848.178284	177.400000
848.212219	184.400000
848.246094	180.600000
848.279968	184.500000
848.313904	183.600000
848.347778	182.400000
848.381653	181.200000
848.415588	179.900000
848.449463	180.000000
848.483337	184.900000
848.517212	187.500000
848.551086	183.100000
848.585022	178.100000
848.618835	192.000000
848.652771	179.800000
848.686646	179.900000
848.720520	188.700000
848.754395	181.000000
848.788330	185.100000
848.822144	185.200000
848.856018	180.400000
848.889954	189.000000
848.923767	179.500000
848.957642	179.100000
848.991577	183.600000
849.025391	182.100000
849.059265	181.700000
849.093079	178.900000
849.126953	178.100000
849.160828	186.900000
849.194641	184.000000
849.228577	180.400000
849.262451	180.900000
849.296265	181.000000
849.330139	179.600000
849.364014	182.500000
849.397827	184.900000
849.431702	182.800000
849.465515	187.200000
849.499329	175.100000
849.533203	180.500000
849.567078	176.400000
849.600891	185.000000
849.634766	181.000000
849.668518	185.900000
849.702393	182.400000
849.736267	178.300000
849.770020	189.400000
849.803894	185.200000
849.837769	183.800000
849.871521	184.000000
849.905396	185.400000
849.939270	180.300000
849.973022	180.300000
850.006897	185.900000
850.040710	185.500000
850.074524	185.000000
850.108337	181.400000
850.142151	186.900000
850.175964	186.700000
850.209778	181.700000
850.243530	173.300000
850.277405	185.500000
850.311218	182.000000
850.344971	180.300000
850.378845	187.500000
850.412659	180.500000
850.446411	184.300000
850.480225	182.300000
850.514038	187.400000
850.547791	184.800000
850.581665	182.400000
850.615417	180.800000
850.649231	183.600000
850.683044	181.200000
850.716858	183.300000
850.750610	183.000000
850.784424	186.100000
850.818176	179.900000
850.851929	180.900000
850.885742	179.100000
850.919495	181.700000
850.953308	188.100000
850.987122	188.200000
851.020874	178.400000
851.054626	177.700000
851.088440	184.800000
851.122192	185.000000
851.156006	182.600000
851.189697	182.800000
851.223511	179.100000
851.257263	187.000000
851.291077	185.300000
851.324829	182.500000
851.358582	181.400000
851.392334	183.600000
851.426086	180.600000
851.459900	189.200000
851.493591	182.300000
851.527344	183.700000
851.561157	182.800000
851.594849	184.700000
851.628662	184.300000
851.662415	189.600000
851.696106	183.000000
851.729858	185.500000
851.763611	177.800000
851.797363	182.600000
851.831116	178.700000
851.864868	183.800000
851.898560	186.400000
851.932312	181.000000
851.966064	184.200000
851.999817	182.600000
852.033569	181.700000
852.067261	186.500000
852.101013	180.000000
852.134766	181.500000
852.168457	175.800000
852.202209	187.000000
852.235901	179.800000
852.269592	184.100000
852.303345	188.900000
852.337036	185.000000
852.370789	184.100000
852.404541	184.200000
852.438171	179.600000
852.471924	182.000000
852.505676	177.900000
852.539307	184.700000
852.573059	182.100000
852.606812	181.800000
852.640442	182.500000
852.674194	186.300000
852.707886	190.400000
852.741577	186.900000
852.775269	179.300000
852.809021	182.600000
852.842651	186.100000
852.876404	187.800000
852.910034	183.100000
852.943787	186.100000
852.977478	184.300000
853.011108	181.000000
853.044861	181.600000
853.078552	187.500000
853.112183	184.900000
853.145874	183.700000
853.179626	177.800000
853.213257	183.100000
853.246948	180.400000
853.280640	188.200000
853.314270	183.300000
853.347961	186.600000
853.381653	185.400000
853.415283	186.400000
853.448975	180.500000
853.482605	182.800000
853.516296	181.400000
853.549988	177.800000
853.583618	184.300000
853.617310	183.600000
853.651001	184.200000
853.684631	179.600000
853.718323	180.100000
853.751953	186.700000
853.785583	176.300000
853.819275	185.500000
853.852966	184.300000
853.886536	178.300000
853.920227	179.700000
853.953918	187.600000
853.987488	181.100000
854.021179	186.700000
854.054749	188.100000
854.088440	184.900000
854.122131	179.800000
854.155701	184.300000
854.189331	180.100000
854.223022	185.600000
854.256592	183.900000
854.290283	181.600000
854.323914	185.800000
854.357483	184.100000
854.391174	183.900000
854.424744	188.600000
854.458374	183.700000
854.492065	193.100000
854.525696	181.300000
854.559265	186.500000
854.592896	192.300000
854.626465	182.900000
854.660095	182.900000
854.693787	184.800000
854.727356	179.600000
854.760986	186.700000
854.794617	185.600000
854.828186	180.900000
854.861816	184.800000
854.895447	184.700000
854.929016	181.900000
854.962585	184.300000
854.996155	188.900000
855.029785	183.500000
855.063416	182.500000
855.097046	186.200000
855.130615	177.700000
855.164185	186.100000
855.197754	181.800000
855.231384	184.900000
855.264954	181.700000
855.298523	184.800000
855.332153	184.200000
855.365723	187.000000
855.399292	180.900000
855.432922	181.200000
855.466492	184.100000
855.500061	180.100000
855.533630	181.100000
855.567200	185.500000
855.600769	187.100000
855.634338	187.300000
855.667969	185.100000
855.701477	180.900000
855.735046	180.600000
855.768616	177.600000
855.802185	184.900000
855.835754	194.000000
855.869324	178.400000
855.902893	183.000000
855.936401	187.900000
855.969971	182.400000
856.003540	179.900000
856.037109	185.800000
856.070618	183.000000
856.104187	178.400000
856.137695	181.900000
856.171265	176.200000
856.204834	183.700000
856.238403	187.600000
856.271912	181.800000
856.305481	183.600000
856.338989	178.400000
856.372559	184.600000
856.406128	186.100000
856.439636	184.600000
856.473145	182.400000
856.506653	188.300000
856.540222	182.500000
856.573792	186.500000
856.607300	185.500000
856.640808	179.200000
856.674377	183.800000
856.707825	214.800000
856.741394	185.700000
856.774902	178.300000
856.808472	176.800000
856.841980	185.300000
856.875488	187.500000
856.908936	178.700000
856.942505	181.100000
856.976013	181.400000
857.009521	179.600000
857.043030	183.700000
857.076477	181.900000
857.110046	187.500000
857.143555	183.800000
857.177063	186.300000
857.210571	181.100000
857.244080	178.900000
857.277527	184.200000
857.311035	182.400000
857.344543	186.200000
857.378052	182.700000
857.411499	187.500000
857.445068	189.400000
857.478516	181.800000
857.512024	180.100000
857.545532	180.200000
857.578979	183.800000
857.612427	183.800000
857.645874	180.600000
857.679382	185.000000
857.712891	188.000000
857.746399	182.400000
857.779846	186.400000
857.813354	185.700000
857.846741	182.200000
857.880249	179.900000
857.913757	184.900000
857.947266	183.000000
857.980652	185.900000
858.014160	181.900000
858.047546	181.700000
858.081055	181.700000
858.114563	194.000000
858.147949	177.900000
858.181458	185.600000
858.214844	181.800000
858.248352	178.300000
858.281799	185.600000
858.315308	192.500000
858.348694	185.300000
858.382141	188.200000
858.415588	185.400000
858.449036	185.900000
858.482483	184.200000
858.515930	180.600000
858.549377	183.100000
858.582825	186.600000
858.616211	183.700000
858.649658	185.800000
858.683105	179.000000
858.716553	180.000000
858.750000	179.400000
858.783386	180.500000
858.816833	179.200000
858.850281	183.400000
858.883728	184.700000
858.917114	183.200000
858.950562	190.500000
858.983948	187.700000
859.017395	188.200000
859.050781	181.600000
859.084167	180.800000
859.117615	178.600000
859.151062	186.000000
859.184448	181.300000
859.217834	182.200000
859.251282	181.300000
859.284668	180.800000
859.318054	177.000000
859.351440	183.100000
859.384888	188.900000
859.418274	178.600000
859.451721	177.100000
859.485046	184.800000
859.518494	183.000000
859.551819	180.700000
859.585266	185.500000
859.618652	188.500000
859.652039	177.700000
859.685425	178.700000
859.718811	177.400000
859.752197	176.100000
859.785583	186.900000
859.819031	187.900000
859.852356	183.300000
859.885742	180.800000
859.919067	183.400000
859.952454	180.100000
859.985901	185.600000
860.019287	182.200000
860.052612	0.000000
860.085999	0.000000
860.119324	0.000000
860.152710	0.000000
860.186096	0.000000
860.219421	0.000000
860.252808	0.000000
860.286133	0.000000
860.319519	0.000000
860.352905	0.000000
860.386292	0.000000
860.419617	0.000000
860.452942	0.000000
860.486267	0.000000
860.519653	0.000000
860.553040	0.000000
860.586365	0.000000
860.619690	0.000000
860.653076	0.000000
860.686340	0.000000
860.719727	0.000000
860.753113	0.000000
860.786377	0.000000
860.819763	0.000000
860.853027	0.000000
860.886414	0.000000
860.919739	0.000000
860.953125	0.000000
860.986389	0.000000
861.019714	0.000000
861.053040	0.000000
861.086365	0.000000
861.119690	0.000000
861.153076	0.000000
861.186340	0.000000
861.219666	0.000000
861.252930	0.000000
861.286316	0.000000
861.319641	0.000000
861.352905	0.000000
861.386230	0.000000
861.419495	0.000000
861.452820	0.000000
861.486145	0.000000
861.519470	0.000000
861.552734	0.000000
861.586060	0.000000
861.619324	0.000000
861.652649	0.000000
861.685974	0.000000
861.719238	0.000000
861.752563	0.000000
861.785828	0.000000
861.819092	0.000000
861.852417	0.000000
861.885742	0.000000
861.918945	0.000000
861.952271	0.000000
861.985535	0.000000
862.018799	0.000000
862.052124	0.000000
862.085449	0.000000
862.118652	0.000000
862.151978	0.000000
862.185181	0.000000
862.218506	0.000000
862.251770	0.000000
862.285034	0.000000
862.318298	0.000000
862.351562	0.000000
862.384827	0.000000
862.418091	0.000000
862.451355	0.000000
862.484619	0.000000
862.517883	0.000000
862.551086	0.000000
862.584351	0.000000
862.617676	0.000000
862.650940	0.000000
862.684143	0.000000
862.717407	0.000000
862.750610	0.000000
862.783875	0.000000
862.817139	0.000000
862.850342	0.000000
862.883606	0.000000
862.916870	0.000000
862.950073	0.000000
862.983337	0.000000
863.016602	0.000000
863.049805	0.000000
863.083069	0.000000
863.116211	0.000000
863.149475	0.000000
863.182739	0.000000
863.216003	0.000000
863.249146	0.000000
863.282410	0.000000
863.315613	0.000000
863.348816	0.000000
863.382080	0.000000
863.415222	0.000000
863.448486	0.000000
863.481689	0.000000
863.514893	0.000000
863.548157	0.000000
863.581360	0.000000
863.614502	0.000000
863.647766	0.000000
863.680908	0.000000
863.714172	0.000000
863.747375	0.000000
863.780579	0.000000
863.813721	0.000000
863.846985	0.000000
863.880127	0.000000
863.913330	0.000000
863.946533	0.000000
863.979675	0.000000
864.012939	0.000000
