Model Number: SPM-001-M   
Serial Number: 10090201
Firmware Version: 004.17.6
Exposure Time: 300000.000000us
Data Taken on: 28-01-2021 10:54:13.368
Wavelength	Amplitude
733.770752	0.000000
733.808716	0.000000
733.846619	0.000000
733.884583	0.000000
733.922546	0.000000
733.960449	0.000000
733.998413	0.000000
734.036377	0.000000
734.074219	0.000000
734.112183	0.000000
734.150085	0.000000
734.188049	0.000000
734.226013	0.000000
734.263916	0.000000
734.301819	0.000000
734.339783	0.000000
734.377686	0.000000
734.415588	0.000000
734.453552	0.000000
734.491455	0.000000
734.529419	0.000000
734.567322	0.000000
734.605225	0.000000
734.643127	0.000000
734.681091	0.000000
734.718994	0.000000
734.756897	0.000000
734.794800	0.000000
734.832703	0.000000
734.870667	0.000000
734.908508	0.000000
734.946472	0.000000
734.984375	0.000000
735.022278	0.000000
735.060181	0.000000
735.098083	0.000000
735.135986	0.000000
735.173889	0.000000
735.211792	0.000000
735.249695	0.000000
735.287598	0.000000
735.325439	0.000000
735.363403	0.000000
735.401306	0.000000
735.439148	0.000000
735.477051	0.000000
735.515015	0.000000
735.552856	0.000000
735.590759	0.000000
735.628662	0.000000
735.666504	0.000000
735.704407	0.000000
735.742310	0.000000
735.780212	0.000000
735.818115	0.000000
735.856018	0.000000
735.893860	0.000000
735.931763	0.000000
735.969604	0.000000
736.007507	0.000000
736.045410	0.000000
736.083252	0.000000
736.121094	0.000000
736.158997	0.000000
736.196838	0.000000
736.234741	0.000000
736.272644	0.000000
736.310486	0.000000
736.348389	0.000000
736.386230	0.000000
736.424072	0.000000
736.461975	0.000000
736.499878	0.000000
736.537720	0.000000
736.575562	0.000000
736.613403	0.000000
736.651306	0.000000
736.689148	0.000000
736.726990	0.000000
736.764893	0.000000
736.802734	0.000000
736.840576	0.000000
736.878418	0.000000
736.916321	0.000000
736.954102	0.000000
736.992004	0.000000
737.029846	0.000000
737.067688	0.000000
737.105530	0.000000
737.143372	0.000000
737.181213	0.000000
737.219116	0.000000
737.256897	0.000000
737.294739	0.000000
737.332642	0.000000
737.370422	0.000000
737.408325	0.000000
737.446167	0.000000
737.483948	0.000000
737.521790	0.000000
737.559692	0.000000
737.597473	0.000000
737.635315	0.000000
737.673157	0.000000
737.710999	0.000000
737.748840	0.000000
737.786621	0.000000
737.824463	0.000000
737.862305	0.000000
737.900085	0.000000
737.937927	0.000000
737.975769	0.000000
738.013550	0.000000
738.051392	0.000000
738.089233	0.000000
738.127014	0.000000
738.164856	0.000000
738.202698	0.000000
738.240479	0.000000
738.278320	0.000000
738.316162	0.000000
738.353943	0.000000
738.391785	0.000000
738.429565	0.000000
738.467407	0.000000
738.505188	0.000000
738.542969	0.000000
738.580811	0.000000
738.618652	0.000000
738.656372	0.000000
738.694214	0.000000
738.732056	0.000000
738.769836	0.000000
738.807617	0.000000
738.845459	0.000000
738.883240	0.000000
738.921021	0.000000
738.958862	0.000000
738.996582	0.000000
739.034424	0.000000
739.072205	0.000000
739.109985	0.000000
739.147827	0.000000
739.185547	0.000000
739.223389	0.000000
739.261169	0.000000
739.298889	0.000000
739.336731	0.000000
739.374512	0.000000
739.412292	0.000000
739.450073	0.000000
739.487854	0.000000
739.525635	0.000000
739.563416	0.000000
739.601135	0.000000
739.638977	0.000000
739.676758	0.000000
739.714478	0.000000
739.752258	0.000000
739.790100	0.000000
739.827820	0.000000
739.865601	0.000000
739.903381	0.000000
739.941101	0.000000
739.978882	182.800000
740.016724	180.900000
740.054443	182.900000
740.092224	180.000000
740.130005	179.600000
740.167725	178.500000
740.205505	178.500000
740.243225	185.100000
740.281006	182.200000
740.318787	177.200000
740.356506	185.500000
740.394287	184.500000
740.432068	178.900000
740.469727	176.500000
740.507507	184.300000
740.545288	182.000000
740.583008	183.100000
740.620789	181.300000
740.658569	176.900000
740.696228	180.800000
740.734009	184.600000
740.771790	174.600000
740.809509	184.600000
740.847229	176.300000
740.884949	180.400000
740.922729	177.700000
740.960449	180.600000
740.998169	177.400000
741.035950	179.500000
741.073669	180.100000
741.111389	182.200000
741.149170	186.100000
741.186890	187.600000
741.224609	182.200000
741.262329	181.900000
741.300110	187.900000
741.337769	180.000000
741.375549	176.800000
741.413208	182.300000
741.450989	178.300000
741.488708	178.300000
741.526367	178.500000
741.564148	184.600000
741.601868	183.100000
741.639526	181.800000
741.677307	182.300000
741.715027	183.900000
741.752686	177.700000
741.790466	186.900000
741.828186	182.700000
741.865845	177.500000
741.903564	175.800000
741.941345	180.300000
741.979004	177.400000
742.016724	184.100000
742.054382	180.300000
742.092102	183.400000
742.129822	177.700000
742.167480	180.600000
742.205200	179.800000
742.242920	182.900000
742.280640	186.000000
742.318359	179.200000
742.356079	181.500000
742.393738	183.700000
742.431396	179.400000
742.469116	184.400000
742.506775	174.700000
742.544495	182.600000
742.582214	183.900000
742.619873	181.700000
742.657593	186.600000
742.695251	185.100000
742.732971	180.200000
742.770630	182.200000
742.808289	182.700000
742.846008	180.600000
742.883728	182.300000
742.921326	181.400000
742.959045	180.400000
742.996765	180.100000
743.034424	181.500000
743.072083	177.900000
743.109802	180.800000
743.147400	178.000000
743.185120	182.300000
743.222839	179.900000
743.260437	186.900000
743.298157	181.100000
743.335754	176.200000
743.373474	180.500000
743.411133	176.600000
743.448792	180.400000
743.486450	181.100000
743.524170	176.200000
743.561768	181.000000
743.599487	185.600000
743.637146	189.300000
743.674744	178.600000
743.712463	180.500000
743.750122	180.700000
743.787720	182.500000
743.825439	179.000000
743.863037	180.800000
743.900696	181.000000
743.938416	205.900000
743.976013	181.800000
744.013672	187.600000
744.051331	184.500000
744.088928	187.000000
744.126587	185.100000
744.164307	182.800000
744.201904	179.300000
744.239563	183.000000
744.277222	184.800000
744.314819	181.400000
744.352478	186.700000
744.390137	182.500000
744.427734	182.400000
744.465393	179.400000
744.502991	179.300000
744.540649	181.700000
744.578308	181.400000
744.615906	178.600000
744.653564	174.400000
744.691223	183.700000
744.728821	176.900000
744.766418	180.800000
744.804077	183.400000
744.841675	178.600000
744.879333	178.400000
744.916992	180.400000
744.954529	180.300000
744.992187	184.300000
745.029785	181.200000
745.067444	178.800000
745.105042	181.300000
745.142639	182.100000
745.180298	188.300000
745.217896	179.200000
745.255493	179.700000
745.293152	184.400000
745.330750	185.500000
745.368347	186.900000
745.405945	184.400000
745.443604	181.200000
745.481140	184.600000
745.518799	181.500000
745.556396	183.500000
745.593994	183.100000
745.631592	180.600000
745.669189	177.000000
745.706787	182.800000
745.744385	178.400000
745.781982	184.700000
745.819580	178.700000
745.857178	180.000000
745.894775	181.100000
745.932373	183.000000
745.969971	184.200000
746.007568	176.800000
746.045166	187.000000
746.082764	186.600000
746.120300	183.600000
746.157898	183.900000
746.195557	182.200000
746.233093	177.100000
746.270691	182.100000
746.308228	183.600000
746.345825	184.600000
746.383423	182.200000
746.420959	178.800000
746.458557	179.900000
746.496155	179.300000
746.533691	181.700000
746.571289	178.200000
746.608887	180.600000
746.646423	182.800000
746.684021	180.500000
746.721619	179.200000
746.759155	181.900000
746.796753	177.600000
746.834351	177.000000
746.871826	179.100000
746.909424	185.400000
746.946960	181.000000
746.984558	180.000000
747.022156	180.400000
747.059631	186.300000
747.097229	184.800000
747.134827	180.400000
747.172363	185.600000
747.209900	184.600000
747.247498	178.700000
747.285034	184.800000
747.322571	186.800000
747.360168	179.200000
747.397644	176.400000
747.435242	184.700000
747.472778	185.900000
747.510315	179.700000
747.547913	181.400000
747.585388	185.500000
747.622925	180.100000
747.660522	177.700000
747.697998	179.000000
747.735596	180.200000
747.773132	179.000000
747.810669	182.200000
747.848206	184.100000
747.885742	180.000000
747.923279	176.800000
747.960815	182.700000
747.998352	181.000000
748.035889	184.500000
748.073425	183.700000
748.110901	179.400000
748.148437	176.900000
748.185974	180.600000
748.223511	186.900000
748.261047	182.500000
748.298584	180.900000
748.336060	180.200000
748.373596	182.700000
748.411133	207.400000
748.448608	179.900000
748.486145	182.700000
748.523682	184.900000
748.561218	187.200000
748.598755	180.400000
748.636292	183.500000
748.673706	179.100000
748.711243	187.600000
748.748718	182.400000
748.786255	183.200000
748.823792	180.600000
748.861267	178.200000
748.898804	184.300000
748.936340	183.400000
748.973816	178.800000
749.011292	187.200000
749.048828	183.300000
749.086304	183.800000
749.123840	188.800000
749.161316	178.800000
749.198792	187.800000
749.236328	187.000000
749.273743	180.900000
749.311279	181.600000
749.348816	184.900000
749.386230	182.100000
749.423767	174.400000
749.461304	184.000000
749.498718	180.700000
749.536255	186.000000
749.573730	189.400000
749.611206	185.200000
749.648682	180.900000
749.686218	181.100000
749.723633	182.900000
749.761169	179.900000
749.798645	178.700000
749.836060	180.400000
749.873596	177.600000
749.911011	182.300000
749.948547	184.500000
749.986023	180.900000
750.023437	181.300000
750.060913	176.300000
750.098450	177.600000
750.135864	179.800000
750.173340	181.500000
750.210815	185.100000
750.248291	177.700000
750.285767	181.400000
750.323242	185.400000
750.360657	183.900000
750.398132	179.200000
750.435608	182.900000
750.473022	179.600000
750.510498	178.800000
750.547974	178.000000
750.585449	180.800000
750.622925	173.100000
750.660339	190.500000
750.697815	183.100000
750.735291	181.200000
750.772644	182.200000
750.810120	183.600000
750.847595	182.800000
750.885010	177.700000
750.922485	187.900000
750.959961	180.400000
750.997375	187.000000
751.034851	185.000000
751.072266	184.300000
751.109680	177.900000
751.147156	185.800000
751.184570	183.300000
751.221985	181.400000
751.259460	177.100000
751.296875	182.000000
751.334290	181.300000
751.371765	185.200000
751.409180	184.600000
751.446594	185.400000
751.484070	183.700000
751.521423	183.500000
751.558899	183.800000
751.596375	189.200000
751.633728	186.900000
751.671204	187.700000
751.708618	180.100000
751.746033	182.000000
751.783447	178.900000
751.820801	178.400000
751.858276	183.800000
751.895691	179.500000
751.933105	179.000000
751.970520	177.900000
752.007935	181.700000
752.045349	185.200000
752.082764	181.800000
752.120178	178.500000
752.157532	181.400000
752.195007	179.500000
752.232422	183.400000
752.269775	183.200000
752.307190	183.900000
752.344543	177.700000
752.382019	180.700000
752.419434	179.800000
752.456787	183.800000
752.494202	185.400000
752.531616	181.200000
752.568970	184.200000
752.606384	182.400000
752.643799	183.000000
752.681152	188.000000
752.718567	184.100000
752.755981	176.900000
752.793335	184.100000
752.830750	177.200000
752.868164	184.200000
752.905518	177.900000
752.942932	185.300000
752.980225	179.000000
753.017639	184.900000
753.055054	184.900000
753.092407	184.400000
753.129822	185.000000
753.167175	187.700000
753.204529	180.000000
753.241943	180.000000
753.279358	178.200000
753.316650	183.800000
753.354065	183.000000
753.391479	186.300000
753.428772	186.900000
753.466187	183.000000
753.503479	178.300000
753.540894	181.300000
753.578308	177.000000
753.615601	178.600000
753.653015	182.100000
753.690369	180.400000
753.727722	178.500000
753.765076	176.900000
753.802490	177.300000
753.839783	177.800000
753.877136	179.200000
753.914551	190.300000
753.951843	179.400000
753.989258	184.300000
754.026611	182.600000
754.063904	184.700000
754.101257	178.000000
754.138611	176.400000
754.175964	181.800000
754.213318	189.200000
754.250610	177.200000
754.288025	180.100000
754.325378	177.600000
754.362671	184.000000
754.400024	182.300000
754.437378	189.400000
754.474670	187.000000
754.512085	180.700000
754.549438	181.600000
754.586731	179.400000
754.624084	181.300000
754.661438	178.800000
754.698730	188.900000
754.736084	182.500000
754.773376	181.700000
754.810730	183.900000
754.848083	182.900000
754.885315	185.100000
754.922668	177.600000
754.960022	178.700000
754.997314	185.200000
755.034668	182.600000
755.072021	182.700000
755.109253	181.300000
755.146606	187.500000
755.183960	181.100000
755.221252	189.500000
755.258545	184.100000
755.295898	187.500000
755.333191	186.000000
755.370544	184.300000
755.407776	181.100000
755.445129	183.100000
755.482422	184.100000
755.519714	181.800000
755.557068	178.200000
755.594360	178.300000
755.631653	184.200000
755.668945	188.300000
755.706299	182.700000
755.743530	191.900000
755.780884	187.600000
755.818176	187.000000
755.855408	186.800000
755.892761	184.900000
755.930054	181.400000
755.967346	186.600000
756.004639	185.700000
756.041870	184.100000
756.079224	187.100000
756.116516	182.100000
756.153748	185.400000
756.191040	191.300000
756.228394	185.700000
756.265625	182.400000
756.302917	184.100000
756.340210	182.100000
756.377441	187.200000
756.414795	189.200000
756.452087	183.000000
756.489319	181.300000
756.526611	187.800000
756.563843	185.700000
756.601135	191.000000
756.638428	189.900000
756.675659	184.200000
756.712952	188.500000
756.750244	186.900000
756.787476	185.300000
756.824768	189.200000
756.862061	183.800000
756.899292	229.900000
756.936584	187.800000
756.973816	193.300000
757.011047	193.300000
757.048340	186.000000
757.085632	185.200000
757.122864	199.200000
757.160156	183.500000
757.197327	187.800000
757.234619	189.000000
757.271912	184.700000
757.309082	189.600000
757.346375	183.500000
757.383667	189.900000
757.420837	187.900000
757.458130	186.900000
757.495422	185.300000
757.532593	189.300000
757.569885	182.000000
757.607117	185.000000
757.644348	190.100000
757.681580	197.200000
757.718811	178.300000
757.756042	186.500000
757.793335	186.200000
757.830505	188.800000
757.867798	186.300000
757.905029	184.900000
757.942200	188.600000
757.979492	185.600000
758.016724	186.400000
758.053894	186.200000
758.091187	200.400000
758.128418	189.500000
758.165588	187.700000
758.202820	197.300000
758.240112	189.100000
758.277283	195.700000
758.314514	189.300000
758.351685	186.000000
758.388916	193.100000
758.426147	193.400000
758.463379	194.500000
758.500610	191.100000
758.537842	190.100000
758.575012	194.300000
758.612244	186.100000
758.649475	199.700000
758.686646	186.600000
758.723877	194.500000
758.761108	196.800000
758.798279	191.100000
758.835510	189.500000
758.872742	195.400000
758.909851	192.500000
758.947083	192.000000
758.984253	193.000000
759.021484	194.000000
759.058716	192.800000
759.095886	194.100000
759.133057	191.300000
759.170288	193.400000
759.207458	190.700000
759.244690	200.000000
759.281860	197.100000
759.319031	194.600000
759.356262	192.000000
759.393433	191.100000
759.430603	192.400000
759.467773	193.200000
759.505005	196.500000
759.542175	197.400000
759.579346	192.200000
759.616516	193.300000
759.653687	196.600000
759.690918	191.300000
759.728027	194.200000
759.765259	195.700000
759.802429	196.900000
759.839539	196.400000
759.876770	198.500000
759.913940	203.200000
759.951111	196.700000
759.988281	195.200000
760.025452	193.600000
760.062561	192.800000
760.099792	202.200000
760.136963	197.500000
760.174072	195.800000
760.211243	192.200000
760.248413	193.400000
760.285583	192.000000
760.322754	204.700000
760.359863	200.800000
760.397034	202.700000
760.434204	196.200000
760.471375	196.000000
760.508545	194.900000
760.545715	199.000000
760.582825	193.200000
760.619995	200.300000
760.657166	193.600000
760.694275	200.800000
760.731445	198.700000
760.768555	200.500000
760.805664	200.700000
760.842834	200.000000
760.879944	199.900000
760.917114	199.800000
760.954285	196.800000
760.991394	194.900000
761.028564	201.600000
761.065674	201.900000
761.102783	197.900000
761.139954	203.800000
761.177124	202.100000
761.214172	204.300000
761.251343	199.200000
761.288452	201.300000
761.325562	203.000000
761.362732	198.200000
761.399841	200.000000
761.436951	202.400000
761.474121	198.100000
761.511169	201.500000
761.548340	204.200000
761.585449	204.400000
761.622559	204.200000
761.659668	202.900000
761.696838	207.000000
761.733887	204.000000
761.771057	202.000000
761.808167	201.400000
761.845276	206.600000
761.882385	211.100000
761.919434	203.900000
761.956604	215.200000
761.993713	202.100000
762.030762	207.500000
762.067871	203.800000
762.105042	204.300000
762.142090	210.300000
762.179199	205.100000
762.216309	208.500000
762.253418	214.600000
762.290527	211.000000
762.327637	208.100000
762.364685	202.700000
762.401794	208.300000
762.438904	208.800000
762.475952	204.500000
762.513062	203.900000
762.550110	204.700000
762.587219	214.500000
762.624329	212.800000
762.661377	208.500000
762.698486	208.700000
762.735596	209.000000
762.772644	204.300000
762.809753	202.500000
762.846863	206.100000
762.883911	213.100000
762.921021	210.100000
762.958069	208.400000
762.995117	214.600000
763.032227	215.700000
763.069336	208.500000
763.106323	208.500000
763.143433	203.800000
763.180481	211.900000
763.217590	211.900000
763.254639	210.300000
763.291687	209.400000
763.328735	218.400000
763.365845	210.800000
763.402893	211.700000
763.439941	213.500000
763.477051	215.200000
763.514038	215.700000
763.551147	209.900000
763.588196	212.600000
763.625244	212.300000
763.662292	220.400000
763.699402	220.800000
763.736389	217.300000
763.773499	223.900000
763.810486	218.800000
763.847534	215.700000
763.884644	218.800000
763.921631	215.400000
763.958679	224.100000
763.995728	216.000000
764.032776	222.000000
764.069824	215.700000
764.106873	222.200000
764.143860	224.000000
764.180969	221.100000
764.218018	224.100000
764.255005	219.400000
764.292053	220.700000
764.329102	228.500000
764.366089	226.200000
764.403137	225.900000
764.440125	221.500000
764.477173	221.800000
764.514221	224.300000
764.551208	223.600000
764.588257	220.200000
764.625305	226.700000
764.662292	231.500000
764.699341	233.100000
764.736389	228.500000
764.773376	240.700000
764.810425	229.900000
764.847473	235.200000
764.884399	231.400000
764.921448	235.000000
764.958435	236.000000
764.995483	230.100000
765.032532	241.500000
765.069458	231.100000
765.106506	233.500000
765.143555	231.700000
765.180481	234.300000
765.217529	240.200000
765.254578	231.200000
765.291504	236.600000
765.328552	235.400000
765.365540	232.300000
765.402527	242.600000
765.439575	233.400000
765.476501	230.700000
765.513550	231.400000
765.550537	236.200000
765.587463	240.300000
765.624512	234.700000
765.661499	231.200000
765.698486	241.400000
765.735474	235.100000
765.772461	237.700000
765.809448	242.000000
765.846436	241.600000
765.883423	243.000000
765.920410	241.500000
765.957397	236.000000
765.994385	243.100000
766.031311	247.000000
766.068359	244.200000
766.105286	244.000000
766.142273	249.200000
766.179260	243.500000
766.216187	241.300000
766.253174	238.800000
766.290161	246.300000
766.327148	246.800000
766.364136	246.600000
766.401123	257.200000
766.438049	245.200000
766.475037	252.000000
766.512024	250.100000
766.548950	261.500000
766.585937	257.600000
766.622864	251.800000
766.659790	253.300000
766.696777	248.000000
766.733704	255.600000
766.770691	250.200000
766.807678	259.600000
766.844604	255.300000
766.881531	256.000000
766.918518	259.200000
766.955444	259.900000
766.992432	256.200000
767.029358	256.200000
767.066284	260.500000
767.103271	258.400000
767.140198	289.500000
767.177124	268.700000
767.214050	262.400000
767.251038	261.700000
767.287964	260.300000
767.324890	258.500000
767.361816	263.200000
767.398743	265.200000
767.435730	262.100000
767.472595	263.100000
767.509583	266.800000
767.546509	258.500000
767.583374	263.100000
767.620361	258.400000
767.657288	263.100000
767.694214	262.200000
767.731140	263.200000
767.768066	263.200000
767.804993	265.400000
767.841919	260.200000
767.878845	265.400000
767.915710	269.900000
767.952698	265.000000
767.989563	267.100000
768.026489	268.900000
768.063416	263.400000
768.100281	265.100000
768.137207	271.900000
768.174133	271.900000
768.211060	273.400000
768.247986	270.700000
768.284912	268.400000
768.321777	270.200000
768.358704	269.100000
768.395630	269.800000
768.432495	268.400000
768.469421	271.500000
768.506348	276.000000
768.543152	279.400000
768.580078	276.500000
768.616943	278.800000
768.653870	279.000000
768.690796	277.900000
768.727661	277.800000
768.764587	278.400000
768.801453	274.500000
768.838318	280.700000
768.875244	281.500000
768.912109	285.200000
768.948975	280.000000
768.985901	280.900000
769.022766	281.200000
769.059631	283.200000
769.096558	282.600000
769.133362	282.100000
769.170288	283.800000
769.207214	285.400000
769.244019	289.500000
769.280945	287.600000
769.317810	295.700000
769.354675	289.300000
769.391541	294.500000
769.428406	291.900000
769.465271	298.800000
769.502136	292.300000
769.539062	296.900000
769.575867	297.100000
769.612732	296.300000
769.649597	300.300000
769.686462	302.700000
769.723328	299.700000
769.760193	299.300000
769.797058	299.300000
769.833923	307.200000
769.870728	302.800000
769.907593	305.900000
769.944519	306.100000
769.981323	309.300000
770.018188	307.400000
770.055054	305.100000
770.091858	309.800000
770.128723	314.200000
770.165588	318.200000
770.202393	308.700000
770.239258	318.300000
770.276062	315.100000
770.312927	316.500000
770.349792	322.600000
770.386597	319.800000
770.423462	327.700000
770.460327	331.900000
770.497131	321.300000
770.533997	317.400000
770.570862	328.200000
770.607605	329.100000
770.644470	327.200000
770.681335	326.900000
770.718140	328.800000
770.754944	325.000000
770.791809	324.400000
770.828613	328.200000
770.865479	327.600000
770.902222	336.500000
770.939087	330.500000
770.975952	322.300000
771.012695	328.300000
771.049561	340.900000
771.086365	332.500000
771.123169	331.100000
771.159973	331.600000
771.196838	334.400000
771.233582	336.900000
771.270447	336.700000
771.307251	341.900000
771.344055	338.600000
771.380859	339.500000
771.417664	336.800000
771.454468	341.800000
771.491272	341.400000
771.528076	344.400000
771.564880	343.100000
771.601685	347.100000
771.638428	342.600000
771.675293	346.400000
771.712097	340.500000
771.748840	352.900000
771.785645	348.000000
771.822449	351.000000
771.859253	351.700000
771.896057	348.100000
771.932861	360.800000
771.969604	353.800000
772.006409	346.400000
772.043213	359.100000
772.079956	357.300000
772.116760	351.200000
772.153503	355.200000
772.190308	362.400000
772.227112	355.000000
772.263855	353.300000
772.300659	358.500000
772.337463	364.700000
772.374207	356.500000
772.411011	356.900000
772.447754	357.700000
772.484497	371.200000
772.521301	364.300000
772.558105	361.700000
772.594849	364.400000
772.631592	368.200000
772.668396	366.500000
772.705139	373.500000
772.741882	370.000000
772.778625	377.000000
772.815430	376.800000
772.852173	375.800000
772.888916	380.300000
772.925720	382.500000
772.962463	386.000000
772.999207	379.400000
773.035950	380.400000
773.072754	379.900000
773.109436	376.100000
773.146240	379.300000
773.182922	378.800000
773.219727	385.900000
773.256470	382.300000
773.293152	375.900000
773.329956	380.900000
773.366699	387.200000
773.403381	379.500000
773.440186	384.800000
773.476929	386.600000
773.513611	382.400000
773.550354	383.500000
773.587158	383.500000
773.623840	384.800000
773.660583	389.600000
773.697327	394.600000
773.734009	389.200000
773.770813	385.600000
773.807495	386.400000
773.844238	390.400000
773.880981	401.200000
773.917664	394.600000
773.954407	396.400000
773.991150	392.600000
774.027832	394.900000
774.064575	395.300000
774.101318	398.700000
774.138000	402.200000
774.174744	398.400000
774.211487	398.900000
774.248108	390.400000
774.284851	395.800000
774.321594	402.300000
774.358276	403.100000
774.395020	408.300000
774.431702	402.900000
774.468384	399.100000
774.505127	402.100000
774.541809	406.000000
774.578491	411.500000
774.615234	414.600000
774.651917	404.900000
774.688599	410.700000
774.725342	414.600000
774.762024	416.600000
774.798706	421.900000
774.835449	419.600000
774.872070	423.200000
774.908813	420.000000
774.945496	420.600000
774.982178	424.900000
775.018860	425.700000
775.055542	428.300000
775.092224	427.400000
775.128967	432.000000
775.165588	432.000000
775.202271	428.500000
775.239014	434.900000
775.275635	438.600000
775.312317	435.500000
775.349060	436.400000
775.385681	437.700000
775.422363	434.300000
775.459045	441.800000
775.495667	445.200000
775.532410	446.200000
775.569092	444.700000
775.605713	445.200000
775.642395	443.400000
775.679016	446.400000
775.715698	448.200000
775.752380	450.500000
775.789001	447.300000
775.825684	449.100000
775.862366	450.900000
775.898987	459.000000
775.935669	456.600000
775.972351	469.500000
776.008972	467.400000
776.045654	467.100000
776.082336	462.000000
776.118958	467.900000
776.155640	469.400000
776.192322	475.600000
776.228882	477.300000
776.265564	477.400000
776.302185	474.700000
776.338867	479.500000
776.375488	474.500000
776.412109	483.400000
776.448792	488.100000
776.485413	492.400000
776.522034	484.000000
776.558716	479.400000
776.595337	485.000000
776.631958	490.600000
776.668579	490.100000
776.705261	494.600000
776.741882	491.100000
776.778503	491.600000
776.815186	493.600000
776.851746	495.400000
776.888367	501.200000
776.924988	508.400000
776.961609	501.200000
776.998291	503.200000
777.034851	500.600000
777.071472	507.800000
777.108154	507.800000
777.144714	516.200000
777.181335	515.300000
777.218018	508.300000
777.254578	514.800000
777.291199	512.900000
777.327759	517.200000
777.364380	522.600000
777.401062	527.200000
777.437622	532.700000
777.474243	521.300000
777.510864	528.500000
777.547424	523.800000
777.584045	526.300000
777.620667	526.900000
777.657227	532.800000
777.693848	535.400000
777.730469	540.200000
777.767029	535.500000
777.803650	536.200000
777.840271	537.100000
777.876831	536.300000
777.913452	540.000000
777.950012	529.600000
777.986633	528.200000
778.023193	530.900000
778.059753	533.000000
778.096375	538.300000
778.132996	543.900000
778.169556	537.800000
778.206116	534.000000
778.242737	539.400000
778.279297	540.300000
778.315857	534.500000
778.352478	542.400000
778.389038	547.800000
778.425598	547.400000
778.462219	555.900000
778.498718	549.600000
778.535339	555.000000
778.571838	555.300000
778.608459	557.200000
778.645020	550.400000
778.681580	555.900000
778.718140	555.500000
778.754761	554.900000
778.791260	555.000000
778.827881	565.000000
778.864441	563.200000
778.900940	566.500000
778.937561	567.600000
778.974121	567.500000
779.010620	560.100000
779.047241	565.300000
779.083801	565.900000
779.120300	570.100000
779.156860	571.800000
779.193359	568.200000
779.229980	571.800000
779.266541	575.600000
779.303040	578.000000
779.339600	567.700000
779.376160	562.400000
779.412659	565.100000
779.449219	562.600000
779.485779	566.500000
779.522278	571.100000
779.558838	576.900000
779.595398	573.600000
779.631897	571.800000
779.668457	566.800000
779.705017	575.600000
779.741516	567.700000
779.778076	566.100000
779.814575	571.500000
779.851074	572.800000
779.887634	570.700000
779.924133	576.100000
779.960693	570.600000
779.997253	582.300000
780.033691	587.600000
780.070251	587.400000
780.106812	591.500000
780.143250	586.800000
780.179810	589.300000
780.216370	593.600000
780.252808	595.200000
780.289368	602.700000
780.325867	600.400000
780.362366	594.900000
780.398865	599.300000
780.435364	601.800000
780.471863	610.700000
780.508423	604.400000
780.544861	606.400000
780.581421	604.600000
780.617920	594.200000
780.654419	596.400000
780.690918	605.800000
780.727417	610.200000
780.763916	610.600000
780.800415	614.800000
780.836914	606.400000
780.873352	613.500000
780.909912	606.800000
780.946411	616.400000
780.982849	620.100000
781.019348	631.200000
781.055786	626.100000
781.092346	627.000000
781.128845	634.100000
781.165283	640.200000
781.201782	649.200000
781.238281	649.300000
781.274719	645.400000
781.311218	642.900000
781.347717	649.600000
781.384155	645.100000
781.420654	646.100000
781.457092	652.300000
781.493591	646.100000
781.530090	644.400000
781.566528	642.500000
781.602966	644.600000
781.639465	650.700000
781.675903	651.300000
781.712402	652.700000
781.748901	657.600000
781.785278	649.100000
781.821777	654.500000
781.858276	656.400000
781.894714	670.900000
781.931152	663.700000
781.967651	668.600000
782.004089	665.900000
782.040527	671.100000
782.076965	677.200000
782.113403	678.900000
782.149902	676.600000
782.186340	679.400000
782.222778	684.600000
782.259277	672.100000
782.295654	677.300000
782.332092	686.600000
782.368591	683.500000
782.404968	683.800000
782.441467	688.600000
782.477905	687.600000
782.514282	679.800000
782.550781	694.300000
782.587219	694.300000
782.623596	695.200000
782.660095	693.200000
782.696472	691.700000
782.732910	689.500000
782.769348	688.000000
782.805786	696.500000
782.842224	692.200000
782.878662	680.300000
782.915039	680.600000
782.951477	676.200000
782.987915	665.600000
783.024292	664.600000
783.060730	667.900000
783.097168	657.300000
783.133545	646.400000
783.169983	638.500000
783.206421	629.000000
783.242798	625.900000
783.279236	619.400000
783.315613	614.200000
783.352051	608.500000
783.388489	601.100000
783.424866	586.900000
783.461304	595.100000
783.497681	599.000000
783.534058	589.500000
783.570496	584.200000
783.606934	582.700000
783.643250	579.500000
783.679687	587.200000
783.716125	584.500000
783.752441	589.100000
783.788879	599.000000
783.825317	607.000000
783.861633	606.900000
783.898071	610.200000
783.934448	616.200000
783.970825	618.700000
784.007263	619.300000
784.043579	625.300000
784.080017	628.900000
784.116394	625.700000
784.152710	626.400000
784.189148	624.500000
784.225525	623.600000
784.261902	619.400000
784.298279	627.400000
784.334656	628.000000
784.371033	628.900000
784.407410	633.200000
784.443787	627.700000
784.480164	625.300000
784.516541	619.500000
784.552856	636.400000
784.589233	643.100000
784.625610	641.300000
784.661987	668.400000
784.698364	669.300000
784.734741	665.200000
784.771057	678.100000
784.807434	687.200000
784.843811	700.400000
784.880127	702.100000
784.916504	722.800000
784.952881	729.400000
784.989197	728.900000
785.025574	735.600000
785.061951	742.700000
785.098267	758.700000
785.134644	753.700000
785.170959	751.600000
785.207275	753.800000
785.243652	759.200000
785.279968	745.500000
785.316345	752.700000
785.352722	751.200000
785.388977	746.900000
785.425354	732.800000
785.461731	721.100000
785.498047	723.800000
785.534363	723.800000
785.570679	725.600000
785.606995	730.900000
785.643372	728.900000
785.679687	727.100000
785.716003	725.700000
785.752380	726.300000
785.788635	740.500000
785.825012	751.300000
785.861328	757.900000
785.897644	751.000000
785.933960	763.200000
785.970337	767.500000
786.006592	786.400000
786.042908	793.400000
786.079285	800.000000
786.115540	804.000000
786.151855	802.800000
786.188171	797.600000
786.224487	797.300000
786.260803	798.000000
786.297119	809.400000
786.333435	799.300000
786.369751	788.100000
786.406006	783.700000
786.442322	771.300000
786.478638	764.100000
786.514954	769.700000
786.551270	768.100000
786.587585	768.900000
786.623840	756.700000
786.660156	754.000000
786.696472	749.600000
786.732727	751.600000
786.769043	757.500000
786.805298	754.800000
786.841614	753.400000
786.877930	760.600000
786.914124	756.400000
786.950439	774.700000
786.986755	782.400000
787.023010	796.200000
787.059326	801.000000
787.095642	805.200000
787.131836	817.200000
787.168152	817.300000
787.204468	823.500000
787.240723	845.200000
787.276978	843.300000
787.313293	849.400000
787.349548	843.300000
787.385803	835.800000
787.422058	834.200000
787.458313	831.800000
787.494629	827.700000
787.530823	824.700000
787.567139	808.400000
787.603455	800.000000
787.639648	794.100000
787.675903	797.000000
787.712219	793.800000
787.748413	796.300000
787.784729	802.400000
787.820984	794.400000
787.857178	789.400000
787.893494	786.800000
787.929749	787.600000
787.965942	803.600000
788.002258	814.100000
788.038452	821.200000
788.074707	816.600000
788.110962	823.300000
788.147217	827.400000
788.183472	841.000000
788.219727	849.400000
788.255920	858.600000
788.292175	865.700000
788.328430	861.600000
788.364624	851.300000
788.400879	850.600000
788.437134	861.900000
788.473328	857.600000
788.509583	854.900000
788.545837	848.000000
788.582031	849.300000
788.618286	854.400000
788.654480	851.200000
788.690735	855.400000
788.726990	875.600000
788.763184	866.000000
788.799377	874.300000
788.835632	870.800000
788.871826	884.100000
788.908081	875.100000
788.944336	872.100000
788.980469	888.400000
789.016724	881.600000
789.052979	880.500000
789.089111	867.400000
789.125366	873.900000
789.161621	871.000000
789.197754	881.800000
789.234009	875.700000
789.270142	868.800000
789.306396	859.600000
789.342590	850.800000
789.378784	835.800000
789.414978	835.400000
789.451233	846.500000
789.487366	854.300000
789.523621	856.100000
789.559814	853.000000
789.595947	850.900000
789.632202	861.100000
789.668335	865.200000
789.704529	884.800000
789.740784	899.200000
789.776917	898.400000
789.813110	888.100000
789.849304	902.000000
789.885498	905.100000
789.921692	913.100000
789.957886	919.100000
789.994019	925.300000
790.030212	922.200000
790.066406	926.400000
790.102539	924.000000
790.138733	939.700000
790.174927	941.200000
790.211060	954.000000
790.247253	940.300000
790.283386	930.800000
790.319580	916.700000
790.355774	909.500000
790.391907	914.100000
790.428101	923.700000
790.464294	920.200000
790.500427	917.100000
790.536621	899.400000
790.572754	887.500000
790.608887	887.400000
790.645081	896.900000
790.681274	913.000000
790.717346	903.200000
790.753540	889.800000
790.789734	880.600000
790.825867	869.700000
790.862000	872.300000
790.898132	883.200000
790.934265	879.300000
790.970459	882.000000
791.006592	879.800000
791.042725	877.800000
791.078918	871.500000
791.114990	875.100000
791.151184	881.100000
791.187317	893.500000
791.223389	890.700000
791.259583	880.100000
791.295715	879.000000
791.331848	891.600000
791.367981	895.600000
791.404114	900.600000
791.440247	894.600000
791.476379	889.000000
791.512451	872.600000
791.548584	873.100000
791.584778	871.300000
791.620850	883.900000
791.656982	893.300000
791.693115	881.800000
791.729187	879.100000
791.765381	875.200000
791.801514	872.600000
791.837585	874.600000
791.873718	890.300000
791.909851	899.500000
791.945923	901.100000
791.982056	877.600000
792.018188	871.500000
792.054260	870.400000
792.090393	880.600000
792.126465	875.700000
792.162598	883.100000
792.198669	872.300000
792.234741	864.700000
792.270874	854.200000
792.307007	843.900000
792.343079	854.000000
792.379150	862.700000
792.415283	853.200000
792.451355	847.200000
792.487488	831.500000
792.523560	827.500000
792.559631	802.700000
792.595764	755.000000
792.631836	724.300000
792.667908	719.700000
792.703979	723.100000
792.740051	754.000000
792.776184	782.500000
792.812256	787.600000
792.848328	795.000000
792.884399	804.000000
792.920471	804.500000
792.956543	803.500000
792.992615	799.000000
793.028748	797.400000
793.064758	809.600000
793.100830	829.800000
793.136963	837.000000
793.172974	833.300000
793.209045	824.600000
793.245178	833.100000
793.281189	825.700000
793.317261	830.800000
793.353271	833.200000
793.389404	839.900000
793.425476	832.400000
793.461487	814.000000
793.497559	810.000000
793.533630	816.300000
793.569641	818.700000
793.605713	825.200000
793.641785	824.300000
793.677795	833.400000
793.713867	828.800000
793.749878	831.500000
793.785950	841.000000
793.822021	851.900000
793.858032	839.500000
793.894104	847.100000
793.930176	842.200000
793.966187	843.700000
794.002258	839.900000
794.038269	851.200000
794.074280	845.100000
794.110352	865.700000
794.146423	847.200000
794.182373	842.400000
794.218445	838.600000
794.254517	831.500000
794.290466	826.100000
794.326538	830.300000
794.362549	826.500000
794.398560	831.700000
794.434631	828.200000
794.470581	812.800000
794.506653	802.100000
794.542664	812.100000
794.578674	816.300000
794.614685	819.800000
794.650757	816.800000
794.686707	816.900000
794.722778	811.500000
794.758789	820.700000
794.794739	839.100000
794.830811	857.500000
794.866821	873.000000
794.902771	866.000000
794.938843	855.700000
794.974792	860.700000
795.010803	857.300000
795.046814	855.700000
795.082825	845.000000
795.118835	855.000000
795.154846	839.900000
795.190796	839.900000
795.226807	831.800000
795.262817	841.500000
795.298767	836.600000
795.334778	843.700000
795.370850	836.800000
795.406799	836.900000
795.442810	819.800000
795.478821	815.700000
795.514709	822.600000
795.550720	849.100000
795.586670	831.200000
795.622681	833.700000
795.658691	835.600000
795.694641	831.700000
795.730652	826.700000
795.766663	837.500000
795.802551	846.800000
795.838562	857.400000
795.874573	844.200000
795.910522	840.300000
795.946472	830.400000
795.982483	832.000000
796.018433	833.000000
796.054382	842.200000
796.090393	833.700000
796.126282	828.600000
796.162292	814.500000
796.198242	814.700000
796.234192	811.900000
796.270203	811.600000
796.306091	824.700000
796.342041	833.800000
796.378052	818.800000
796.413940	817.100000
796.449951	820.100000
796.485901	824.900000
796.521790	832.600000
796.557800	841.300000
796.593689	839.700000
796.629639	837.400000
796.665649	828.000000
796.701599	824.300000
796.737488	828.100000
796.773437	833.800000
796.809387	834.000000
796.845337	836.300000
796.881287	824.400000
796.917175	810.400000
796.953125	816.900000
796.989075	820.700000
797.024963	822.400000
797.060913	821.100000
797.096863	814.400000
797.132751	806.600000
797.168701	801.300000
797.204590	809.600000
797.240540	807.400000
797.276489	814.900000
797.312439	817.500000
797.348328	806.200000
797.384277	801.400000
797.420166	796.100000
797.456055	799.100000
797.492004	803.900000
797.527893	812.700000
797.563843	813.900000
797.599731	802.800000
797.635620	790.800000
797.671570	794.700000
797.707520	802.000000
797.743347	803.600000
797.779297	809.600000
797.815125	803.400000
797.851074	796.900000
797.887024	782.800000
797.922913	775.000000
797.958801	786.100000
797.994690	783.200000
798.030579	787.800000
798.066467	790.600000
798.102356	784.500000
798.138245	775.700000
798.174133	775.100000
798.210083	782.500000
798.245911	792.900000
798.281799	790.800000
798.317749	784.600000
798.353577	779.400000
798.389465	774.500000
798.425293	772.900000
798.461243	776.500000
798.497131	780.200000
798.532959	780.100000
798.568848	785.800000
798.604736	771.000000
798.640564	761.800000
798.676453	763.900000
798.712402	770.400000
798.748230	771.800000
798.784119	769.800000
798.820007	766.600000
798.855835	760.900000
798.891724	755.200000
798.927551	755.400000
798.963379	755.100000
798.999268	757.500000
799.035095	753.700000
799.070984	741.500000
799.106873	741.600000
799.142700	748.600000
799.178528	735.900000
799.214417	739.000000
799.250244	751.700000
799.286133	746.600000
799.321960	748.000000
799.357788	739.100000
799.393677	738.600000
799.429504	739.300000
799.465332	739.200000
799.501221	745.400000
799.537048	744.500000
799.572876	738.400000
799.608704	739.900000
799.644531	753.600000
799.680359	749.800000
799.716248	756.100000
799.752014	761.200000
799.787903	751.100000
799.823730	746.700000
799.859558	740.500000
799.895386	742.200000
799.931213	746.900000
799.967041	740.000000
800.002869	738.400000
800.038696	746.100000
800.074463	734.100000
800.110352	735.100000
800.146179	726.400000
800.181946	739.300000
800.217773	739.000000
800.253540	733.900000
800.289429	729.200000
800.325256	725.500000
800.361023	721.900000
800.396851	726.800000
800.432678	729.500000
800.468445	724.300000
800.504272	724.700000
800.540100	714.000000
800.575867	713.300000
800.611694	722.400000
800.647461	716.300000
800.683289	715.800000
800.719116	724.100000
800.754883	719.600000
800.790649	704.400000
800.826477	705.500000
800.862244	723.000000
800.898071	714.800000
800.933838	715.500000
800.969604	708.100000
801.005432	703.100000
801.041199	704.500000
801.076965	700.000000
801.112793	696.700000
801.148560	691.200000
801.184326	689.800000
801.220154	692.400000
801.255859	685.900000
801.291687	685.100000
801.327454	680.500000
801.363281	679.200000
801.398987	679.200000
801.434814	677.400000
801.470520	685.500000
801.506287	675.900000
801.542114	666.200000
801.577820	670.900000
801.613647	669.800000
801.649414	671.500000
801.685120	668.900000
801.720886	668.900000
801.756714	665.300000
801.792419	663.600000
801.828186	655.200000
801.863892	659.300000
801.899719	658.100000
801.935486	655.700000
801.971252	663.200000
802.006958	655.600000
802.042725	651.300000
802.078430	650.300000
802.114197	652.800000
802.149963	664.800000
802.185669	651.600000
802.221436	650.600000
802.257202	653.500000
802.292908	648.400000
802.328674	651.300000
802.364441	656.600000
802.400146	654.800000
802.435913	656.300000
802.471558	648.300000
802.507324	648.300000
802.543091	647.600000
802.578796	655.000000
802.614502	653.700000
802.650269	657.600000
802.685974	642.700000
802.721741	641.500000
802.757446	646.400000
802.793152	647.100000
802.828918	658.700000
802.864624	651.200000
802.900330	646.400000
802.936035	642.900000
802.971802	643.500000
803.007446	637.100000
803.043213	632.100000
803.078857	644.400000
803.114624	627.300000
803.150330	632.100000
803.185974	629.400000
803.221741	627.500000
803.257446	634.800000
803.293152	637.200000
803.328857	628.200000
803.364563	629.800000
803.400208	625.900000
803.435974	629.800000
803.471680	618.800000
803.507324	622.500000
803.543030	627.000000
803.578735	632.200000
803.614441	624.700000
803.650146	630.600000
803.685791	617.100000
803.721497	621.100000
803.757202	612.200000
803.792847	620.000000
803.828552	613.300000
803.864258	611.000000
803.899902	608.600000
803.935608	600.400000
803.971313	603.200000
804.006958	606.700000
804.042664	601.400000
804.078308	610.300000
804.113953	599.000000
804.149658	603.400000
804.185364	591.100000
804.221008	606.300000
804.256714	592.500000
804.292297	589.500000
804.328003	586.600000
804.363708	583.300000
804.399292	588.200000
804.434998	584.900000
804.470703	579.500000
804.506287	589.500000
804.541992	581.200000
804.577637	580.000000
804.613281	572.600000
804.648926	570.300000
804.684570	574.200000
804.720215	565.900000
804.755920	566.600000
804.791565	570.400000
804.827209	574.400000
804.862854	567.400000
804.898437	562.400000
804.934143	566.800000
804.969788	564.300000
805.005371	567.000000
805.041077	564.700000
805.076721	561.000000
805.112305	555.100000
805.147949	551.000000
805.183655	548.700000
805.219238	556.800000
805.254883	552.400000
805.290466	558.600000
805.326111	551.300000
805.361755	544.700000
805.397400	548.400000
805.432983	546.700000
805.468628	545.000000
805.504211	551.800000
805.539856	550.800000
805.575500	553.200000
805.611084	540.600000
805.646729	534.600000
805.682373	539.900000
805.717957	545.000000
805.753601	551.000000
805.789246	537.300000
805.824768	543.300000
805.860413	543.000000
805.895996	533.500000
805.931641	533.300000
805.967224	543.500000
806.002869	539.500000
806.038452	543.900000
806.074036	544.600000
806.109619	531.300000
806.145264	532.700000
806.180847	528.600000
806.216431	529.100000
806.252014	535.200000
806.287659	532.600000
806.323181	536.100000
806.358826	530.700000
806.394409	518.000000
806.429993	521.400000
806.465576	527.900000
806.501160	520.500000
806.536743	512.200000
806.572327	519.300000
806.607910	512.000000
806.643494	516.300000
806.679077	509.800000
806.714661	513.800000
806.750244	512.300000
806.785828	509.000000
806.821350	506.700000
806.856934	511.500000
806.892517	506.500000
806.928101	503.700000
806.963684	503.000000
806.999268	508.900000
807.034790	495.300000
807.070374	500.600000
807.105896	495.200000
807.141479	493.900000
807.177063	495.800000
807.212585	493.000000
807.248169	493.200000
807.283752	497.400000
807.319275	488.000000
807.354858	491.900000
807.390381	487.200000
807.425903	484.900000
807.461487	484.000000
807.497070	479.100000
807.532593	479.600000
807.568115	478.700000
807.603699	472.300000
807.639221	471.300000
807.674744	476.000000
807.710266	478.800000
807.745850	478.600000
807.781372	476.200000
807.816895	472.400000
807.852417	473.400000
807.888000	470.700000
807.923523	467.600000
807.959045	475.000000
807.994629	465.600000
808.030090	466.000000
808.065613	469.500000
808.101135	472.200000
808.136658	468.200000
808.172241	465.400000
808.207764	468.100000
808.243225	463.500000
808.278809	456.800000
808.314270	467.300000
808.349792	453.600000
808.385315	453.800000
808.420837	458.400000
808.456360	462.600000
808.491882	463.300000
808.527344	456.600000
808.562866	460.700000
808.598389	455.600000
808.633850	457.900000
808.669434	452.000000
808.704895	455.200000
808.740417	463.200000
808.775940	456.000000
808.811462	451.200000
808.846924	444.800000
808.882385	444.400000
808.917847	443.500000
808.953369	449.500000
808.988892	446.400000
809.024353	448.400000
809.059875	447.700000
809.095398	440.900000
809.130798	437.900000
809.166321	438.900000
809.201843	437.300000
809.237305	441.000000
809.272766	445.200000
809.308228	432.900000
809.343750	432.600000
809.379211	431.900000
809.414734	431.600000
809.450134	438.700000
809.485657	425.600000
809.521118	431.300000
809.556580	426.400000
809.592102	424.700000
809.627502	424.800000
809.663025	423.800000
809.698486	419.500000
809.733887	417.700000
809.769409	419.000000
809.804871	412.800000
809.840271	415.100000
809.875793	418.000000
809.911194	418.700000
809.946655	411.100000
809.982178	411.400000
810.017639	411.900000
810.053040	411.100000
810.088501	407.800000
810.123901	410.000000
810.159424	406.800000
810.194885	403.500000
810.230286	408.000000
810.265747	399.800000
810.301208	396.500000
810.336609	401.600000
810.372070	391.600000
810.407532	395.200000
810.442932	397.900000
810.478394	398.000000
810.513794	391.500000
810.549255	393.400000
810.584717	391.400000
810.620117	389.400000
810.655518	389.600000
810.690979	387.400000
810.726379	385.600000
810.761841	379.400000
810.797302	378.300000
810.832642	377.100000
810.868103	384.700000
810.903564	379.200000
810.938904	382.900000
810.974365	373.300000
811.009827	374.100000
811.045166	369.900000
811.080627	365.800000
811.115967	372.700000
811.151428	376.100000
811.186829	372.100000
811.222229	369.700000
811.257629	363.200000
811.293091	368.000000
811.328430	376.500000
811.363892	367.900000
811.399292	369.000000
811.434631	363.700000
811.470093	370.600000
811.505493	361.200000
811.540833	361.000000
811.576294	366.200000
811.611694	361.800000
811.647034	359.800000
811.682434	359.600000
811.717773	361.400000
811.753235	365.500000
811.788635	359.400000
811.823975	360.300000
811.859375	364.700000
811.894775	352.000000
811.930115	354.100000
811.965515	352.200000
812.000916	356.800000
812.036255	355.200000
812.071655	356.400000
812.106995	349.800000
812.142395	352.900000
812.177795	358.700000
812.213196	353.900000
812.248474	353.200000
812.283875	346.300000
812.319214	350.300000
812.354614	350.700000
812.390015	344.800000
812.425293	345.700000
812.460693	343.800000
812.496094	341.900000
812.531433	336.100000
812.566772	336.900000
812.602173	340.300000
812.637451	340.200000
812.672852	336.000000
812.708191	336.000000
812.743530	331.400000
812.778931	327.000000
812.814270	327.400000
812.849609	334.600000
812.884949	332.100000
812.920227	324.700000
812.955627	334.800000
812.990967	328.400000
813.026306	326.100000
813.061646	318.000000
813.096985	317.200000
813.132324	315.200000
813.167664	317.900000
813.203003	318.200000
813.238281	309.400000
813.273682	311.700000
813.308960	310.000000
813.344299	309.800000
813.379639	315.100000
813.414978	308.900000
813.450256	308.500000
813.485596	309.500000
813.520874	305.900000
813.556213	306.500000
813.591614	309.400000
813.626831	302.600000
813.662170	307.000000
813.697510	311.700000
813.732788	302.800000
813.768127	303.800000
813.803467	302.700000
813.838745	301.000000
813.874084	302.500000
813.909363	302.500000
813.944641	302.900000
813.979980	293.600000
814.015320	298.600000
814.050598	295.200000
814.085876	295.400000
814.121155	293.800000
814.156494	294.100000
814.191772	293.800000
814.227051	291.900000
814.262390	292.800000
814.297668	292.600000
814.332947	291.300000
814.368225	287.500000
814.403564	290.700000
814.438782	287.600000
814.474121	288.200000
814.509338	285.300000
814.544617	292.700000
814.579956	284.000000
814.615173	290.800000
814.650513	288.400000
814.685791	285.100000
814.721008	286.000000
814.756348	284.100000
814.791626	281.700000
814.826843	281.100000
814.862122	280.900000
814.897400	280.900000
814.932678	281.400000
814.967957	280.000000
815.003235	281.200000
815.038452	276.600000
815.073730	274.000000
815.108948	280.600000
815.144226	278.300000
815.179504	281.700000
815.214722	270.700000
815.250000	270.300000
815.285278	273.800000
815.320496	271.700000
815.355774	271.200000
815.391052	274.700000
815.426270	271.200000
815.461487	269.300000
815.496765	265.200000
815.531982	263.900000
815.567261	267.200000
815.602539	272.100000
815.637695	270.100000
815.672974	268.400000
815.708191	272.500000
815.743408	271.500000
815.778687	264.600000
815.813904	269.200000
815.849121	259.900000
815.884399	260.500000
815.919556	261.600000
815.954834	261.400000
815.990051	262.700000
816.025269	265.200000
816.060486	258.400000
816.095703	259.800000
816.130920	259.400000
816.166199	256.900000
816.201416	258.700000
816.236572	260.400000
816.271851	253.900000
816.307007	259.400000
816.342224	252.400000
816.377441	255.700000
816.412659	250.300000
816.447876	253.600000
816.483093	250.900000
816.518250	250.200000
816.553467	249.200000
816.588745	252.400000
816.623901	246.100000
816.659119	242.400000
816.694275	247.200000
816.729492	243.900000
816.764709	271.700000
816.799927	241.500000
816.835083	244.000000
816.870300	238.300000
816.905457	243.100000
816.940674	241.800000
816.975830	238.900000
817.010986	237.500000
817.046204	238.200000
817.081421	235.900000
817.116577	236.200000
817.151733	241.700000
817.186951	239.300000
817.222107	239.300000
817.257324	241.700000
817.292419	237.100000
817.327637	233.800000
817.362854	234.700000
817.398010	231.400000
817.433167	235.300000
817.468323	233.100000
817.503479	232.800000
817.538635	242.400000
817.573853	234.300000
817.608948	233.100000
817.644165	228.900000
817.679321	228.200000
817.714478	227.400000
817.749634	229.500000
817.784790	237.100000
817.819946	232.900000
817.855103	223.800000
817.890198	228.900000
817.925415	222.800000
817.960571	230.300000
817.995667	227.400000
818.030823	228.300000
818.066040	224.400000
818.101135	226.700000
818.136292	223.800000
818.171448	220.600000
818.206543	222.900000
818.241699	226.400000
818.276855	224.800000
818.311951	221.600000
818.347107	221.200000
818.382263	224.300000
818.417358	226.200000
818.452515	225.400000
818.487610	227.500000
818.522766	219.300000
818.557922	226.700000
818.593018	222.000000
818.628113	220.300000
818.663269	216.400000
818.698364	220.100000
818.733521	216.300000
818.768677	218.800000
818.803711	214.200000
818.838867	213.900000
818.874023	215.400000
818.909058	214.400000
818.944214	212.500000
818.979370	217.200000
819.014404	215.100000
819.049561	211.800000
819.084595	213.600000
819.119751	210.100000
819.154846	214.300000
819.189941	210.900000
819.225037	210.000000
819.260193	205.800000
819.295227	206.800000
819.330322	205.200000
819.365479	205.100000
819.400513	239.100000
819.435608	203.100000
819.470764	201.900000
819.505798	203.700000
819.540894	206.000000
819.575989	202.900000
819.611084	209.600000
819.646179	211.400000
819.681213	205.700000
819.716309	204.900000
819.751404	202.500000
819.786438	208.100000
819.821533	199.900000
819.856628	203.800000
819.891663	205.100000
819.926758	211.300000
819.961853	207.700000
819.996887	200.600000
820.031982	202.400000
820.067017	201.400000
820.102112	233.700000
820.137207	198.900000
820.172302	210.600000
820.207275	198.100000
820.242371	197.400000
820.277405	199.600000
820.312500	198.700000
820.347534	199.700000
820.382568	202.500000
820.417664	197.600000
820.452759	196.800000
820.487732	196.600000
820.522827	196.700000
820.557861	194.000000
820.592896	196.400000
820.627930	198.400000
820.662964	193.200000
820.698059	200.600000
820.733093	195.500000
820.768127	198.500000
820.803162	196.100000
820.838196	194.500000
820.873230	194.900000
820.908264	196.700000
820.943298	194.200000
820.978333	200.200000
821.013367	194.200000
821.048401	197.400000
821.083435	197.600000
821.118469	190.400000
821.153503	198.100000
821.188477	196.100000
821.223511	191.500000
821.258484	193.900000
821.293579	194.800000
821.328613	189.100000
821.363647	193.900000
821.398621	190.400000
821.433655	192.600000
821.468628	203.100000
821.503662	193.100000
821.538696	195.600000
821.573669	190.000000
821.608704	193.700000
821.643677	191.700000
821.678650	193.000000
821.713684	197.700000
821.748718	192.800000
821.783691	193.000000
821.818726	192.000000
821.853638	193.800000
821.888672	189.800000
821.923706	191.100000
821.958618	191.300000
821.993652	191.100000
822.028687	194.700000
822.063599	197.900000
822.098633	191.800000
822.133667	189.100000
822.168579	190.700000
822.203613	193.300000
822.238586	188.700000
822.273560	193.500000
822.308533	188.700000
822.343567	190.700000
822.378479	190.800000
822.413452	190.200000
822.448425	187.000000
822.483398	195.500000
822.518372	193.400000
822.553345	188.200000
822.588318	195.800000
822.623291	189.600000
822.658203	189.500000
822.693237	189.900000
822.728210	187.900000
822.763123	190.300000
822.798096	187.600000
822.833069	189.100000
822.867981	188.300000
822.902954	191.200000
822.937927	192.200000
822.972900	195.900000
823.007874	186.200000
823.042725	192.900000
823.077698	198.700000
823.112671	186.700000
823.147583	189.800000
823.182556	192.000000
823.217529	192.800000
823.252441	187.000000
823.287415	196.600000
823.322388	191.400000
823.357239	190.500000
823.392212	194.600000
823.427185	193.800000
823.462097	186.100000
823.497009	190.500000
823.531982	187.500000
823.566895	189.700000
823.601807	184.900000
823.636719	188.600000
823.671631	191.300000
823.706604	186.600000
823.741455	190.400000
823.776428	184.600000
823.811340	190.700000
823.846252	195.800000
823.881165	194.400000
823.916138	189.200000
823.950989	194.500000
823.985901	186.600000
824.020813	189.400000
824.055725	190.100000
824.090637	184.400000
824.125610	191.200000
824.160461	189.800000
824.195374	190.900000
824.230225	189.900000
824.265198	184.000000
824.300110	186.300000
824.334961	195.900000
824.369873	183.700000
824.404785	189.900000
824.439636	191.400000
824.474548	183.000000
824.509460	182.100000
824.544312	192.200000
824.579224	189.900000
824.614075	189.500000
824.648987	187.400000
824.683899	186.900000
824.718811	185.500000
824.753662	190.900000
824.788574	191.000000
824.823364	187.500000
824.858276	185.200000
824.893188	190.200000
824.928040	191.000000
824.962952	188.200000
824.997803	190.300000
825.032654	186.800000
825.067566	189.100000
825.102417	184.300000
825.137268	186.400000
825.172119	185.200000
825.206970	185.600000
825.241882	184.900000
825.276733	182.300000
825.311646	184.600000
825.346436	181.600000
825.381348	180.000000
825.416138	185.600000
825.450989	183.000000
825.485901	178.200000
825.520691	180.400000
825.555542	181.700000
825.590454	182.200000
825.625244	179.800000
825.660095	188.300000
825.695007	186.400000
825.729797	182.400000
825.764648	180.400000
825.799438	183.400000
825.834290	185.500000
825.869202	178.300000
825.903992	183.100000
825.938843	180.200000
825.973694	180.000000
826.008484	189.700000
826.043335	180.200000
826.078186	177.700000
826.112976	186.500000
826.147827	186.400000
826.182678	189.600000
826.217468	177.000000
826.252319	186.800000
826.287109	180.200000
826.321899	186.900000
826.356750	181.400000
826.391541	178.400000
826.426392	184.600000
826.461182	182.300000
826.495972	179.100000
826.530823	175.500000
826.565613	182.300000
826.600403	177.100000
826.635254	184.300000
826.670044	176.000000
826.704834	176.400000
826.739685	176.800000
826.774475	183.600000
826.809265	179.500000
826.844055	179.300000
826.878906	186.100000
826.913635	182.900000
826.948425	182.000000
826.983215	184.200000
827.018005	183.900000
827.052856	180.200000
827.087585	184.500000
827.122375	176.700000
827.157227	179.600000
827.191956	191.200000
827.226746	177.300000
827.261536	183.700000
827.296265	176.200000
827.331116	179.100000
827.365906	182.400000
827.400635	179.800000
827.435425	175.000000
827.470215	184.500000
827.504944	180.500000
827.539734	185.300000
827.574463	181.200000
827.609253	188.300000
827.644043	181.100000
827.678772	183.800000
827.713562	179.400000
827.748352	180.700000
827.783081	178.100000
827.817871	182.100000
827.852600	178.900000
827.887329	181.700000
827.922119	176.200000
827.956848	183.300000
827.991638	190.900000
828.026367	181.900000
828.061157	181.700000
828.095886	180.500000
828.130615	194.000000
828.165344	174.600000
828.200073	181.500000
828.234863	180.600000
828.269592	181.000000
828.304321	182.700000
828.339111	180.600000
828.373779	179.000000
828.408569	185.000000
828.443298	184.400000
828.477966	180.400000
828.512756	181.200000
828.547424	178.200000
828.582214	179.100000
828.616943	181.600000
828.651672	179.700000
828.686340	183.300000
828.721130	178.200000
828.755798	182.200000
828.790527	180.100000
828.825256	181.400000
828.859924	180.900000
828.894714	184.300000
828.929443	187.400000
828.964111	178.100000
828.998840	183.800000
829.033569	178.200000
829.068237	180.600000
829.102966	179.200000
829.137634	180.600000
829.172363	182.400000
829.207092	181.600000
829.241821	179.200000
829.276489	176.800000
829.311157	181.300000
829.345825	179.500000
829.380554	184.300000
829.415283	178.900000
829.449951	175.400000
829.484619	187.400000
829.519348	185.300000
829.554016	181.800000
829.588745	180.900000
829.623413	177.900000
829.658081	187.900000
829.692749	177.700000
829.727417	184.000000
829.762146	182.500000
829.796814	178.600000
829.831482	179.900000
829.866150	181.600000
829.900879	180.100000
829.935486	182.600000
829.970154	180.000000
830.004883	189.400000
830.039490	182.600000
830.074219	176.700000
830.108887	180.600000
830.143494	179.100000
830.178223	177.800000
830.212891	179.600000
830.247498	180.500000
830.282166	185.500000
830.316772	185.000000
830.351501	178.400000
830.386169	179.200000
830.420776	177.900000
830.455444	181.400000
830.490112	178.300000
830.524719	176.200000
830.559387	181.900000
830.594055	183.800000
830.628662	180.400000
830.663330	181.300000
830.697998	187.300000
830.732605	182.400000
830.767273	182.700000
830.801941	180.900000
830.836487	187.300000
830.871155	183.200000
830.905762	182.100000
830.940430	176.700000
830.975098	178.400000
831.009644	181.300000
831.044312	187.100000
831.078979	182.400000
831.113525	174.700000
831.148193	182.600000
831.182861	180.300000
831.217407	182.900000
831.252075	191.500000
831.286621	178.400000
831.321289	178.500000
831.355896	181.200000
831.390564	185.500000
831.425110	181.400000
831.459778	185.200000
831.494324	189.900000
831.528931	182.400000
831.563599	184.800000
831.598145	176.400000
831.632751	179.100000
831.667419	180.400000
831.701965	182.000000
831.736572	182.400000
831.771179	178.100000
831.805786	178.900000
831.840393	185.800000
831.874939	176.300000
831.909546	182.900000
831.944153	175.800000
831.978760	180.600000
832.013306	177.300000
832.047913	183.900000
832.082458	187.100000
832.117065	177.300000
832.151672	187.900000
832.186218	182.400000
832.220825	182.800000
832.255432	175.900000
832.289978	180.500000
832.324585	182.300000
832.359192	182.300000
832.393677	180.800000
832.428284	181.600000
832.462830	179.700000
832.497437	181.000000
832.531982	183.000000
832.566589	179.400000
832.601135	183.300000
832.635681	176.100000
832.670227	181.800000
832.704773	186.800000
832.739380	182.900000
832.773926	181.000000
832.808472	179.600000
832.843079	180.100000
832.877563	183.000000
832.912170	178.800000
832.946716	175.800000
832.981201	183.500000
833.015808	185.100000
833.050293	179.600000
833.084839	177.700000
833.119446	180.500000
833.153992	184.400000
833.188477	180.300000
833.223022	179.300000
833.257568	182.800000
833.292114	185.900000
833.326660	188.800000
833.361145	178.900000
833.395691	174.700000
833.430237	181.500000
833.464783	182.600000
833.499329	178.400000
833.533875	177.100000
833.568359	183.900000
833.602905	184.300000
833.637390	185.200000
833.671875	178.400000
833.706421	180.600000
833.740906	178.000000
833.775452	174.700000
833.809998	180.300000
833.844482	186.600000
833.879028	181.300000
833.913513	179.500000
833.947998	182.300000
833.982544	179.500000
834.017090	178.800000
834.051514	174.000000
834.086060	182.900000
834.120544	181.700000
834.155029	182.100000
834.189575	180.500000
834.223999	182.700000
834.258545	183.000000
834.293030	182.100000
834.327515	180.900000
834.362000	180.200000
834.396545	182.800000
834.430969	179.700000
834.465454	184.600000
834.500000	175.800000
834.534424	183.200000
834.568970	175.800000
834.603455	175.200000
834.637878	178.700000
834.672363	182.400000
834.706909	181.200000
834.741333	180.500000
834.775818	176.100000
834.810242	177.600000
834.844727	180.900000
834.879211	178.900000
834.913635	181.700000
834.948181	180.700000
834.982666	182.500000
835.017090	178.900000
835.051575	183.100000
835.086060	178.400000
835.120483	183.300000
835.154907	182.300000
835.189331	181.700000
835.223816	183.300000
835.258301	176.600000
835.292786	178.800000
835.327209	184.700000
835.361694	178.000000
835.396057	179.300000
835.430542	183.400000
835.465027	182.500000
835.499390	178.000000
835.533875	207.600000
835.568359	177.600000
835.602722	176.900000
835.637207	181.100000
835.671692	175.800000
835.706055	194.600000
835.740540	181.200000
835.774902	182.600000
835.809387	181.400000
835.843811	176.100000
835.878235	183.800000
835.912659	177.400000
835.947083	179.700000
835.981506	183.000000
836.015930	176.500000
836.050354	184.300000
836.084778	185.400000
836.119202	184.900000
836.153625	194.000000
836.187988	179.900000
836.222473	178.600000
836.256897	183.200000
836.291260	180.700000
836.325684	183.300000
836.360046	179.000000
836.394470	181.000000
836.428894	185.600000
836.463318	178.400000
836.497681	182.500000
836.532104	186.300000
836.566467	180.400000
836.600891	180.600000
836.635315	184.700000
836.669678	182.400000
836.704102	183.300000
836.738525	183.000000
836.772888	175.100000
836.807251	178.900000
836.841675	182.600000
836.876038	178.100000
836.910461	178.600000
836.944763	183.600000
836.979187	177.900000
837.013611	185.400000
837.047974	176.300000
837.082336	190.500000
837.116699	183.400000
837.151062	181.600000
837.185486	177.100000
837.219849	179.400000
837.254211	184.800000
837.288574	181.200000
837.322937	177.000000
837.357300	173.700000
837.391663	189.200000
837.426086	184.500000
837.460388	183.100000
837.494751	183.500000
837.529114	180.900000
837.563477	185.700000
837.597839	181.700000
837.632141	181.300000
837.666565	180.000000
837.700928	184.400000
837.735229	182.100000
837.769592	182.900000
837.803955	182.900000
837.838257	179.400000
837.872620	178.400000
837.906982	186.700000
837.941284	182.100000
837.975647	182.300000
838.010010	185.900000
838.044312	178.700000
838.078674	180.300000
838.112976	181.900000
838.147339	182.900000
838.181702	180.900000
838.216003	187.000000
838.250366	181.900000
838.284668	183.800000
838.318970	175.700000
838.353333	181.200000
838.387634	179.800000
838.421936	180.800000
838.456299	180.600000
838.490601	185.600000
838.524902	184.300000
838.559265	184.300000
838.593567	183.900000
838.627869	177.700000
838.662170	182.700000
838.696472	177.500000
838.730774	178.700000
838.765137	184.000000
838.799377	173.700000
838.833740	182.800000
838.868042	184.500000
838.902283	175.900000
838.936646	185.900000
838.970947	181.200000
839.005188	187.600000
839.039551	175.800000
839.073792	186.400000
839.108093	179.600000
839.142395	187.900000
839.176697	176.200000
839.210937	183.600000
839.245300	188.500000
839.279541	177.600000
839.313843	179.800000
839.348145	184.900000
839.382385	184.100000
839.416687	184.700000
839.450989	182.300000
839.485229	181.900000
839.519531	179.000000
839.553833	185.500000
839.588013	181.100000
839.622314	183.300000
839.656555	181.600000
839.690857	181.500000
839.725159	177.700000
839.759460	181.600000
839.793640	178.100000
839.827942	180.800000
839.862183	177.200000
839.896423	181.800000
839.930725	190.800000
839.964966	187.700000
839.999207	184.600000
840.033508	187.100000
840.067688	178.300000
840.101990	186.500000
840.136230	180.100000
840.170471	187.200000
840.204712	177.400000
840.238953	178.400000
840.273193	180.500000
840.307434	184.700000
840.341736	178.900000
840.375916	177.800000
840.410217	178.800000
840.444397	185.100000
840.478638	183.100000
840.512878	185.300000
840.547119	181.800000
840.581360	184.300000
840.615601	187.300000
840.649780	190.500000
840.684021	180.000000
840.718262	187.500000
840.752441	188.000000
840.786682	182.900000
840.820862	182.500000
840.855103	187.900000
840.889343	182.400000
840.923584	184.800000
840.957764	181.700000
840.992004	181.700000
841.026184	193.000000
841.060425	181.100000
841.094666	180.900000
841.128845	184.100000
841.163025	184.100000
841.197266	184.100000
841.231445	182.400000
841.265686	182.300000
841.299866	178.100000
841.334045	186.000000
841.368286	180.800000
841.402405	186.900000
841.436646	184.100000
841.470825	179.800000
841.505005	181.400000
841.539185	178.500000
841.573425	179.900000
841.607544	181.400000
841.641785	181.500000
841.675964	177.700000
841.710144	181.900000
841.744324	178.600000
841.778503	181.800000
841.812683	179.300000
841.846863	187.400000
841.881042	186.000000
841.915222	179.800000
841.949402	191.500000
841.983521	177.700000
842.017700	180.400000
842.051880	181.600000
842.086060	184.200000
842.120239	181.900000
842.154419	180.500000
842.188538	182.600000
842.222717	179.000000
842.256897	188.000000
842.291016	180.900000
842.325195	182.600000
842.359375	189.600000
842.393494	186.900000
842.427673	182.300000
842.461853	183.000000
842.495911	189.700000
842.530090	184.000000
842.564209	181.700000
842.598389	183.000000
842.632568	182.600000
842.666626	182.200000
842.700806	180.600000
842.734985	180.100000
842.769043	184.900000
842.803223	180.600000
842.837402	180.200000
842.871460	179.100000
842.905640	190.100000
842.939697	179.300000
842.973877	183.000000
843.007996	186.500000
843.042175	190.400000
843.076233	179.100000
843.110413	183.800000
843.144470	187.100000
843.178589	186.700000
843.212769	181.400000
843.246826	184.500000
843.280945	178.800000
843.315125	181.500000
843.349182	178.900000
843.383301	186.400000
843.417419	190.100000
843.451538	181.300000
843.485657	179.700000
843.519714	182.200000
843.553833	182.700000
843.587952	180.000000
843.622070	179.300000
843.656128	184.200000
843.690247	179.200000
843.724304	181.600000
843.758423	184.100000
843.792542	180.600000
843.826599	182.000000
843.860718	180.800000
843.894836	178.100000
843.928894	183.800000
843.963013	183.700000
843.997070	179.400000
844.031128	178.700000
844.065247	186.000000
844.099304	184.600000
844.133362	183.700000
844.167480	183.900000
844.201599	186.800000
844.235596	184.900000
844.269714	183.700000
844.303711	183.400000
844.337830	176.800000
844.371948	183.900000
844.405945	180.900000
844.440063	179.200000
844.474121	191.000000
844.508118	182.000000
844.542236	182.100000
844.576294	182.200000
844.610352	178.200000
844.644409	181.500000
844.678406	175.200000
844.712524	186.000000
844.746582	186.500000
844.780640	181.600000
844.814636	181.800000
844.848755	189.200000
844.882751	182.100000
844.916809	185.600000
844.950867	184.200000
844.984863	188.100000
845.018921	182.000000
845.052979	179.800000
845.086975	182.600000
845.121033	178.200000
845.155090	179.300000
845.189087	187.900000
845.223145	181.100000
845.257141	184.300000
845.291199	183.700000
845.325256	186.500000
845.359253	183.800000
845.393250	194.300000
845.427307	182.100000
845.461304	183.100000
845.495361	182.600000
845.529358	189.000000
845.563354	181.900000
845.597412	179.400000
845.631409	190.200000
845.665405	188.800000
845.699463	186.800000
845.733459	181.100000
845.767456	190.700000
845.801453	181.300000
845.835449	186.400000
845.869446	184.700000
845.903503	185.500000
845.937439	178.600000
845.971497	187.300000
846.005493	177.100000
846.039429	186.700000
846.073486	188.500000
846.107483	180.700000
846.141418	180.200000
846.175476	182.500000
846.209473	185.400000
846.243408	179.000000
846.277405	183.300000
846.311401	180.200000
846.345337	180.700000
846.379395	186.900000
846.413330	180.000000
846.447327	192.200000
846.481323	179.900000
846.515259	180.000000
846.549255	181.700000
846.583252	185.800000
846.617187	179.500000
846.651184	183.400000
846.685120	181.400000
846.719055	188.100000
846.753052	185.900000
846.786987	185.700000
846.820984	178.800000
846.854980	188.100000
846.888916	179.100000
846.922852	184.100000
846.956848	186.700000
846.990723	181.600000
847.024719	183.500000
847.058716	182.600000
847.092590	187.300000
847.126587	183.400000
847.160522	180.800000
847.194458	185.900000
847.228455	179.600000
847.262390	179.000000
847.296265	180.200000
847.330261	185.700000
847.364136	181.000000
847.398132	181.400000
847.432068	184.900000
847.466003	181.100000
847.499939	181.900000
847.533875	184.500000
847.567749	182.400000
847.601746	179.800000
847.635681	184.000000
847.669556	177.600000
847.703491	186.900000
847.737427	190.600000
847.771301	178.900000
847.805237	184.000000
847.839233	183.500000
847.873108	180.900000
847.907043	180.800000
847.940918	187.200000
847.974854	184.500000
848.008789	185.700000
848.042664	182.300000
848.076538	182.100000
848.110474	183.000000
848.144348	183.000000
848.178284	178.400000
848.212219	184.800000
848.246094	180.700000
848.279968	183.000000
848.313904	185.600000
848.347778	182.600000
848.381653	182.300000
848.415588	179.400000
848.449463	180.900000
848.483337	185.000000
848.517212	189.700000
848.551086	182.200000
848.585022	179.600000
848.618835	191.700000
848.652771	181.600000
848.686646	178.600000
848.720520	188.800000
848.754395	183.700000
848.788330	186.600000
848.822144	184.600000
848.856018	180.200000
848.889954	190.400000
848.923767	179.700000
848.957642	180.600000
848.991577	183.600000
849.025391	182.500000
849.059265	181.600000
849.093079	181.100000
849.126953	179.000000
849.160828	188.400000
849.194641	181.500000
849.228577	181.500000
849.262451	180.300000
849.296265	182.400000
849.330139	179.700000
849.364014	183.500000
849.397827	183.000000
849.431702	182.000000
849.465515	184.900000
849.499329	177.000000
849.533203	180.300000
849.567078	177.000000
849.600891	184.300000
849.634766	182.900000
849.668518	184.900000
849.702393	183.500000
849.736267	178.400000
849.770020	189.400000
849.803894	184.700000
849.837769	184.000000
849.871521	181.200000
849.905396	185.200000
849.939270	178.600000
849.973022	181.100000
850.006897	185.000000
850.040710	185.900000
850.074524	186.000000
850.108337	182.800000
850.142151	186.200000
850.175964	186.900000
850.209778	182.800000
850.243530	175.000000
850.277405	185.800000
850.311218	183.300000
850.344971	181.000000
850.378845	188.500000
850.412659	181.100000
850.446411	184.800000
850.480225	182.600000
850.514038	186.700000
850.547791	186.100000
850.581665	183.300000
850.615417	180.900000
850.649231	183.000000
850.683044	181.100000
850.716858	181.100000
850.750610	183.900000
850.784424	184.300000
850.818176	180.300000
850.851929	181.100000
850.885742	179.800000
850.919495	181.400000
850.953308	189.000000
850.987122	187.300000
851.020874	179.100000
851.054626	177.000000
851.088440	184.600000
851.122192	184.500000
851.156006	183.400000
851.189697	180.600000
851.223511	178.700000
851.257263	185.800000
851.291077	185.000000
851.324829	181.200000
851.358582	181.400000
851.392334	180.500000
851.426086	180.300000
851.459900	188.500000
851.493591	183.300000
851.527344	183.000000
851.561157	183.400000
851.594849	184.000000
851.628662	182.800000
851.662415	188.700000
851.696106	185.400000
851.729858	187.100000
851.763611	179.700000
851.797363	184.800000
851.831116	178.600000
851.864868	185.300000
851.898560	187.300000
851.932312	182.100000
851.966064	184.800000
851.999817	183.300000
852.033569	182.600000
852.067261	188.200000
852.101013	179.800000
852.134766	182.200000
852.168457	175.600000
852.202209	187.500000
852.235901	178.500000
852.269592	186.700000
852.303345	188.400000
852.337036	185.000000
852.370789	182.500000
852.404541	186.400000
852.438171	178.300000
852.471924	183.000000
852.505676	178.000000
852.539307	185.500000
852.573059	180.300000
852.606812	181.600000
852.640442	180.100000
852.674194	187.100000
852.707886	189.300000
852.741577	188.500000
852.775269	180.100000
852.809021	183.200000
852.842651	184.600000
852.876404	188.300000
852.910034	184.300000
852.943787	187.400000
852.977478	184.200000
853.011108	180.400000
853.044861	180.000000
853.078552	188.300000
853.112183	184.900000
853.145874	182.900000
853.179626	177.500000
853.213257	183.400000
853.246948	181.400000
853.280640	189.600000
853.314270	181.200000
853.347961	186.900000
853.381653	185.700000
853.415283	186.900000
853.448975	180.200000
853.482605	183.500000
853.516296	182.400000
853.549988	179.100000
853.583618	184.600000
853.617310	184.200000
853.651001	184.500000
853.684631	180.500000
853.718323	180.500000
853.751953	188.300000
853.785583	178.500000
853.819275	185.400000
853.852966	184.600000
853.886536	177.000000
853.920227	179.100000
853.953918	186.200000
853.987488	182.300000
854.021179	186.000000
854.054749	189.500000
854.088440	184.900000
854.122131	180.400000
854.155701	184.800000
854.189331	179.600000
854.223022	184.000000
854.256592	184.700000
854.290283	179.900000
854.323914	185.100000
854.357483	183.100000
854.391174	185.900000
854.424744	186.800000
854.458374	184.800000
854.492065	192.400000
854.525696	180.600000
854.559265	186.500000
854.592896	192.100000
854.626465	182.200000
854.660095	182.000000
854.693787	184.800000
854.727356	181.700000
854.760986	186.400000
854.794617	185.600000
854.828186	181.400000
854.861816	187.200000
854.895447	183.600000
854.929016	184.700000
854.962585	185.000000
854.996155	191.900000
855.029785	183.400000
855.063416	184.800000
855.097046	186.000000
855.130615	179.300000
855.164185	188.600000
855.197754	182.100000
855.231384	184.800000
855.264954	182.000000
855.298523	186.000000
855.332153	183.400000
855.365723	187.000000
855.399292	180.700000
855.432922	182.200000
855.466492	185.600000
855.500061	181.200000
855.533630	179.700000
855.567200	186.600000
855.600769	186.900000
855.634338	188.200000
855.667969	183.200000
855.701477	181.100000
855.735046	179.700000
855.768616	178.600000
855.802185	184.400000
855.835754	194.000000
855.869324	176.400000
855.902893	183.600000
855.936401	185.700000
855.969971	184.000000
856.003540	178.900000
856.037109	184.300000
856.070618	181.600000
856.104187	179.400000
856.137695	179.600000
856.171265	174.300000
856.204834	183.300000
856.238403	186.100000
856.271912	180.500000
856.305481	185.700000
856.338989	179.600000
856.372559	185.000000
856.406128	184.700000
856.439636	186.000000
856.473145	181.800000
856.506653	188.900000
856.540222	184.000000
856.573792	186.900000
856.607300	187.100000
856.640808	179.900000
856.674377	183.500000
856.707825	216.200000
856.741394	188.400000
856.774902	180.000000
856.808472	178.000000
856.841980	185.500000
856.875488	187.600000
856.908936	178.000000
856.942505	182.200000
856.976013	182.000000
857.009521	180.100000
857.043030	183.100000
857.076477	183.200000
857.110046	187.800000
857.143555	184.200000
857.177063	184.400000
857.210571	182.400000
857.244080	177.000000
857.277527	185.000000
857.311035	183.100000
857.344543	187.600000
857.378052	181.800000
857.411499	188.200000
857.445068	188.400000
857.478516	182.900000
857.512024	178.800000
857.545532	181.900000
857.578979	184.600000
857.612427	185.000000
857.645874	179.700000
857.679382	184.800000
857.712891	187.600000
857.746399	184.100000
857.779846	186.900000
857.813354	188.000000
857.846741	182.000000
857.880249	180.300000
857.913757	185.500000
857.947266	183.000000
857.980652	185.800000
858.014160	182.100000
858.047546	181.500000
858.081055	181.900000
858.114563	194.700000
858.147949	180.500000
858.181458	184.700000
858.214844	183.600000
858.248352	177.600000
858.281799	186.500000
858.315308	193.400000
858.348694	185.800000
858.382141	189.000000
858.415588	185.300000
858.449036	186.400000
858.482483	184.100000
858.515930	182.500000
858.549377	183.500000
858.582825	187.700000
858.616211	185.300000
858.649658	186.800000
858.683105	179.700000
858.716553	181.000000
858.750000	177.500000
858.783386	182.000000
858.816833	178.500000
858.850281	183.800000
858.883728	185.300000
858.917114	184.600000
858.950562	188.700000
858.983948	188.400000
859.017395	187.000000
859.050781	182.200000
859.084167	179.600000
859.117615	181.100000
859.151062	185.400000
859.184448	181.000000
859.217834	181.700000
859.251282	181.700000
859.284668	179.400000
859.318054	179.100000
859.351440	182.700000
859.384888	188.600000
859.418274	178.300000
859.451721	178.700000
859.485046	184.500000
859.518494	184.600000
859.551819	180.300000
859.585266	186.200000
859.618652	186.700000
859.652039	180.100000
859.685425	179.500000
859.718811	180.300000
859.752197	175.800000
859.785583	186.400000
859.819031	188.600000
859.852356	186.000000
859.885742	180.900000
859.919067	183.700000
859.952454	181.700000
859.985901	186.300000
860.019287	185.000000
860.052612	0.000000
860.085999	0.000000
860.119324	0.000000
860.152710	0.000000
860.186096	0.000000
860.219421	0.000000
860.252808	0.000000
860.286133	0.000000
860.319519	0.000000
860.352905	0.000000
860.386292	0.000000
860.419617	0.000000
860.452942	0.000000
860.486267	0.000000
860.519653	0.000000
860.553040	0.000000
860.586365	0.000000
860.619690	0.000000
860.653076	0.000000
860.686340	0.000000
860.719727	0.000000
860.753113	0.000000
860.786377	0.000000
860.819763	0.000000
860.853027	0.000000
860.886414	0.000000
860.919739	0.000000
860.953125	0.000000
860.986389	0.000000
861.019714	0.000000
861.053040	0.000000
861.086365	0.000000
861.119690	0.000000
861.153076	0.000000
861.186340	0.000000
861.219666	0.000000
861.252930	0.000000
861.286316	0.000000
861.319641	0.000000
861.352905	0.000000
861.386230	0.000000
861.419495	0.000000
861.452820	0.000000
861.486145	0.000000
861.519470	0.000000
861.552734	0.000000
861.586060	0.000000
861.619324	0.000000
861.652649	0.000000
861.685974	0.000000
861.719238	0.000000
861.752563	0.000000
861.785828	0.000000
861.819092	0.000000
861.852417	0.000000
861.885742	0.000000
861.918945	0.000000
861.952271	0.000000
861.985535	0.000000
862.018799	0.000000
862.052124	0.000000
862.085449	0.000000
862.118652	0.000000
862.151978	0.000000
862.185181	0.000000
862.218506	0.000000
862.251770	0.000000
862.285034	0.000000
862.318298	0.000000
862.351562	0.000000
862.384827	0.000000
862.418091	0.000000
862.451355	0.000000
862.484619	0.000000
862.517883	0.000000
862.551086	0.000000
862.584351	0.000000
862.617676	0.000000
862.650940	0.000000
862.684143	0.000000
862.717407	0.000000
862.750610	0.000000
862.783875	0.000000
862.817139	0.000000
862.850342	0.000000
862.883606	0.000000
862.916870	0.000000
862.950073	0.000000
862.983337	0.000000
863.016602	0.000000
863.049805	0.000000
863.083069	0.000000
863.116211	0.000000
863.149475	0.000000
863.182739	0.000000
863.216003	0.000000
863.249146	0.000000
863.282410	0.000000
863.315613	0.000000
863.348816	0.000000
863.382080	0.000000
863.415222	0.000000
863.448486	0.000000
863.481689	0.000000
863.514893	0.000000
863.548157	0.000000
863.581360	0.000000
863.614502	0.000000
863.647766	0.000000
863.680908	0.000000
863.714172	0.000000
863.747375	0.000000
863.780579	0.000000
863.813721	0.000000
863.846985	0.000000
863.880127	0.000000
863.913330	0.000000
863.946533	0.000000
863.979675	0.000000
864.012939	0.000000
