Model Number: SPM-001-M   
Serial Number: 10090201
Firmware Version: 004.17.6
Exposure Time: 300000.000000us
Data Taken on: 28-01-2021 10:55:48.466
Wavelength	Amplitude
733.770752	0.000000
733.808716	0.000000
733.846619	0.000000
733.884583	0.000000
733.922546	0.000000
733.960449	0.000000
733.998413	0.000000
734.036377	0.000000
734.074219	0.000000
734.112183	0.000000
734.150085	0.000000
734.188049	0.000000
734.226013	0.000000
734.263916	0.000000
734.301819	0.000000
734.339783	0.000000
734.377686	0.000000
734.415588	0.000000
734.453552	0.000000
734.491455	0.000000
734.529419	0.000000
734.567322	0.000000
734.605225	0.000000
734.643127	0.000000
734.681091	0.000000
734.718994	0.000000
734.756897	0.000000
734.794800	0.000000
734.832703	0.000000
734.870667	0.000000
734.908508	0.000000
734.946472	0.000000
734.984375	0.000000
735.022278	0.000000
735.060181	0.000000
735.098083	0.000000
735.135986	0.000000
735.173889	0.000000
735.211792	0.000000
735.249695	0.000000
735.287598	0.000000
735.325439	0.000000
735.363403	0.000000
735.401306	0.000000
735.439148	0.000000
735.477051	0.000000
735.515015	0.000000
735.552856	0.000000
735.590759	0.000000
735.628662	0.000000
735.666504	0.000000
735.704407	0.000000
735.742310	0.000000
735.780212	0.000000
735.818115	0.000000
735.856018	0.000000
735.893860	0.000000
735.931763	0.000000
735.969604	0.000000
736.007507	0.000000
736.045410	0.000000
736.083252	0.000000
736.121094	0.000000
736.158997	0.000000
736.196838	0.000000
736.234741	0.000000
736.272644	0.000000
736.310486	0.000000
736.348389	0.000000
736.386230	0.000000
736.424072	0.000000
736.461975	0.000000
736.499878	0.000000
736.537720	0.000000
736.575562	0.000000
736.613403	0.000000
736.651306	0.000000
736.689148	0.000000
736.726990	0.000000
736.764893	0.000000
736.802734	0.000000
736.840576	0.000000
736.878418	0.000000
736.916321	0.000000
736.954102	0.000000
736.992004	0.000000
737.029846	0.000000
737.067688	0.000000
737.105530	0.000000
737.143372	0.000000
737.181213	0.000000
737.219116	0.000000
737.256897	0.000000
737.294739	0.000000
737.332642	0.000000
737.370422	0.000000
737.408325	0.000000
737.446167	0.000000
737.483948	0.000000
737.521790	0.000000
737.559692	0.000000
737.597473	0.000000
737.635315	0.000000
737.673157	0.000000
737.710999	0.000000
737.748840	0.000000
737.786621	0.000000
737.824463	0.000000
737.862305	0.000000
737.900085	0.000000
737.937927	0.000000
737.975769	0.000000
738.013550	0.000000
738.051392	0.000000
738.089233	0.000000
738.127014	0.000000
738.164856	0.000000
738.202698	0.000000
738.240479	0.000000
738.278320	0.000000
738.316162	0.000000
738.353943	0.000000
738.391785	0.000000
738.429565	0.000000
738.467407	0.000000
738.505188	0.000000
738.542969	0.000000
738.580811	0.000000
738.618652	0.000000
738.656372	0.000000
738.694214	0.000000
738.732056	0.000000
738.769836	0.000000
738.807617	0.000000
738.845459	0.000000
738.883240	0.000000
738.921021	0.000000
738.958862	0.000000
738.996582	0.000000
739.034424	0.000000
739.072205	0.000000
739.109985	0.000000
739.147827	0.000000
739.185547	0.000000
739.223389	0.000000
739.261169	0.000000
739.298889	0.000000
739.336731	0.000000
739.374512	0.000000
739.412292	0.000000
739.450073	0.000000
739.487854	0.000000
739.525635	0.000000
739.563416	0.000000
739.601135	0.000000
739.638977	0.000000
739.676758	0.000000
739.714478	0.000000
739.752258	0.000000
739.790100	0.000000
739.827820	0.000000
739.865601	0.000000
739.903381	0.000000
739.941101	0.000000
739.978882	184.300000
740.016724	181.000000
740.054443	183.600000
740.092224	180.600000
740.130005	179.700000
740.167725	179.500000
740.205505	179.500000
740.243225	186.500000
740.281006	181.000000
740.318787	177.400000
740.356506	187.200000
740.394287	183.900000
740.432068	179.700000
740.469727	176.800000
740.507507	184.300000
740.545288	181.600000
740.583008	184.700000
740.620789	181.400000
740.658569	177.000000
740.696228	180.800000
740.734009	184.900000
740.771790	173.300000
740.809509	183.100000
740.847229	178.000000
740.884949	179.800000
740.922729	176.200000
740.960449	180.500000
740.998169	178.300000
741.035950	178.900000
741.073669	182.500000
741.111389	181.600000
741.149170	187.000000
741.186890	187.700000
741.224609	183.500000
741.262329	183.300000
741.300110	188.800000
741.337769	178.900000
741.375549	176.700000
741.413208	183.200000
741.450989	178.600000
741.488708	179.300000
741.526367	178.600000
741.564148	184.100000
741.601868	183.400000
741.639526	181.400000
741.677307	182.200000
741.715027	183.000000
741.752686	177.800000
741.790466	187.400000
741.828186	183.900000
741.865845	179.200000
741.903564	177.600000
741.941345	181.600000
741.979004	179.700000
742.016724	184.400000
742.054382	182.600000
742.092102	185.100000
742.129822	178.800000
742.167480	179.900000
742.205200	181.200000
742.242920	183.300000
742.280640	184.400000
742.318359	179.400000
742.356079	182.300000
742.393738	185.000000
742.431396	179.900000
742.469116	185.200000
742.506775	177.000000
742.544495	182.700000
742.582214	185.200000
742.619873	181.100000
742.657593	186.200000
742.695251	184.700000
742.732971	181.700000
742.770630	180.900000
742.808289	182.700000
742.846008	180.700000
742.883728	182.000000
742.921326	182.400000
742.959045	180.400000
742.996765	179.300000
743.034424	182.900000
743.072083	179.100000
743.109802	181.800000
743.147400	177.000000
743.185120	182.200000
743.222839	180.300000
743.260437	186.500000
743.298157	183.200000
743.335754	176.200000
743.373474	180.600000
743.411133	177.900000
743.448792	180.800000
743.486450	182.100000
743.524170	177.600000
743.561768	181.900000
743.599487	185.700000
743.637146	187.800000
743.674744	181.300000
743.712463	180.300000
743.750122	181.700000
743.787720	183.300000
743.825439	179.800000
743.863037	179.600000
743.900696	181.100000
743.938416	205.400000
743.976013	182.000000
744.013672	187.000000
744.051331	185.600000
744.088928	187.900000
744.126587	185.100000
744.164307	182.000000
744.201904	179.200000
744.239563	181.900000
744.277222	185.200000
744.314819	181.000000
744.352478	186.800000
744.390137	182.500000
744.427734	183.700000
744.465393	179.000000
744.502991	178.400000
744.540649	183.300000
744.578308	180.900000
744.615906	179.100000
744.653564	175.300000
744.691223	183.600000
744.728821	178.400000
744.766418	181.200000
744.804077	183.000000
744.841675	180.900000
744.879333	178.600000
744.916992	180.000000
744.954529	180.700000
744.992187	183.600000
745.029785	181.700000
745.067444	179.600000
745.105042	182.500000
745.142639	182.400000
745.180298	189.500000
745.217896	180.000000
745.255493	180.700000
745.293152	184.900000
745.330750	185.100000
745.368347	186.200000
745.405945	184.200000
745.443604	180.700000
745.481140	184.500000
745.518799	181.400000
745.556396	184.900000
745.593994	184.300000
745.631592	182.700000
745.669189	177.800000
745.706787	183.500000
745.744385	178.800000
745.781982	184.300000
745.819580	180.500000
745.857178	180.000000
745.894775	182.200000
745.932373	182.000000
745.969971	183.700000
746.007568	175.700000
746.045166	187.400000
746.082764	186.400000
746.120300	184.500000
746.157898	183.900000
746.195557	180.200000
746.233093	176.500000
746.270691	182.900000
746.308228	183.300000
746.345825	185.600000
746.383423	183.400000
746.420959	180.100000
746.458557	180.400000
746.496155	179.100000
746.533691	182.400000
746.571289	179.400000
746.608887	181.500000
746.646423	182.500000
746.684021	182.500000
746.721619	179.400000
746.759155	184.000000
746.796753	176.900000
746.834351	177.800000
746.871826	179.900000
746.909424	186.800000
746.946960	181.600000
746.984558	181.400000
747.022156	180.200000
747.059631	189.100000
747.097229	183.500000
747.134827	180.900000
747.172363	186.600000
747.209900	185.000000
747.247498	179.200000
747.285034	186.400000
747.322571	185.600000
747.360168	181.600000
747.397644	177.200000
747.435242	184.600000
747.472778	184.500000
747.510315	182.200000
747.547913	180.400000
747.585388	186.800000
747.622925	179.700000
747.660522	177.100000
747.697998	179.600000
747.735596	180.900000
747.773132	177.600000
747.810669	182.000000
747.848206	183.800000
747.885742	178.200000
747.923279	177.900000
747.960815	182.600000
747.998352	182.000000
748.035889	184.800000
748.073425	184.000000
748.110901	179.800000
748.148437	177.100000
748.185974	180.700000
748.223511	187.100000
748.261047	183.700000
748.298584	181.900000
748.336060	182.800000
748.373596	182.800000
748.411133	207.700000
748.448608	179.400000
748.486145	184.700000
748.523682	186.400000
748.561218	187.300000
748.598755	182.600000
748.636292	184.600000
748.673706	179.800000
748.711243	188.900000
748.748718	183.000000
748.786255	184.600000
748.823792	182.200000
748.861267	178.600000
748.898804	184.600000
748.936340	183.500000
748.973816	179.800000
749.011292	187.700000
749.048828	182.200000
749.086304	182.900000
749.123840	190.000000
749.161316	179.700000
749.198792	188.900000
749.236328	186.400000
749.273743	181.400000
749.311279	180.800000
749.348816	185.300000
749.386230	183.200000
749.423767	173.900000
749.461304	183.800000
749.498718	182.700000
749.536255	185.500000
749.573730	190.800000
749.611206	187.000000
749.648682	181.600000
749.686218	181.400000
749.723633	185.100000
749.761169	182.200000
749.798645	179.500000
749.836060	181.200000
749.873596	178.900000
749.911011	183.800000
749.948547	186.500000
749.986023	180.300000
750.023437	181.400000
750.060913	178.100000
750.098450	177.700000
750.135864	180.700000
750.173340	182.400000
750.210815	185.300000
750.248291	179.600000
750.285767	181.200000
750.323242	185.900000
750.360657	182.900000
750.398132	179.100000
750.435608	182.900000
750.473022	180.200000
750.510498	179.300000
750.547974	179.000000
750.585449	181.600000
750.622925	176.200000
750.660339	191.300000
750.697815	182.300000
750.735291	181.900000
750.772644	181.000000
750.810120	183.800000
750.847595	183.600000
750.885010	179.000000
750.922485	186.100000
750.959961	183.500000
750.997375	185.900000
751.034851	185.200000
751.072266	184.300000
751.109680	178.600000
751.147156	185.700000
751.184570	184.000000
751.221985	181.800000
751.259460	176.600000
751.296875	181.800000
751.334290	181.100000
751.371765	185.000000
751.409180	184.800000
751.446594	187.200000
751.484070	184.400000
751.521423	181.700000
751.558899	183.500000
751.596375	189.000000
751.633728	186.500000
751.671204	188.400000
751.708618	179.300000
751.746033	181.300000
751.783447	177.900000
751.820801	178.700000
751.858276	185.700000
751.895691	181.200000
751.933105	181.500000
751.970520	179.700000
752.007935	180.900000
752.045349	185.600000
752.082764	182.100000
752.120178	179.400000
752.157532	179.900000
752.195007	180.400000
752.232422	183.700000
752.269775	183.300000
752.307190	184.800000
752.344543	178.900000
752.382019	183.400000
752.419434	180.900000
752.456787	183.800000
752.494202	185.500000
752.531616	182.700000
752.568970	184.500000
752.606384	184.200000
752.643799	184.000000
752.681152	187.200000
752.718567	184.400000
752.755981	177.300000
752.793335	185.300000
752.830750	177.500000
752.868164	186.300000
752.905518	179.100000
752.942932	185.400000
752.980225	178.500000
753.017639	185.300000
753.055054	184.600000
753.092407	183.400000
753.129822	185.500000
753.167175	188.900000
753.204529	180.800000
753.241943	179.600000
753.279358	178.400000
753.316650	182.700000
753.354065	184.100000
753.391479	185.800000
753.428772	188.500000
753.466187	183.100000
753.503479	178.300000
753.540894	182.200000
753.578308	178.800000
753.615601	179.200000
753.653015	182.100000
753.690369	181.300000
753.727722	178.400000
753.765076	178.000000
753.802490	179.200000
753.839783	176.800000
753.877136	179.400000
753.914551	190.300000
753.951843	179.800000
753.989258	185.100000
754.026611	181.400000
754.063904	183.700000
754.101257	178.600000
754.138611	177.000000
754.175964	183.300000
754.213318	188.200000
754.250610	178.000000
754.288025	180.000000
754.325378	179.600000
754.362671	185.800000
754.400024	182.300000
754.437378	188.300000
754.474670	187.600000
754.512085	180.000000
754.549438	183.400000
754.586731	180.200000
754.624084	182.600000
754.661438	177.700000
754.698730	189.100000
754.736084	181.400000
754.773376	181.400000
754.810730	183.200000
754.848083	182.600000
754.885315	185.400000
754.922668	177.600000
754.960022	179.300000
754.997314	184.900000
755.034668	182.400000
755.072021	182.800000
755.109253	180.300000
755.146606	186.800000
755.183960	182.100000
755.221252	189.400000
755.258545	185.500000
755.295898	187.300000
755.333191	186.400000
755.370544	185.500000
755.407776	183.600000
755.445129	184.600000
755.482422	185.400000
755.519714	183.000000
755.557068	178.400000
755.594360	178.300000
755.631653	185.600000
755.668945	189.100000
755.706299	184.700000
755.743530	193.100000
755.780884	188.900000
755.818176	186.800000
755.855408	186.400000
755.892761	186.200000
755.930054	183.500000
755.967346	185.500000
756.004639	186.100000
756.041870	184.200000
756.079224	188.400000
756.116516	181.500000
756.153748	185.700000
756.191040	191.200000
756.228394	185.800000
756.265625	181.500000
756.302917	185.000000
756.340210	182.200000
756.377441	187.900000
756.414795	188.800000
756.452087	183.800000
756.489319	179.800000
756.526611	187.400000
756.563843	183.900000
756.601135	191.000000
756.638428	191.500000
756.675659	185.000000
756.712952	186.400000
756.750244	187.700000
756.787476	185.100000
756.824768	189.100000
756.862061	183.700000
756.899292	229.600000
756.936584	187.600000
756.973816	192.700000
757.011047	192.600000
757.048340	186.400000
757.085632	185.900000
757.122864	197.800000
757.160156	183.600000
757.197327	187.200000
757.234619	190.500000
757.271912	185.000000
757.309082	190.000000
757.346375	184.400000
757.383667	189.600000
757.420837	187.600000
757.458130	188.300000
757.495422	186.100000
757.532593	188.500000
757.569885	182.300000
757.607117	184.100000
757.644348	189.600000
757.681580	198.200000
757.718811	179.400000
757.756042	187.900000
757.793335	184.800000
757.830505	189.400000
757.867798	185.800000
757.905029	185.400000
757.942200	188.300000
757.979492	186.900000
758.016724	187.500000
758.053894	186.500000
758.091187	198.900000
758.128418	188.300000
758.165588	186.800000
758.202820	195.500000
758.240112	188.400000
758.277283	196.100000
758.314514	188.500000
758.351685	188.000000
758.388916	193.500000
758.426147	195.200000
758.463379	194.000000
758.500610	191.700000
758.537842	190.700000
758.575012	195.300000
758.612244	185.900000
758.649475	198.700000
758.686646	185.300000
758.723877	194.000000
758.761108	196.900000
758.798279	189.800000
758.835510	191.400000
758.872742	195.800000
758.909851	192.700000
758.947083	193.100000
758.984253	193.200000
759.021484	193.800000
759.058716	193.300000
759.095886	196.200000
759.133057	191.500000
759.170288	194.500000
759.207458	191.200000
759.244690	199.100000
759.281860	198.000000
759.319031	194.000000
759.356262	191.200000
759.393433	192.400000
759.430603	193.500000
759.467773	191.500000
759.505005	197.700000
759.542175	197.500000
759.579346	193.000000
759.616516	195.100000
759.653687	198.200000
759.690918	192.600000
759.728027	193.900000
759.765259	195.400000
759.802429	198.500000
759.839539	194.800000
759.876770	199.500000
759.913940	201.200000
759.951111	196.200000
759.988281	195.500000
760.025452	195.000000
760.062561	192.900000
760.099792	202.800000
760.136963	196.800000
760.174072	194.200000
760.211243	192.200000
760.248413	194.400000
760.285583	192.900000
760.322754	204.700000
760.359863	201.100000
760.397034	202.700000
760.434204	195.900000
760.471375	196.900000
760.508545	195.500000
760.545715	196.600000
760.582825	193.700000
760.619995	199.600000
760.657166	194.500000
760.694275	201.800000
760.731445	198.300000
760.768555	200.800000
760.805664	200.400000
760.842834	199.600000
760.879944	201.700000
760.917114	200.100000
760.954285	197.600000
760.991394	194.900000
761.028564	202.900000
761.065674	201.000000
761.102783	196.800000
761.139954	202.400000
761.177124	203.100000
761.214172	205.500000
761.251343	199.100000
761.288452	199.300000
761.325562	204.000000
761.362732	197.700000
761.399841	200.800000
761.436951	201.200000
761.474121	199.600000
761.511169	199.900000
761.548340	204.600000
761.585449	204.100000
761.622559	204.400000
761.659668	201.700000
761.696838	205.400000
761.733887	203.500000
761.771057	201.100000
761.808167	202.200000
761.845276	205.500000
761.882385	210.000000
761.919434	202.700000
761.956604	216.000000
761.993713	201.900000
762.030762	207.400000
762.067871	204.000000
762.105042	202.500000
762.142090	209.600000
762.179199	204.700000
762.216309	207.900000
762.253418	214.000000
762.290527	213.600000
762.327637	209.700000
762.364685	204.100000
762.401794	208.200000
762.438904	207.600000
762.475952	202.800000
762.513062	203.700000
762.550110	204.500000
762.587219	214.000000
762.624329	213.600000
762.661377	209.100000
762.698486	208.000000
762.735596	208.400000
762.772644	204.600000
762.809753	202.400000
762.846863	207.400000
762.883911	213.400000
762.921021	211.500000
762.958069	208.700000
762.995117	214.600000
763.032227	214.600000
763.069336	208.000000
763.106323	207.400000
763.143433	207.200000
763.180481	210.500000
763.217590	212.300000
763.254639	210.500000
763.291687	210.000000
763.328735	217.600000
763.365845	212.600000
763.402893	210.700000
763.439941	213.400000
763.477051	214.800000
763.514038	215.500000
763.551147	210.700000
763.588196	213.700000
763.625244	212.600000
763.662292	218.500000
763.699402	220.600000
763.736389	217.000000
763.773499	222.300000
763.810486	216.900000
763.847534	215.900000
763.884644	218.900000
763.921631	215.200000
763.958679	224.200000
763.995728	217.600000
764.032776	224.300000
764.069824	214.700000
764.106873	220.900000
764.143860	224.700000
764.180969	220.200000
764.218018	224.800000
764.255005	219.100000
764.292053	220.500000
764.329102	228.800000
764.366089	227.900000
764.403137	225.300000
764.440125	220.900000
764.477173	222.700000
764.514221	225.900000
764.551208	224.400000
764.588257	221.100000
764.625305	228.500000
764.662292	230.300000
764.699341	232.300000
764.736389	227.500000
764.773376	239.400000
764.810425	230.200000
764.847473	235.500000
764.884399	231.600000
764.921448	236.600000
764.958435	236.000000
764.995483	229.700000
765.032532	240.600000
765.069458	231.400000
765.106506	234.200000
765.143555	229.500000
765.180481	234.500000
765.217529	240.500000
765.254578	230.000000
765.291504	236.000000
765.328552	235.500000
765.365540	231.300000
765.402527	242.500000
765.439575	233.300000
765.476501	232.700000
765.513550	231.300000
765.550537	237.300000
765.587463	241.300000
765.624512	236.300000
765.661499	230.700000
765.698486	241.100000
765.735474	236.300000
765.772461	238.100000
765.809448	244.100000
765.846436	242.800000
765.883423	244.800000
765.920410	241.300000
765.957397	238.100000
765.994385	242.200000
766.031311	246.500000
766.068359	244.600000
766.105286	242.900000
766.142273	248.500000
766.179260	243.900000
766.216187	242.300000
766.253174	239.800000
766.290161	244.700000
766.327148	246.300000
766.364136	246.800000
766.401123	257.200000
766.438049	243.800000
766.475037	252.600000
766.512024	250.700000
766.548950	260.400000
766.585937	256.100000
766.622864	254.800000
766.659790	253.700000
766.696777	247.400000
766.733704	255.700000
766.770691	251.500000
766.807678	257.200000
766.844604	254.800000
766.881531	254.500000
766.918518	259.200000
766.955444	260.000000
766.992432	254.900000
767.029358	258.000000
767.066284	258.800000
767.103271	258.000000
767.140198	289.800000
767.177124	268.400000
767.214050	260.100000
767.251038	259.400000
767.287964	258.600000
767.324890	259.000000
767.361816	261.600000
767.398743	265.200000
767.435730	261.600000
767.472595	263.200000
767.509583	267.400000
767.546509	258.800000
767.583374	264.200000
767.620361	260.200000
767.657288	264.900000
767.694214	263.400000
767.731140	262.600000
767.768066	263.100000
767.804993	267.700000
767.841919	261.200000
767.878845	267.300000
767.915710	269.000000
767.952698	267.000000
767.989563	267.000000
768.026489	268.000000
768.063416	263.700000
768.100281	264.600000
768.137207	273.600000
768.174133	272.000000
768.211060	271.100000
768.247986	271.400000
768.284912	268.000000
768.321777	272.100000
768.358704	267.800000
768.395630	271.200000
768.432495	267.000000
768.469421	271.400000
768.506348	276.000000
768.543152	280.200000
768.580078	278.600000
768.616943	275.900000
768.653870	278.500000
768.690796	277.200000
768.727661	278.700000
768.764587	278.600000
768.801453	274.800000
768.838318	282.800000
768.875244	280.600000
768.912109	284.600000
768.948975	279.300000
768.985901	281.900000
769.022766	282.000000
769.059631	282.400000
769.096558	281.600000
769.133362	283.500000
769.170288	282.300000
769.207214	285.500000
769.244019	287.900000
769.280945	286.000000
769.317810	294.400000
769.354675	288.700000
769.391541	295.100000
769.428406	294.400000
769.465271	302.100000
769.502136	291.600000
769.539062	296.400000
769.575867	294.000000
769.612732	297.300000
769.649597	301.000000
769.686462	303.900000
769.723328	297.600000
769.760193	298.700000
769.797058	301.100000
769.833923	304.900000
769.870728	302.600000
769.907593	303.700000
769.944519	305.100000
769.981323	308.000000
770.018188	306.400000
770.055054	307.600000
770.091858	305.900000
770.128723	315.600000
770.165588	318.600000
770.202393	307.000000
770.239258	316.400000
770.276062	313.600000
770.312927	315.500000
770.349792	321.400000
770.386597	319.100000
770.423462	327.200000
770.460327	332.700000
770.497131	322.400000
770.533997	319.200000
770.570862	330.600000
770.607605	331.900000
770.644470	328.900000
770.681335	330.200000
770.718140	327.600000
770.754944	326.300000
770.791809	325.500000
770.828613	328.100000
770.865479	326.800000
770.902222	334.600000
770.939087	330.800000
770.975952	322.700000
771.012695	327.400000
771.049561	342.600000
771.086365	331.300000
771.123169	331.600000
771.159973	336.000000
771.196838	335.100000
771.233582	337.900000
771.270447	338.900000
771.307251	340.700000
771.344055	338.400000
771.380859	342.200000
771.417664	336.400000
771.454468	344.300000
771.491272	343.600000
771.528076	345.200000
771.564880	343.600000
771.601685	349.800000
771.638428	342.900000
771.675293	348.500000
771.712097	341.700000
771.748840	356.600000
771.785645	347.700000
771.822449	351.400000
771.859253	352.400000
771.896057	351.200000
771.932861	358.800000
771.969604	353.000000
772.006409	348.100000
772.043213	355.700000
772.079956	356.000000
772.116760	351.400000
772.153503	354.200000
772.190308	363.700000
772.227112	355.600000
772.263855	356.500000
772.300659	357.200000
772.337463	362.600000
772.374207	355.400000
772.411011	355.200000
772.447754	357.300000
772.484497	371.600000
772.521301	363.100000
772.558105	364.000000
772.594849	365.400000
772.631592	368.600000
772.668396	367.200000
772.705139	370.200000
772.741882	368.800000
772.778625	374.900000
772.815430	378.200000
772.852173	375.500000
772.888916	378.300000
772.925720	381.400000
772.962463	383.300000
772.999207	379.500000
773.035950	380.500000
773.072754	382.900000
773.109436	378.200000
773.146240	381.100000
773.182922	379.700000
773.219727	385.300000
773.256470	381.900000
773.293152	374.200000
773.329956	377.600000
773.366699	384.000000
773.403381	378.500000
773.440186	384.600000
773.476929	385.300000
773.513611	383.000000
773.550354	385.200000
773.587158	382.400000
773.623840	382.900000
773.660583	387.200000
773.697327	393.000000
773.734009	388.500000
773.770813	387.700000
773.807495	387.100000
773.844238	389.800000
773.880981	399.200000
773.917664	393.000000
773.954407	397.800000
773.991150	393.700000
774.027832	401.200000
774.064575	395.100000
774.101318	399.100000
774.138000	400.000000
774.174744	396.800000
774.211487	400.500000
774.248108	393.100000
774.284851	395.300000
774.321594	401.600000
774.358276	401.900000
774.395020	406.300000
774.431702	406.100000
774.468384	402.500000
774.505127	398.900000
774.541809	405.100000
774.578491	410.700000
774.615234	410.800000
774.651917	404.500000
774.688599	407.600000
774.725342	417.600000
774.762024	416.000000
774.798706	420.900000
774.835449	420.700000
774.872070	425.500000
774.908813	421.700000
774.945496	421.300000
774.982178	423.300000
775.018860	427.200000
775.055542	429.400000
775.092224	426.800000
775.128967	430.900000
775.165588	430.400000
775.202271	429.100000
775.239014	437.900000
775.275635	438.600000
775.312317	435.400000
775.349060	436.800000
775.385681	434.500000
775.422363	434.600000
775.459045	440.600000
775.495667	446.000000
775.532410	446.800000
775.569092	444.500000
775.605713	444.600000
775.642395	446.200000
775.679016	447.100000
775.715698	450.400000
775.752380	451.900000
775.789001	445.600000
775.825684	446.700000
775.862366	450.700000
775.898987	463.600000
775.935669	459.100000
775.972351	470.100000
776.008972	470.400000
776.045654	471.300000
776.082336	469.000000
776.118958	467.400000
776.155640	469.400000
776.192322	474.700000
776.228882	484.100000
776.265564	476.400000
776.302185	472.700000
776.338867	479.000000
776.375488	477.500000
776.412109	483.500000
776.448792	490.100000
776.485413	494.500000
776.522034	481.700000
776.558716	479.500000
776.595337	484.200000
776.631958	488.000000
776.668579	488.600000
776.705261	498.900000
776.741882	490.000000
776.778503	490.200000
776.815186	496.800000
776.851746	498.500000
776.888367	498.100000
776.924988	505.900000
776.961609	501.000000
776.998291	502.500000
777.034851	497.400000
777.071472	506.600000
777.108154	504.900000
777.144714	512.500000
777.181335	507.800000
777.218018	508.900000
777.254578	514.100000
777.291199	511.900000
777.327759	518.400000
777.364380	520.000000
777.401062	524.500000
777.437622	532.300000
777.474243	524.200000
777.510864	527.100000
777.547424	524.300000
777.584045	526.200000
777.620667	525.300000
777.657227	529.200000
777.693848	530.700000
777.730469	539.200000
777.767029	529.300000
777.803650	535.400000
777.840271	535.600000
777.876831	538.300000
777.913452	542.900000
777.950012	530.100000
777.986633	528.500000
778.023193	530.200000
778.059753	527.500000
778.096375	533.500000
778.132996	541.200000
778.169556	536.000000
778.206116	537.400000
778.242737	537.100000
778.279297	541.500000
778.315857	534.600000
778.352478	539.200000
778.389038	548.000000
778.425598	549.700000
778.462219	552.300000
778.498718	549.400000
778.535339	554.200000
778.571838	555.500000
778.608459	558.200000
778.645020	545.900000
778.681580	555.200000
778.718140	558.400000
778.754761	549.700000
778.791260	554.500000
778.827881	558.400000
778.864441	559.400000
778.900940	564.700000
778.937561	564.300000
778.974121	561.800000
779.010620	560.000000
779.047241	562.500000
779.083801	563.800000
779.120300	565.500000
779.156860	572.500000
779.193359	569.100000
779.229980	568.000000
779.266541	577.000000
779.303040	576.000000
779.339600	567.700000
779.376160	558.900000
779.412659	564.700000
779.449219	563.000000
779.485779	567.600000
779.522278	568.300000
779.558838	574.300000
779.595398	575.400000
779.631897	570.500000
779.668457	567.100000
779.705017	574.200000
779.741516	568.400000
779.778076	569.400000
779.814575	570.500000
779.851074	573.600000
779.887634	564.800000
779.924133	572.600000
779.960693	569.200000
779.997253	580.500000
780.033691	584.600000
780.070251	586.900000
780.106812	595.900000
780.143250	591.600000
780.179810	587.000000
780.216370	591.200000
780.252808	595.200000
780.289368	600.500000
780.325867	597.300000
780.362366	598.400000
780.398865	603.500000
780.435364	597.300000
780.471863	604.900000
780.508423	596.600000
780.544861	603.900000
780.581421	602.100000
780.617920	594.400000
780.654419	595.900000
780.690918	606.000000
780.727417	608.800000
780.763916	612.600000
780.800415	614.500000
780.836914	600.000000
780.873352	606.000000
780.909912	604.400000
780.946411	611.400000
780.982849	619.700000
781.019348	633.200000
781.055786	623.100000
781.092346	626.800000
781.128845	630.100000
781.165283	633.400000
781.201782	647.200000
781.238281	646.400000
781.274719	640.800000
781.311218	639.500000
781.347717	648.800000
781.384155	640.800000
781.420654	638.300000
781.457092	650.600000
781.493591	640.300000
781.530090	636.200000
781.566528	633.800000
781.602966	639.100000
781.639465	640.000000
781.675903	640.600000
781.712402	642.700000
781.748901	643.600000
781.785278	632.600000
781.821777	633.400000
781.858276	621.600000
781.894714	626.100000
781.931152	608.500000
781.967651	598.600000
782.004089	571.100000
782.040527	558.500000
782.076965	532.700000
782.113403	503.900000
782.149902	478.700000
782.186340	445.300000
782.222778	424.500000
782.259277	385.800000
782.295654	357.600000
782.332092	334.500000
782.368591	309.300000
782.404968	288.400000
782.441467	277.300000
782.477905	266.700000
782.514282	262.400000
782.550781	267.800000
782.587219	267.400000
782.623596	275.400000
782.660095	278.500000
782.696472	289.200000
782.732910	295.500000
782.769348	297.700000
782.805786	314.700000
782.842224	317.900000
782.878662	318.000000
782.915039	317.000000
782.951477	317.800000
782.987915	309.500000
783.024292	309.700000
783.060730	307.400000
783.097168	298.600000
783.133545	288.400000
783.169983	282.400000
783.206421	277.400000
783.242798	276.800000
783.279236	274.600000
783.315613	278.100000
783.352051	278.600000
783.388489	283.100000
783.424866	285.100000
783.461304	299.500000
783.497681	319.900000
783.534058	337.600000
783.570496	363.000000
783.606934	394.200000
783.643250	432.000000
783.679687	474.000000
783.716125	497.800000
783.752441	538.000000
783.788879	584.100000
783.825317	621.300000
783.861633	653.100000
783.898071	672.500000
783.934448	704.800000
783.970825	727.200000
784.007263	734.800000
784.043579	747.000000
784.080017	759.000000
784.116394	758.800000
784.152710	761.200000
784.189148	767.800000
784.225525	755.100000
784.261902	748.800000
784.298279	747.100000
784.334656	745.900000
784.371033	745.400000
784.407410	746.500000
784.443787	736.500000
784.480164	721.000000
784.516541	725.400000
784.552856	733.500000
784.589233	732.100000
784.625610	727.900000
784.661987	751.500000
784.698364	742.800000
784.734741	733.300000
784.771057	737.800000
784.807434	744.400000
784.843811	758.000000
784.880127	757.200000
784.916504	778.900000
784.952881	773.000000
784.989197	769.400000
785.025574	777.900000
785.061951	779.100000
785.098267	804.900000
785.134644	803.500000
785.170959	788.600000
785.207275	783.300000
785.243652	781.400000
785.279968	770.600000
785.316345	774.000000
785.352722	766.300000
785.388977	763.700000
785.425354	751.100000
785.461731	732.200000
785.498047	731.300000
785.534363	728.500000
785.570679	732.900000
785.606995	724.300000
785.643372	726.900000
785.679687	731.000000
785.716003	732.800000
785.752380	734.000000
785.788635	739.900000
785.825012	755.500000
785.861328	765.800000
785.897644	751.900000
785.933960	768.700000
785.970337	774.600000
786.006592	791.000000
786.042908	797.700000
786.079285	806.000000
786.115540	802.000000
786.151855	813.200000
786.188171	808.500000
786.224487	802.000000
786.260803	792.100000
786.297119	799.900000
786.333435	792.400000
786.369751	790.600000
786.406006	791.000000
786.442322	775.700000
786.478638	765.000000
786.514954	774.500000
786.551270	768.400000
786.587585	768.300000
786.623840	756.200000
786.660156	756.800000
786.696472	748.200000
786.732727	750.400000
786.769043	758.500000
786.805298	752.400000
786.841614	756.000000
786.877930	769.300000
786.914124	757.300000
786.950439	778.400000
786.986755	788.300000
787.023010	800.100000
787.059326	801.900000
787.095642	810.300000
787.131836	825.500000
787.168152	818.600000
787.204468	826.400000
787.240723	832.700000
787.276978	840.800000
787.313293	845.300000
787.349548	843.200000
787.385803	840.900000
787.422058	834.100000
787.458313	832.900000
787.494629	823.500000
787.530823	824.500000
787.567139	815.700000
787.603455	813.000000
787.639648	806.000000
787.675903	805.900000
787.712219	801.400000
787.748413	795.600000
787.784729	798.600000
787.820984	793.200000
787.857178	793.300000
787.893494	787.800000
787.929749	792.000000
787.965942	800.100000
788.002258	818.600000
788.038452	824.100000
788.074707	824.500000
788.110962	821.800000
788.147217	826.000000
788.183472	845.300000
788.219727	853.900000
788.255920	863.600000
788.292175	862.200000
788.328430	858.300000
788.364624	850.100000
788.400879	850.800000
788.437134	857.500000
788.473328	865.200000
788.509583	861.100000
788.545837	851.400000
788.582031	847.600000
788.618286	849.000000
788.654480	847.800000
788.690735	852.100000
788.726990	865.800000
788.763184	864.700000
788.799377	866.300000
788.835632	864.200000
788.871826	879.400000
788.908081	877.100000
788.944336	872.600000
788.980469	882.300000
789.016724	878.900000
789.052979	881.900000
789.089111	870.300000
789.125366	879.900000
789.161621	873.000000
789.197754	879.000000
789.234009	868.000000
789.270142	867.300000
789.306396	856.500000
789.342590	856.700000
789.378784	846.600000
789.414978	841.600000
789.451233	850.700000
789.487366	857.000000
789.523621	859.500000
789.559814	851.000000
789.595947	849.600000
789.632202	860.100000
789.668335	871.200000
789.704529	889.200000
789.740784	897.500000
789.776917	901.100000
789.813110	892.700000
789.849304	903.200000
789.885498	905.000000
789.921692	921.100000
789.957886	919.800000
789.994019	919.900000
790.030212	922.600000
790.066406	929.600000
790.102539	928.400000
790.138733	940.300000
790.174927	937.300000
790.211060	942.100000
790.247253	931.600000
790.283386	923.400000
790.319580	910.900000
790.355774	905.200000
790.391907	906.600000
790.428101	921.100000
790.464294	919.100000
790.500427	909.900000
790.536621	894.700000
790.572754	884.200000
790.608887	886.000000
790.645081	895.400000
790.681274	915.600000
790.717346	907.000000
790.753540	889.100000
790.789734	878.400000
790.825867	868.100000
790.862000	877.200000
790.898132	890.200000
790.934265	886.300000
790.970459	885.200000
791.006592	878.700000
791.042725	879.300000
791.078918	879.400000
791.114990	879.600000
791.151184	885.400000
791.187317	899.000000
791.223389	888.700000
791.259583	874.700000
791.295715	869.400000
791.331848	883.300000
791.367981	891.100000
791.404114	899.100000
791.440247	904.400000
791.476379	891.900000
791.512451	874.300000
791.548584	882.400000
791.584778	878.000000
791.620850	887.500000
791.656982	889.000000
791.693115	882.200000
791.729187	880.700000
791.765381	875.400000
791.801514	876.000000
791.837585	878.800000
791.873718	889.600000
791.909851	902.300000
791.945923	906.800000
791.982056	880.200000
792.018188	878.900000
792.054260	882.800000
792.090393	882.900000
792.126465	880.000000
792.162598	876.200000
792.198669	871.300000
792.234741	871.700000
792.270874	858.700000
792.307007	853.100000
792.343079	860.000000
792.379150	871.500000
792.415283	859.700000
792.451355	853.100000
792.487488	829.800000
792.523560	822.800000
792.559631	806.500000
792.595764	773.500000
792.631836	745.600000
792.667908	740.400000
792.703979	743.700000
792.740051	786.400000
792.776184	809.100000
792.812256	817.400000
792.848328	834.800000
792.884399	847.100000
792.920471	841.000000
792.956543	836.700000
792.992615	834.700000
793.028748	844.800000
793.064758	850.500000
793.100830	865.500000
793.136963	869.000000
793.172974	870.700000
793.209045	867.500000
793.245178	870.200000
793.281189	860.500000
793.317261	863.200000
793.353271	870.600000
793.389404	868.100000
793.425476	862.200000
793.461487	858.100000
793.497559	856.600000
793.533630	859.400000
793.569641	853.900000
793.605713	863.600000
793.641785	869.100000
793.677795	874.800000
793.713867	865.600000
793.749878	876.000000
793.785950	883.500000
793.822021	898.800000
793.858032	882.200000
793.894104	895.800000
793.930176	887.300000
793.966187	886.300000
794.002258	875.200000
794.038269	884.400000
794.074280	887.500000
794.110352	906.800000
794.146423	886.400000
794.182373	889.700000
794.218445	880.200000
794.254517	874.400000
794.290466	861.500000
794.326538	864.600000
794.362549	870.400000
794.398560	871.800000
794.434631	867.800000
794.470581	852.700000
794.506653	846.100000
794.542664	846.700000
794.578674	855.400000
794.614685	861.100000
794.650757	857.500000
794.686707	853.400000
794.722778	852.300000
794.758789	867.100000
794.794739	878.500000
794.830811	893.400000
794.866821	910.600000
794.902771	918.500000
794.938843	910.200000
794.974792	901.800000
795.010803	905.300000
795.046814	900.800000
795.082825	899.100000
795.118835	904.400000
795.154846	883.600000
795.190796	883.800000
795.226807	871.300000
795.262817	878.200000
795.298767	876.100000
795.334778	891.900000
795.370850	878.500000
795.406799	877.800000
795.442810	863.600000
795.478821	856.100000
795.514709	856.700000
795.550720	891.600000
795.586670	879.400000
795.622681	875.400000
795.658691	869.900000
795.694641	864.600000
795.730652	872.600000
795.766663	886.300000
795.802551	883.800000
795.838562	898.400000
795.874573	885.900000
795.910522	876.000000
795.946472	867.300000
795.982483	875.100000
796.018433	880.200000
796.054382	883.400000
796.090393	874.800000
796.126282	860.200000
796.162292	849.700000
796.198242	853.500000
796.234192	852.500000
796.270203	854.200000
796.306091	861.300000
796.342041	866.100000
796.378052	854.500000
796.413940	853.900000
796.449951	865.400000
796.485901	869.900000
796.521790	874.500000
796.557800	882.800000
796.593689	884.000000
796.629639	881.300000
796.665649	866.500000
796.701599	863.500000
796.737488	869.200000
796.773437	878.400000
796.809387	871.400000
796.845337	880.000000
796.881287	866.900000
796.917175	850.900000
796.953125	854.200000
796.989075	867.000000
797.024963	865.400000
797.060913	858.800000
797.096863	861.000000
797.132751	852.700000
797.168701	841.300000
797.204590	845.100000
797.240540	847.400000
797.276489	850.500000
797.312439	857.800000
797.348328	855.100000
797.384277	844.800000
797.420166	832.600000
797.456055	831.300000
797.492004	837.200000
797.527893	854.600000
797.563843	851.200000
797.599731	844.400000
797.635620	833.100000
797.671570	832.600000
797.707520	840.600000
797.743347	847.200000
797.779297	851.600000
797.815125	838.700000
797.851074	829.500000
797.887024	817.400000
797.922913	810.800000
797.958801	824.000000
797.994690	823.300000
798.030579	833.700000
798.066467	834.400000
798.102356	818.500000
798.138245	813.300000
798.174133	808.000000
798.210083	813.600000
798.245911	833.900000
798.281799	828.600000
798.317749	822.600000
798.353577	818.600000
798.389465	814.200000
798.425293	815.800000
798.461243	815.700000
798.497131	819.400000
798.532959	822.500000
798.568848	829.800000
798.604736	809.300000
798.640564	788.700000
798.676453	790.700000
798.712402	795.400000
798.748230	802.200000
798.784119	804.600000
798.820007	802.500000
798.855835	796.200000
798.891724	794.100000
798.927551	794.600000
798.963379	793.300000
798.999268	796.900000
799.035095	787.600000
799.070984	771.800000
799.106873	762.200000
799.142700	771.600000
799.178528	772.600000
799.214417	779.000000
799.250244	790.600000
799.286133	785.100000
799.321960	778.300000
799.357788	775.100000
799.393677	769.500000
799.429504	770.200000
799.465332	769.800000
799.501221	778.100000
799.537048	777.800000
799.572876	767.800000
799.608704	771.500000
799.644531	785.600000
799.680359	784.400000
799.716248	793.600000
799.752014	795.700000
799.787903	785.400000
799.823730	781.700000
799.859558	777.300000
799.895386	776.500000
799.931213	778.100000
799.967041	773.400000
800.002869	767.900000
800.038696	776.500000
800.074463	765.000000
800.110352	766.000000
800.146179	763.900000
800.181946	769.400000
800.217773	776.700000
800.253540	773.800000
800.289429	760.100000
800.325256	751.800000
800.361023	756.700000
800.396851	762.400000
800.432678	771.100000
800.468445	765.800000
800.504272	764.300000
800.540100	748.400000
800.575867	748.400000
800.611694	755.600000
800.647461	751.400000
800.683289	756.200000
800.719116	752.000000
800.754883	749.300000
800.790649	735.800000
800.826477	732.900000
800.862244	754.000000
800.898071	743.500000
800.933838	748.100000
800.969604	748.000000
801.005432	743.300000
801.041199	734.700000
801.076965	729.900000
801.112793	725.300000
801.148560	719.800000
801.184326	720.200000
801.220154	722.900000
801.255859	715.700000
801.291687	712.200000
801.327454	716.600000
801.363281	716.800000
801.398987	709.600000
801.434814	705.500000
801.470520	718.100000
801.506287	710.500000
801.542114	695.800000
801.577820	699.000000
801.613647	699.000000
801.649414	698.700000
801.685120	703.500000
801.720886	703.900000
801.756714	694.800000
801.792419	692.700000
801.828186	690.800000
801.863892	697.200000
801.899719	689.600000
801.935486	686.300000
801.971252	696.200000
802.006958	691.100000
802.042725	683.900000
802.078430	681.300000
802.114197	678.900000
802.149963	689.400000
802.185669	681.500000
802.221436	677.800000
802.257202	681.500000
802.292908	674.100000
802.328674	684.800000
802.364441	686.500000
802.400146	680.100000
802.435913	681.800000
802.471558	672.700000
802.507324	673.900000
802.543091	667.200000
802.578796	680.600000
802.614502	679.100000
802.650269	686.400000
802.685974	675.600000
802.721741	672.500000
802.757446	679.400000
802.793152	675.400000
802.828918	680.800000
802.864624	681.000000
802.900330	679.700000
802.936035	673.800000
802.971802	669.700000
803.007446	667.000000
803.043213	654.300000
803.078857	673.000000
803.114624	659.600000
803.150330	663.000000
803.185974	654.400000
803.221741	654.500000
803.257446	658.400000
803.293152	667.500000
803.328857	656.000000
803.364563	653.400000
803.400208	651.800000
803.435974	647.800000
803.471680	641.900000
803.507324	648.900000
803.543030	655.200000
803.578735	653.200000
803.614441	649.600000
803.650146	663.100000
803.685791	646.700000
803.721497	647.500000
803.757202	637.300000
803.792847	645.300000
803.828552	639.300000
803.864258	638.900000
803.899902	634.600000
803.935608	624.100000
803.971313	629.300000
804.006958	628.400000
804.042664	629.200000
804.078308	631.900000
804.113953	618.100000
804.149658	626.800000
804.185364	615.300000
804.221008	631.600000
804.256714	616.600000
804.292297	615.800000
804.328003	618.100000
804.363708	613.400000
804.399292	610.400000
804.434998	607.500000
804.470703	603.700000
804.506287	615.300000
804.541992	609.400000
804.577637	610.100000
804.613281	600.100000
804.648926	597.300000
804.684570	602.000000
804.720215	593.200000
804.755920	596.000000
804.791565	593.400000
804.827209	597.400000
804.862854	587.400000
804.898437	585.600000
804.934143	588.400000
804.969788	587.300000
805.005371	590.500000
805.041077	591.300000
805.076721	588.600000
805.112305	582.400000
805.147949	578.200000
805.183655	571.900000
805.219238	580.700000
805.254883	576.200000
805.290466	583.300000
805.326111	574.800000
805.361755	566.200000
805.397400	570.100000
805.432983	574.000000
805.468628	569.200000
805.504211	571.400000
805.539856	576.700000
805.575500	575.300000
805.611084	567.300000
805.646729	558.700000
805.682373	564.400000
805.717957	568.600000
805.753601	568.500000
805.789246	557.500000
805.824768	562.100000
805.860413	564.000000
805.895996	550.000000
805.931641	552.900000
805.967224	562.800000
806.002869	555.000000
806.038452	563.300000
806.074036	567.800000
806.109619	557.200000
806.145264	550.900000
806.180847	546.700000
806.216431	547.600000
806.252014	553.500000
806.287659	552.900000
806.323181	559.600000
806.358826	550.700000
806.394409	538.800000
806.429993	540.900000
806.465576	546.400000
806.501160	539.300000
806.536743	535.800000
806.572327	536.800000
806.607910	530.800000
806.643494	532.500000
806.679077	528.800000
806.714661	532.000000
806.750244	527.200000
806.785828	524.300000
806.821350	525.400000
806.856934	526.500000
806.892517	522.800000
806.928101	523.400000
806.963684	524.600000
806.999268	529.800000
807.034790	514.000000
807.070374	520.500000
807.105896	515.300000
807.141479	513.100000
807.177063	516.900000
807.212585	516.900000
807.248169	515.500000
807.283752	517.800000
807.319275	508.900000
807.354858	510.400000
807.390381	507.800000
807.425903	506.000000
807.461487	503.600000
807.497070	497.800000
807.532593	499.800000
807.568115	496.200000
807.603699	491.800000
807.639221	488.900000
807.674744	494.000000
807.710266	496.400000
807.745850	498.300000
807.781372	494.700000
807.816895	488.400000
807.852417	486.800000
807.888000	488.800000
807.923523	485.900000
807.959045	491.000000
807.994629	483.100000
808.030090	481.600000
808.065613	482.200000
808.101135	486.800000
808.136658	485.400000
808.172241	482.400000
808.207764	484.200000
808.243225	479.800000
808.278809	476.800000
808.314270	483.900000
808.349792	470.300000
808.385315	470.900000
808.420837	475.800000
808.456360	481.900000
808.491882	482.000000
808.527344	476.200000
808.562866	477.200000
808.598389	473.100000
808.633850	470.700000
808.669434	466.400000
808.704895	473.400000
808.740417	477.300000
808.775940	471.900000
808.811462	467.600000
808.846924	462.500000
808.882385	460.700000
808.917847	460.800000
808.953369	463.200000
808.988892	457.800000
809.024353	466.100000
809.059875	461.600000
809.095398	460.200000
809.130798	452.900000
809.166321	453.400000
809.201843	452.800000
809.237305	454.100000
809.272766	455.800000
809.308228	449.200000
809.343750	448.400000
809.379211	448.300000
809.414734	444.600000
809.450134	450.600000
809.485657	438.800000
809.521118	445.700000
809.556580	441.200000
809.592102	441.100000
809.627502	436.800000
809.663025	435.900000
809.698486	435.200000
809.733887	431.200000
809.769409	433.900000
809.804871	426.500000
809.840271	429.300000
809.875793	428.100000
809.911194	432.700000
809.946655	422.700000
809.982178	425.200000
810.017639	425.100000
810.053040	423.100000
810.088501	419.600000
810.123901	420.100000
810.159424	419.200000
810.194885	414.300000
810.230286	415.200000
810.265747	414.400000
810.301208	410.000000
810.336609	415.900000
810.372070	407.200000
810.407532	409.600000
810.442932	410.300000
810.478394	414.400000
810.513794	408.700000
810.549255	406.400000
810.584717	402.400000
810.620117	396.800000
810.655518	400.000000
810.690979	398.900000
810.726379	399.400000
810.761841	391.200000
810.797302	390.100000
810.832642	389.000000
810.868103	399.500000
810.903564	390.500000
810.938904	396.100000
810.974365	384.800000
811.009827	387.200000
811.045166	380.800000
811.080627	377.900000
811.115967	378.200000
811.151428	383.800000
811.186829	379.200000
811.222229	382.900000
811.257629	374.000000
811.293091	379.200000
811.328430	383.000000
811.363892	380.500000
811.399292	380.700000
811.434631	377.700000
811.470093	376.200000
811.505493	375.100000
811.540833	373.000000
811.576294	376.500000
811.611694	372.500000
811.647034	370.400000
811.682434	373.200000
811.717773	372.400000
811.753235	373.900000
811.788635	370.100000
811.823975	367.800000
811.859375	373.800000
811.894775	364.600000
811.930115	368.000000
811.965515	364.600000
812.000916	364.200000
812.036255	360.000000
812.071655	365.300000
812.106995	360.100000
812.142395	360.900000
812.177795	365.700000
812.213196	362.700000
812.248474	363.200000
812.283875	356.100000
812.319214	356.700000
812.354614	356.200000
812.390015	352.000000
812.425293	352.400000
812.460693	354.400000
812.496094	351.100000
812.531433	347.300000
812.566772	346.300000
812.602173	349.500000
812.637451	346.900000
812.672852	343.900000
812.708191	344.100000
812.743530	339.700000
812.778931	335.500000
812.814270	337.600000
812.849609	341.100000
812.884949	340.200000
812.920227	335.500000
812.955627	345.300000
812.990967	336.900000
813.026306	333.000000
813.061646	323.500000
813.096985	323.500000
813.132324	321.700000
813.167664	324.700000
813.203003	328.100000
813.238281	318.300000
813.273682	317.700000
813.308960	317.400000
813.344299	316.700000
813.379639	320.300000
813.414978	317.900000
813.450256	319.000000
813.485596	317.100000
813.520874	310.700000
813.556213	312.100000
813.591614	317.800000
813.626831	309.500000
813.662170	314.100000
813.697510	316.900000
813.732788	310.800000
813.768127	310.800000
813.803467	310.100000
813.838745	306.400000
813.874084	310.800000
813.909363	308.500000
813.944641	310.500000
813.979980	300.800000
814.015320	304.700000
814.050598	301.500000
814.085876	303.700000
814.121155	300.000000
814.156494	301.200000
814.191772	302.700000
814.227051	297.100000
814.262390	299.100000
814.297668	300.300000
814.332947	298.400000
814.368225	292.800000
814.403564	295.500000
814.438782	295.000000
814.474121	296.300000
814.509338	292.700000
814.544617	296.600000
814.579956	288.600000
814.615173	299.400000
814.650513	293.100000
814.685791	290.200000
814.721008	292.300000
814.756348	290.300000
814.791626	287.300000
814.826843	289.400000
814.862122	287.400000
814.897400	285.000000
814.932678	285.300000
814.967957	286.000000
815.003235	284.300000
815.038452	282.900000
815.073730	280.100000
815.108948	287.900000
815.144226	285.300000
815.179504	289.200000
815.214722	274.900000
815.250000	275.300000
815.285278	279.500000
815.320496	277.400000
815.355774	277.700000
815.391052	279.500000
815.426270	277.000000
815.461487	273.700000
815.496765	271.300000
815.531982	271.100000
815.567261	271.400000
815.602539	278.100000
815.637695	273.600000
815.672974	275.100000
815.708191	275.800000
815.743408	276.300000
815.778687	268.100000
815.813904	275.700000
815.849121	264.800000
815.884399	266.000000
815.919556	265.700000
815.954834	264.400000
815.990051	267.300000
816.025269	269.800000
816.060486	264.300000
816.095703	261.300000
816.130920	263.400000
816.166199	260.100000
816.201416	262.300000
816.236572	263.000000
816.271851	259.400000
816.307007	263.300000
816.342224	256.300000
816.377441	257.100000
816.412659	254.400000
816.447876	259.600000
816.483093	254.800000
816.518250	255.000000
816.553467	252.100000
816.588745	257.000000
816.623901	250.300000
816.659119	246.500000
816.694275	251.200000
816.729492	246.200000
816.764709	276.000000
816.799927	243.800000
816.835083	247.800000
816.870300	241.800000
816.905457	246.500000
816.940674	247.800000
816.975830	242.600000
817.010986	242.600000
817.046204	242.200000
817.081421	238.500000
817.116577	238.700000
817.151733	243.100000
817.186951	243.900000
817.222107	242.700000
817.257324	244.500000
817.292419	243.500000
817.327637	237.500000
817.362854	238.600000
817.398010	235.600000
817.433167	237.400000
817.468323	236.100000
817.503479	237.800000
817.538635	244.700000
817.573853	237.600000
817.608948	236.500000
817.644165	233.700000
817.679321	231.800000
817.714478	231.400000
817.749634	232.700000
817.784790	241.100000
817.819946	237.000000
817.855103	224.600000
817.890198	228.500000
817.925415	224.300000
817.960571	231.000000
817.995667	231.400000
818.030823	229.600000
818.066040	227.100000
818.101135	227.800000
818.136292	227.400000
818.171448	222.600000
818.206543	226.400000
818.241699	227.900000
818.276855	226.400000
818.311951	224.000000
818.347107	222.000000
818.382263	225.700000
818.417358	227.400000
818.452515	227.000000
818.487610	227.800000
818.522766	219.800000
818.557922	229.600000
818.593018	223.500000
818.628113	223.300000
818.663269	218.800000
818.698364	222.100000
818.733521	219.300000
818.768677	221.400000
818.803711	217.400000
818.838867	215.900000
818.874023	217.300000
818.909058	215.900000
818.944214	214.400000
818.979370	218.000000
819.014404	217.100000
819.049561	214.100000
819.084595	217.400000
819.119751	211.400000
819.154846	217.500000
819.189941	213.300000
819.225037	212.500000
819.260193	207.600000
819.295227	208.300000
819.330322	206.300000
819.365479	206.500000
819.400513	239.100000
819.435608	204.500000
819.470764	204.300000
819.505798	204.800000
819.540894	205.600000
819.575989	204.600000
819.611084	209.300000
819.646179	213.300000
819.681213	207.100000
819.716309	205.800000
819.751404	204.100000
819.786438	210.700000
819.821533	202.500000
819.856628	203.900000
819.891663	206.000000
819.926758	213.400000
819.961853	209.000000
819.996887	201.200000
820.031982	204.400000
820.067017	204.900000
820.102112	236.400000
820.137207	200.500000
820.172302	210.600000
820.207275	202.200000
820.242371	198.300000
820.277405	201.300000
820.312500	200.400000
820.347534	201.200000
820.382568	203.800000
820.417664	199.700000
820.452759	198.600000
820.487732	199.500000
820.522827	198.200000
820.557861	196.100000
820.592896	198.500000
820.627930	198.500000
820.662964	195.700000
820.698059	200.100000
820.733093	196.600000
820.768127	200.500000
820.803162	196.800000
820.838196	194.800000
820.873230	196.500000
820.908264	197.700000
820.943298	195.100000
820.978333	199.300000
821.013367	195.700000
821.048401	200.300000
821.083435	200.200000
821.118469	191.000000
821.153503	198.500000
821.188477	196.400000
821.223511	192.300000
821.258484	195.700000
821.293579	194.900000
821.328613	191.000000
821.363647	193.700000
821.398621	191.400000
821.433655	192.900000
821.468628	202.500000
821.503662	193.100000
821.538696	194.900000
821.573669	189.000000
821.608704	195.000000
821.643677	193.100000
821.678650	195.500000
821.713684	199.200000
821.748718	192.300000
821.783691	193.700000
821.818726	192.700000
821.853638	195.500000
821.888672	191.700000
821.923706	192.600000
821.958618	189.900000
821.993652	191.800000
822.028687	195.500000
822.063599	199.700000
822.098633	192.300000
822.133667	190.400000
822.168579	192.600000
822.203613	192.500000
822.238586	190.100000
822.273560	195.500000
822.308533	190.800000
822.343567	190.600000
822.378479	192.200000
822.413452	191.500000
822.448425	188.700000
822.483398	194.700000
822.518372	193.900000
822.553345	190.000000
822.588318	196.300000
822.623291	189.800000
822.658203	190.100000
822.693237	191.800000
822.728210	187.800000
822.763123	190.500000
822.798096	188.100000
822.833069	188.500000
822.867981	188.800000
822.902954	191.400000
822.937927	192.100000
822.972900	197.700000
823.007874	185.800000
823.042725	192.800000
823.077698	199.000000
823.112671	187.600000
823.147583	189.600000
823.182556	191.200000
823.217529	194.000000
823.252441	187.400000
823.287415	198.500000
823.322388	192.700000
823.357239	190.200000
823.392212	195.800000
823.427185	194.800000
823.462097	185.700000
823.497009	191.800000
823.531982	188.700000
823.566895	190.000000
823.601807	186.400000
823.636719	189.500000
823.671631	191.200000
823.706604	187.300000
823.741455	191.200000
823.776428	186.100000
823.811340	190.700000
823.846252	196.200000
823.881165	195.500000
823.916138	190.600000
823.950989	196.000000
823.985901	187.900000
824.020813	189.000000
824.055725	189.300000
824.090637	185.500000
824.125610	192.300000
824.160461	190.900000
824.195374	190.100000
824.230225	190.500000
824.265198	184.600000
824.300110	187.600000
824.334961	195.600000
824.369873	184.000000
824.404785	190.600000
824.439636	193.500000
824.474548	184.300000
824.509460	181.600000
824.544312	192.400000
824.579224	190.200000
824.614075	190.000000
824.648987	187.100000
824.683899	186.700000
824.718811	184.600000
824.753662	189.600000
824.788574	192.400000
824.823364	188.500000
824.858276	185.400000
824.893188	190.400000
824.928040	190.500000
824.962952	187.800000
824.997803	191.200000
825.032654	188.000000
825.067566	188.900000
825.102417	185.000000
825.137268	187.100000
825.172119	186.800000
825.206970	185.900000
825.241882	185.600000
825.276733	184.300000
825.311646	185.100000
825.346436	183.600000
825.381348	181.600000
825.416138	186.900000
825.450989	182.700000
825.485901	180.000000
825.520691	180.100000
825.555542	181.800000
825.590454	185.000000
825.625244	180.000000
825.660095	190.700000
825.695007	188.400000
825.729797	185.800000
825.764648	181.100000
825.799438	183.900000
825.834290	185.200000
825.869202	179.400000
825.903992	184.500000
825.938843	182.300000
825.973694	179.600000
826.008484	190.300000
826.043335	180.400000
826.078186	177.200000
826.112976	186.200000
826.147827	187.200000
826.182678	189.100000
826.217468	177.500000
826.252319	188.100000
826.287109	180.400000
826.321899	183.800000
826.356750	183.000000
826.391541	177.900000
826.426392	184.300000
826.461182	181.400000
826.495972	179.300000
826.530823	175.200000
826.565613	183.600000
826.600403	178.000000
826.635254	184.700000
826.670044	175.700000
826.704834	176.800000
826.739685	178.100000
826.774475	183.200000
826.809265	181.600000
826.844055	179.600000
826.878906	185.700000
826.913635	183.000000
826.948425	183.900000
826.983215	183.800000
827.018005	183.600000
827.052856	180.500000
827.087585	183.800000
827.122375	177.800000
827.157227	180.500000
827.191956	192.700000
827.226746	178.600000
827.261536	185.000000
827.296265	177.200000
827.331116	179.800000
827.365906	182.300000
827.400635	178.700000
827.435425	175.600000
827.470215	185.300000
827.504944	179.600000
827.539734	183.700000
827.574463	181.300000
827.609253	187.300000
827.644043	180.500000
827.678772	183.600000
827.713562	181.400000
827.748352	180.100000
827.783081	178.600000
827.817871	183.100000
827.852600	179.300000
827.887329	181.200000
827.922119	174.600000
827.956848	182.200000
827.991638	190.700000
828.026367	181.500000
828.061157	181.700000
828.095886	181.000000
828.130615	195.000000
828.165344	174.300000
828.200073	180.900000
828.234863	180.100000
828.269592	181.400000
828.304321	183.700000
828.339111	183.200000
828.373779	176.500000
828.408569	185.500000
828.443298	184.400000
828.477966	180.100000
828.512756	181.300000
828.547424	179.100000
828.582214	179.100000
828.616943	180.200000
828.651672	180.200000
828.686340	183.900000
828.721130	177.400000
828.755798	182.200000
828.790527	181.300000
828.825256	181.400000
828.859924	181.400000
828.894714	185.600000
828.929443	187.100000
828.964111	179.500000
828.998840	183.800000
829.033569	179.700000
829.068237	180.700000
829.102966	180.600000
829.137634	182.900000
829.172363	183.300000
829.207092	181.800000
829.241821	180.200000
829.276489	177.400000
829.311157	180.700000
829.345825	180.700000
829.380554	186.000000
829.415283	179.800000
829.449951	176.000000
829.484619	186.800000
829.519348	184.100000
829.554016	181.500000
829.588745	181.600000
829.623413	177.500000
829.658081	187.600000
829.692749	177.700000
829.727417	184.400000
829.762146	182.500000
829.796814	178.700000
829.831482	180.800000
829.866150	181.300000
829.900879	181.300000
829.935486	181.400000
829.970154	178.400000
830.004883	189.700000
830.039490	182.900000
830.074219	178.100000
830.108887	183.000000
830.143494	179.600000
830.178223	177.900000
830.212891	179.800000
830.247498	182.200000
830.282166	186.900000
830.316772	186.000000
830.351501	179.400000
830.386169	181.300000
830.420776	180.000000
830.455444	182.800000
830.490112	179.300000
830.524719	177.800000
830.559387	182.900000
830.594055	184.100000
830.628662	182.100000
830.663330	182.600000
830.697998	187.500000
830.732605	182.400000
830.767273	182.300000
830.801941	180.200000
830.836487	187.400000
830.871155	181.500000
830.905762	182.100000
830.940430	177.500000
830.975098	180.100000
831.009644	182.400000
831.044312	188.200000
831.078979	182.800000
831.113525	175.800000
831.148193	182.000000
831.182861	181.200000
831.217407	182.300000
831.252075	191.700000
831.286621	179.100000
831.321289	177.800000
831.355896	181.100000
831.390564	186.000000
831.425110	181.000000
831.459778	186.400000
831.494324	189.900000
831.528931	183.000000
831.563599	185.500000
831.598145	177.700000
831.632751	179.500000
831.667419	181.000000
831.701965	182.800000
831.736572	183.500000
831.771179	177.300000
831.805786	180.100000
831.840393	187.300000
831.874939	176.800000
831.909546	184.400000
831.944153	176.200000
831.978760	182.400000
832.013306	178.600000
832.047913	185.600000
832.082458	188.100000
832.117065	178.600000
832.151672	188.000000
832.186218	182.700000
832.220825	184.500000
832.255432	176.600000
832.289978	181.500000
832.324585	182.200000
832.359192	183.700000
832.393677	182.100000
832.428284	181.900000
832.462830	181.000000
832.497437	180.000000
832.531982	184.100000
832.566589	180.100000
832.601135	182.400000
832.635681	177.000000
832.670227	181.000000
832.704773	186.800000
832.739380	182.600000
832.773926	181.000000
832.808472	180.200000
832.843079	181.100000
832.877563	183.200000
832.912170	180.800000
832.946716	177.200000
832.981201	184.800000
833.015808	184.800000
833.050293	179.800000
833.084839	178.100000
833.119446	181.100000
833.153992	184.800000
833.188477	179.600000
833.223022	181.300000
833.257568	182.100000
833.292114	187.300000
833.326660	189.900000
833.361145	179.600000
833.395691	175.100000
833.430237	182.400000
833.464783	182.500000
833.499329	180.000000
833.533875	179.100000
833.568359	185.300000
833.602905	185.300000
833.637390	185.700000
833.671875	179.900000
833.706421	180.700000
833.740906	179.100000
833.775452	174.800000
833.809998	179.700000
833.844482	187.100000
833.879028	182.100000
833.913513	181.100000
833.947998	183.000000
833.982544	180.200000
834.017090	178.800000
834.051514	176.000000
834.086060	183.900000
834.120544	180.900000
834.155029	182.300000
834.189575	180.800000
834.223999	183.000000
834.258545	183.100000
834.293030	181.400000
834.327515	181.500000
834.362000	179.800000
834.396545	182.300000
834.430969	179.900000
834.465454	183.900000
834.500000	176.800000
834.534424	182.400000
834.568970	176.100000
834.603455	174.900000
834.637878	178.500000
834.672363	181.900000
834.706909	181.700000
834.741333	180.800000
834.775818	177.700000
834.810242	176.800000
834.844727	182.200000
834.879211	180.600000
834.913635	182.200000
834.948181	182.700000
834.982666	183.900000
835.017090	178.300000
835.051575	184.400000
835.086060	179.500000
835.120483	184.600000
835.154907	183.400000
835.189331	181.600000
835.223816	184.100000
835.258301	177.800000
835.292786	178.300000
835.327209	183.600000
835.361694	179.700000
835.396057	179.600000
835.430542	183.200000
835.465027	181.600000
835.499390	178.600000
835.533875	208.200000
835.568359	179.800000
835.602722	176.900000
835.637207	182.200000
835.671692	177.700000
835.706055	196.400000
835.740540	182.700000
835.774902	182.200000
835.809387	182.600000
835.843811	178.000000
835.878235	185.100000
835.912659	177.300000
835.947083	179.800000
835.981506	182.300000
836.015930	176.200000
836.050354	184.300000
836.084778	185.400000
836.119202	185.100000
836.153625	193.400000
836.187988	179.500000
836.222473	178.200000
836.256897	183.300000
836.291260	178.200000
836.325684	183.400000
836.360046	178.000000
836.394470	181.300000
836.428894	186.500000
836.463318	179.400000
836.497681	183.400000
836.532104	186.000000
836.566467	181.300000
836.600891	181.400000
836.635315	185.200000
836.669678	183.600000
836.704102	185.300000
836.738525	183.800000
836.772888	175.100000
836.807251	179.000000
836.841675	182.000000
836.876038	179.100000
836.910461	179.500000
836.944763	184.700000
836.979187	178.600000
837.013611	185.700000
837.047974	177.000000
837.082336	190.700000
837.116699	182.900000
837.151062	182.200000
837.185486	177.700000
837.219849	179.700000
837.254211	184.900000
837.288574	181.900000
837.322937	177.400000
837.357300	173.600000
837.391663	190.200000
837.426086	184.500000
837.460388	181.500000
837.494751	183.300000
837.529114	180.800000
837.563477	185.700000
837.597839	182.600000
837.632141	180.000000
837.666565	179.700000
837.700928	183.100000
837.735229	182.600000
837.769592	183.000000
837.803955	184.500000
837.838257	179.900000
837.872620	179.700000
837.906982	187.400000
837.941284	182.400000
837.975647	182.800000
838.010010	186.700000
838.044312	180.400000
838.078674	180.700000
838.112976	180.900000
838.147339	184.500000
838.181702	180.900000
838.216003	187.900000
838.250366	182.900000
838.284668	184.000000
838.318970	176.900000
838.353333	180.900000
838.387634	181.200000
838.421936	181.900000
838.456299	181.200000
838.490601	187.300000
838.524902	184.200000
838.559265	186.000000
838.593567	185.000000
838.627869	177.900000
838.662170	182.400000
838.696472	178.800000
838.730774	179.300000
838.765137	183.400000
838.799377	172.800000
838.833740	183.200000
838.868042	186.200000
838.902283	177.000000
838.936646	187.200000
838.970947	181.900000
839.005188	187.000000
839.039551	176.700000
839.073792	187.100000
839.108093	181.000000
839.142395	189.200000
839.176697	176.200000
839.210937	183.800000
839.245300	189.100000
839.279541	177.300000
839.313843	178.800000
839.348145	183.800000
839.382385	183.800000
839.416687	185.200000
839.450989	181.500000
839.485229	182.600000
839.519531	178.500000
839.553833	185.200000
839.588013	180.000000
839.622314	184.700000
839.656555	182.600000
839.690857	181.800000
839.725159	177.800000
839.759460	181.700000
839.793640	179.300000
839.827942	182.400000
839.862183	177.900000
839.896423	182.700000
839.930725	191.400000
839.964966	189.200000
839.999207	186.200000
840.033508	187.700000
840.067688	179.600000
840.101990	187.300000
840.136230	181.200000
840.170471	188.400000
840.204712	178.100000
840.238953	179.300000
840.273193	184.000000
840.307434	185.100000
840.341736	179.900000
840.375916	178.600000
840.410217	179.100000
840.444397	185.000000
840.478638	184.000000
840.512878	186.900000
840.547119	183.100000
840.581360	184.500000
840.615601	188.300000
840.649780	191.700000
840.684021	181.500000
840.718262	188.400000
840.752441	187.700000
840.786682	182.100000
840.820862	182.000000
840.855103	188.200000
840.889343	182.800000
840.923584	185.900000
840.957764	183.800000
840.992004	183.000000
841.026184	192.700000
841.060425	181.000000
841.094666	179.700000
841.128845	184.500000
841.163025	182.500000
841.197266	184.300000
841.231445	181.600000
841.265686	182.900000
841.299866	178.900000
841.334045	185.800000
841.368286	182.100000
841.402405	187.300000
841.436646	185.400000
841.470825	179.600000
841.505005	180.600000
841.539185	178.500000
841.573425	181.600000
841.607544	181.200000
841.641785	183.300000
841.675964	179.400000
841.710144	182.800000
841.744324	181.500000
841.778503	182.000000
841.812683	179.400000
841.846863	188.500000
841.881042	187.300000
841.915222	180.300000
841.949402	191.400000
841.983521	176.000000
842.017700	181.700000
842.051880	183.000000
842.086060	185.400000
842.120239	183.200000
842.154419	181.100000
842.188538	182.700000
842.222717	180.000000
842.256897	189.700000
842.291016	182.400000
842.325195	183.400000
842.359375	189.500000
842.393494	188.000000
842.427673	182.600000
842.461853	183.700000
842.495911	189.600000
842.530090	183.100000
842.564209	180.700000
842.598389	182.400000
842.632568	183.100000
842.666626	182.700000
842.700806	181.000000
842.734985	179.700000
842.769043	184.200000
842.803223	180.800000
842.837402	181.500000
842.871460	179.300000
842.905640	190.800000
842.939697	178.200000
842.973877	183.000000
843.007996	186.500000
843.042175	190.000000
843.076233	179.700000
843.110413	186.300000
843.144470	187.700000
843.178589	185.500000
843.212769	179.800000
843.246826	185.400000
843.280945	180.700000
843.315125	184.000000
843.349182	179.200000
843.383301	187.800000
843.417419	190.400000
843.451538	183.400000
843.485657	180.700000
843.519714	182.600000
843.553833	182.200000
843.587952	180.100000
843.622070	181.700000
843.656128	185.000000
843.690247	180.900000
843.724304	182.800000
843.758423	184.300000
843.792542	181.800000
843.826599	182.900000
843.860718	180.400000
843.894836	177.600000
843.928894	182.300000
843.963013	182.400000
843.997070	179.500000
844.031128	179.000000
844.065247	184.300000
844.099304	184.800000
844.133362	183.500000
844.167480	184.100000
844.201599	186.200000
844.235596	183.900000
844.269714	183.700000
844.303711	183.600000
844.337830	176.800000
844.371948	186.100000
844.405945	182.300000
844.440063	179.100000
844.474121	192.400000
844.508118	181.200000
844.542236	183.200000
844.576294	182.900000
844.610352	178.900000
844.644409	181.000000
844.678406	176.700000
844.712524	186.700000
844.746582	187.800000
844.780640	183.300000
844.814636	182.500000
844.848755	191.700000
844.882751	181.900000
844.916809	186.200000
844.950867	185.000000
844.984863	188.600000
845.018921	181.700000
845.052979	181.100000
845.086975	183.000000
845.121033	178.600000
845.155090	180.500000
845.189087	187.400000
845.223145	180.700000
845.257141	184.600000
845.291199	185.900000
845.325256	187.000000
845.359253	184.700000
845.393250	193.700000
845.427307	181.700000
845.461304	185.000000
845.495361	182.900000
845.529358	190.200000
845.563354	183.000000
845.597412	178.900000
845.631409	189.600000
845.665405	187.700000
845.699463	185.500000
845.733459	181.400000
845.767456	190.800000
845.801453	180.200000
845.835449	186.400000
845.869446	184.600000
845.903503	185.200000
845.937439	179.300000
845.971497	188.100000
846.005493	178.300000
846.039429	186.800000
846.073486	190.400000
846.107483	182.600000
846.141418	180.200000
846.175476	184.400000
846.209473	187.200000
846.243408	180.100000
846.277405	183.300000
846.311401	181.200000
846.345337	182.300000
846.379395	187.700000
846.413330	180.100000
846.447327	192.600000
846.481323	180.200000
846.515259	181.800000
846.549255	182.400000
846.583252	185.600000
846.617187	180.800000
846.651184	184.900000
846.685120	182.000000
846.719055	190.300000
846.753052	185.800000
846.786987	186.500000
846.820984	178.800000
846.854980	187.600000
846.888916	180.700000
846.922852	185.200000
846.956848	187.100000
846.990723	181.600000
847.024719	185.300000
847.058716	182.100000
847.092590	187.800000
847.126587	184.400000
847.160522	180.800000
847.194458	186.900000
847.228455	180.600000
847.262390	179.800000
847.296265	180.000000
847.330261	186.400000
847.364136	181.500000
847.398132	180.100000
847.432068	183.200000
847.466003	182.100000
847.499939	182.100000
847.533875	183.800000
847.567749	182.600000
847.601746	181.900000
847.635681	185.000000
847.669556	176.600000
847.703491	188.500000
847.737427	192.300000
847.771301	179.600000
847.805237	185.900000
847.839233	184.300000
847.873108	182.100000
847.907043	183.000000
847.940918	186.700000
847.974854	185.400000
848.008789	186.400000
848.042664	182.800000
848.076538	184.100000
848.110474	183.600000
848.144348	182.100000
848.178284	178.400000
848.212219	184.900000
848.246094	182.000000
848.279968	184.200000
848.313904	185.800000
848.347778	183.600000
848.381653	183.000000
848.415588	181.300000
848.449463	180.900000
848.483337	184.600000
848.517212	189.200000
848.551086	183.200000
848.585022	179.600000
848.618835	191.300000
848.652771	180.200000
848.686646	180.100000
848.720520	188.400000
848.754395	183.400000
848.788330	185.800000
848.822144	185.700000
848.856018	181.200000
848.889954	190.500000
848.923767	179.600000
848.957642	181.400000
848.991577	184.200000
849.025391	182.900000
849.059265	181.300000
849.093079	179.100000
849.126953	179.100000
849.160828	186.100000
849.194641	183.100000
849.228577	180.900000
849.262451	181.000000
849.296265	183.100000
849.330139	179.600000
849.364014	183.200000
849.397827	182.300000
849.431702	185.000000
849.465515	185.300000
849.499329	178.500000
849.533203	179.900000
849.567078	176.400000
849.600891	184.400000
849.634766	182.500000
849.668518	185.400000
849.702393	183.500000
849.736267	177.600000
849.770020	189.800000
849.803894	184.100000
849.837769	183.300000
849.871521	183.600000
849.905396	186.300000
849.939270	180.200000
849.973022	183.000000
850.006897	185.200000
850.040710	185.200000
850.074524	185.400000
850.108337	182.900000
850.142151	187.300000
850.175964	187.500000
850.209778	182.100000
850.243530	175.700000
850.277405	186.500000
850.311218	183.800000
850.344971	181.400000
850.378845	187.500000
850.412659	180.500000
850.446411	182.800000
850.480225	182.000000
850.514038	186.400000
850.547791	185.200000
850.581665	181.800000
850.615417	180.400000
850.649231	184.100000
850.683044	181.400000
850.716858	181.900000
850.750610	184.800000
850.784424	184.500000
850.818176	179.900000
850.851929	182.000000
850.885742	181.700000
850.919495	182.400000
850.953308	189.500000
850.987122	188.900000
851.020874	179.000000
851.054626	178.400000
851.088440	185.400000
851.122192	185.500000
851.156006	184.500000
851.189697	182.500000
851.223511	178.200000
851.257263	186.700000
851.291077	186.700000
851.324829	182.700000
851.358582	181.800000
851.392334	181.700000
851.426086	181.500000
851.459900	188.200000
851.493591	183.600000
851.527344	183.500000
851.561157	184.400000
851.594849	183.800000
851.628662	184.800000
851.662415	190.900000
851.696106	185.200000
851.729858	186.600000
851.763611	179.600000
851.797363	184.200000
851.831116	180.000000
851.864868	185.000000
851.898560	187.800000
851.932312	181.100000
851.966064	185.900000
851.999817	183.200000
852.033569	181.700000
852.067261	187.700000
852.101013	180.300000
852.134766	182.900000
852.168457	176.100000
852.202209	186.500000
852.235901	180.000000
852.269592	184.900000
852.303345	187.800000
852.337036	186.200000
852.370789	184.100000
852.404541	185.200000
852.438171	179.200000
852.471924	183.500000
852.505676	178.400000
852.539307	186.000000
852.573059	180.300000
852.606812	182.400000
852.640442	181.000000
852.674194	188.100000
852.707886	189.700000
852.741577	187.500000
852.775269	180.300000
852.809021	184.900000
852.842651	183.700000
852.876404	188.400000
852.910034	184.900000
852.943787	188.200000
852.977478	184.500000
853.011108	180.700000
853.044861	179.400000
853.078552	187.700000
853.112183	184.200000
853.145874	185.600000
853.179626	176.300000
853.213257	184.100000
853.246948	180.400000
853.280640	189.100000
853.314270	181.800000
853.347961	187.800000
853.381653	185.800000
853.415283	188.600000
853.448975	181.000000
853.482605	184.400000
853.516296	183.700000
853.549988	179.500000
853.583618	184.200000
853.617310	184.500000
853.651001	185.300000
853.684631	179.300000
853.718323	181.400000
853.751953	188.400000
853.785583	177.700000
853.819275	183.500000
853.852966	184.000000
853.886536	178.000000
853.920227	178.200000
853.953918	185.400000
853.987488	182.600000
854.021179	185.500000
854.054749	189.300000
854.088440	184.900000
854.122131	179.400000
854.155701	185.400000
854.189331	181.700000
854.223022	183.300000
854.256592	184.800000
854.290283	180.600000
854.323914	184.900000
854.357483	184.100000
854.391174	186.000000
854.424744	188.400000
854.458374	185.000000
854.492065	192.700000
854.525696	186.000000
854.559265	187.200000
854.592896	193.400000
854.626465	183.600000
854.660095	183.200000
854.693787	185.400000
854.727356	183.300000
854.760986	185.800000
854.794617	185.100000
854.828186	182.000000
854.861816	185.600000
854.895447	185.800000
854.929016	184.100000
854.962585	184.000000
854.996155	191.000000
855.029785	183.100000
855.063416	184.700000
855.097046	186.200000
855.130615	180.400000
855.164185	186.700000
855.197754	182.300000
855.231384	185.700000
855.264954	182.000000
855.298523	185.600000
855.332153	183.400000
855.365723	187.900000
855.399292	179.900000
855.432922	182.600000
855.466492	183.700000
855.500061	181.000000
855.533630	180.500000
855.567200	186.000000
855.600769	185.700000
855.634338	188.000000
855.667969	182.900000
855.701477	181.200000
855.735046	179.400000
855.768616	178.000000
855.802185	183.700000
855.835754	193.500000
855.869324	177.400000
855.902893	183.800000
855.936401	186.700000
855.969971	185.000000
856.003540	179.100000
856.037109	186.500000
856.070618	181.800000
856.104187	180.300000
856.137695	181.000000
856.171265	176.600000
856.204834	184.200000
856.238403	187.200000
856.271912	182.200000
856.305481	185.700000
856.338989	179.600000
856.372559	186.500000
856.406128	186.100000
856.439636	186.300000
856.473145	181.500000
856.506653	188.800000
856.540222	183.200000
856.573792	188.400000
856.607300	186.500000
856.640808	178.300000
856.674377	183.100000
856.707825	215.500000
856.741394	188.100000
856.774902	178.700000
856.808472	179.200000
856.841980	185.500000
856.875488	188.200000
856.908936	178.400000
856.942505	182.100000
856.976013	181.000000
857.009521	180.300000
857.043030	183.500000
857.076477	181.600000
857.110046	188.100000
857.143555	184.400000
857.177063	185.000000
857.210571	181.900000
857.244080	177.400000
857.277527	186.300000
857.311035	181.700000
857.344543	187.800000
857.378052	180.700000
857.411499	188.100000
857.445068	188.200000
857.478516	183.600000
857.512024	179.500000
857.545532	182.700000
857.578979	184.700000
857.612427	185.700000
857.645874	180.800000
857.679382	185.200000
857.712891	186.200000
857.746399	182.800000
857.779846	186.600000
857.813354	188.100000
857.846741	183.100000
857.880249	182.000000
857.913757	184.200000
857.947266	184.700000
857.980652	186.900000
858.014160	183.600000
858.047546	182.000000
858.081055	182.700000
858.114563	193.200000
858.147949	178.200000
858.181458	185.700000
858.214844	182.900000
858.248352	177.100000
858.281799	185.700000
858.315308	192.700000
858.348694	185.900000
858.382141	191.000000
858.415588	187.200000
858.449036	184.900000
858.482483	183.900000
858.515930	181.600000
858.549377	184.400000
858.582825	188.000000
858.616211	185.900000
858.649658	186.100000
858.683105	177.800000
858.716553	182.300000
858.750000	178.900000
858.783386	181.400000
858.816833	177.200000
858.850281	183.700000
858.883728	183.500000
858.917114	184.600000
858.950562	189.000000
858.983948	189.500000
859.017395	186.200000
859.050781	182.300000
859.084167	179.600000
859.117615	181.300000
859.151062	185.000000
859.184448	180.700000
859.217834	181.900000
859.251282	180.500000
859.284668	179.700000
859.318054	177.700000
859.351440	182.800000
859.384888	189.900000
859.418274	177.900000
859.451721	177.800000
859.485046	185.200000
859.518494	184.900000
859.551819	181.600000
859.585266	186.000000
859.618652	188.200000
859.652039	179.100000
859.685425	180.500000
859.718811	179.100000
859.752197	177.000000
859.785583	188.500000
859.819031	189.700000
859.852356	184.300000
859.885742	180.600000
859.919067	182.600000
859.952454	181.600000
859.985901	187.700000
860.019287	182.100000
860.052612	0.000000
860.085999	0.000000
860.119324	0.000000
860.152710	0.000000
860.186096	0.000000
860.219421	0.000000
860.252808	0.000000
860.286133	0.000000
860.319519	0.000000
860.352905	0.000000
860.386292	0.000000
860.419617	0.000000
860.452942	0.000000
860.486267	0.000000
860.519653	0.000000
860.553040	0.000000
860.586365	0.000000
860.619690	0.000000
860.653076	0.000000
860.686340	0.000000
860.719727	0.000000
860.753113	0.000000
860.786377	0.000000
860.819763	0.000000
860.853027	0.000000
860.886414	0.000000
860.919739	0.000000
860.953125	0.000000
860.986389	0.000000
861.019714	0.000000
861.053040	0.000000
861.086365	0.000000
861.119690	0.000000
861.153076	0.000000
861.186340	0.000000
861.219666	0.000000
861.252930	0.000000
861.286316	0.000000
861.319641	0.000000
861.352905	0.000000
861.386230	0.000000
861.419495	0.000000
861.452820	0.000000
861.486145	0.000000
861.519470	0.000000
861.552734	0.000000
861.586060	0.000000
861.619324	0.000000
861.652649	0.000000
861.685974	0.000000
861.719238	0.000000
861.752563	0.000000
861.785828	0.000000
861.819092	0.000000
861.852417	0.000000
861.885742	0.000000
861.918945	0.000000
861.952271	0.000000
861.985535	0.000000
862.018799	0.000000
862.052124	0.000000
862.085449	0.000000
862.118652	0.000000
862.151978	0.000000
862.185181	0.000000
862.218506	0.000000
862.251770	0.000000
862.285034	0.000000
862.318298	0.000000
862.351562	0.000000
862.384827	0.000000
862.418091	0.000000
862.451355	0.000000
862.484619	0.000000
862.517883	0.000000
862.551086	0.000000
862.584351	0.000000
862.617676	0.000000
862.650940	0.000000
862.684143	0.000000
862.717407	0.000000
862.750610	0.000000
862.783875	0.000000
862.817139	0.000000
862.850342	0.000000
862.883606	0.000000
862.916870	0.000000
862.950073	0.000000
862.983337	0.000000
863.016602	0.000000
863.049805	0.000000
863.083069	0.000000
863.116211	0.000000
863.149475	0.000000
863.182739	0.000000
863.216003	0.000000
863.249146	0.000000
863.282410	0.000000
863.315613	0.000000
863.348816	0.000000
863.382080	0.000000
863.415222	0.000000
863.448486	0.000000
863.481689	0.000000
863.514893	0.000000
863.548157	0.000000
863.581360	0.000000
863.614502	0.000000
863.647766	0.000000
863.680908	0.000000
863.714172	0.000000
863.747375	0.000000
863.780579	0.000000
863.813721	0.000000
863.846985	0.000000
863.880127	0.000000
863.913330	0.000000
863.946533	0.000000
863.979675	0.000000
864.012939	0.000000
