Model Number: SPM-001-M   
Serial Number: 10090201
Firmware Version: 004.17.6
Exposure Time: 300000.000000us
Data Taken on: 28-01-2021 10:57:24.466
Wavelength	Amplitude
733.770752	0.000000
733.808716	0.000000
733.846619	0.000000
733.884583	0.000000
733.922546	0.000000
733.960449	0.000000
733.998413	0.000000
734.036377	0.000000
734.074219	0.000000
734.112183	0.000000
734.150085	0.000000
734.188049	0.000000
734.226013	0.000000
734.263916	0.000000
734.301819	0.000000
734.339783	0.000000
734.377686	0.000000
734.415588	0.000000
734.453552	0.000000
734.491455	0.000000
734.529419	0.000000
734.567322	0.000000
734.605225	0.000000
734.643127	0.000000
734.681091	0.000000
734.718994	0.000000
734.756897	0.000000
734.794800	0.000000
734.832703	0.000000
734.870667	0.000000
734.908508	0.000000
734.946472	0.000000
734.984375	0.000000
735.022278	0.000000
735.060181	0.000000
735.098083	0.000000
735.135986	0.000000
735.173889	0.000000
735.211792	0.000000
735.249695	0.000000
735.287598	0.000000
735.325439	0.000000
735.363403	0.000000
735.401306	0.000000
735.439148	0.000000
735.477051	0.000000
735.515015	0.000000
735.552856	0.000000
735.590759	0.000000
735.628662	0.000000
735.666504	0.000000
735.704407	0.000000
735.742310	0.000000
735.780212	0.000000
735.818115	0.000000
735.856018	0.000000
735.893860	0.000000
735.931763	0.000000
735.969604	0.000000
736.007507	0.000000
736.045410	0.000000
736.083252	0.000000
736.121094	0.000000
736.158997	0.000000
736.196838	0.000000
736.234741	0.000000
736.272644	0.000000
736.310486	0.000000
736.348389	0.000000
736.386230	0.000000
736.424072	0.000000
736.461975	0.000000
736.499878	0.000000
736.537720	0.000000
736.575562	0.000000
736.613403	0.000000
736.651306	0.000000
736.689148	0.000000
736.726990	0.000000
736.764893	0.000000
736.802734	0.000000
736.840576	0.000000
736.878418	0.000000
736.916321	0.000000
736.954102	0.000000
736.992004	0.000000
737.029846	0.000000
737.067688	0.000000
737.105530	0.000000
737.143372	0.000000
737.181213	0.000000
737.219116	0.000000
737.256897	0.000000
737.294739	0.000000
737.332642	0.000000
737.370422	0.000000
737.408325	0.000000
737.446167	0.000000
737.483948	0.000000
737.521790	0.000000
737.559692	0.000000
737.597473	0.000000
737.635315	0.000000
737.673157	0.000000
737.710999	0.000000
737.748840	0.000000
737.786621	0.000000
737.824463	0.000000
737.862305	0.000000
737.900085	0.000000
737.937927	0.000000
737.975769	0.000000
738.013550	0.000000
738.051392	0.000000
738.089233	0.000000
738.127014	0.000000
738.164856	0.000000
738.202698	0.000000
738.240479	0.000000
738.278320	0.000000
738.316162	0.000000
738.353943	0.000000
738.391785	0.000000
738.429565	0.000000
738.467407	0.000000
738.505188	0.000000
738.542969	0.000000
738.580811	0.000000
738.618652	0.000000
738.656372	0.000000
738.694214	0.000000
738.732056	0.000000
738.769836	0.000000
738.807617	0.000000
738.845459	0.000000
738.883240	0.000000
738.921021	0.000000
738.958862	0.000000
738.996582	0.000000
739.034424	0.000000
739.072205	0.000000
739.109985	0.000000
739.147827	0.000000
739.185547	0.000000
739.223389	0.000000
739.261169	0.000000
739.298889	0.000000
739.336731	0.000000
739.374512	0.000000
739.412292	0.000000
739.450073	0.000000
739.487854	0.000000
739.525635	0.000000
739.563416	0.000000
739.601135	0.000000
739.638977	0.000000
739.676758	0.000000
739.714478	0.000000
739.752258	0.000000
739.790100	0.000000
739.827820	0.000000
739.865601	0.000000
739.903381	0.000000
739.941101	0.000000
739.978882	184.900000
740.016724	180.700000
740.054443	184.400000
740.092224	179.700000
740.130005	179.400000
740.167725	178.200000
740.205505	179.700000
740.243225	185.500000
740.281006	181.200000
740.318787	176.500000
740.356506	186.400000
740.394287	184.200000
740.432068	178.700000
740.469727	174.900000
740.507507	184.200000
740.545288	182.100000
740.583008	183.600000
740.620789	180.300000
740.658569	177.500000
740.696228	180.700000
740.734009	184.200000
740.771790	173.500000
740.809509	183.900000
740.847229	179.000000
740.884949	180.000000
740.922729	175.700000
740.960449	180.000000
740.998169	178.500000
741.035950	179.400000
741.073669	181.900000
741.111389	182.500000
741.149170	187.900000
741.186890	187.400000
741.224609	185.200000
741.262329	182.400000
741.300110	187.700000
741.337769	179.400000
741.375549	177.400000
741.413208	183.300000
741.450989	179.900000
741.488708	179.700000
741.526367	180.000000
741.564148	183.900000
741.601868	183.700000
741.639526	179.800000
741.677307	184.000000
741.715027	183.800000
741.752686	178.700000
741.790466	185.900000
741.828186	183.100000
741.865845	179.300000
741.903564	176.800000
741.941345	179.400000
741.979004	179.100000
742.016724	184.000000
742.054382	182.100000
742.092102	184.100000
742.129822	177.900000
742.167480	180.300000
742.205200	179.600000
742.242920	183.500000
742.280640	184.800000
742.318359	177.000000
742.356079	180.800000
742.393738	185.200000
742.431396	180.800000
742.469116	185.300000
742.506775	175.100000
742.544495	184.000000
742.582214	183.600000
742.619873	180.900000
742.657593	188.200000
742.695251	184.800000
742.732971	180.000000
742.770630	183.100000
742.808289	183.400000
742.846008	182.100000
742.883728	181.700000
742.921326	182.600000
742.959045	180.900000
742.996765	181.400000
743.034424	181.300000
743.072083	180.300000
743.109802	180.800000
743.147400	177.400000
743.185120	182.300000
743.222839	181.200000
743.260437	186.800000
743.298157	183.700000
743.335754	175.400000
743.373474	181.200000
743.411133	176.800000
743.448792	181.800000
743.486450	180.700000
743.524170	176.900000
743.561768	181.000000
743.599487	187.900000
743.637146	188.500000
743.674744	181.200000
743.712463	179.600000
743.750122	181.200000
743.787720	182.000000
743.825439	181.400000
743.863037	180.000000
743.900696	181.500000
743.938416	204.900000
743.976013	181.600000
744.013672	187.600000
744.051331	184.800000
744.088928	186.600000
744.126587	184.700000
744.164307	183.600000
744.201904	179.300000
744.239563	183.200000
744.277222	185.000000
744.314819	181.100000
744.352478	187.300000
744.390137	182.900000
744.427734	183.000000
744.465393	179.800000
744.502991	179.700000
744.540649	183.200000
744.578308	181.500000
744.615906	178.400000
744.653564	175.100000
744.691223	184.100000
744.728821	178.100000
744.766418	182.000000
744.804077	184.400000
744.841675	181.000000
744.879333	176.500000
744.916992	182.000000
744.954529	180.400000
744.992187	185.700000
745.029785	180.500000
745.067444	180.300000
745.105042	182.100000
745.142639	184.300000
745.180298	188.700000
745.217896	180.700000
745.255493	180.400000
745.293152	185.400000
745.330750	185.200000
745.368347	187.400000
745.405945	183.000000
745.443604	183.000000
745.481140	184.200000
745.518799	182.700000
745.556396	184.000000
745.593994	184.000000
745.631592	182.400000
745.669189	179.200000
745.706787	182.100000
745.744385	179.300000
745.781982	184.000000
745.819580	179.300000
745.857178	181.200000
745.894775	181.500000
745.932373	181.000000
745.969971	181.700000
746.007568	176.400000
746.045166	187.100000
746.082764	185.700000
746.120300	183.900000
746.157898	182.500000
746.195557	181.600000
746.233093	177.200000
746.270691	184.100000
746.308228	183.600000
746.345825	186.100000
746.383423	185.100000
746.420959	179.100000
746.458557	179.800000
746.496155	179.700000
746.533691	183.000000
746.571289	177.700000
746.608887	181.700000
746.646423	182.200000
746.684021	183.200000
746.721619	180.400000
746.759155	183.500000
746.796753	176.500000
746.834351	177.700000
746.871826	179.400000
746.909424	186.200000
746.946960	181.800000
746.984558	181.800000
747.022156	179.800000
747.059631	188.100000
747.097229	184.000000
747.134827	180.600000
747.172363	186.000000
747.209900	185.700000
747.247498	177.500000
747.285034	186.500000
747.322571	186.700000
747.360168	181.900000
747.397644	176.800000
747.435242	185.500000
747.472778	183.300000
747.510315	180.600000
747.547913	180.800000
747.585388	186.400000
747.622925	179.700000
747.660522	177.500000
747.697998	179.900000
747.735596	180.400000
747.773132	179.800000
747.810669	183.000000
747.848206	183.400000
747.885742	179.500000
747.923279	177.800000
747.960815	183.400000
747.998352	183.500000
748.035889	184.100000
748.073425	183.800000
748.110901	181.000000
748.148437	178.800000
748.185974	181.700000
748.223511	189.000000
748.261047	183.600000
748.298584	183.700000
748.336060	181.800000
748.373596	184.400000
748.411133	207.900000
748.448608	179.600000
748.486145	183.000000
748.523682	185.200000
748.561218	187.700000
748.598755	183.500000
748.636292	183.000000
748.673706	181.400000
748.711243	186.500000
748.748718	183.800000
748.786255	182.300000
748.823792	181.100000
748.861267	176.800000
748.898804	184.200000
748.936340	182.500000
748.973816	180.700000
749.011292	186.200000
749.048828	183.900000
749.086304	182.200000
749.123840	189.200000
749.161316	177.800000
749.198792	188.400000
749.236328	184.700000
749.273743	180.600000
749.311279	180.100000
749.348816	184.800000
749.386230	181.200000
749.423767	174.000000
749.461304	183.500000
749.498718	182.200000
749.536255	185.200000
749.573730	189.900000
749.611206	186.300000
749.648682	182.100000
749.686218	182.400000
749.723633	182.900000
749.761169	181.300000
749.798645	179.300000
749.836060	181.300000
749.873596	179.500000
749.911011	183.900000
749.948547	187.100000
749.986023	181.600000
750.023437	181.200000
750.060913	176.700000
750.098450	177.200000
750.135864	181.600000
750.173340	181.400000
750.210815	185.400000
750.248291	179.500000
750.285767	181.300000
750.323242	185.100000
750.360657	183.900000
750.398132	179.100000
750.435608	183.600000
750.473022	179.300000
750.510498	179.800000
750.547974	178.600000
750.585449	181.300000
750.622925	174.400000
750.660339	192.200000
750.697815	181.900000
750.735291	182.700000
750.772644	180.400000
750.810120	183.500000
750.847595	184.900000
750.885010	179.900000
750.922485	186.400000
750.959961	182.800000
750.997375	186.200000
751.034851	186.100000
751.072266	184.500000
751.109680	178.400000
751.147156	186.200000
751.184570	184.600000
751.221985	183.000000
751.259460	177.000000
751.296875	181.100000
751.334290	181.600000
751.371765	185.800000
751.409180	185.000000
751.446594	187.500000
751.484070	183.700000
751.521423	182.800000
751.558899	182.300000
751.596375	189.400000
751.633728	185.700000
751.671204	189.300000
751.708618	180.100000
751.746033	183.300000
751.783447	177.100000
751.820801	180.900000
751.858276	184.600000
751.895691	181.900000
751.933105	180.700000
751.970520	178.900000
752.007935	181.200000
752.045349	185.500000
752.082764	181.400000
752.120178	180.500000
752.157532	178.200000
752.195007	181.400000
752.232422	184.500000
752.269775	186.300000
752.307190	184.500000
752.344543	179.600000
752.382019	180.500000
752.419434	181.900000
752.456787	186.300000
752.494202	185.200000
752.531616	183.000000
752.568970	184.100000
752.606384	183.400000
752.643799	185.000000
752.681152	187.500000
752.718567	185.400000
752.755981	177.200000
752.793335	185.800000
752.830750	177.600000
752.868164	186.500000
752.905518	178.500000
752.942932	186.000000
752.980225	179.200000
753.017639	185.000000
753.055054	185.700000
753.092407	182.900000
753.129822	184.500000
753.167175	188.800000
753.204529	182.300000
753.241943	180.600000
753.279358	178.100000
753.316650	184.600000
753.354065	184.500000
753.391479	186.000000
753.428772	187.500000
753.466187	184.900000
753.503479	178.900000
753.540894	182.200000
753.578308	178.800000
753.615601	179.600000
753.653015	182.000000
753.690369	181.700000
753.727722	179.400000
753.765076	178.000000
753.802490	179.500000
753.839783	176.100000
753.877136	181.200000
753.914551	189.800000
753.951843	180.500000
753.989258	184.300000
754.026611	182.800000
754.063904	183.700000
754.101257	178.900000
754.138611	176.400000
754.175964	183.800000
754.213318	187.700000
754.250610	178.000000
754.288025	179.600000
754.325378	178.700000
754.362671	185.400000
754.400024	182.600000
754.437378	189.000000
754.474670	187.900000
754.512085	178.800000
754.549438	184.300000
754.586731	180.100000
754.624084	183.500000
754.661438	177.700000
754.698730	188.300000
754.736084	181.500000
754.773376	182.900000
754.810730	183.800000
754.848083	182.000000
754.885315	185.300000
754.922668	177.800000
754.960022	178.600000
754.997314	186.100000
755.034668	183.000000
755.072021	184.000000
755.109253	180.500000
755.146606	187.700000
755.183960	182.500000
755.221252	188.700000
755.258545	186.300000
755.295898	187.700000
755.333191	187.400000
755.370544	184.500000
755.407776	182.200000
755.445129	185.100000
755.482422	187.000000
755.519714	181.800000
755.557068	179.200000
755.594360	178.000000
755.631653	185.200000
755.668945	189.300000
755.706299	184.600000
755.743530	191.600000
755.780884	190.300000
755.818176	185.500000
755.855408	186.800000
755.892761	185.200000
755.930054	184.300000
755.967346	183.700000
756.004639	186.900000
756.041870	183.400000
756.079224	188.300000
756.116516	182.200000
756.153748	186.600000
756.191040	190.400000
756.228394	186.700000
756.265625	181.200000
756.302917	184.700000
756.340210	182.700000
756.377441	187.900000
756.414795	189.800000
756.452087	184.900000
756.489319	180.300000
756.526611	187.500000
756.563843	185.300000
756.601135	191.400000
756.638428	191.600000
756.675659	185.100000
756.712952	186.300000
756.750244	186.500000
756.787476	185.900000
756.824768	189.300000
756.862061	186.400000
756.899292	230.600000
756.936584	188.600000
756.973816	192.700000
757.011047	193.400000
757.048340	185.100000
757.085632	187.100000
757.122864	199.200000
757.160156	184.800000
757.197327	186.900000
757.234619	190.200000
757.271912	184.700000
757.309082	191.500000
757.346375	184.800000
757.383667	190.600000
757.420837	186.600000
757.458130	188.700000
757.495422	184.700000
757.532593	189.100000
757.569885	182.200000
757.607117	185.100000
757.644348	187.200000
757.681580	196.800000
757.718811	178.300000
757.756042	188.300000
757.793335	185.200000
757.830505	190.200000
757.867798	184.800000
757.905029	185.700000
757.942200	187.400000
757.979492	186.800000
758.016724	188.000000
758.053894	186.000000
758.091187	198.200000
758.128418	189.100000
758.165588	186.800000
758.202820	197.500000
758.240112	188.200000
758.277283	196.800000
758.314514	188.600000
758.351685	187.800000
758.388916	194.300000
758.426147	193.000000
758.463379	194.500000
758.500610	190.600000
758.537842	190.000000
758.575012	195.000000
758.612244	187.300000
758.649475	199.700000
758.686646	184.600000
758.723877	195.400000
758.761108	196.300000
758.798279	190.700000
758.835510	192.000000
758.872742	195.800000
758.909851	191.900000
758.947083	192.600000
758.984253	192.500000
759.021484	195.400000
759.058716	194.400000
759.095886	194.100000
759.133057	191.700000
759.170288	194.200000
759.207458	190.300000
759.244690	199.500000
759.281860	198.800000
759.319031	192.400000
759.356262	191.300000
759.393433	191.900000
759.430603	193.500000
759.467773	192.400000
759.505005	197.900000
759.542175	196.700000
759.579346	194.700000
759.616516	195.300000
759.653687	198.000000
759.690918	191.300000
759.728027	195.800000
759.765259	196.300000
759.802429	198.800000
759.839539	196.100000
759.876770	200.300000
759.913940	201.400000
759.951111	196.100000
759.988281	195.400000
760.025452	193.400000
760.062561	192.400000
760.099792	203.100000
760.136963	197.700000
760.174072	195.500000
760.211243	192.400000
760.248413	194.600000
760.285583	194.500000
760.322754	202.700000
760.359863	201.800000
760.397034	202.600000
760.434204	196.900000
760.471375	196.100000
760.508545	195.800000
760.545715	198.400000
760.582825	194.700000
760.619995	200.900000
760.657166	194.500000
760.694275	202.100000
760.731445	198.600000
760.768555	199.300000
760.805664	201.900000
760.842834	199.200000
760.879944	200.400000
760.917114	198.700000
760.954285	198.100000
760.991394	194.200000
761.028564	203.500000
761.065674	200.600000
761.102783	197.400000
761.139954	202.800000
761.177124	201.700000
761.214172	204.000000
761.251343	200.600000
761.288452	199.500000
761.325562	204.800000
761.362732	198.400000
761.399841	200.500000
761.436951	201.200000
761.474121	198.900000
761.511169	200.000000
761.548340	204.300000
761.585449	203.700000
761.622559	206.000000
761.659668	204.300000
761.696838	206.200000
761.733887	204.200000
761.771057	203.000000
761.808167	201.900000
761.845276	207.200000
761.882385	211.600000
761.919434	204.500000
761.956604	216.400000
761.993713	203.300000
762.030762	208.800000
762.067871	203.100000
762.105042	203.800000
762.142090	211.400000
762.179199	205.300000
762.216309	208.100000
762.253418	216.300000
762.290527	212.400000
762.327637	209.500000
762.364685	203.100000
762.401794	209.200000
762.438904	208.300000
762.475952	203.800000
762.513062	204.100000
762.550110	204.300000
762.587219	214.700000
762.624329	213.200000
762.661377	210.000000
762.698486	209.400000
762.735596	208.000000
762.772644	205.600000
762.809753	203.700000
762.846863	208.500000
762.883911	212.500000
762.921021	210.100000
762.958069	209.500000
762.995117	215.000000
763.032227	213.700000
763.069336	208.200000
763.106323	206.500000
763.143433	206.200000
763.180481	211.000000
763.217590	212.400000
763.254639	209.600000
763.291687	210.400000
763.328735	215.200000
763.365845	211.600000
763.402893	210.000000
763.439941	214.000000
763.477051	215.100000
763.514038	215.500000
763.551147	211.400000
763.588196	214.700000
763.625244	212.500000
763.662292	220.600000
763.699402	221.400000
763.736389	217.700000
763.773499	222.100000
763.810486	218.600000
763.847534	217.400000
763.884644	219.000000
763.921631	215.000000
763.958679	222.300000
763.995728	216.900000
764.032776	221.700000
764.069824	214.800000
764.106873	222.800000
764.143860	225.000000
764.180969	219.500000
764.218018	224.900000
764.255005	219.100000
764.292053	221.500000
764.329102	227.300000
764.366089	229.300000
764.403137	227.200000
764.440125	222.300000
764.477173	222.300000
764.514221	226.500000
764.551208	223.400000
764.588257	222.100000
764.625305	228.200000
764.662292	232.700000
764.699341	232.700000
764.736389	227.500000
764.773376	237.600000
764.810425	230.200000
764.847473	235.800000
764.884399	233.000000
764.921448	236.600000
764.958435	237.800000
764.995483	229.800000
765.032532	241.200000
765.069458	230.500000
765.106506	232.700000
765.143555	233.400000
765.180481	234.400000
765.217529	241.900000
765.254578	231.400000
765.291504	236.400000
765.328552	235.500000
765.365540	232.300000
765.402527	242.200000
765.439575	236.000000
765.476501	232.500000
765.513550	232.400000
765.550537	237.900000
765.587463	241.000000
765.624512	236.000000
765.661499	231.100000
765.698486	241.800000
765.735474	236.300000
765.772461	237.900000
765.809448	243.000000
765.846436	242.900000
765.883423	245.200000
765.920410	240.000000
765.957397	238.100000
765.994385	241.400000
766.031311	247.400000
766.068359	244.000000
766.105286	244.300000
766.142273	247.900000
766.179260	244.500000
766.216187	241.600000
766.253174	239.000000
766.290161	245.800000
766.327148	247.800000
766.364136	247.300000
766.401123	259.100000
766.438049	243.000000
766.475037	253.800000
766.512024	250.800000
766.548950	261.300000
766.585937	256.900000
766.622864	253.400000
766.659790	253.500000
766.696777	246.200000
766.733704	257.700000
766.770691	251.200000
766.807678	259.400000
766.844604	256.700000
766.881531	254.800000
766.918518	260.900000
766.955444	259.800000
766.992432	257.000000
767.029358	260.200000
767.066284	257.300000
767.103271	258.900000
767.140198	290.700000
767.177124	270.100000
767.214050	261.300000
767.251038	262.100000
767.287964	259.600000
767.324890	259.100000
767.361816	262.800000
767.398743	266.900000
767.435730	262.600000
767.472595	263.300000
767.509583	267.400000
767.546509	259.600000
767.583374	264.100000
767.620361	260.200000
767.657288	263.900000
767.694214	262.400000
767.731140	262.800000
767.768066	264.100000
767.804993	267.300000
767.841919	262.200000
767.878845	265.100000
767.915710	270.300000
767.952698	265.200000
767.989563	269.600000
768.026489	269.300000
768.063416	266.400000
768.100281	264.700000
768.137207	273.700000
768.174133	269.800000
768.211060	272.200000
768.247986	270.400000
768.284912	270.600000
768.321777	271.100000
768.358704	269.000000
768.395630	270.400000
768.432495	269.400000
768.469421	273.300000
768.506348	277.000000
768.543152	280.400000
768.580078	276.600000
768.616943	276.100000
768.653870	278.800000
768.690796	277.300000
768.727661	278.700000
768.764587	279.400000
768.801453	276.700000
768.838318	280.400000
768.875244	280.900000
768.912109	284.200000
768.948975	278.800000
768.985901	280.100000
769.022766	280.500000
769.059631	284.400000
769.096558	282.500000
769.133362	281.900000
769.170288	284.600000
769.207214	286.000000
769.244019	290.300000
769.280945	290.400000
769.317810	294.400000
769.354675	287.600000
769.391541	293.800000
769.428406	293.300000
769.465271	298.600000
769.502136	290.500000
769.539062	295.200000
769.575867	296.400000
769.612732	297.400000
769.649597	299.000000
769.686462	302.900000
769.723328	298.900000
769.760193	295.800000
769.797058	299.200000
769.833923	304.600000
769.870728	303.100000
769.907593	306.200000
769.944519	303.500000
769.981323	306.800000
770.018188	307.800000
770.055054	305.100000
770.091858	306.500000
770.128723	315.500000
770.165588	319.900000
770.202393	309.400000
770.239258	316.600000
770.276062	313.600000
770.312927	315.800000
770.349792	321.100000
770.386597	320.500000
770.423462	328.000000
770.460327	330.100000
770.497131	320.400000
770.533997	318.000000
770.570862	329.900000
770.607605	329.800000
770.644470	325.700000
770.681335	327.100000
770.718140	328.800000
770.754944	324.100000
770.791809	325.400000
770.828613	326.500000
770.865479	329.500000
770.902222	335.300000
770.939087	329.600000
770.975952	324.600000
771.012695	330.400000
771.049561	339.600000
771.086365	332.700000
771.123169	330.400000
771.159973	333.900000
771.196838	334.400000
771.233582	335.900000
771.270447	335.200000
771.307251	339.800000
771.344055	337.600000
771.380859	342.100000
771.417664	337.800000
771.454468	343.900000
771.491272	341.800000
771.528076	344.200000
771.564880	343.300000
771.601685	349.000000
771.638428	341.400000
771.675293	346.900000
771.712097	342.700000
771.748840	354.700000
771.785645	348.200000
771.822449	352.300000
771.859253	353.600000
771.896057	350.100000
771.932861	357.200000
771.969604	352.600000
772.006409	347.500000
772.043213	359.700000
772.079956	355.300000
772.116760	352.500000
772.153503	349.500000
772.190308	361.800000
772.227112	358.200000
772.263855	357.600000
772.300659	358.200000
772.337463	364.000000
772.374207	354.500000
772.411011	355.900000
772.447754	359.400000
772.484497	371.400000
772.521301	363.500000
772.558105	363.800000
772.594849	364.700000
772.631592	370.000000
772.668396	367.300000
772.705139	371.300000
772.741882	368.600000
772.778625	376.400000
772.815430	376.400000
772.852173	375.100000
772.888916	377.800000
772.925720	381.500000
772.962463	385.800000
772.999207	377.000000
773.035950	382.500000
773.072754	380.700000
773.109436	376.800000
773.146240	379.400000
773.182922	380.100000
773.219727	385.200000
773.256470	383.200000
773.293152	376.900000
773.329956	381.500000
773.366699	382.400000
773.403381	381.100000
773.440186	385.500000
773.476929	385.300000
773.513611	381.900000
773.550354	384.000000
773.587158	381.200000
773.623840	379.700000
773.660583	387.000000
773.697327	395.100000
773.734009	387.500000
773.770813	387.700000
773.807495	383.800000
773.844238	386.600000
773.880981	398.400000
773.917664	396.100000
773.954407	400.000000
773.991150	394.000000
774.027832	398.400000
774.064575	393.300000
774.101318	397.500000
774.138000	402.500000
774.174744	396.800000
774.211487	399.300000
774.248108	391.300000
774.284851	394.300000
774.321594	400.600000
774.358276	401.700000
774.395020	407.300000
774.431702	406.600000
774.468384	398.500000
774.505127	398.600000
774.541809	408.200000
774.578491	414.100000
774.615234	411.700000
774.651917	404.500000
774.688599	408.000000
774.725342	413.800000
774.762024	416.900000
774.798706	417.800000
774.835449	420.000000
774.872070	421.500000
774.908813	423.000000
774.945496	419.100000
774.982178	422.900000
775.018860	426.600000
775.055542	428.400000
775.092224	427.500000
775.128967	433.200000
775.165588	433.600000
775.202271	427.200000
775.239014	432.900000
775.275635	433.400000
775.312317	430.600000
775.349060	439.900000
775.385681	438.600000
775.422363	434.300000
775.459045	439.800000
775.495667	445.600000
775.532410	442.200000
775.569092	447.000000
775.605713	442.200000
775.642395	444.200000
775.679016	446.900000
775.715698	450.000000
775.752380	451.500000
775.789001	449.000000
775.825684	447.300000
775.862366	450.500000
775.898987	461.400000
775.935669	453.700000
775.972351	471.900000
776.008972	470.000000
776.045654	468.500000
776.082336	460.400000
776.118958	462.700000
776.155640	470.200000
776.192322	476.200000
776.228882	480.700000
776.265564	476.700000
776.302185	472.600000
776.338867	480.700000
776.375488	477.600000
776.412109	487.500000
776.448792	487.700000
776.485413	494.500000
776.522034	483.900000
776.558716	483.000000
776.595337	483.700000
776.631958	491.200000
776.668579	490.400000
776.705261	497.600000
776.741882	488.600000
776.778503	491.200000
776.815186	492.300000
776.851746	500.900000
776.888367	503.500000
776.924988	509.400000
776.961609	499.000000
776.998291	502.600000
777.034851	499.800000
777.071472	509.700000
777.108154	508.700000
777.144714	517.300000
777.181335	512.700000
777.218018	508.600000
777.254578	516.600000
777.291199	516.300000
777.327759	517.300000
777.364380	522.500000
777.401062	525.100000
777.437622	533.700000
777.474243	526.300000
777.510864	530.900000
777.547424	524.000000
777.584045	529.800000
777.620667	528.300000
777.657227	529.700000
777.693848	533.000000
777.730469	543.300000
777.767029	539.500000
777.803650	539.200000
777.840271	535.400000
777.876831	537.200000
777.913452	538.700000
777.950012	531.200000
777.986633	531.200000
778.023193	530.000000
778.059753	532.400000
778.096375	536.000000
778.132996	545.200000
778.169556	538.600000
778.206116	538.200000
778.242737	537.600000
778.279297	540.800000
778.315857	540.000000
778.352478	545.600000
778.389038	551.300000
778.425598	550.400000
778.462219	556.300000
778.498718	552.600000
778.535339	553.900000
778.571838	561.800000
778.608459	563.100000
778.645020	552.900000
778.681580	555.800000
778.718140	556.800000
778.754761	549.500000
778.791260	557.600000
778.827881	564.900000
778.864441	563.600000
778.900940	567.800000
778.937561	567.200000
778.974121	561.100000
779.010620	558.400000
779.047241	561.600000
779.083801	570.200000
779.120300	568.700000
779.156860	569.300000
779.193359	569.800000
779.229980	570.600000
779.266541	577.400000
779.303040	577.700000
779.339600	572.300000
779.376160	564.600000
779.412659	568.600000
779.449219	566.400000
779.485779	564.900000
779.522278	569.300000
779.558838	573.300000
779.595398	571.000000
779.631897	569.300000
779.668457	566.600000
779.705017	577.500000
779.741516	567.500000
779.778076	568.200000
779.814575	570.400000
779.851074	570.100000
779.887634	571.500000
779.924133	582.300000
779.960693	573.500000
779.997253	585.000000
780.033691	587.500000
780.070251	588.700000
780.106812	596.300000
780.143250	592.400000
780.179810	589.000000
780.216370	591.200000
780.252808	596.200000
780.289368	601.700000
780.325867	597.500000
780.362366	594.800000
780.398865	603.500000
780.435364	604.400000
780.471863	612.200000
780.508423	607.900000
780.544861	603.000000
780.581421	600.800000
780.617920	601.800000
780.654419	601.400000
780.690918	605.300000
780.727417	610.700000
780.763916	606.800000
780.800415	619.100000
780.836914	603.800000
780.873352	609.500000
780.909912	603.700000
780.946411	613.600000
780.982849	622.400000
781.019348	634.200000
781.055786	623.400000
781.092346	624.800000
781.128845	633.000000
781.165283	640.100000
781.201782	648.700000
781.238281	647.600000
781.274719	645.000000
781.311218	643.500000
781.347717	653.900000
781.384155	643.100000
781.420654	645.200000
781.457092	652.100000
781.493591	645.800000
781.530090	638.000000
781.566528	641.900000
781.602966	646.500000
781.639465	648.000000
781.675903	645.800000
781.712402	652.500000
781.748901	655.800000
781.785278	651.400000
781.821777	657.800000
781.858276	658.100000
781.894714	671.600000
781.931152	662.200000
781.967651	667.000000
782.004089	662.400000
782.040527	668.100000
782.076965	671.500000
782.113403	668.500000
782.149902	675.700000
782.186340	674.800000
782.222778	681.600000
782.259277	675.200000
782.295654	679.300000
782.332092	683.400000
782.368591	684.000000
782.404968	680.400000
782.441467	680.500000
782.477905	677.500000
782.514282	678.100000
782.550781	688.900000
782.587219	678.200000
782.623596	674.600000
782.660095	672.600000
782.696472	657.000000
782.732910	633.000000
782.769348	601.500000
782.805786	577.200000
782.842224	539.800000
782.878662	506.200000
782.915039	471.500000
782.951477	439.000000
782.987915	407.500000
783.024292	391.800000
783.060730	378.800000
783.097168	374.100000
783.133545	378.400000
783.169983	392.800000
783.206421	416.600000
783.242798	447.600000
783.279236	476.300000
783.315613	509.500000
783.352051	539.500000
783.388489	561.500000
783.424866	573.500000
783.461304	588.500000
783.497681	596.900000
783.534058	586.600000
783.570496	571.200000
783.606934	541.100000
783.643250	517.400000
783.679687	497.300000
783.716125	464.500000
783.752441	435.200000
783.788879	422.200000
783.825317	411.600000
783.861633	399.700000
783.898071	398.000000
783.934448	413.300000
783.970825	433.500000
784.007263	463.800000
784.043579	497.600000
784.080017	534.500000
784.116394	561.500000
784.152710	597.300000
784.189148	629.900000
784.225525	660.400000
784.261902	680.400000
784.298279	695.200000
784.334656	715.300000
784.371033	725.200000
784.407410	735.200000
784.443787	720.400000
784.480164	715.600000
784.516541	713.000000
784.552856	728.400000
784.589233	724.100000
784.625610	716.800000
784.661987	737.900000
784.698364	740.500000
784.734741	733.200000
784.771057	737.500000
784.807434	747.200000
784.843811	763.400000
784.880127	761.500000
784.916504	774.400000
784.952881	770.700000
784.989197	775.200000
785.025574	780.500000
785.061951	787.400000
785.098267	799.700000
785.134644	793.800000
785.170959	786.100000
785.207275	784.200000
785.243652	791.300000
785.279968	776.700000
785.316345	773.300000
785.352722	774.600000
785.388977	759.100000
785.425354	744.500000
785.461731	728.300000
785.498047	735.100000
785.534363	728.200000
785.570679	734.700000
785.606995	733.200000
785.643372	730.700000
785.679687	728.300000
785.716003	731.000000
785.752380	735.000000
785.788635	741.900000
785.825012	749.200000
785.861328	756.400000
785.897644	747.500000
785.933960	761.600000
785.970337	764.300000
786.006592	789.000000
786.042908	798.000000
786.079285	797.000000
786.115540	804.100000
786.151855	797.800000
786.188171	792.700000
786.224487	802.400000
786.260803	802.800000
786.297119	800.700000
786.333435	796.500000
786.369751	790.700000
786.406006	789.400000
786.442322	776.900000
786.478638	765.700000
786.514954	772.500000
786.551270	766.500000
786.587585	765.800000
786.623840	749.700000
786.660156	748.200000
786.696472	750.100000
786.732727	753.100000
786.769043	758.100000
786.805298	757.300000
786.841614	757.600000
786.877930	762.600000
786.914124	759.100000
786.950439	774.700000
786.986755	784.000000
787.023010	803.700000
787.059326	804.200000
787.095642	807.400000
787.131836	823.700000
787.168152	821.800000
787.204468	824.300000
787.240723	834.700000
787.276978	845.000000
787.313293	845.200000
787.349548	842.100000
787.385803	841.400000
787.422058	835.700000
787.458313	832.500000
787.494629	829.200000
787.530823	830.200000
787.567139	814.500000
787.603455	804.300000
787.639648	799.700000
787.675903	802.300000
787.712219	801.600000
787.748413	798.000000
787.784729	803.300000
787.820984	796.000000
787.857178	791.100000
787.893494	793.100000
787.929749	795.700000
787.965942	805.000000
788.002258	819.000000
788.038452	823.500000
788.074707	817.500000
788.110962	823.200000
788.147217	822.100000
788.183472	835.500000
788.219727	849.500000
788.255920	863.500000
788.292175	864.000000
788.328430	857.700000
788.364624	847.400000
788.400879	844.900000
788.437134	851.200000
788.473328	850.100000
788.509583	857.500000
788.545837	854.700000
788.582031	849.800000
788.618286	848.400000
788.654480	851.400000
788.690735	866.100000
788.726990	873.800000
788.763184	871.200000
788.799377	880.700000
788.835632	874.100000
788.871826	877.300000
788.908081	877.800000
788.944336	879.600000
788.980469	886.900000
789.016724	885.400000
789.052979	883.800000
789.089111	867.900000
789.125366	876.100000
789.161621	867.100000
789.197754	885.200000
789.234009	882.600000
789.270142	874.200000
789.306396	863.500000
789.342590	854.700000
789.378784	847.700000
789.414978	846.000000
789.451233	855.500000
789.487366	854.100000
789.523621	856.200000
789.559814	857.500000
789.595947	855.800000
789.632202	866.900000
789.668335	869.700000
789.704529	901.100000
789.740784	905.200000
789.776917	893.300000
789.813110	890.800000
789.849304	913.400000
789.885498	909.900000
789.921692	923.000000
789.957886	924.000000
789.994019	926.800000
790.030212	920.500000
790.066406	920.700000
790.102539	924.900000
790.138733	937.300000
790.174927	938.300000
790.211060	946.800000
790.247253	932.200000
790.283386	921.300000
790.319580	920.100000
790.355774	909.300000
790.391907	906.000000
790.428101	914.200000
790.464294	912.600000
790.500427	914.100000
790.536621	897.200000
790.572754	886.300000
790.608887	893.800000
790.645081	895.500000
790.681274	907.800000
790.717346	905.900000
790.753540	893.900000
790.789734	871.200000
790.825867	864.900000
790.862000	879.300000
790.898132	891.400000
790.934265	893.000000
790.970459	891.200000
791.006592	888.800000
791.042725	882.400000
791.078918	874.900000
791.114990	883.500000
791.151184	889.300000
791.187317	899.100000
791.223389	889.100000
791.259583	870.100000
791.295715	870.600000
791.331848	882.100000
791.367981	896.600000
791.404114	903.700000
791.440247	906.000000
791.476379	898.400000
791.512451	874.800000
791.548584	875.900000
791.584778	878.100000
791.620850	885.100000
791.656982	886.400000
791.693115	878.600000
791.729187	876.500000
791.765381	873.800000
791.801514	868.100000
791.837585	875.100000
791.873718	892.000000
791.909851	899.600000
791.945923	904.200000
791.982056	882.400000
792.018188	880.300000
792.054260	880.100000
792.090393	878.700000
792.126465	875.600000
792.162598	876.700000
792.198669	863.200000
792.234741	866.200000
792.270874	856.000000
792.307007	849.500000
792.343079	854.600000
792.379150	862.900000
792.415283	848.300000
792.451355	854.300000
792.487488	829.100000
792.523560	815.800000
792.559631	795.700000
792.595764	754.800000
792.631836	725.400000
792.667908	723.800000
792.703979	719.600000
792.740051	756.000000
792.776184	780.600000
792.812256	791.800000
792.848328	805.100000
792.884399	806.400000
792.920471	801.100000
792.956543	798.000000
792.992615	793.000000
793.028748	800.900000
793.064758	811.000000
793.100830	826.800000
793.136963	840.100000
793.172974	834.400000
793.209045	823.900000
793.245178	839.000000
793.281189	827.000000
793.317261	836.400000
793.353271	838.600000
793.389404	847.900000
793.425476	823.700000
793.461487	816.600000
793.497559	813.400000
793.533630	819.400000
793.569641	818.100000
793.605713	826.900000
793.641785	835.000000
793.677795	839.700000
793.713867	833.000000
793.749878	832.400000
793.785950	845.900000
793.822021	856.800000
793.858032	844.500000
793.894104	853.600000
793.930176	845.900000
793.966187	845.100000
794.002258	839.200000
794.038269	850.000000
794.074280	847.700000
794.110352	866.800000
794.146423	850.000000
794.182373	845.100000
794.218445	842.400000
794.254517	837.100000
794.290466	824.300000
794.326538	830.100000
794.362549	824.700000
794.398560	829.500000
794.434631	827.300000
794.470581	813.000000
794.506653	804.600000
794.542664	811.700000
794.578674	820.100000
794.614685	817.900000
794.650757	821.600000
794.686707	823.100000
794.722778	819.400000
794.758789	828.600000
794.794739	840.300000
794.830811	855.400000
794.866821	873.600000
794.902771	870.900000
794.938843	865.600000
794.974792	860.900000
795.010803	865.800000
795.046814	865.900000
795.082825	856.200000
795.118835	872.400000
795.154846	847.800000
795.190796	845.800000
795.226807	832.700000
795.262817	840.300000
795.298767	841.700000
795.334778	853.200000
795.370850	840.400000
795.406799	838.200000
795.442810	827.200000
795.478821	824.200000
795.514709	824.600000
795.550720	857.300000
795.586670	849.300000
795.622681	852.500000
795.658691	845.400000
795.694641	839.700000
795.730652	830.700000
795.766663	843.400000
795.802551	844.700000
795.838562	858.300000
795.874573	842.300000
795.910522	841.200000
795.946472	831.000000
795.982483	847.400000
796.018433	839.400000
796.054382	843.700000
796.090393	833.400000
796.126282	830.700000
796.162292	814.400000
796.198242	812.200000
796.234192	815.200000
796.270203	822.600000
796.306091	828.700000
796.342041	840.200000
796.378052	826.300000
796.413940	817.700000
796.449951	823.200000
796.485901	823.700000
796.521790	832.400000
796.557800	850.300000
796.593689	846.500000
796.629639	834.400000
796.665649	830.500000
796.701599	831.000000
796.737488	824.500000
796.773437	834.100000
796.809387	838.300000
796.845337	834.200000
796.881287	829.100000
796.917175	815.100000
796.953125	817.100000
796.989075	823.400000
797.024963	823.400000
797.060913	825.100000
797.096863	822.800000
797.132751	814.200000
797.168701	803.500000
797.204590	809.500000
797.240540	812.600000
797.276489	816.800000
797.312439	825.200000
797.348328	821.200000
797.384277	806.300000
797.420166	799.900000
797.456055	798.800000
797.492004	805.000000
797.527893	818.100000
797.563843	815.900000
797.599731	806.300000
797.635620	792.400000
797.671570	800.500000
797.707520	807.300000
797.743347	804.300000
797.779297	802.500000
797.815125	800.100000
797.851074	791.000000
797.887024	780.300000
797.922913	774.100000
797.958801	790.400000
797.994690	786.500000
798.030579	790.200000
798.066467	788.900000
798.102356	780.700000
798.138245	778.700000
798.174133	777.700000
798.210083	788.200000
798.245911	798.700000
798.281799	798.500000
798.317749	785.400000
798.353577	778.400000
798.389465	778.400000
798.425293	778.100000
798.461243	780.700000
798.497131	786.900000
798.532959	783.100000
798.568848	787.800000
798.604736	772.500000
798.640564	760.400000
798.676453	769.900000
798.712402	773.100000
798.748230	771.700000
798.784119	774.200000
798.820007	775.600000
798.855835	767.200000
798.891724	760.500000
798.927551	756.300000
798.963379	757.700000
798.999268	759.700000
799.035095	754.200000
799.070984	746.300000
799.106873	740.100000
799.142700	747.700000
799.178528	738.100000
799.214417	747.800000
799.250244	760.700000
799.286133	745.100000
799.321960	740.000000
799.357788	734.200000
799.393677	732.300000
799.429504	743.700000
799.465332	742.500000
799.501221	749.500000
799.537048	744.700000
799.572876	735.400000
799.608704	742.900000
799.644531	752.000000
799.680359	754.100000
799.716248	767.600000
799.752014	767.000000
799.787903	752.600000
799.823730	750.800000
799.859558	743.100000
799.895386	743.100000
799.931213	750.500000
799.967041	747.800000
800.002869	743.600000
800.038696	745.500000
800.074463	738.000000
800.110352	748.000000
800.146179	733.600000
800.181946	742.400000
800.217773	740.500000
800.253540	733.700000
800.289429	729.900000
800.325256	726.000000
800.361023	725.100000
800.396851	726.600000
800.432678	729.000000
800.468445	728.800000
800.504272	727.700000
800.540100	716.600000
800.575867	711.500000
800.611694	723.300000
800.647461	716.200000
800.683289	714.800000
800.719116	721.900000
800.754883	716.900000
800.790649	705.400000
800.826477	700.500000
800.862244	721.600000
800.898071	711.200000
800.933838	712.300000
800.969604	711.800000
801.005432	704.200000
801.041199	702.800000
801.076965	695.100000
801.112793	691.900000
801.148560	687.900000
801.184326	698.200000
801.220154	700.600000
801.255859	693.000000
801.291687	690.300000
801.327454	686.700000
801.363281	681.800000
801.398987	684.300000
801.434814	684.800000
801.470520	688.500000
801.506287	675.000000
801.542114	667.300000
801.577820	673.000000
801.613647	669.400000
801.649414	671.500000
801.685120	671.400000
801.720886	675.300000
801.756714	667.400000
801.792419	657.400000
801.828186	653.300000
801.863892	657.400000
801.899719	653.000000
801.935486	657.600000
801.971252	668.600000
802.006958	659.000000
802.042725	654.500000
802.078430	655.700000
802.114197	655.300000
802.149963	666.000000
802.185669	652.200000
802.221436	658.600000
802.257202	659.600000
802.292908	651.000000
802.328674	657.800000
802.364441	657.800000
802.400146	659.000000
802.435913	654.500000
802.471558	642.200000
802.507324	648.200000
802.543091	646.300000
802.578796	657.000000
802.614502	656.900000
802.650269	663.600000
802.685974	643.000000
802.721741	648.700000
802.757446	650.300000
802.793152	647.800000
802.828918	653.700000
802.864624	655.000000
802.900330	650.100000
802.936035	646.900000
802.971802	646.600000
803.007446	644.200000
803.043213	632.200000
803.078857	643.600000
803.114624	631.600000
803.150330	632.700000
803.185974	626.900000
803.221741	630.900000
803.257446	635.700000
803.293152	639.600000
803.328857	632.000000
803.364563	632.300000
803.400208	623.800000
803.435974	626.500000
803.471680	624.900000
803.507324	623.100000
803.543030	628.700000
803.578735	630.200000
803.614441	625.800000
803.650146	634.200000
803.685791	622.400000
803.721497	624.500000
803.757202	616.600000
803.792847	621.700000
803.828552	617.100000
803.864258	610.900000
803.899902	607.300000
803.935608	595.700000
803.971313	602.900000
804.006958	602.700000
804.042664	606.100000
804.078308	609.000000
804.113953	602.400000
804.149658	602.600000
804.185364	590.400000
804.221008	607.700000
804.256714	597.400000
804.292297	594.100000
804.328003	590.600000
804.363708	583.000000
804.399292	585.400000
804.434998	584.800000
804.470703	579.300000
804.506287	591.000000
804.541992	585.800000
804.577637	586.400000
804.613281	574.300000
804.648926	569.300000
804.684570	572.800000
804.720215	571.100000
804.755920	570.500000
804.791565	571.800000
804.827209	574.300000
804.862854	569.200000
804.898437	559.300000
804.934143	563.200000
804.969788	562.500000
805.005371	566.700000
805.041077	563.700000
805.076721	563.500000
805.112305	556.200000
805.147949	553.000000
805.183655	546.700000
805.219238	554.700000
805.254883	554.700000
805.290466	559.100000
805.326111	550.800000
805.361755	543.500000
805.397400	549.200000
805.432983	552.000000
805.468628	546.600000
805.504211	551.200000
805.539856	553.400000
805.575500	554.400000
805.611084	542.800000
805.646729	536.300000
805.682373	538.500000
805.717957	547.700000
805.753601	547.100000
805.789246	537.300000
805.824768	545.700000
805.860413	547.800000
805.895996	536.100000
805.931641	538.700000
805.967224	541.200000
806.002869	538.500000
806.038452	543.700000
806.074036	549.500000
806.109619	532.500000
806.145264	528.600000
806.180847	525.700000
806.216431	528.900000
806.252014	530.300000
806.287659	535.800000
806.323181	538.700000
806.358826	532.800000
806.394409	521.800000
806.429993	521.900000
806.465576	527.100000
806.501160	519.200000
806.536743	512.900000
806.572327	522.800000
806.607910	516.400000
806.643494	517.900000
806.679077	512.600000
806.714661	511.000000
806.750244	511.400000
806.785828	509.200000
806.821350	508.200000
806.856934	513.400000
806.892517	506.000000
806.928101	502.900000
806.963684	502.500000
806.999268	507.100000
807.034790	495.900000
807.070374	500.000000
807.105896	492.000000
807.141479	492.000000
807.177063	496.000000
807.212585	491.900000
807.248169	492.800000
807.283752	496.900000
807.319275	493.600000
807.354858	493.600000
807.390381	490.100000
807.425903	485.900000
807.461487	484.000000
807.497070	477.200000
807.532593	479.700000
807.568115	478.300000
807.603699	473.800000
807.639221	473.800000
807.674744	477.600000
807.710266	478.900000
807.745850	480.700000
807.781372	476.300000
807.816895	473.300000
807.852417	472.400000
807.888000	473.500000
807.923523	468.600000
807.959045	474.600000
807.994629	466.300000
808.030090	464.800000
808.065613	467.800000
808.101135	469.300000
808.136658	468.300000
808.172241	469.200000
808.207764	467.300000
808.243225	462.300000
808.278809	463.100000
808.314270	468.000000
808.349792	458.700000
808.385315	456.000000
808.420837	459.900000
808.456360	461.500000
808.491882	464.400000
808.527344	464.300000
808.562866	466.500000
808.598389	457.200000
808.633850	454.600000
808.669434	452.900000
808.704895	454.300000
808.740417	458.500000
808.775940	452.600000
808.811462	452.800000
808.846924	447.600000
808.882385	444.600000
808.917847	443.700000
808.953369	446.000000
808.988892	444.700000
809.024353	451.100000
809.059875	451.300000
809.095398	441.600000
809.130798	438.900000
809.166321	436.500000
809.201843	437.800000
809.237305	438.800000
809.272766	443.300000
809.308228	431.600000
809.343750	430.400000
809.379211	432.000000
809.414734	429.100000
809.450134	434.200000
809.485657	423.900000
809.521118	431.000000
809.556580	427.300000
809.592102	424.800000
809.627502	426.500000
809.663025	424.600000
809.698486	420.500000
809.733887	419.700000
809.769409	424.100000
809.804871	415.200000
809.840271	414.100000
809.875793	417.000000
809.911194	419.700000
809.946655	411.200000
809.982178	413.400000
810.017639	415.200000
810.053040	412.800000
810.088501	409.900000
810.123901	408.000000
810.159424	410.000000
810.194885	405.600000
810.230286	406.200000
810.265747	399.600000
810.301208	400.200000
810.336609	399.600000
810.372070	392.400000
810.407532	393.700000
810.442932	399.500000
810.478394	399.900000
810.513794	395.800000
810.549255	395.800000
810.584717	390.300000
810.620117	385.700000
810.655518	393.100000
810.690979	387.300000
810.726379	389.300000
810.761841	381.300000
810.797302	379.900000
810.832642	377.500000
810.868103	388.400000
810.903564	379.300000
810.938904	386.000000
810.974365	375.200000
811.009827	374.600000
811.045166	371.800000
811.080627	365.500000
811.115967	369.500000
811.151428	375.100000
811.186829	369.100000
811.222229	372.100000
811.257629	363.100000
811.293091	368.500000
811.328430	375.100000
811.363892	371.800000
811.399292	373.600000
811.434631	367.300000
811.470093	369.500000
811.505493	364.600000
811.540833	361.200000
811.576294	366.200000
811.611694	362.300000
811.647034	360.200000
811.682434	360.500000
811.717773	363.900000
811.753235	364.300000
811.788635	358.000000
811.823975	358.800000
811.859375	365.500000
811.894775	353.300000
811.930115	355.100000
811.965515	355.600000
812.000916	354.300000
812.036255	352.100000
812.071655	353.500000
812.106995	350.900000
812.142395	352.900000
812.177795	356.800000
812.213196	351.700000
812.248474	353.600000
812.283875	346.600000
812.319214	349.200000
812.354614	349.500000
812.390015	344.600000
812.425293	344.200000
812.460693	346.000000
812.496094	340.700000
812.531433	337.400000
812.566772	336.400000
812.602173	340.100000
812.637451	338.700000
812.672852	336.200000
812.708191	338.700000
812.743530	335.300000
812.778931	328.500000
812.814270	329.900000
812.849609	331.900000
812.884949	332.800000
812.920227	326.600000
812.955627	334.800000
812.990967	328.300000
813.026306	325.700000
813.061646	317.200000
813.096985	315.000000
813.132324	315.200000
813.167664	315.700000
813.203003	319.700000
813.238281	311.000000
813.273682	310.200000
813.308960	309.200000
813.344299	310.500000
813.379639	314.400000
813.414978	310.900000
813.450256	312.500000
813.485596	311.200000
813.520874	305.400000
813.556213	306.400000
813.591614	310.800000
813.626831	306.300000
813.662170	308.600000
813.697510	313.200000
813.732788	301.100000
813.768127	304.500000
813.803467	303.900000
813.838745	301.100000
813.874084	304.200000
813.909363	302.600000
813.944641	301.600000
813.979980	295.200000
814.015320	299.300000
814.050598	295.300000
814.085876	296.300000
814.121155	295.900000
814.156494	293.300000
814.191772	294.400000
814.227051	287.700000
814.262390	291.600000
814.297668	292.400000
814.332947	294.400000
814.368225	287.700000
814.403564	290.400000
814.438782	287.600000
814.474121	291.100000
814.509338	286.600000
814.544617	290.900000
814.579956	284.500000
814.615173	293.900000
814.650513	289.900000
814.685791	283.700000
814.721008	284.100000
814.756348	285.600000
814.791626	281.600000
814.826843	284.200000
814.862122	283.300000
814.897400	280.000000
814.932678	283.600000
814.967957	281.400000
815.003235	281.200000
815.038452	275.600000
815.073730	275.200000
815.108948	284.800000
815.144226	280.200000
815.179504	283.100000
815.214722	272.900000
815.250000	270.800000
815.285278	276.100000
815.320496	273.600000
815.355774	273.300000
815.391052	272.900000
815.426270	272.300000
815.461487	269.200000
815.496765	267.400000
815.531982	266.000000
815.567261	269.200000
815.602539	273.600000
815.637695	270.300000
815.672974	269.300000
815.708191	273.100000
815.743408	272.100000
815.778687	264.800000
815.813904	269.600000
815.849121	261.100000
815.884399	260.600000
815.919556	261.900000
815.954834	260.400000
815.990051	264.700000
816.025269	265.700000
816.060486	260.300000
816.095703	257.600000
816.130920	260.200000
816.166199	255.100000
816.201416	257.500000
816.236572	259.100000
816.271851	256.100000
816.307007	260.600000
816.342224	251.500000
816.377441	254.100000
816.412659	250.500000
816.447876	254.700000
816.483093	252.600000
816.518250	251.100000
816.553467	249.800000
816.588745	254.000000
816.623901	247.000000
816.659119	241.600000
816.694275	247.500000
816.729492	245.600000
816.764709	270.900000
816.799927	241.500000
816.835083	245.700000
816.870300	240.800000
816.905457	244.400000
816.940674	243.300000
816.975830	239.900000
817.010986	238.800000
817.046204	238.800000
817.081421	237.200000
817.116577	237.100000
817.151733	242.600000
817.186951	241.200000
817.222107	237.300000
817.257324	238.900000
817.292419	238.400000
817.327637	232.900000
817.362854	234.900000
817.398010	230.200000
817.433167	237.000000
817.468323	232.000000
817.503479	233.500000
817.538635	241.600000
817.573853	235.500000
817.608948	231.500000
817.644165	231.800000
817.679321	228.400000
817.714478	229.100000
817.749634	229.900000
817.784790	238.500000
817.819946	234.400000
817.855103	222.600000
817.890198	226.500000
817.925415	225.300000
817.960571	229.700000
817.995667	229.600000
818.030823	227.300000
818.066040	224.100000
818.101135	227.400000
818.136292	224.000000
818.171448	220.300000
818.206543	223.900000
818.241699	226.600000
818.276855	223.000000
818.311951	221.300000
818.347107	218.500000
818.382263	225.200000
818.417358	228.200000
818.452515	227.400000
818.487610	226.500000
818.522766	218.400000
818.557922	225.700000
818.593018	223.100000
818.628113	222.100000
818.663269	218.400000
818.698364	220.500000
818.733521	217.600000
818.768677	218.700000
818.803711	215.300000
818.838867	214.000000
818.874023	217.600000
818.909058	213.600000
818.944214	212.900000
818.979370	216.400000
819.014404	216.200000
819.049561	213.200000
819.084595	216.700000
819.119751	209.300000
819.154846	215.800000
819.189941	210.300000
819.225037	209.700000
819.260193	205.800000
819.295227	207.800000
819.330322	202.500000
819.365479	205.900000
819.400513	237.500000
819.435608	203.300000
819.470764	200.700000
819.505798	204.600000
819.540894	204.200000
819.575989	205.000000
819.611084	207.400000
819.646179	211.500000
819.681213	205.600000
819.716309	202.100000
819.751404	204.700000
819.786438	209.700000
819.821533	199.700000
819.856628	203.800000
819.891663	206.100000
819.926758	211.700000
819.961853	207.000000
819.996887	200.900000
820.031982	204.300000
820.067017	201.100000
820.102112	235.000000
820.137207	198.900000
820.172302	209.900000
820.207275	197.800000
820.242371	198.600000
820.277405	199.000000
820.312500	199.900000
820.347534	200.000000
820.382568	203.600000
820.417664	196.500000
820.452759	197.200000
820.487732	197.000000
820.522827	196.700000
820.557861	194.700000
820.592896	197.100000
820.627930	196.300000
820.662964	195.500000
820.698059	199.700000
820.733093	196.000000
820.768127	198.600000
820.803162	196.600000
820.838196	193.800000
820.873230	196.700000
820.908264	197.300000
820.943298	193.800000
820.978333	198.000000
821.013367	195.900000
821.048401	198.300000
821.083435	199.200000
821.118469	190.200000
821.153503	198.500000
821.188477	194.700000
821.223511	191.700000
821.258484	192.800000
821.293579	194.900000
821.328613	190.500000
821.363647	194.100000
821.398621	189.600000
821.433655	192.100000
821.468628	201.800000
821.503662	192.600000
821.538696	194.700000
821.573669	190.200000
821.608704	195.500000
821.643677	191.800000
821.678650	193.900000
821.713684	198.300000
821.748718	193.300000
821.783691	192.400000
821.818726	193.300000
821.853638	193.900000
821.888672	191.800000
821.923706	191.800000
821.958618	191.800000
821.993652	191.800000
822.028687	195.000000
822.063599	198.400000
822.098633	193.500000
822.133667	188.900000
822.168579	192.600000
822.203613	193.600000
822.238586	189.500000
822.273560	193.300000
822.308533	189.100000
822.343567	188.500000
822.378479	191.100000
822.413452	189.100000
822.448425	188.300000
822.483398	193.200000
822.518372	193.800000
822.553345	188.100000
822.588318	196.400000
822.623291	189.300000
822.658203	188.800000
822.693237	190.200000
822.728210	188.400000
822.763123	190.200000
822.798096	187.600000
822.833069	188.200000
822.867981	189.700000
822.902954	190.100000
822.937927	190.200000
822.972900	196.600000
823.007874	186.200000
823.042725	192.600000
823.077698	198.600000
823.112671	186.800000
823.147583	188.900000
823.182556	190.700000
823.217529	192.700000
823.252441	188.700000
823.287415	197.200000
823.322388	193.400000
823.357239	189.500000
823.392212	194.500000
823.427185	195.100000
823.462097	185.900000
823.497009	192.000000
823.531982	188.200000
823.566895	191.100000
823.601807	187.500000
823.636719	188.200000
823.671631	192.400000
823.706604	188.700000
823.741455	193.400000
823.776428	184.600000
823.811340	191.600000
823.846252	194.100000
823.881165	195.300000
823.916138	188.700000
823.950989	195.500000
823.985901	187.800000
824.020813	189.400000
824.055725	186.100000
824.090637	185.000000
824.125610	190.300000
824.160461	191.600000
824.195374	189.300000
824.230225	191.700000
824.265198	183.400000
824.300110	188.300000
824.334961	196.300000
824.369873	183.600000
824.404785	189.400000
824.439636	193.000000
824.474548	182.700000
824.509460	182.600000
824.544312	192.600000
824.579224	190.300000
824.614075	190.500000
824.648987	186.900000
824.683899	187.100000
824.718811	186.000000
824.753662	192.400000
824.788574	191.600000
824.823364	189.200000
824.858276	184.900000
824.893188	191.100000
824.928040	190.800000
824.962952	188.300000
824.997803	190.900000
825.032654	186.300000
825.067566	189.200000
825.102417	184.900000
825.137268	185.200000
825.172119	185.500000
825.206970	185.100000
825.241882	185.600000
825.276733	184.000000
825.311646	184.000000
825.346436	182.300000
825.381348	183.700000
825.416138	185.000000
825.450989	182.000000
825.485901	179.200000
825.520691	180.400000
825.555542	180.400000
825.590454	184.800000
825.625244	179.300000
825.660095	190.000000
825.695007	186.800000
825.729797	183.400000
825.764648	181.000000
825.799438	184.900000
825.834290	185.600000
825.869202	180.000000
825.903992	183.500000
825.938843	181.700000
825.973694	179.700000
826.008484	191.900000
826.043335	180.400000
826.078186	178.300000
826.112976	186.500000
826.147827	186.500000
826.182678	190.200000
826.217468	178.900000
826.252319	187.000000
826.287109	179.100000
826.321899	183.700000
826.356750	181.500000
826.391541	178.500000
826.426392	186.300000
826.461182	181.200000
826.495972	179.500000
826.530823	175.900000
826.565613	182.300000
826.600403	177.800000
826.635254	184.400000
826.670044	177.200000
826.704834	176.500000
826.739685	178.800000
826.774475	183.300000
826.809265	180.700000
826.844055	180.500000
826.878906	186.700000
826.913635	182.500000
826.948425	182.900000
826.983215	182.900000
827.018005	184.400000
827.052856	179.800000
827.087585	184.200000
827.122375	176.100000
827.157227	181.200000
827.191956	190.500000
827.226746	177.900000
827.261536	184.600000
827.296265	177.900000
827.331116	178.900000
827.365906	183.800000
827.400635	178.800000
827.435425	176.200000
827.470215	184.200000
827.504944	180.400000
827.539734	184.000000
827.574463	181.000000
827.609253	187.300000
827.644043	182.300000
827.678772	184.500000
827.713562	180.600000
827.748352	180.300000
827.783081	179.700000
827.817871	181.200000
827.852600	177.900000
827.887329	181.500000
827.922119	175.800000
827.956848	182.700000
827.991638	191.200000
828.026367	182.900000
828.061157	182.200000
828.095886	182.800000
828.130615	193.500000
828.165344	174.800000
828.200073	182.400000
828.234863	180.200000
828.269592	180.300000
828.304321	184.700000
828.339111	182.100000
828.373779	178.400000
828.408569	184.300000
828.443298	183.700000
828.477966	179.600000
828.512756	181.700000
828.547424	177.800000
828.582214	181.000000
828.616943	181.200000
828.651672	180.900000
828.686340	184.300000
828.721130	179.400000
828.755798	181.400000
828.790527	181.600000
828.825256	182.200000
828.859924	181.800000
828.894714	184.200000
828.929443	188.400000
828.964111	178.500000
828.998840	181.000000
829.033569	179.600000
829.068237	182.000000
829.102966	179.200000
829.137634	181.800000
829.172363	183.000000
829.207092	182.900000
829.241821	178.000000
829.276489	177.400000
829.311157	181.400000
829.345825	181.000000
829.380554	183.400000
829.415283	180.000000
829.449951	177.200000
829.484619	187.000000
829.519348	186.600000
829.554016	181.600000
829.588745	181.200000
829.623413	178.600000
829.658081	190.400000
829.692749	178.900000
829.727417	185.800000
829.762146	182.900000
829.796814	177.900000
829.831482	180.000000
829.866150	181.900000
829.900879	180.600000
829.935486	182.600000
829.970154	180.800000
830.004883	189.100000
830.039490	182.500000
830.074219	178.700000
830.108887	181.400000
830.143494	180.900000
830.178223	177.500000
830.212891	180.200000
830.247498	181.300000
830.282166	187.100000
830.316772	185.600000
830.351501	179.300000
830.386169	181.100000
830.420776	180.200000
830.455444	181.600000
830.490112	180.800000
830.524719	176.100000
830.559387	183.400000
830.594055	182.800000
830.628662	181.900000
830.663330	181.200000
830.697998	187.400000
830.732605	179.800000
830.767273	183.100000
830.801941	181.700000
830.836487	188.600000
830.871155	182.600000
830.905762	183.900000
830.940430	175.800000
830.975098	180.200000
831.009644	181.100000
831.044312	188.400000
831.078979	183.000000
831.113525	176.600000
831.148193	180.700000
831.182861	180.900000
831.217407	182.800000
831.252075	192.300000
831.286621	179.000000
831.321289	178.600000
831.355896	181.300000
831.390564	186.800000
831.425110	181.200000
831.459778	186.900000
831.494324	190.000000
831.528931	182.800000
831.563599	185.900000
831.598145	177.000000
831.632751	180.500000
831.667419	180.600000
831.701965	183.400000
831.736572	184.100000
831.771179	178.400000
831.805786	179.100000
831.840393	186.900000
831.874939	175.300000
831.909546	184.100000
831.944153	175.700000
831.978760	180.700000
832.013306	178.000000
832.047913	186.100000
832.082458	187.300000
832.117065	179.400000
832.151672	187.000000
832.186218	183.600000
832.220825	182.700000
832.255432	175.900000
832.289978	179.300000
832.324585	183.400000
832.359192	183.000000
832.393677	180.000000
832.428284	181.800000
832.462830	180.700000
832.497437	181.100000
832.531982	183.800000
832.566589	177.900000
832.601135	184.500000
832.635681	176.500000
832.670227	182.600000
832.704773	185.600000
832.739380	183.200000
832.773926	181.400000
832.808472	180.600000
832.843079	181.100000
832.877563	183.400000
832.912170	179.700000
832.946716	176.900000
832.981201	184.000000
833.015808	183.900000
833.050293	179.300000
833.084839	178.100000
833.119446	181.400000
833.153992	184.200000
833.188477	181.200000
833.223022	179.600000
833.257568	183.000000
833.292114	185.700000
833.326660	189.300000
833.361145	180.000000
833.395691	175.100000
833.430237	182.100000
833.464783	183.200000
833.499329	179.700000
833.533875	180.000000
833.568359	184.300000
833.602905	185.600000
833.637390	184.500000
833.671875	180.600000
833.706421	180.400000
833.740906	178.400000
833.775452	175.800000
833.809998	180.000000
833.844482	186.500000
833.879028	181.200000
833.913513	179.400000
833.947998	183.000000
833.982544	177.800000
834.017090	180.100000
834.051514	173.200000
834.086060	184.800000
834.120544	181.500000
834.155029	182.700000
834.189575	180.800000
834.223999	183.900000
834.258545	180.600000
834.293030	181.300000
834.327515	179.700000
834.362000	179.100000
834.396545	183.500000
834.430969	180.800000
834.465454	184.000000
834.500000	177.200000
834.534424	181.500000
834.568970	175.700000
834.603455	177.300000
834.637878	178.900000
834.672363	181.500000
834.706909	183.300000
834.741333	181.200000
834.775818	177.800000
834.810242	177.600000
834.844727	181.100000
834.879211	180.500000
834.913635	181.800000
834.948181	182.700000
834.982666	181.300000
835.017090	179.900000
835.051575	182.300000
835.086060	178.500000
835.120483	184.100000
835.154907	183.000000
835.189331	181.700000
835.223816	184.300000
835.258301	175.700000
835.292786	179.600000
835.327209	183.700000
835.361694	179.400000
835.396057	180.000000
835.430542	182.900000
835.465027	180.200000
835.499390	179.700000
835.533875	208.600000
835.568359	180.300000
835.602722	176.500000
835.637207	183.800000
835.671692	176.200000
835.706055	196.000000
835.740540	182.700000
835.774902	184.700000
835.809387	181.400000
835.843811	178.700000
835.878235	185.200000
835.912659	178.900000
835.947083	178.900000
835.981506	181.800000
836.015930	177.100000
836.050354	185.800000
836.084778	185.900000
836.119202	184.400000
836.153625	193.500000
836.187988	179.100000
836.222473	178.900000
836.256897	181.600000
836.291260	180.300000
836.325684	182.900000
836.360046	180.300000
836.394470	180.500000
836.428894	186.400000
836.463318	179.400000
836.497681	184.700000
836.532104	186.200000
836.566467	180.600000
836.600891	180.800000
836.635315	185.600000
836.669678	183.000000
836.704102	184.900000
836.738525	183.300000
836.772888	176.800000
836.807251	179.700000
836.841675	183.600000
836.876038	178.000000
836.910461	179.500000
836.944763	184.100000
836.979187	178.700000
837.013611	186.500000
837.047974	178.500000
837.082336	189.500000
837.116699	184.000000
837.151062	181.100000
837.185486	178.300000
837.219849	179.000000
837.254211	185.700000
837.288574	181.900000
837.322937	178.100000
837.357300	174.200000
837.391663	189.700000
837.426086	183.800000
837.460388	183.600000
837.494751	184.200000
837.529114	180.300000
837.563477	187.000000
837.597839	182.100000
837.632141	179.000000
837.666565	180.300000
837.700928	183.000000
837.735229	182.500000
837.769592	183.400000
837.803955	185.300000
837.838257	178.900000
837.872620	180.100000
837.906982	186.500000
837.941284	182.500000
837.975647	182.900000
838.010010	187.000000
838.044312	180.700000
838.078674	180.000000
838.112976	182.500000
838.147339	182.400000
838.181702	181.900000
838.216003	188.100000
838.250366	183.600000
838.284668	184.500000
838.318970	176.300000
838.353333	181.400000
838.387634	180.700000
838.421936	181.900000
838.456299	182.400000
838.490601	186.900000
838.524902	184.400000
838.559265	185.800000
838.593567	185.100000
838.627869	176.200000
838.662170	184.200000
838.696472	177.000000
838.730774	179.500000
838.765137	185.000000
838.799377	173.500000
838.833740	180.800000
838.868042	186.800000
838.902283	175.400000
838.936646	186.600000
838.970947	181.600000
839.005188	186.500000
839.039551	176.300000
839.073792	187.800000
839.108093	179.900000
839.142395	188.900000
839.176697	176.900000
839.210937	183.000000
839.245300	188.600000
839.279541	177.400000
839.313843	179.900000
839.348145	184.000000
839.382385	184.600000
839.416687	185.600000
839.450989	184.000000
839.485229	181.000000
839.519531	178.800000
839.553833	185.700000
839.588013	182.000000
839.622314	184.700000
839.656555	183.400000
839.690857	182.300000
839.725159	177.700000
839.759460	181.400000
839.793640	180.300000
839.827942	181.100000
839.862183	178.400000
839.896423	183.000000
839.930725	192.000000
839.964966	188.500000
839.999207	185.300000
840.033508	187.700000
840.067688	180.400000
840.101990	188.000000
840.136230	181.300000
840.170471	188.000000
840.204712	180.400000
840.238953	178.400000
840.273193	183.700000
840.307434	184.800000
840.341736	179.800000
840.375916	178.100000
840.410217	180.100000
840.444397	185.200000
840.478638	184.300000
840.512878	185.600000
840.547119	183.200000
840.581360	185.300000
840.615601	188.800000
840.649780	190.100000
840.684021	183.800000
840.718262	187.000000
840.752441	190.100000
840.786682	183.400000
840.820862	184.000000
840.855103	187.100000
840.889343	182.600000
840.923584	185.600000
840.957764	183.500000
840.992004	182.800000
841.026184	194.000000
841.060425	180.300000
841.094666	180.700000
841.128845	184.400000
841.163025	183.000000
841.197266	183.500000
841.231445	183.100000
841.265686	184.500000
841.299866	180.400000
841.334045	185.800000
841.368286	181.200000
841.402405	186.500000
841.436646	184.500000
841.470825	181.100000
841.505005	181.600000
841.539185	179.200000
841.573425	180.000000
841.607544	182.300000
841.641785	182.100000
841.675964	179.600000
841.710144	183.200000
841.744324	180.600000
841.778503	180.800000
841.812683	180.500000
841.846863	187.700000
841.881042	189.100000
841.915222	179.400000
841.949402	192.600000
841.983521	175.300000
842.017700	180.900000
842.051880	181.600000
842.086060	185.200000
842.120239	182.900000
842.154419	180.600000
842.188538	182.500000
842.222717	181.200000
842.256897	188.500000
842.291016	182.900000
842.325195	183.300000
842.359375	191.000000
842.393494	188.400000
842.427673	182.800000
842.461853	183.300000
842.495911	191.300000
842.530090	181.700000
842.564209	183.800000
842.598389	183.600000
842.632568	183.500000
842.666626	185.200000
842.700806	181.100000
842.734985	181.400000
842.769043	184.500000
842.803223	181.200000
842.837402	182.000000
842.871460	178.800000
842.905640	190.000000
842.939697	178.700000
842.973877	184.000000
843.007996	186.800000
843.042175	190.300000
843.076233	181.900000
843.110413	184.300000
843.144470	187.400000
843.178589	186.400000
843.212769	181.100000
843.246826	185.800000
843.280945	181.700000
843.315125	181.300000
843.349182	180.400000
843.383301	186.000000
843.417419	193.000000
843.451538	183.100000
843.485657	181.500000
843.519714	181.200000
843.553833	183.100000
843.587952	180.700000
843.622070	180.500000
843.656128	184.600000
843.690247	180.600000
843.724304	183.100000
843.758423	185.100000
843.792542	180.100000
843.826599	182.600000
843.860718	180.300000
843.894836	178.300000
843.928894	182.200000
843.963013	183.500000
843.997070	179.100000
844.031128	178.800000
844.065247	185.300000
844.099304	185.300000
844.133362	184.900000
844.167480	186.400000
844.201599	186.900000
844.235596	184.200000
844.269714	185.000000
844.303711	182.700000
844.337830	177.200000
844.371948	186.100000
844.405945	183.200000
844.440063	179.800000
844.474121	192.600000
844.508118	182.200000
844.542236	183.100000
844.576294	182.100000
844.610352	179.700000
844.644409	183.200000
844.678406	177.000000
844.712524	185.300000
844.746582	188.000000
844.780640	182.400000
844.814636	182.800000
844.848755	191.300000
844.882751	182.400000
844.916809	184.700000
844.950867	184.900000
844.984863	188.300000
845.018921	182.600000
845.052979	180.600000
845.086975	184.000000
845.121033	178.600000
845.155090	181.000000
845.189087	187.400000
845.223145	183.200000
845.257141	184.300000
845.291199	186.400000
845.325256	186.600000
845.359253	185.100000
845.393250	193.300000
845.427307	182.200000
845.461304	182.900000
845.495361	183.900000
845.529358	189.300000
845.563354	182.500000
845.597412	179.500000
845.631409	189.900000
845.665405	187.900000
845.699463	186.000000
845.733459	180.800000
845.767456	191.700000
845.801453	180.800000
845.835449	186.800000
845.869446	185.200000
845.903503	186.700000
845.937439	179.500000
845.971497	188.000000
846.005493	179.000000
846.039429	185.800000
846.073486	190.700000
846.107483	181.600000
846.141418	181.900000
846.175476	183.900000
846.209473	187.600000
846.243408	180.900000
846.277405	184.100000
846.311401	180.200000
846.345337	182.000000
846.379395	186.500000
846.413330	181.100000
846.447327	192.600000
846.481323	180.600000
846.515259	181.300000
846.549255	181.400000
846.583252	184.900000
846.617187	180.100000
846.651184	184.600000
846.685120	182.700000
846.719055	188.600000
846.753052	185.900000
846.786987	186.100000
846.820984	179.200000
846.854980	187.600000
846.888916	180.000000
846.922852	184.800000
846.956848	187.600000
846.990723	180.100000
847.024719	184.100000
847.058716	182.400000
847.092590	187.600000
847.126587	184.300000
847.160522	182.600000
847.194458	185.500000
847.228455	179.800000
847.262390	180.700000
847.296265	182.000000
847.330261	185.300000
847.364136	181.700000
847.398132	181.800000
847.432068	184.100000
847.466003	181.700000
847.499939	183.400000
847.533875	185.100000
847.567749	182.700000
847.601746	182.500000
847.635681	185.100000
847.669556	177.500000
847.703491	188.000000
847.737427	193.300000
847.771301	180.000000
847.805237	185.400000
847.839233	183.000000
847.873108	181.300000
847.907043	182.700000
847.940918	188.600000
847.974854	185.600000
848.008789	187.000000
848.042664	181.700000
848.076538	185.200000
848.110474	182.500000
848.144348	184.000000
848.178284	177.700000
848.212219	184.700000
848.246094	181.800000
848.279968	183.000000
848.313904	184.700000
848.347778	184.800000
848.381653	182.600000
848.415588	182.300000
848.449463	181.400000
848.483337	184.500000
848.517212	189.100000
848.551086	185.000000
848.585022	178.700000
848.618835	192.600000
848.652771	179.700000
848.686646	181.000000
848.720520	188.100000
848.754395	183.200000
848.788330	185.800000
848.822144	186.300000
848.856018	180.400000
848.889954	190.700000
848.923767	179.100000
848.957642	182.000000
848.991577	183.800000
849.025391	182.800000
849.059265	182.100000
849.093079	180.200000
849.126953	179.200000
849.160828	186.500000
849.194641	184.200000
849.228577	181.200000
849.262451	181.600000
849.296265	183.100000
849.330139	180.900000
849.364014	183.200000
849.397827	184.800000
849.431702	184.700000
849.465515	186.400000
849.499329	177.100000
849.533203	179.700000
849.567078	176.700000
849.600891	184.900000
849.634766	182.600000
849.668518	186.900000
849.702393	184.300000
849.736267	179.200000
849.770020	191.300000
849.803894	186.000000
849.837769	184.100000
849.871521	183.800000
849.905396	185.200000
849.939270	179.400000
849.973022	182.300000
850.006897	187.100000
850.040710	186.200000
850.074524	187.200000
850.108337	181.600000
850.142151	188.700000
850.175964	186.500000
850.209778	183.200000
850.243530	174.700000
850.277405	186.200000
850.311218	182.900000
850.344971	181.900000
850.378845	189.100000
850.412659	181.800000
850.446411	184.400000
850.480225	184.500000
850.514038	185.600000
850.547791	186.000000
850.581665	183.600000
850.615417	182.800000
850.649231	184.600000
850.683044	182.600000
850.716858	181.900000
850.750610	183.800000
850.784424	184.900000
850.818176	180.900000
850.851929	181.100000
850.885742	181.700000
850.919495	182.500000
850.953308	188.500000
850.987122	188.600000
851.020874	179.100000
851.054626	177.000000
851.088440	185.400000
851.122192	186.800000
851.156006	183.800000
851.189697	182.400000
851.223511	179.500000
851.257263	185.700000
851.291077	183.600000
851.324829	182.000000
851.358582	181.300000
851.392334	183.300000
851.426086	181.400000
851.459900	188.300000
851.493591	183.200000
851.527344	183.900000
851.561157	182.100000
851.594849	185.500000
851.628662	185.000000
851.662415	190.400000
851.696106	184.100000
851.729858	188.000000
851.763611	178.800000
851.797363	184.800000
851.831116	179.500000
851.864868	185.100000
851.898560	186.300000
851.932312	182.500000
851.966064	185.100000
851.999817	183.500000
852.033569	181.600000
852.067261	188.000000
852.101013	180.500000
852.134766	183.900000
852.168457	176.600000
852.202209	188.700000
852.235901	180.000000
852.269592	186.700000
852.303345	187.700000
852.337036	185.400000
852.370789	183.700000
852.404541	185.600000
852.438171	179.200000
852.471924	183.000000
852.505676	179.100000
852.539307	185.300000
852.573059	181.200000
852.606812	183.000000
852.640442	181.900000
852.674194	188.900000
852.707886	190.200000
852.741577	189.100000
852.775269	181.200000
852.809021	184.300000
852.842651	185.200000
852.876404	188.900000
852.910034	185.200000
852.943787	187.800000
852.977478	184.000000
853.011108	180.800000
853.044861	179.800000
853.078552	187.900000
853.112183	184.800000
853.145874	184.200000
853.179626	178.400000
853.213257	184.600000
853.246948	182.900000
853.280640	188.100000
853.314270	183.500000
853.347961	188.400000
853.381653	187.900000
853.415283	187.300000
853.448975	181.300000
853.482605	184.400000
853.516296	183.800000
853.549988	178.900000
853.583618	185.900000
853.617310	184.100000
853.651001	185.200000
853.684631	180.000000
853.718323	182.000000
853.751953	187.600000
853.785583	177.400000
853.819275	186.700000
853.852966	185.400000
853.886536	178.800000
853.920227	180.700000
853.953918	184.700000
853.987488	182.300000
854.021179	185.500000
854.054749	189.200000
854.088440	185.300000
854.122131	180.200000
854.155701	184.600000
854.189331	179.700000
854.223022	185.100000
854.256592	184.600000
854.290283	181.000000
854.323914	184.300000
854.357483	183.300000
854.391174	184.900000
854.424744	188.800000
854.458374	183.200000
854.492065	193.000000
854.525696	185.100000
854.559265	188.000000
854.592896	192.100000
854.626465	183.300000
854.660095	182.600000
854.693787	185.500000
854.727356	182.400000
854.760986	186.700000
854.794617	185.100000
854.828186	182.600000
854.861816	185.000000
854.895447	186.000000
854.929016	182.600000
854.962585	185.300000
854.996155	189.900000
855.029785	183.900000
855.063416	184.200000
855.097046	186.400000
855.130615	179.500000
855.164185	189.300000
855.197754	183.100000
855.231384	185.700000
855.264954	181.100000
855.298523	186.400000
855.332153	184.300000
855.365723	189.400000
855.399292	181.600000
855.432922	182.900000
855.466492	183.600000
855.500061	180.700000
855.533630	181.600000
855.567200	186.900000
855.600769	185.800000
855.634338	188.700000
855.667969	184.700000
855.701477	181.500000
855.735046	180.400000
855.768616	177.800000
855.802185	185.300000
855.835754	193.500000
855.869324	177.700000
855.902893	182.800000
855.936401	187.700000
855.969971	184.100000
856.003540	179.100000
856.037109	186.000000
856.070618	183.100000
856.104187	180.000000
856.137695	180.900000
856.171265	176.700000
856.204834	183.500000
856.238403	185.900000
856.271912	182.000000
856.305481	184.800000
856.338989	179.100000
856.372559	186.500000
856.406128	185.800000
856.439636	186.700000
856.473145	182.200000
856.506653	189.000000
856.540222	183.800000
856.573792	187.400000
856.607300	187.200000
856.640808	180.400000
856.674377	183.800000
856.707825	215.900000
856.741394	188.900000
856.774902	179.700000
856.808472	179.200000
856.841980	185.900000
856.875488	188.400000
856.908936	179.200000
856.942505	183.700000
856.976013	181.200000
857.009521	181.200000
857.043030	184.800000
857.076477	182.300000
857.110046	188.000000
857.143555	184.900000
857.177063	184.500000
857.210571	181.700000
857.244080	179.500000
857.277527	185.300000
857.311035	185.500000
857.344543	187.500000
857.378052	182.500000
857.411499	188.500000
857.445068	189.200000
857.478516	183.400000
857.512024	180.700000
857.545532	183.800000
857.578979	185.800000
857.612427	184.000000
857.645874	180.200000
857.679382	184.600000
857.712891	187.800000
857.746399	183.000000
857.779846	186.900000
857.813354	186.800000
857.846741	183.300000
857.880249	180.200000
857.913757	186.000000
857.947266	184.200000
857.980652	188.000000
858.014160	182.600000
858.047546	183.100000
858.081055	181.900000
858.114563	193.700000
858.147949	178.400000
858.181458	186.100000
858.214844	183.000000
858.248352	177.900000
858.281799	186.300000
858.315308	192.500000
858.348694	186.500000
858.382141	190.400000
858.415588	186.300000
858.449036	187.800000
858.482483	184.300000
858.515930	181.100000
858.549377	184.000000
858.582825	188.700000
858.616211	185.400000
858.649658	186.200000
858.683105	180.000000
858.716553	182.500000
858.750000	178.900000
858.783386	181.000000
858.816833	178.500000
858.850281	184.400000
858.883728	183.900000
858.917114	185.300000
858.950562	190.200000
858.983948	188.800000
859.017395	187.400000
859.050781	182.400000
859.084167	180.900000
859.117615	180.000000
859.151062	185.500000
859.184448	180.700000
859.217834	181.500000
859.251282	181.600000
859.284668	179.900000
859.318054	177.400000
859.351440	182.500000
859.384888	188.800000
859.418274	179.300000
859.451721	176.900000
859.485046	185.400000
859.518494	184.400000
859.551819	180.400000
859.585266	185.500000
859.618652	187.900000
859.652039	178.900000
859.685425	180.000000
859.718811	178.800000
859.752197	177.900000
859.785583	187.400000
859.819031	188.700000
859.852356	184.800000
859.885742	181.200000
859.919067	182.500000
859.952454	183.100000
859.985901	185.600000
860.019287	184.200000
860.052612	0.000000
860.085999	0.000000
860.119324	0.000000
860.152710	0.000000
860.186096	0.000000
860.219421	0.000000
860.252808	0.000000
860.286133	0.000000
860.319519	0.000000
860.352905	0.000000
860.386292	0.000000
860.419617	0.000000
860.452942	0.000000
860.486267	0.000000
860.519653	0.000000
860.553040	0.000000
860.586365	0.000000
860.619690	0.000000
860.653076	0.000000
860.686340	0.000000
860.719727	0.000000
860.753113	0.000000
860.786377	0.000000
860.819763	0.000000
860.853027	0.000000
860.886414	0.000000
860.919739	0.000000
860.953125	0.000000
860.986389	0.000000
861.019714	0.000000
861.053040	0.000000
861.086365	0.000000
861.119690	0.000000
861.153076	0.000000
861.186340	0.000000
861.219666	0.000000
861.252930	0.000000
861.286316	0.000000
861.319641	0.000000
861.352905	0.000000
861.386230	0.000000
861.419495	0.000000
861.452820	0.000000
861.486145	0.000000
861.519470	0.000000
861.552734	0.000000
861.586060	0.000000
861.619324	0.000000
861.652649	0.000000
861.685974	0.000000
861.719238	0.000000
861.752563	0.000000
861.785828	0.000000
861.819092	0.000000
861.852417	0.000000
861.885742	0.000000
861.918945	0.000000
861.952271	0.000000
861.985535	0.000000
862.018799	0.000000
862.052124	0.000000
862.085449	0.000000
862.118652	0.000000
862.151978	0.000000
862.185181	0.000000
862.218506	0.000000
862.251770	0.000000
862.285034	0.000000
862.318298	0.000000
862.351562	0.000000
862.384827	0.000000
862.418091	0.000000
862.451355	0.000000
862.484619	0.000000
862.517883	0.000000
862.551086	0.000000
862.584351	0.000000
862.617676	0.000000
862.650940	0.000000
862.684143	0.000000
862.717407	0.000000
862.750610	0.000000
862.783875	0.000000
862.817139	0.000000
862.850342	0.000000
862.883606	0.000000
862.916870	0.000000
862.950073	0.000000
862.983337	0.000000
863.016602	0.000000
863.049805	0.000000
863.083069	0.000000
863.116211	0.000000
863.149475	0.000000
863.182739	0.000000
863.216003	0.000000
863.249146	0.000000
863.282410	0.000000
863.315613	0.000000
863.348816	0.000000
863.382080	0.000000
863.415222	0.000000
863.448486	0.000000
863.481689	0.000000
863.514893	0.000000
863.548157	0.000000
863.581360	0.000000
863.614502	0.000000
863.647766	0.000000
863.680908	0.000000
863.714172	0.000000
863.747375	0.000000
863.780579	0.000000
863.813721	0.000000
863.846985	0.000000
863.880127	0.000000
863.913330	0.000000
863.946533	0.000000
863.979675	0.000000
864.012939	0.000000
