Model Number: SPM-001-M   
Serial Number: 10090201
Firmware Version: 004.17.6
Exposure Time: 300000.000000us
Data Taken on: 28-01-2021 10:00:48.504
Wavelength	Amplitude
733.770752	0.000000
733.808716	0.000000
733.846619	0.000000
733.884583	0.000000
733.922546	0.000000
733.960449	0.000000
733.998413	0.000000
734.036377	0.000000
734.074219	0.000000
734.112183	0.000000
734.150085	0.000000
734.188049	0.000000
734.226013	0.000000
734.263916	0.000000
734.301819	0.000000
734.339783	0.000000
734.377686	0.000000
734.415588	0.000000
734.453552	0.000000
734.491455	0.000000
734.529419	0.000000
734.567322	0.000000
734.605225	0.000000
734.643127	0.000000
734.681091	0.000000
734.718994	0.000000
734.756897	0.000000
734.794800	0.000000
734.832703	0.000000
734.870667	0.000000
734.908508	0.000000
734.946472	0.000000
734.984375	0.000000
735.022278	0.000000
735.060181	0.000000
735.098083	0.000000
735.135986	0.000000
735.173889	0.000000
735.211792	0.000000
735.249695	0.000000
735.287598	0.000000
735.325439	0.000000
735.363403	0.000000
735.401306	0.000000
735.439148	0.000000
735.477051	0.000000
735.515015	0.000000
735.552856	0.000000
735.590759	0.000000
735.628662	0.000000
735.666504	0.000000
735.704407	0.000000
735.742310	0.000000
735.780212	0.000000
735.818115	0.000000
735.856018	0.000000
735.893860	0.000000
735.931763	0.000000
735.969604	0.000000
736.007507	0.000000
736.045410	0.000000
736.083252	0.000000
736.121094	0.000000
736.158997	0.000000
736.196838	0.000000
736.234741	0.000000
736.272644	0.000000
736.310486	0.000000
736.348389	0.000000
736.386230	0.000000
736.424072	0.000000
736.461975	0.000000
736.499878	0.000000
736.537720	0.000000
736.575562	0.000000
736.613403	0.000000
736.651306	0.000000
736.689148	0.000000
736.726990	0.000000
736.764893	0.000000
736.802734	0.000000
736.840576	0.000000
736.878418	0.000000
736.916321	0.000000
736.954102	0.000000
736.992004	0.000000
737.029846	0.000000
737.067688	0.000000
737.105530	0.000000
737.143372	0.000000
737.181213	0.000000
737.219116	0.000000
737.256897	0.000000
737.294739	0.000000
737.332642	0.000000
737.370422	0.000000
737.408325	0.000000
737.446167	0.000000
737.483948	0.000000
737.521790	0.000000
737.559692	0.000000
737.597473	0.000000
737.635315	0.000000
737.673157	0.000000
737.710999	0.000000
737.748840	0.000000
737.786621	0.000000
737.824463	0.000000
737.862305	0.000000
737.900085	0.000000
737.937927	0.000000
737.975769	0.000000
738.013550	0.000000
738.051392	0.000000
738.089233	0.000000
738.127014	0.000000
738.164856	0.000000
738.202698	0.000000
738.240479	0.000000
738.278320	0.000000
738.316162	0.000000
738.353943	0.000000
738.391785	0.000000
738.429565	0.000000
738.467407	0.000000
738.505188	0.000000
738.542969	0.000000
738.580811	0.000000
738.618652	0.000000
738.656372	0.000000
738.694214	0.000000
738.732056	0.000000
738.769836	0.000000
738.807617	0.000000
738.845459	0.000000
738.883240	0.000000
738.921021	0.000000
738.958862	0.000000
738.996582	0.000000
739.034424	0.000000
739.072205	0.000000
739.109985	0.000000
739.147827	0.000000
739.185547	0.000000
739.223389	0.000000
739.261169	0.000000
739.298889	0.000000
739.336731	0.000000
739.374512	0.000000
739.412292	0.000000
739.450073	0.000000
739.487854	0.000000
739.525635	0.000000
739.563416	0.000000
739.601135	0.000000
739.638977	0.000000
739.676758	0.000000
739.714478	0.000000
739.752258	0.000000
739.790100	0.000000
739.827820	0.000000
739.865601	0.000000
739.903381	0.000000
739.941101	0.000000
739.978882	182.900000
740.016724	178.400000
740.054443	183.700000
740.092224	178.700000
740.130005	177.700000
740.167725	178.000000
740.205505	177.600000
740.243225	184.600000
740.281006	181.300000
740.318787	175.100000
740.356506	184.900000
740.394287	183.900000
740.432068	178.600000
740.469727	175.600000
740.507507	183.300000
740.545288	179.600000
740.583008	182.100000
740.620789	179.600000
740.658569	175.600000
740.696228	178.800000
740.734009	183.900000
740.771790	173.400000
740.809509	181.800000
740.847229	176.100000
740.884949	178.400000
740.922729	176.100000
740.960449	179.400000
740.998169	176.500000
741.035950	177.400000
741.073669	179.400000
741.111389	180.700000
741.149170	187.500000
741.186890	186.500000
741.224609	182.400000
741.262329	181.300000
741.300110	186.800000
741.337769	176.800000
741.375549	177.100000
741.413208	180.900000
741.450989	178.900000
741.488708	178.100000
741.526367	177.100000
741.564148	182.900000
741.601868	183.600000
741.639526	178.600000
741.677307	181.800000
741.715027	182.100000
741.752686	178.200000
741.790466	182.900000
741.828186	181.200000
741.865845	176.200000
741.903564	174.700000
741.941345	179.200000
741.979004	178.100000
742.016724	182.500000
742.054382	182.100000
742.092102	183.500000
742.129822	175.700000
742.167480	178.200000
742.205200	177.700000
742.242920	181.800000
742.280640	183.500000
742.318359	177.200000
742.356079	179.900000
742.393738	181.900000
742.431396	180.500000
742.469116	183.500000
742.506775	173.600000
742.544495	181.400000
742.582214	182.500000
742.619873	179.000000
742.657593	185.000000
742.695251	184.300000
742.732971	179.000000
742.770630	180.800000
742.808289	180.700000
742.846008	180.000000
742.883728	181.000000
742.921326	179.800000
742.959045	179.300000
742.996765	179.000000
743.034424	180.300000
743.072083	177.700000
743.109802	179.000000
743.147400	176.800000
743.185120	180.700000
743.222839	180.600000
743.260437	184.500000
743.298157	182.400000
743.335754	174.700000
743.373474	180.100000
743.411133	175.300000
743.448792	182.000000
743.486450	180.000000
743.524170	176.100000
743.561768	179.400000
743.599487	184.400000
743.637146	186.300000
743.674744	179.300000
743.712463	179.200000
743.750122	180.100000
743.787720	181.800000
743.825439	178.100000
743.863037	178.000000
743.900696	180.500000
743.938416	204.200000
743.976013	181.100000
744.013672	186.100000
744.051331	184.600000
744.088928	186.900000
744.126587	185.000000
744.164307	181.300000
744.201904	178.900000
744.239563	180.900000
744.277222	181.900000
744.314819	179.100000
744.352478	185.800000
744.390137	182.700000
744.427734	182.300000
744.465393	176.500000
744.502991	177.600000
744.540649	182.800000
744.578308	181.500000
744.615906	177.300000
744.653564	174.300000
744.691223	181.500000
744.728821	176.100000
744.766418	179.100000
744.804077	180.600000
744.841675	179.300000
744.879333	177.200000
744.916992	180.300000
744.954529	178.200000
744.992187	182.900000
745.029785	179.000000
745.067444	179.300000
745.105042	180.400000
745.142639	183.100000
745.180298	187.200000
745.217896	179.900000
745.255493	179.400000
745.293152	183.900000
745.330750	183.000000
745.368347	185.300000
745.405945	182.100000
745.443604	181.500000
745.481140	181.700000
745.518799	181.100000
745.556396	182.100000
745.593994	182.600000
745.631592	180.700000
745.669189	177.300000
745.706787	180.000000
745.744385	177.700000
745.781982	183.200000
745.819580	179.600000
745.857178	178.800000
745.894775	181.300000
745.932373	180.900000
745.969971	181.700000
746.007568	175.000000
746.045166	184.700000
746.082764	183.500000
746.120300	182.700000
746.157898	182.000000
746.195557	181.300000
746.233093	175.600000
746.270691	182.700000
746.308228	182.600000
746.345825	184.600000
746.383423	182.200000
746.420959	179.100000
746.458557	179.700000
746.496155	179.100000
746.533691	180.500000
746.571289	177.500000
746.608887	180.900000
746.646423	182.200000
746.684021	182.100000
746.721619	177.700000
746.759155	183.000000
746.796753	176.100000
746.834351	176.400000
746.871826	177.600000
746.909424	185.300000
746.946960	179.700000
746.984558	180.300000
747.022156	179.700000
747.059631	187.800000
747.097229	182.300000
747.134827	179.300000
747.172363	183.800000
747.209900	182.900000
747.247498	176.500000
747.285034	185.300000
747.322571	184.500000
747.360168	180.500000
747.397644	175.400000
747.435242	183.300000
747.472778	182.800000
747.510315	179.400000
747.547913	179.000000
747.585388	185.000000
747.622925	177.900000
747.660522	175.400000
747.697998	178.200000
747.735596	179.300000
747.773132	177.700000
747.810669	181.400000
747.848206	181.900000
747.885742	178.300000
747.923279	175.800000
747.960815	181.000000
747.998352	179.800000
748.035889	182.900000
748.073425	180.900000
748.110901	178.500000
748.148437	176.600000
748.185974	180.900000
748.223511	186.100000
748.261047	182.400000
748.298584	178.800000
748.336060	180.000000
748.373596	181.900000
748.411133	205.700000
748.448608	177.900000
748.486145	181.700000
748.523682	182.500000
748.561218	186.700000
748.598755	180.700000
748.636292	182.300000
748.673706	180.000000
748.711243	186.600000
748.748718	181.600000
748.786255	180.700000
748.823792	179.800000
748.861267	177.000000
748.898804	183.800000
748.936340	181.100000
748.973816	179.300000
749.011292	184.500000
749.048828	182.300000
749.086304	181.100000
749.123840	186.500000
749.161316	176.700000
749.198792	186.400000
749.236328	183.000000
749.273743	180.300000
749.311279	179.000000
749.348816	182.000000
749.386230	180.000000
749.423767	173.300000
749.461304	182.200000
749.498718	180.300000
749.536255	184.300000
749.573730	188.500000
749.611206	185.300000
749.648682	180.400000
749.686218	179.800000
749.723633	181.800000
749.761169	179.200000
749.798645	177.600000
749.836060	179.600000
749.873596	178.600000
749.911011	181.700000
749.948547	184.800000
749.986023	180.400000
750.023437	181.500000
750.060913	176.800000
750.098450	175.800000
750.135864	179.300000
750.173340	180.600000
750.210815	183.700000
750.248291	178.200000
750.285767	179.700000
750.323242	184.200000
750.360657	182.400000
750.398132	177.100000
750.435608	183.600000
750.473022	177.800000
750.510498	179.100000
750.547974	177.600000
750.585449	178.400000
750.622925	173.100000
750.660339	189.200000
750.697815	180.400000
750.735291	180.000000
750.772644	180.000000
750.810120	181.200000
750.847595	180.500000
750.885010	178.500000
750.922485	185.100000
750.959961	181.100000
750.997375	185.000000
751.034851	183.600000
751.072266	183.200000
751.109680	176.100000
751.147156	184.100000
751.184570	182.700000
751.221985	179.700000
751.259460	175.200000
751.296875	179.700000
751.334290	180.800000
751.371765	182.800000
751.409180	184.600000
751.446594	183.700000
751.484070	183.100000
751.521423	180.900000
751.558899	181.500000
751.596375	187.700000
751.633728	185.600000
751.671204	186.800000
751.708618	180.000000
751.746033	182.300000
751.783447	176.700000
751.820801	178.400000
751.858276	184.000000
751.895691	179.600000
751.933105	178.700000
751.970520	177.400000
752.007935	180.200000
752.045349	183.500000
752.082764	180.600000
752.120178	178.700000
752.157532	178.500000
752.195007	180.800000
752.232422	182.400000
752.269775	183.500000
752.307190	183.400000
752.344543	177.900000
752.382019	180.700000
752.419434	179.500000
752.456787	182.300000
752.494202	184.100000
752.531616	180.200000
752.568970	182.300000
752.606384	182.000000
752.643799	182.000000
752.681152	186.100000
752.718567	183.700000
752.755981	174.300000
752.793335	183.300000
752.830750	176.100000
752.868164	184.300000
752.905518	175.900000
752.942932	184.400000
752.980225	176.600000
753.017639	183.000000
753.055054	182.800000
753.092407	183.000000
753.129822	183.200000
753.167175	185.600000
753.204529	179.600000
753.241943	178.900000
753.279358	177.300000
753.316650	183.500000
753.354065	182.100000
753.391479	184.000000
753.428772	185.700000
753.466187	182.500000
753.503479	177.600000
753.540894	180.000000
753.578308	177.300000
753.615601	177.700000
753.653015	180.500000
753.690369	178.400000
753.727722	177.800000
753.765076	176.500000
753.802490	177.800000
753.839783	174.700000
753.877136	178.700000
753.914551	187.300000
753.951843	178.400000
753.989258	183.500000
754.026611	180.200000
754.063904	182.700000
754.101257	177.700000
754.138611	175.300000
754.175964	182.400000
754.213318	186.500000
754.250610	176.900000
754.288025	178.400000
754.325378	176.400000
754.362671	182.200000
754.400024	181.700000
754.437378	186.000000
754.474670	187.700000
754.512085	179.100000
754.549438	181.200000
754.586731	178.700000
754.624084	179.400000
754.661438	177.500000
754.698730	187.800000
754.736084	179.800000
754.773376	180.600000
754.810730	182.900000
754.848083	181.600000
754.885315	183.300000
754.922668	176.700000
754.960022	177.500000
754.997314	184.900000
755.034668	181.700000
755.072021	182.000000
755.109253	179.300000
755.146606	185.300000
755.183960	180.100000
755.221252	187.700000
755.258545	184.400000
755.295898	186.400000
755.333191	185.000000
755.370544	182.900000
755.407776	181.800000
755.445129	183.400000
755.482422	184.600000
755.519714	180.500000
755.557068	178.300000
755.594360	176.200000
755.631653	184.100000
755.668945	187.400000
755.706299	182.700000
755.743530	190.300000
755.780884	187.500000
755.818176	183.900000
755.855408	185.100000
755.892761	184.300000
755.930054	183.800000
755.967346	183.200000
756.004639	185.900000
756.041870	182.500000
756.079224	187.800000
756.116516	178.500000
756.153748	185.200000
756.191040	189.500000
756.228394	185.600000
756.265625	178.900000
756.302917	183.100000
756.340210	180.900000
756.377441	186.700000
756.414795	186.800000
756.452087	183.600000
756.489319	177.800000
756.526611	186.200000
756.563843	184.000000
756.601135	191.400000
756.638428	190.400000
756.675659	184.000000
756.712952	184.900000
756.750244	185.200000
756.787476	183.000000
756.824768	188.500000
756.862061	182.200000
756.899292	229.000000
756.936584	185.500000
756.973816	191.700000
757.011047	192.300000
757.048340	183.600000
757.085632	185.300000
757.122864	196.700000
757.160156	181.900000
757.197327	185.800000
757.234619	189.400000
757.271912	183.800000
757.309082	187.600000
757.346375	182.700000
757.383667	188.600000
757.420837	185.400000
757.458130	186.300000
757.495422	183.800000
757.532593	186.800000
757.569885	181.200000
757.607117	182.500000
757.644348	186.600000
757.681580	196.200000
757.718811	177.300000
757.756042	187.200000
757.793335	183.100000
757.830505	190.600000
757.867798	184.000000
757.905029	183.900000
757.942200	187.500000
757.979492	184.400000
758.016724	185.200000
758.053894	186.400000
758.091187	196.500000
758.128418	187.400000
758.165588	185.300000
758.202820	194.600000
758.240112	187.200000
758.277283	196.600000
758.314514	187.500000
758.351685	185.700000
758.388916	193.700000
758.426147	191.900000
758.463379	193.300000
758.500610	190.100000
758.537842	188.900000
758.575012	194.200000
758.612244	185.900000
758.649475	196.000000
758.686646	183.900000
758.723877	193.300000
758.761108	194.900000
758.798279	188.600000
758.835510	189.700000
758.872742	192.900000
758.909851	189.800000
758.947083	191.400000
758.984253	189.700000
759.021484	192.500000
759.058716	191.700000
759.095886	193.800000
759.133057	190.000000
759.170288	192.200000
759.207458	187.700000
759.244690	198.500000
759.281860	197.700000
759.319031	191.100000
759.356262	191.500000
759.393433	189.700000
759.430603	191.600000
759.467773	190.700000
759.505005	195.400000
759.542175	196.200000
759.579346	191.700000
759.616516	191.900000
759.653687	194.900000
759.690918	190.000000
759.728027	193.600000
759.765259	192.800000
759.802429	194.200000
759.839539	194.700000
759.876770	197.500000
759.913940	200.700000
759.951111	194.300000
759.988281	193.000000
760.025452	192.300000
760.062561	190.400000
760.099792	201.300000
760.136963	194.900000
760.174072	193.600000
760.211243	191.200000
760.248413	192.000000
760.285583	191.100000
760.322754	202.400000
760.359863	198.200000
760.397034	201.000000
760.434204	194.100000
760.471375	194.500000
760.508545	194.800000
760.545715	195.500000
760.582825	192.200000
760.619995	197.800000
760.657166	192.700000
760.694275	200.700000
760.731445	196.500000
760.768555	197.700000
760.805664	200.000000
760.842834	197.200000
760.879944	199.400000
760.917114	198.200000
760.954285	197.700000
760.991394	191.600000
761.028564	201.600000
761.065674	197.900000
761.102783	195.800000
761.139954	200.600000
761.177124	200.700000
761.214172	201.800000
761.251343	199.300000
761.288452	198.300000
761.325562	201.800000
761.362732	196.700000
761.399841	198.600000
761.436951	199.300000
761.474121	198.400000
761.511169	199.500000
761.548340	203.200000
761.585449	202.000000
761.622559	202.800000
761.659668	201.500000
761.696838	204.600000
761.733887	202.000000
761.771057	201.000000
761.808167	200.300000
761.845276	204.300000
761.882385	208.900000
761.919434	202.700000
761.956604	214.100000
761.993713	201.300000
762.030762	206.200000
762.067871	202.300000
762.105042	201.700000
762.142090	209.200000
762.179199	203.800000
762.216309	209.100000
762.253418	213.300000
762.290527	210.200000
762.327637	206.500000
762.364685	200.000000
762.401794	207.100000
762.438904	206.600000
762.475952	202.400000
762.513062	202.300000
762.550110	202.100000
762.587219	211.800000
762.624329	212.200000
762.661377	208.500000
762.698486	207.200000
762.735596	207.700000
762.772644	204.200000
762.809753	201.800000
762.846863	206.200000
762.883911	210.100000
762.921021	208.700000
762.958069	206.600000
762.995117	213.900000
763.032227	213.400000
763.069336	205.800000
763.106323	205.500000
763.143433	204.700000
763.180481	208.000000
763.217590	209.600000
763.254639	207.100000
763.291687	207.300000
763.328735	213.600000
763.365845	210.900000
763.402893	208.300000
763.439941	212.000000
763.477051	213.800000
763.514038	212.600000
763.551147	209.300000
763.588196	212.500000
763.625244	209.600000
763.662292	218.700000
763.699402	218.700000
763.736389	217.400000
763.773499	219.800000
763.810486	218.200000
763.847534	214.800000
763.884644	217.600000
763.921631	213.600000
763.958679	222.800000
763.995728	215.400000
764.032776	221.400000
764.069824	212.100000
764.106873	219.300000
764.143860	222.700000
764.180969	217.500000
764.218018	223.700000
764.255005	217.800000
764.292053	217.600000
764.329102	226.400000
764.366089	225.100000
764.403137	223.500000
764.440125	219.100000
764.477173	221.500000
764.514221	223.700000
764.551208	221.500000
764.588257	219.200000
764.625305	225.000000
764.662292	228.900000
764.699341	230.800000
764.736389	225.400000
764.773376	236.900000
764.810425	229.900000
764.847473	232.900000
764.884399	229.400000
764.921448	234.300000
764.958435	234.900000
764.995483	227.100000
765.032532	238.700000
765.069458	228.800000
765.106506	230.400000
765.143555	229.200000
765.180481	234.000000
765.217529	237.600000
765.254578	228.800000
765.291504	233.800000
765.328552	233.400000
765.365540	229.500000
765.402527	241.900000
765.439575	230.300000
765.476501	229.600000
765.513550	229.900000
765.550537	234.200000
765.587463	238.100000
765.624512	233.900000
765.661499	227.900000
765.698486	241.700000
765.735474	232.600000
765.772461	234.700000
765.809448	240.500000
765.846436	239.800000
765.883423	243.300000
765.920410	236.700000
765.957397	236.200000
765.994385	238.000000
766.031311	243.900000
766.068359	240.600000
766.105286	240.800000
766.142273	246.000000
766.179260	243.200000
766.216187	239.800000
766.253174	237.500000
766.290161	242.400000
766.327148	245.800000
766.364136	244.400000
766.401123	255.600000
766.438049	240.200000
766.475037	251.200000
766.512024	248.400000
766.548950	258.900000
766.585937	254.100000
766.622864	248.900000
766.659790	247.700000
766.696777	243.900000
766.733704	253.300000
766.770691	247.600000
766.807678	256.400000
766.844604	252.700000
766.881531	252.900000
766.918518	257.100000
766.955444	257.000000
766.992432	252.900000
767.029358	254.300000
767.066284	256.200000
767.103271	255.200000
767.140198	287.000000
767.177124	266.200000
767.214050	258.300000
767.251038	258.800000
767.287964	257.000000
767.324890	254.800000
767.361816	259.300000
767.398743	263.100000
767.435730	258.400000
767.472595	260.300000
767.509583	264.800000
767.546509	256.700000
767.583374	261.400000
767.620361	255.700000
767.657288	260.900000
767.694214	261.500000
767.731140	258.700000
767.768066	262.700000
767.804993	263.700000
767.841919	256.700000
767.878845	263.000000
767.915710	266.600000
767.952698	262.800000
767.989563	266.200000
768.026489	267.200000
768.063416	261.600000
768.100281	262.900000
768.137207	271.200000
768.174133	267.600000
768.211060	267.600000
768.247986	267.800000
768.284912	266.600000
768.321777	268.300000
768.358704	265.200000
768.395630	268.300000
768.432495	265.700000
768.469421	269.100000
768.506348	273.100000
768.543152	276.100000
768.580078	273.400000
768.616943	273.100000
768.653870	276.100000
768.690796	274.900000
768.727661	275.700000
768.764587	275.400000
768.801453	272.400000
768.838318	279.100000
768.875244	279.500000
768.912109	282.500000
768.948975	276.500000
768.985901	278.300000
769.022766	276.900000
769.059631	280.700000
769.096558	279.300000
769.133362	277.400000
769.170288	280.200000
769.207214	282.500000
769.244019	286.100000
769.280945	283.900000
769.317810	290.500000
769.354675	287.200000
769.391541	292.200000
769.428406	289.500000
769.465271	296.100000
769.502136	289.300000
769.539062	292.000000
769.575867	290.400000
769.612732	294.400000
769.649597	295.900000
769.686462	298.500000
769.723328	295.700000
769.760193	294.900000
769.797058	295.400000
769.833923	302.100000
769.870728	298.500000
769.907593	301.500000
769.944519	302.900000
769.981323	302.200000
770.018188	303.700000
770.055054	302.400000
770.091858	303.900000
770.128723	310.300000
770.165588	318.400000
770.202393	307.000000
770.239258	317.600000
770.276062	310.800000
770.312927	314.000000
770.349792	316.500000
770.386597	315.400000
770.423462	322.900000
770.460327	327.700000
770.497131	318.200000
770.533997	315.400000
770.570862	323.800000
770.607605	326.400000
770.644470	321.800000
770.681335	325.300000
770.718140	325.900000
770.754944	321.200000
770.791809	322.300000
770.828613	324.700000
770.865479	323.100000
770.902222	330.600000
770.939087	327.200000
770.975952	321.000000
771.012695	326.100000
771.049561	337.700000
771.086365	331.200000
771.123169	328.200000
771.159973	330.100000
771.196838	333.600000
771.233582	332.700000
771.270447	333.000000
771.307251	339.500000
771.344055	335.300000
771.380859	339.100000
771.417664	333.200000
771.454468	343.500000
771.491272	342.300000
771.528076	342.700000
771.564880	339.600000
771.601685	344.900000
771.638428	339.100000
771.675293	344.600000
771.712097	335.100000
771.748840	349.400000
771.785645	342.300000
771.822449	348.800000
771.859253	350.000000
771.896057	349.600000
771.932861	356.100000
771.969604	349.700000
772.006409	345.600000
772.043213	356.400000
772.079956	353.900000
772.116760	347.600000
772.153503	351.700000
772.190308	359.600000
772.227112	353.700000
772.263855	355.200000
772.300659	353.900000
772.337463	361.100000
772.374207	352.800000
772.411011	353.900000
772.447754	353.700000
772.484497	367.000000
772.521301	363.300000
772.558105	362.700000
772.594849	361.000000
772.631592	366.900000
772.668396	362.500000
772.705139	367.300000
772.741882	367.000000
772.778625	372.400000
772.815430	370.500000
772.852173	370.300000
772.888916	375.600000
772.925720	378.100000
772.962463	379.000000
772.999207	375.100000
773.035950	377.100000
773.072754	379.200000
773.109436	374.500000
773.146240	375.800000
773.182922	376.700000
773.219727	383.500000
773.256470	376.900000
773.293152	371.600000
773.329956	376.600000
773.366699	380.300000
773.403381	378.100000
773.440186	382.800000
773.476929	383.500000
773.513611	376.000000
773.550354	378.300000
773.587158	378.400000
773.623840	379.400000
773.660583	386.900000
773.697327	391.500000
773.734009	383.700000
773.770813	383.200000
773.807495	384.000000
773.844238	383.400000
773.880981	393.400000
773.917664	391.900000
773.954407	395.100000
773.991150	390.000000
774.027832	396.600000
774.064575	390.100000
774.101318	395.200000
774.138000	398.700000
774.174744	393.800000
774.211487	397.100000
774.248108	388.300000
774.284851	390.000000
774.321594	399.100000
774.358276	398.400000
774.395020	401.600000
774.431702	399.400000
774.468384	395.100000
774.505127	392.200000
774.541809	405.700000
774.578491	410.500000
774.615234	410.500000
774.651917	403.200000
774.688599	406.600000
774.725342	411.400000
774.762024	412.600000
774.798706	415.700000
774.835449	416.700000
774.872070	418.400000
774.908813	417.500000
774.945496	417.800000
774.982178	419.800000
775.018860	422.100000
775.055542	420.900000
775.092224	420.800000
775.128967	428.500000
775.165588	428.400000
775.202271	426.500000
775.239014	435.400000
775.275635	433.600000
775.312317	430.900000
775.349060	434.500000
775.385681	436.600000
775.422363	432.900000
775.459045	438.200000
775.495667	442.100000
775.532410	442.400000
775.569092	443.800000
775.605713	440.100000
775.642395	442.200000
775.679016	442.400000
775.715698	447.300000
775.752380	446.500000
775.789001	444.700000
775.825684	443.300000
775.862366	445.400000
775.898987	456.000000
775.935669	453.900000
775.972351	466.800000
776.008972	465.900000
776.045654	461.300000
776.082336	457.900000
776.118958	461.300000
776.155640	467.100000
776.192322	474.100000
776.228882	475.000000
776.265564	474.200000
776.302185	469.400000
776.338867	474.200000
776.375488	474.200000
776.412109	480.200000
776.448792	482.400000
776.485413	488.500000
776.522034	476.900000
776.558716	477.000000
776.595337	482.100000
776.631958	486.400000
776.668579	486.500000
776.705261	491.000000
776.741882	487.300000
776.778503	486.400000
776.815186	486.700000
776.851746	497.700000
776.888367	497.800000
776.924988	504.900000
776.961609	502.000000
776.998291	497.500000
777.034851	495.800000
777.071472	503.800000
777.108154	500.300000
777.144714	510.900000
777.181335	508.500000
777.218018	507.800000
777.254578	510.700000
777.291199	510.200000
777.327759	512.900000
777.364380	519.900000
777.401062	524.300000
777.437622	531.100000
777.474243	518.700000
777.510864	523.100000
777.547424	523.800000
777.584045	526.000000
777.620667	526.600000
777.657227	532.000000
777.693848	528.500000
777.730469	536.500000
777.767029	528.000000
777.803650	528.800000
777.840271	530.600000
777.876831	532.300000
777.913452	536.700000
777.950012	524.800000
777.986633	524.200000
778.023193	526.800000
778.059753	528.400000
778.096375	529.200000
778.132996	540.100000
778.169556	533.600000
778.206116	536.700000
778.242737	533.300000
778.279297	536.200000
778.315857	530.100000
778.352478	540.300000
778.389038	541.600000
778.425598	544.700000
778.462219	550.900000
778.498718	544.300000
778.535339	547.400000
778.571838	550.500000
778.608459	554.900000
778.645020	543.400000
778.681580	550.300000
778.718140	554.700000
778.754761	546.900000
778.791260	553.400000
778.827881	560.100000
778.864441	562.200000
778.900940	567.700000
778.937561	562.900000
778.974121	561.400000
779.010620	557.200000
779.047241	557.100000
779.083801	565.800000
779.120300	563.900000
779.156860	568.000000
779.193359	563.700000
779.229980	569.600000
779.266541	574.100000
779.303040	576.000000
779.339600	567.700000
779.376160	560.400000
779.412659	561.400000
779.449219	558.600000
779.485779	563.300000
779.522278	568.900000
779.558838	570.500000
779.595398	571.400000
779.631897	570.100000
779.668457	566.700000
779.705017	571.600000
779.741516	567.000000
779.778076	567.200000
779.814575	570.300000
779.851074	569.500000
779.887634	567.800000
779.924133	575.800000
779.960693	569.800000
779.997253	584.700000
780.033691	581.500000
780.070251	577.900000
780.106812	586.400000
780.143250	583.400000
780.179810	581.400000
780.216370	589.400000
780.252808	593.100000
780.289368	597.900000
780.325867	595.900000
780.362366	587.800000
780.398865	596.800000
780.435364	595.800000
780.471863	602.600000
780.508423	599.600000
780.544861	605.800000
780.581421	600.500000
780.617920	596.300000
780.654419	597.800000
780.690918	601.800000
780.727417	606.900000
780.763916	602.400000
780.800415	607.200000
780.836914	599.200000
780.873352	608.800000
780.909912	606.600000
780.946411	614.300000
780.982849	617.100000
781.019348	626.400000
781.055786	620.900000
781.092346	620.800000
781.128845	626.800000
781.165283	636.500000
781.201782	640.300000
781.238281	645.100000
781.274719	645.400000
781.311218	639.900000
781.347717	648.700000
781.384155	637.100000
781.420654	642.500000
781.457092	655.900000
781.493591	648.500000
781.530090	638.900000
781.566528	639.700000
781.602966	643.200000
781.639465	649.100000
781.675903	649.600000
781.712402	651.000000
781.748901	650.800000
781.785278	648.400000
781.821777	652.300000
781.858276	655.500000
781.894714	666.300000
781.931152	664.000000
781.967651	672.300000
782.004089	663.500000
782.040527	669.000000
782.076965	670.600000
782.113403	674.100000
782.149902	674.900000
782.186340	673.100000
782.222778	680.400000
782.259277	673.200000
782.295654	681.500000
782.332092	686.000000
782.368591	684.800000
782.404968	684.800000
782.441467	691.500000
782.477905	689.500000
782.514282	689.800000
782.550781	700.800000
782.587219	700.600000
782.623596	706.100000
782.660095	709.600000
782.696472	713.300000
782.732910	714.700000
782.769348	722.300000
782.805786	737.900000
782.842224	729.000000
782.878662	725.800000
782.915039	728.600000
782.951477	733.400000
782.987915	725.900000
783.024292	730.800000
783.060730	730.300000
783.097168	725.100000
783.133545	719.200000
783.169983	718.200000
783.206421	714.000000
783.242798	710.300000
783.279236	702.300000
783.315613	703.200000
783.352051	705.000000
783.388489	700.100000
783.424866	694.700000
783.461304	698.900000
783.497681	711.100000
783.534058	706.000000
783.570496	704.000000
783.606934	704.200000
783.643250	706.600000
783.679687	717.300000
783.716125	716.900000
783.752441	725.000000
783.788879	735.100000
783.825317	746.100000
783.861633	753.500000
783.898071	756.900000
783.934448	765.000000
783.970825	761.900000
784.007263	755.700000
784.043579	741.700000
784.080017	715.200000
784.116394	663.600000
784.152710	628.600000
784.189148	623.100000
784.225525	642.000000
784.261902	676.900000
784.298279	712.200000
784.334656	737.900000
784.371033	741.400000
784.407410	746.500000
784.443787	738.600000
784.480164	729.300000
784.516541	720.600000
784.552856	729.500000
784.589233	731.000000
784.625610	728.500000
784.661987	748.600000
784.698364	747.000000
784.734741	736.200000
784.771057	738.200000
784.807434	746.300000
784.843811	756.000000
784.880127	760.100000
784.916504	775.300000
784.952881	770.700000
784.989197	769.700000
785.025574	778.900000
785.061951	781.200000
785.098267	796.800000
785.134644	794.300000
785.170959	787.500000
785.207275	780.300000
785.243652	782.600000
785.279968	769.500000
785.316345	769.900000
785.352722	767.600000
785.388977	759.400000
785.425354	743.200000
785.461731	728.900000
785.498047	730.000000
785.534363	727.300000
785.570679	733.300000
785.606995	725.700000
785.643372	727.800000
785.679687	723.700000
785.716003	724.400000
785.752380	729.100000
785.788635	737.800000
785.825012	752.600000
785.861328	757.400000
785.897644	752.400000
785.933960	761.200000
785.970337	771.800000
786.006592	789.100000
786.042908	799.700000
786.079285	798.900000
786.115540	800.100000
786.151855	796.400000
786.188171	798.600000
786.224487	803.300000
786.260803	798.100000
786.297119	807.300000
786.333435	801.700000
786.369751	790.500000
786.406006	786.000000
786.442322	775.100000
786.478638	763.200000
786.514954	774.000000
786.551270	763.500000
786.587585	765.800000
786.623840	757.600000
786.660156	754.000000
786.696472	745.500000
786.732727	749.500000
786.769043	758.200000
786.805298	747.100000
786.841614	752.300000
786.877930	756.700000
786.914124	755.700000
786.950439	774.800000
786.986755	787.700000
787.023010	799.700000
787.059326	803.900000
787.095642	812.800000
787.131836	823.100000
787.168152	814.700000
787.204468	826.900000
787.240723	837.200000
787.276978	836.700000
787.313293	847.700000
787.349548	845.800000
787.385803	845.500000
787.422058	838.200000
787.458313	828.500000
787.494629	823.700000
787.530823	822.100000
787.567139	817.900000
787.603455	809.800000
787.639648	793.500000
787.675903	792.500000
787.712219	792.900000
787.748413	796.200000
787.784729	801.100000
787.820984	789.500000
787.857178	788.600000
787.893494	785.900000
787.929749	789.900000
787.965942	804.700000
788.002258	819.000000
788.038452	823.300000
788.074707	821.200000
788.110962	823.900000
788.147217	824.000000
788.183472	837.100000
788.219727	850.600000
788.255920	861.200000
788.292175	865.600000
788.328430	858.200000
788.364624	845.200000
788.400879	849.300000
788.437134	857.400000
788.473328	855.000000
788.509583	856.500000
788.545837	855.400000
788.582031	854.300000
788.618286	849.300000
788.654480	850.700000
788.690735	856.900000
788.726990	870.700000
788.763184	865.800000
788.799377	876.400000
788.835632	866.100000
788.871826	881.600000
788.908081	879.900000
788.944336	876.000000
788.980469	884.200000
789.016724	883.100000
789.052979	882.900000
789.089111	869.100000
789.125366	875.700000
789.161621	871.600000
789.197754	880.400000
789.234009	874.500000
789.270142	869.500000
789.306396	855.100000
789.342590	851.900000
789.378784	839.700000
789.414978	846.200000
789.451233	850.800000
789.487366	858.000000
789.523621	861.900000
789.559814	853.100000
789.595947	849.300000
789.632202	859.900000
789.668335	875.300000
789.704529	896.000000
789.740784	909.100000
789.776917	906.800000
789.813110	890.200000
789.849304	900.900000
789.885498	911.000000
789.921692	920.000000
789.957886	918.700000
789.994019	918.000000
790.030212	922.400000
790.066406	925.000000
790.102539	927.600000
790.138733	942.500000
790.174927	947.000000
790.211060	951.300000
790.247253	937.900000
790.283386	935.700000
790.319580	918.400000
790.355774	908.300000
790.391907	911.700000
790.428101	924.100000
790.464294	919.700000
790.500427	915.100000
790.536621	902.500000
790.572754	886.900000
790.608887	887.800000
790.645081	899.700000
790.681274	910.700000
790.717346	904.400000
790.753540	893.400000
790.789734	876.200000
790.825867	869.000000
790.862000	877.200000
790.898132	891.300000
790.934265	888.300000
790.970459	885.600000
791.006592	876.800000
791.042725	878.800000
791.078918	876.200000
791.114990	876.400000
791.151184	884.600000
791.187317	896.300000
791.223389	894.000000
791.259583	879.500000
791.295715	882.600000
791.331848	885.000000
791.367981	895.800000
791.404114	896.900000
791.440247	892.700000
791.476379	887.100000
791.512451	870.000000
791.548584	870.000000
791.584778	869.300000
791.620850	878.700000
791.656982	888.300000
791.693115	886.900000
791.729187	882.600000
791.765381	877.300000
791.801514	880.200000
791.837585	888.900000
791.873718	902.900000
791.909851	913.100000
791.945923	908.000000
791.982056	876.200000
792.018188	877.000000
792.054260	877.500000
792.090393	890.300000
792.126465	882.500000
792.162598	886.500000
792.198669	877.800000
792.234741	872.600000
792.270874	856.100000
792.307007	850.400000
792.343079	859.900000
792.379150	869.600000
792.415283	852.400000
792.451355	853.700000
792.487488	829.500000
792.523560	822.100000
792.559631	801.700000
792.595764	760.000000
792.631836	731.900000
792.667908	729.500000
792.703979	733.000000
792.740051	770.200000
792.776184	796.600000
792.812256	812.200000
792.848328	819.600000
792.884399	824.200000
792.920471	824.700000
792.956543	820.400000
792.992615	820.700000
793.028748	820.800000
793.064758	833.000000
793.100830	845.300000
793.136963	855.300000
793.172974	852.500000
793.209045	844.500000
793.245178	855.900000
793.281189	842.400000
793.317261	854.500000
793.353271	853.300000
793.389404	857.700000
793.425476	851.300000
793.461487	841.200000
793.497559	836.300000
793.533630	842.800000
793.569641	843.200000
793.605713	846.500000
793.641785	842.500000
793.677795	852.000000
793.713867	841.900000
793.749878	847.700000
793.785950	860.200000
793.822021	874.500000
793.858032	864.800000
793.894104	877.600000
793.930176	865.600000
793.966187	867.000000
794.002258	851.000000
794.038269	869.300000
794.074280	868.900000
794.110352	887.600000
794.146423	873.000000
794.182373	864.200000
794.218445	860.300000
794.254517	856.200000
794.290466	850.000000
794.326538	849.800000
794.362549	852.500000
794.398560	852.800000
794.434631	851.600000
794.470581	832.500000
794.506653	824.200000
794.542664	832.100000
794.578674	842.700000
794.614685	847.100000
794.650757	844.400000
794.686707	840.700000
794.722778	833.900000
794.758789	838.300000
794.794739	859.500000
794.830811	878.300000
794.866821	896.200000
794.902771	892.100000
794.938843	882.900000
794.974792	878.800000
795.010803	882.600000
795.046814	884.200000
795.082825	877.400000
795.118835	889.200000
795.154846	873.900000
795.190796	870.800000
795.226807	855.200000
795.262817	857.000000
795.298767	858.100000
795.334778	869.100000
795.370850	861.400000
795.406799	861.600000
795.442810	845.900000
795.478821	843.900000
795.514709	847.900000
795.550720	878.100000
795.586670	847.100000
795.622681	852.700000
795.658691	851.300000
795.694641	852.200000
795.730652	848.200000
795.766663	858.400000
795.802551	862.300000
795.838562	876.500000
795.874573	861.100000
795.910522	854.700000
795.946472	849.900000
795.982483	855.300000
796.018433	858.400000
796.054382	868.600000
796.090393	867.600000
796.126282	858.600000
796.162292	839.800000
796.198242	837.600000
796.234192	835.600000
796.270203	836.000000
796.306091	844.000000
796.342041	851.700000
796.378052	839.500000
796.413940	839.200000
796.449951	843.300000
796.485901	848.300000
796.521790	856.500000
796.557800	871.000000
796.593689	868.900000
796.629639	867.800000
796.665649	853.900000
796.701599	845.600000
796.737488	849.900000
796.773437	855.800000
796.809387	862.600000
796.845337	862.600000
796.881287	846.900000
796.917175	837.600000
796.953125	838.000000
796.989075	848.900000
797.024963	848.600000
797.060913	847.200000
797.096863	838.100000
797.132751	833.200000
797.168701	823.300000
797.204590	828.800000
797.240540	828.500000
797.276489	837.100000
797.312439	841.200000
797.348328	835.200000
797.384277	824.600000
797.420166	817.900000
797.456055	823.300000
797.492004	821.700000
797.527893	829.500000
797.563843	834.000000
797.599731	826.800000
797.635620	814.000000
797.671570	822.100000
797.707520	821.100000
797.743347	825.400000
797.779297	834.700000
797.815125	827.200000
797.851074	812.200000
797.887024	803.900000
797.922913	794.200000
797.958801	809.700000
797.994690	809.300000
798.030579	817.100000
798.066467	815.500000
798.102356	804.700000
798.138245	797.400000
798.174133	795.500000
798.210083	806.700000
798.245911	823.500000
798.281799	817.400000
798.317749	817.500000
798.353577	804.800000
798.389465	798.100000
798.425293	797.900000
798.461243	797.100000
798.497131	806.500000
798.532959	808.800000
798.568848	807.600000
798.604736	797.900000
798.640564	785.400000
798.676453	788.000000
798.712402	793.400000
798.748230	797.300000
798.784119	790.200000
798.820007	789.500000
798.855835	781.600000
798.891724	781.900000
798.927551	777.800000
798.963379	778.800000
798.999268	781.000000
799.035095	774.400000
799.070984	765.900000
799.106873	756.300000
799.142700	762.400000
799.178528	754.600000
799.214417	760.600000
799.250244	771.400000
799.286133	765.800000
799.321960	766.700000
799.357788	762.300000
799.393677	758.000000
799.429504	756.800000
799.465332	758.200000
799.501221	768.600000
799.537048	766.900000
799.572876	759.800000
799.608704	756.200000
799.644531	770.800000
799.680359	771.800000
799.716248	779.800000
799.752014	785.200000
799.787903	774.600000
799.823730	765.500000
799.859558	759.800000
799.895386	761.000000
799.931213	759.300000
799.967041	759.600000
800.002869	760.300000
800.038696	768.600000
800.074463	753.000000
800.110352	760.300000
800.146179	757.100000
800.181946	761.100000
800.217773	760.800000
800.253540	754.400000
800.289429	749.200000
800.325256	744.600000
800.361023	737.900000
800.396851	749.100000
800.432678	752.000000
800.468445	748.400000
800.504272	746.000000
800.540100	732.900000
800.575867	731.600000
800.611694	734.500000
800.647461	734.900000
800.683289	741.200000
800.719116	742.500000
800.754883	734.200000
800.790649	724.100000
800.826477	727.400000
800.862244	742.900000
800.898071	733.700000
800.933838	733.400000
800.969604	728.300000
801.005432	720.000000
801.041199	722.800000
801.076965	720.100000
801.112793	716.800000
801.148560	707.600000
801.184326	713.300000
801.220154	715.100000
801.255859	711.200000
801.291687	704.700000
801.327454	699.700000
801.363281	701.300000
801.398987	701.200000
801.434814	701.800000
801.470520	706.900000
801.506287	696.400000
801.542114	690.900000
801.577820	689.000000
801.613647	694.700000
801.649414	690.300000
801.685120	691.700000
801.720886	686.200000
801.756714	682.600000
801.792419	678.600000
801.828186	678.300000
801.863892	678.600000
801.899719	677.600000
801.935486	677.500000
801.971252	688.200000
802.006958	672.000000
802.042725	668.800000
802.078430	671.800000
802.114197	674.100000
802.149963	681.200000
802.185669	673.200000
802.221436	667.400000
802.257202	670.400000
802.292908	664.800000
802.328674	672.300000
802.364441	676.500000
802.400146	671.100000
802.435913	675.600000
802.471558	668.600000
802.507324	667.800000
802.543091	660.100000
802.578796	671.500000
802.614502	672.400000
802.650269	675.100000
802.685974	663.700000
802.721741	666.700000
802.757446	662.600000
802.793152	667.200000
802.828918	670.300000
802.864624	670.700000
802.900330	665.600000
802.936035	663.400000
802.971802	662.400000
803.007446	657.500000
803.043213	652.200000
803.078857	665.900000
803.114624	653.000000
803.150330	653.900000
803.185974	646.200000
803.221741	646.900000
803.257446	656.000000
803.293152	657.700000
803.328857	650.400000
803.364563	650.200000
803.400208	643.500000
803.435974	644.600000
803.471680	639.400000
803.507324	637.800000
803.543030	651.900000
803.578735	649.500000
803.614441	645.800000
803.650146	654.100000
803.685791	638.600000
803.721497	636.600000
803.757202	625.700000
803.792847	637.800000
803.828552	629.400000
803.864258	630.200000
803.899902	622.700000
803.935608	612.600000
803.971313	618.600000
804.006958	621.500000
804.042664	617.500000
804.078308	625.400000
804.113953	612.100000
804.149658	619.600000
804.185364	610.700000
804.221008	623.900000
804.256714	608.100000
804.292297	609.500000
804.328003	607.900000
804.363708	602.400000
804.399292	600.000000
804.434998	601.300000
804.470703	598.000000
804.506287	606.500000
804.541992	599.700000
804.577637	601.900000
804.613281	589.200000
804.648926	586.800000
804.684570	590.700000
804.720215	584.800000
804.755920	584.900000
804.791565	581.800000
804.827209	588.900000
804.862854	584.600000
804.898437	581.400000
804.934143	585.900000
804.969788	584.300000
805.005371	577.300000
805.041077	580.800000
805.076721	578.100000
805.112305	569.500000
805.147949	572.400000
805.183655	570.800000
805.219238	573.900000
805.254883	570.000000
805.290466	575.400000
805.326111	570.300000
805.361755	561.900000
805.397400	563.100000
805.432983	562.800000
805.468628	561.200000
805.504211	566.300000
805.539856	571.400000
805.575500	569.200000
805.611084	561.100000
805.646729	551.200000
805.682373	552.800000
805.717957	560.900000
805.753601	562.600000
805.789246	552.100000
805.824768	561.000000
805.860413	560.700000
805.895996	550.800000
805.931641	550.500000
805.967224	558.300000
806.002869	554.100000
806.038452	556.000000
806.074036	554.900000
806.109619	544.000000
806.145264	546.100000
806.180847	542.800000
806.216431	539.500000
806.252014	546.900000
806.287659	548.000000
806.323181	550.600000
806.358826	548.600000
806.394409	533.100000
806.429993	533.400000
806.465576	543.200000
806.501160	536.100000
806.536743	528.000000
806.572327	538.400000
806.607910	530.800000
806.643494	527.700000
806.679077	526.000000
806.714661	528.300000
806.750244	524.200000
806.785828	525.200000
806.821350	521.400000
806.856934	527.700000
806.892517	520.200000
806.928101	518.100000
806.963684	518.200000
806.999268	526.300000
807.034790	508.800000
807.070374	513.800000
807.105896	506.300000
807.141479	504.000000
807.177063	512.600000
807.212585	509.000000
807.248169	504.900000
807.283752	510.600000
807.319275	502.400000
807.354858	504.400000
807.390381	501.600000
807.425903	500.300000
807.461487	499.200000
807.497070	495.300000
807.532593	492.000000
807.568115	492.300000
807.603699	489.700000
807.639221	482.300000
807.674744	488.700000
807.710266	490.400000
807.745850	489.200000
807.781372	488.900000
807.816895	482.500000
807.852417	486.800000
807.888000	484.800000
807.923523	484.900000
807.959045	488.500000
807.994629	483.000000
808.030090	479.600000
808.065613	481.200000
808.101135	482.500000
808.136658	479.500000
808.172241	477.700000
808.207764	477.100000
808.243225	472.700000
808.278809	473.500000
808.314270	476.400000
808.349792	468.100000
808.385315	468.900000
808.420837	470.600000
808.456360	477.000000
808.491882	473.300000
808.527344	472.300000
808.562866	474.000000
808.598389	469.900000
808.633850	467.800000
808.669434	463.600000
808.704895	467.400000
808.740417	473.000000
808.775940	465.500000
808.811462	461.300000
808.846924	461.400000
808.882385	456.500000
808.917847	454.300000
808.953369	457.400000
808.988892	454.500000
809.024353	460.000000
809.059875	460.500000
809.095398	457.700000
809.130798	450.700000
809.166321	449.500000
809.201843	449.300000
809.237305	447.600000
809.272766	453.400000
809.308228	443.600000
809.343750	444.100000
809.379211	443.900000
809.414734	443.500000
809.450134	447.700000
809.485657	436.700000
809.521118	445.100000
809.556580	441.300000
809.592102	434.800000
809.627502	436.800000
809.663025	436.600000
809.698486	433.300000
809.733887	428.800000
809.769409	429.200000
809.804871	419.600000
809.840271	424.700000
809.875793	424.700000
809.911194	430.300000
809.946655	422.800000
809.982178	419.600000
810.017639	421.900000
810.053040	423.200000
810.088501	421.600000
810.123901	419.400000
810.159424	418.800000
810.194885	415.600000
810.230286	414.800000
810.265747	412.800000
810.301208	407.500000
810.336609	410.100000
810.372070	401.000000
810.407532	408.400000
810.442932	407.500000
810.478394	411.000000
810.513794	405.200000
810.549255	404.100000
810.584717	401.100000
810.620117	395.000000
810.655518	401.100000
810.690979	397.100000
810.726379	396.100000
810.761841	388.000000
810.797302	386.800000
810.832642	385.800000
810.868103	395.200000
810.903564	386.200000
810.938904	390.600000
810.974365	381.700000
811.009827	384.300000
811.045166	378.800000
811.080627	375.300000
811.115967	378.500000
811.151428	381.600000
811.186829	375.500000
811.222229	375.600000
811.257629	367.600000
811.293091	379.300000
811.328430	380.400000
811.363892	376.500000
811.399292	376.900000
811.434631	372.500000
811.470093	378.800000
811.505493	370.000000
811.540833	368.800000
811.576294	374.400000
811.611694	369.900000
811.647034	366.000000
811.682434	368.800000
811.717773	372.200000
811.753235	373.600000
811.788635	364.300000
811.823975	363.800000
811.859375	370.700000
811.894775	361.200000
811.930115	363.700000
811.965515	360.900000
812.000916	364.300000
812.036255	361.700000
812.071655	364.900000
812.106995	358.700000
812.142395	358.800000
812.177795	363.300000
812.213196	359.300000
812.248474	359.500000
812.283875	354.700000
812.319214	354.800000
812.354614	356.000000
812.390015	349.800000
812.425293	352.100000
812.460693	351.000000
812.496094	347.500000
812.531433	341.300000
812.566772	346.100000
812.602173	344.900000
812.637451	345.100000
812.672852	342.500000
812.708191	343.700000
812.743530	337.200000
812.778931	334.100000
812.814270	335.200000
812.849609	339.500000
812.884949	337.400000
812.920227	329.500000
812.955627	340.600000
812.990967	333.200000
813.026306	329.600000
813.061646	322.400000
813.096985	320.400000
813.132324	320.000000
813.167664	321.500000
813.203003	325.300000
813.238281	317.100000
813.273682	315.100000
813.308960	314.100000
813.344299	312.800000
813.379639	320.500000
813.414978	315.100000
813.450256	312.700000
813.485596	312.600000
813.520874	308.400000
813.556213	312.500000
813.591614	315.500000
813.626831	308.900000
813.662170	312.300000
813.697510	317.400000
813.732788	305.300000
813.768127	309.500000
813.803467	310.000000
813.838745	307.600000
813.874084	309.400000
813.909363	307.400000
813.944641	307.400000
813.979980	299.900000
814.015320	300.100000
814.050598	298.800000
814.085876	301.400000
814.121155	299.400000
814.156494	299.600000
814.191772	298.400000
814.227051	295.700000
814.262390	296.300000
814.297668	295.500000
814.332947	295.100000
814.368225	289.000000
814.403564	294.500000
814.438782	291.100000
814.474121	292.500000
814.509338	290.800000
814.544617	293.400000
814.579956	289.100000
814.615173	296.500000
814.650513	291.600000
814.685791	287.400000
814.721008	290.100000
814.756348	289.400000
814.791626	284.300000
814.826843	286.300000
814.862122	284.600000
814.897400	284.600000
814.932678	285.400000
814.967957	284.100000
815.003235	281.600000
815.038452	281.300000
815.073730	278.000000
815.108948	286.200000
815.144226	282.500000
815.179504	286.200000
815.214722	275.200000
815.250000	273.400000
815.285278	277.800000
815.320496	275.100000
815.355774	275.200000
815.391052	278.500000
815.426270	276.400000
815.461487	273.100000
815.496765	269.400000
815.531982	267.900000
815.567261	272.600000
815.602539	276.700000
815.637695	272.300000
815.672974	273.600000
815.708191	274.200000
815.743408	273.600000
815.778687	268.100000
815.813904	273.200000
815.849121	263.700000
815.884399	263.800000
815.919556	263.900000
815.954834	266.100000
815.990051	267.000000
816.025269	267.500000
816.060486	260.600000
816.095703	261.000000
816.130920	261.700000
816.166199	259.000000
816.201416	260.300000
816.236572	261.500000
816.271851	258.500000
816.307007	262.200000
816.342224	252.800000
816.377441	254.700000
816.412659	252.200000
816.447876	257.700000
816.483093	252.400000
816.518250	253.500000
816.553467	252.400000
816.588745	254.700000
816.623901	249.600000
816.659119	243.400000
816.694275	250.000000
816.729492	244.300000
816.764709	273.000000
816.799927	241.100000
816.835083	246.600000
816.870300	240.500000
816.905457	242.200000
816.940674	244.300000
816.975830	242.700000
817.010986	236.900000
817.046204	239.300000
817.081421	237.500000
817.116577	239.700000
817.151733	243.000000
817.186951	244.200000
817.222107	239.300000
817.257324	241.200000
817.292419	238.900000
817.327637	232.900000
817.362854	234.700000
817.398010	234.000000
817.433167	235.600000
817.468323	234.500000
817.503479	235.000000
817.538635	239.800000
817.573853	235.000000
817.608948	234.200000
817.644165	231.600000
817.679321	230.000000
817.714478	229.800000
817.749634	232.400000
817.784790	238.900000
817.819946	235.400000
817.855103	223.600000
817.890198	228.000000
817.925415	223.800000
817.960571	230.100000
817.995667	228.900000
818.030823	226.800000
818.066040	225.800000
818.101135	227.200000
818.136292	225.000000
818.171448	221.200000
818.206543	223.900000
818.241699	227.000000
818.276855	224.800000
818.311951	223.200000
818.347107	221.600000
818.382263	223.700000
818.417358	228.100000
818.452515	226.200000
818.487610	227.700000
818.522766	220.200000
818.557922	227.400000
818.593018	222.500000
818.628113	220.900000
818.663269	217.300000
818.698364	220.400000
818.733521	217.400000
818.768677	219.000000
818.803711	215.000000
818.838867	216.100000
818.874023	216.500000
818.909058	214.400000
818.944214	213.100000
818.979370	216.400000
819.014404	215.800000
819.049561	213.400000
819.084595	215.600000
819.119751	211.700000
819.154846	214.500000
819.189941	211.300000
819.225037	209.800000
819.260193	206.300000
819.295227	207.200000
819.330322	205.000000
819.365479	203.500000
819.400513	236.900000
819.435608	202.800000
819.470764	201.500000
819.505798	203.900000
819.540894	205.000000
819.575989	204.700000
819.611084	208.000000
819.646179	210.200000
819.681213	205.700000
819.716309	204.200000
819.751404	202.700000
819.786438	208.700000
819.821533	199.500000
819.856628	204.000000
819.891663	203.900000
819.926758	211.000000
819.961853	207.100000
819.996887	201.000000
820.031982	203.400000
820.067017	201.200000
820.102112	234.700000
820.137207	199.900000
820.172302	208.900000
820.207275	197.800000
820.242371	198.000000
820.277405	199.200000
820.312500	199.200000
820.347534	199.200000
820.382568	203.100000
820.417664	196.600000
820.452759	196.100000
820.487732	197.200000
820.522827	197.100000
820.557861	194.600000
820.592896	196.000000
820.627930	197.200000
820.662964	193.900000
820.698059	197.900000
820.733093	196.000000
820.768127	198.300000
820.803162	196.000000
820.838196	194.600000
820.873230	196.600000
820.908264	197.200000
820.943298	192.800000
820.978333	196.500000
821.013367	195.000000
821.048401	198.200000
821.083435	197.200000
821.118469	190.000000
821.153503	198.000000
821.188477	194.600000
821.223511	190.200000
821.258484	192.800000
821.293579	193.800000
821.328613	190.400000
821.363647	193.800000
821.398621	189.800000
821.433655	192.100000
821.468628	201.500000
821.503662	191.900000
821.538696	194.000000
821.573669	188.900000
821.608704	195.200000
821.643677	191.600000
821.678650	194.200000
821.713684	197.800000
821.748718	191.300000
821.783691	193.000000
821.818726	193.000000
821.853638	193.400000
821.888672	190.500000
821.923706	190.600000
821.958618	190.300000
821.993652	190.400000
822.028687	193.000000
822.063599	196.800000
822.098633	193.100000
822.133667	188.600000
822.168579	189.900000
822.203613	192.500000
822.238586	189.200000
822.273560	193.400000
822.308533	188.600000
822.343567	189.500000
822.378479	190.200000
822.413452	190.100000
822.448425	186.500000
822.483398	193.300000
822.518372	192.900000
822.553345	187.300000
822.588318	194.600000
822.623291	188.500000
822.658203	188.100000
822.693237	190.700000
822.728210	187.600000
822.763123	189.400000
822.798096	187.000000
822.833069	187.800000
822.867981	188.600000
822.902954	191.900000
822.937927	191.200000
822.972900	194.600000
823.007874	184.800000
823.042725	191.600000
823.077698	197.300000
823.112671	186.000000
823.147583	188.800000
823.182556	191.500000
823.217529	191.500000
823.252441	185.800000
823.287415	196.900000
823.322388	190.200000
823.357239	189.900000
823.392212	192.800000
823.427185	192.800000
823.462097	184.400000
823.497009	191.400000
823.531982	187.800000
823.566895	189.800000
823.601807	186.400000
823.636719	188.900000
823.671631	189.800000
823.706604	188.900000
823.741455	191.600000
823.776428	184.400000
823.811340	191.400000
823.846252	193.100000
823.881165	193.500000
823.916138	189.200000
823.950989	194.300000
823.985901	186.500000
824.020813	187.400000
824.055725	186.500000
824.090637	183.100000
824.125610	189.600000
824.160461	189.800000
824.195374	189.100000
824.230225	190.400000
824.265198	184.200000
824.300110	186.900000
824.334961	195.200000
824.369873	182.600000
824.404785	189.200000
824.439636	190.900000
824.474548	184.300000
824.509460	180.600000
824.544312	191.000000
824.579224	189.500000
824.614075	185.400000
824.648987	186.700000
824.683899	187.500000
824.718811	184.800000
824.753662	190.200000
824.788574	191.200000
824.823364	188.400000
824.858276	183.500000
824.893188	189.600000
824.928040	188.900000
824.962952	186.500000
824.997803	190.100000
825.032654	186.600000
825.067566	189.000000
825.102417	185.000000
825.137268	185.800000
825.172119	186.000000
825.206970	183.700000
825.241882	184.600000
825.276733	183.000000
825.311646	183.800000
825.346436	181.800000
825.381348	182.100000
825.416138	184.700000
825.450989	181.900000
825.485901	178.600000
825.520691	179.300000
825.555542	180.700000
825.590454	183.100000
825.625244	180.100000
825.660095	187.800000
825.695007	186.900000
825.729797	182.000000
825.764648	180.900000
825.799438	181.700000
825.834290	183.100000
825.869202	178.300000
825.903992	184.000000
825.938843	180.700000
825.973694	178.000000
826.008484	189.500000
826.043335	180.100000
826.078186	176.100000
826.112976	184.700000
826.147827	185.000000
826.182678	187.400000
826.217468	176.700000
826.252319	185.500000
826.287109	178.700000
826.321899	184.700000
826.356750	180.900000
826.391541	176.400000
826.426392	183.100000
826.461182	179.600000
826.495972	179.100000
826.530823	173.500000
826.565613	182.200000
826.600403	177.400000
826.635254	183.000000
826.670044	175.400000
826.704834	175.900000
826.739685	177.500000
826.774475	183.000000
826.809265	181.100000
826.844055	179.000000
826.878906	183.700000
826.913635	181.100000
826.948425	181.000000
826.983215	182.500000
827.018005	182.600000
827.052856	178.900000
827.087585	183.600000
827.122375	175.400000
827.157227	180.200000
827.191956	189.700000
827.226746	176.700000
827.261536	182.700000
827.296265	175.500000
827.331116	177.800000
827.365906	182.300000
827.400635	179.300000
827.435425	174.500000
827.470215	184.700000
827.504944	179.600000
827.539734	183.400000
827.574463	178.200000
827.609253	186.100000
827.644043	179.200000
827.678772	183.400000
827.713562	178.400000
827.748352	178.300000
827.783081	176.500000
827.817871	181.900000
827.852600	177.000000
827.887329	181.400000
827.922119	174.700000
827.956848	182.200000
827.991638	188.700000
828.026367	180.400000
828.061157	180.500000
828.095886	180.000000
828.130615	191.800000
828.165344	172.800000
828.200073	180.900000
828.234863	178.100000
828.269592	179.100000
828.304321	183.100000
828.339111	180.400000
828.373779	177.200000
828.408569	182.900000
828.443298	183.300000
828.477966	179.800000
828.512756	180.700000
828.547424	176.400000
828.582214	179.000000
828.616943	180.000000
828.651672	178.500000
828.686340	183.700000
828.721130	178.600000
828.755798	179.700000
828.790527	179.900000
828.825256	181.700000
828.859924	180.400000
828.894714	183.400000
828.929443	185.500000
828.964111	177.300000
828.998840	182.000000
829.033569	178.200000
829.068237	177.900000
829.102966	178.100000
829.137634	180.700000
829.172363	182.600000
829.207092	181.400000
829.241821	178.000000
829.276489	175.500000
829.311157	179.400000
829.345825	177.600000
829.380554	182.900000
829.415283	176.700000
829.449951	175.300000
829.484619	186.000000
829.519348	183.900000
829.554016	179.100000
829.588745	179.900000
829.623413	176.200000
829.658081	186.800000
829.692749	176.000000
829.727417	181.800000
829.762146	181.900000
829.796814	177.300000
829.831482	178.800000
829.866150	180.400000
829.900879	177.700000
829.935486	179.700000
829.970154	178.400000
830.004883	186.800000
830.039490	181.200000
830.074219	175.600000
830.108887	181.600000
830.143494	178.400000
830.178223	176.900000
830.212891	178.700000
830.247498	180.200000
830.282166	184.400000
830.316772	183.900000
830.351501	177.600000
830.386169	179.600000
830.420776	178.000000
830.455444	180.600000
830.490112	177.100000
830.524719	175.200000
830.559387	181.600000
830.594055	182.000000
830.628662	179.200000
830.663330	180.000000
830.697998	187.100000
830.732605	180.300000
830.767273	180.700000
830.801941	179.100000
830.836487	186.900000
830.871155	180.900000
830.905762	181.500000
830.940430	175.400000
830.975098	176.300000
831.009644	180.400000
831.044312	186.200000
831.078979	182.400000
831.113525	175.200000
831.148193	180.700000
831.182861	179.300000
831.217407	181.800000
831.252075	189.500000
831.286621	177.500000
831.321289	175.800000
831.355896	180.500000
831.390564	184.300000
831.425110	179.800000
831.459778	184.600000
831.494324	188.300000
831.528931	181.000000
831.563599	184.600000
831.598145	176.000000
831.632751	180.100000
831.667419	179.700000
831.701965	179.800000
831.736572	181.700000
831.771179	175.600000
831.805786	178.100000
831.840393	185.000000
831.874939	176.000000
831.909546	182.400000
831.944153	175.500000
831.978760	179.600000
832.013306	177.600000
832.047913	184.200000
832.082458	185.600000
832.117065	177.000000
832.151672	188.200000
832.186218	181.800000
832.220825	182.600000
832.255432	173.700000
832.289978	177.900000
832.324585	181.200000
832.359192	181.900000
832.393677	179.400000
832.428284	180.600000
832.462830	179.600000
832.497437	179.100000
832.531982	181.600000
832.566589	178.900000
832.601135	180.900000
832.635681	174.200000
832.670227	179.000000
832.704773	185.700000
832.739380	181.500000
832.773926	180.800000
832.808472	177.600000
832.843079	180.400000
832.877563	181.600000
832.912170	178.400000
832.946716	175.500000
832.981201	183.100000
833.015808	182.400000
833.050293	178.700000
833.084839	176.500000
833.119446	178.500000
833.153992	183.200000
833.188477	178.900000
833.223022	178.600000
833.257568	180.200000
833.292114	186.600000
833.326660	185.700000
833.361145	178.900000
833.395691	174.400000
833.430237	181.100000
833.464783	180.400000
833.499329	178.200000
833.533875	175.500000
833.568359	183.600000
833.602905	183.600000
833.637390	183.600000
833.671875	177.800000
833.706421	179.900000
833.740906	179.100000
833.775452	173.700000
833.809998	177.400000
833.844482	184.900000
833.879028	178.800000
833.913513	177.900000
833.947998	182.200000
833.982544	178.200000
834.017090	178.100000
834.051514	174.600000
834.086060	181.100000
834.120544	179.300000
834.155029	181.400000
834.189575	178.900000
834.223999	181.700000
834.258545	181.100000
834.293030	180.800000
834.327515	179.300000
834.362000	178.500000
834.396545	183.300000
834.430969	179.100000
834.465454	184.100000
834.500000	176.600000
834.534424	181.000000
834.568970	174.000000
834.603455	174.500000
834.637878	176.900000
834.672363	181.500000
834.706909	180.200000
834.741333	179.800000
834.775818	176.300000
834.810242	175.600000
834.844727	180.500000
834.879211	177.900000
834.913635	182.400000
834.948181	180.600000
834.982666	180.900000
835.017090	179.200000
835.051575	181.600000
835.086060	177.600000
835.120483	182.500000
835.154907	182.000000
835.189331	180.200000
835.223816	183.000000
835.258301	177.100000
835.292786	177.100000
835.327209	182.700000
835.361694	177.000000
835.396057	178.700000
835.430542	181.800000
835.465027	180.400000
835.499390	176.600000
835.533875	207.100000
835.568359	177.600000
835.602722	174.400000
835.637207	180.100000
835.671692	177.200000
835.706055	193.500000
835.740540	182.000000
835.774902	180.500000
835.809387	180.100000
835.843811	175.300000
835.878235	183.600000
835.912659	175.800000
835.947083	177.300000
835.981506	180.300000
836.015930	176.200000
836.050354	183.300000
836.084778	186.400000
836.119202	184.200000
836.153625	191.900000
836.187988	177.400000
836.222473	178.100000
836.256897	181.800000
836.291260	178.100000
836.325684	182.400000
836.360046	179.700000
836.394470	180.400000
836.428894	184.500000
836.463318	178.000000
836.497681	183.500000
836.532104	184.400000
836.566467	180.200000
836.600891	178.600000
836.635315	183.900000
836.669678	182.600000
836.704102	182.500000
836.738525	180.900000
836.772888	173.600000
836.807251	178.900000
836.841675	182.400000
836.876038	178.500000
836.910461	177.000000
836.944763	183.100000
836.979187	176.300000
837.013611	186.100000
837.047974	175.500000
837.082336	188.000000
837.116699	183.000000
837.151062	180.600000
837.185486	176.500000
837.219849	178.800000
837.254211	182.400000
837.288574	180.800000
837.322937	175.600000
837.357300	173.800000
837.391663	188.500000
837.426086	183.300000
837.460388	181.200000
837.494751	182.300000
837.529114	176.700000
837.563477	185.600000
837.597839	183.000000
837.632141	180.100000
837.666565	178.500000
837.700928	182.500000
837.735229	182.400000
837.769592	182.600000
837.803955	181.600000
837.838257	178.000000
837.872620	178.500000
837.906982	185.700000
837.941284	181.000000
837.975647	181.900000
838.010010	185.200000
838.044312	179.400000
838.078674	179.300000
838.112976	179.200000
838.147339	182.300000
838.181702	180.200000
838.216003	186.500000
838.250366	181.900000
838.284668	183.000000
838.318970	175.200000
838.353333	180.100000
838.387634	178.800000
838.421936	179.700000
838.456299	180.400000
838.490601	184.700000
838.524902	182.800000
838.559265	184.600000
838.593567	184.000000
838.627869	176.900000
838.662170	183.500000
838.696472	175.700000
838.730774	178.500000
838.765137	183.200000
838.799377	171.700000
838.833740	179.100000
838.868042	183.400000
838.902283	175.400000
838.936646	184.500000
838.970947	181.900000
839.005188	184.700000
839.039551	175.300000
839.073792	185.300000
839.108093	178.800000
839.142395	186.000000
839.176697	176.000000
839.210937	181.900000
839.245300	186.400000
839.279541	175.700000
839.313843	179.200000
839.348145	182.700000
839.382385	183.600000
839.416687	183.300000
839.450989	181.700000
839.485229	179.600000
839.519531	178.500000
839.553833	183.800000
839.588013	180.400000
839.622314	183.200000
839.656555	181.400000
839.690857	179.900000
839.725159	175.500000
839.759460	181.400000
839.793640	178.700000
839.827942	181.100000
839.862183	177.200000
839.896423	181.300000
839.930725	190.300000
839.964966	187.400000
839.999207	183.100000
840.033508	186.000000
840.067688	177.800000
840.101990	187.400000
840.136230	179.600000
840.170471	186.200000
840.204712	177.400000
840.238953	177.900000
840.273193	180.800000
840.307434	182.700000
840.341736	177.200000
840.375916	177.300000
840.410217	177.900000
840.444397	183.100000
840.478638	181.900000
840.512878	184.200000
840.547119	180.200000
840.581360	182.800000
840.615601	186.900000
840.649780	189.600000
840.684021	179.900000
840.718262	185.700000
840.752441	185.900000
840.786682	181.800000
840.820862	180.700000
840.855103	187.300000
840.889343	181.400000
840.923584	184.500000
840.957764	183.500000
840.992004	182.000000
841.026184	192.100000
841.060425	179.800000
841.094666	177.600000
841.128845	182.900000
841.163025	182.100000
841.197266	182.500000
841.231445	180.400000
841.265686	183.100000
841.299866	176.800000
841.334045	185.500000
841.368286	180.700000
841.402405	185.500000
841.436646	182.500000
841.470825	178.100000
841.505005	180.000000
841.539185	177.500000
841.573425	178.700000
841.607544	180.500000
841.641785	181.500000
841.675964	177.900000
841.710144	181.000000
841.744324	178.200000
841.778503	180.700000
841.812683	177.900000
841.846863	187.000000
841.881042	185.900000
841.915222	179.200000
841.949402	191.000000
841.983521	175.800000
842.017700	180.300000
842.051880	182.200000
842.086060	181.400000
842.120239	181.700000
842.154419	179.100000
842.188538	180.400000
842.222717	178.300000
842.256897	187.800000
842.291016	180.300000
842.325195	182.900000
842.359375	189.500000
842.393494	185.900000
842.427673	180.800000
842.461853	182.600000
842.495911	187.500000
842.530090	182.100000
842.564209	179.600000
842.598389	182.600000
842.632568	181.000000
842.666626	183.700000
842.700806	178.800000
842.734985	178.700000
842.769043	184.200000
842.803223	179.700000
842.837402	180.700000
842.871460	178.400000
842.905640	186.900000
842.939697	177.500000
842.973877	182.700000
843.007996	185.600000
843.042175	189.800000
843.076233	178.400000
843.110413	183.700000
843.144470	186.700000
843.178589	184.800000
843.212769	178.100000
843.246826	184.600000
843.280945	177.800000
843.315125	180.900000
843.349182	179.200000
843.383301	186.600000
843.417419	189.300000
843.451538	182.500000
843.485657	180.100000
843.519714	181.200000
843.553833	181.300000
843.587952	180.500000
843.622070	178.500000
843.656128	183.400000
843.690247	178.100000
843.724304	181.400000
843.758423	181.700000
843.792542	180.000000
843.826599	180.900000
843.860718	179.900000
843.894836	175.000000
843.928894	182.500000
843.963013	181.100000
843.997070	178.300000
844.031128	177.500000
844.065247	184.500000
844.099304	184.000000
844.133362	182.900000
844.167480	183.500000
844.201599	184.100000
844.235596	182.200000
844.269714	182.900000
844.303711	181.500000
844.337830	177.100000
844.371948	182.700000
844.405945	180.000000
844.440063	178.100000
844.474121	192.000000
844.508118	178.900000
844.542236	181.000000
844.576294	182.400000
844.610352	178.200000
844.644409	180.900000
844.678406	175.700000
844.712524	185.500000
844.746582	185.200000
844.780640	181.100000
844.814636	181.500000
844.848755	191.400000
844.882751	178.900000
844.916809	186.200000
844.950867	181.600000
844.984863	188.300000
845.018921	179.500000
845.052979	178.300000
845.086975	182.500000
845.121033	176.800000
845.155090	179.600000
845.189087	187.100000
845.223145	178.700000
845.257141	182.400000
845.291199	183.700000
845.325256	184.900000
845.359253	182.700000
845.393250	192.900000
845.427307	180.100000
845.461304	183.200000
845.495361	181.900000
845.529358	188.100000
845.563354	179.900000
845.597412	178.700000
845.631409	188.500000
845.665405	185.800000
845.699463	185.000000
845.733459	179.900000
845.767456	189.400000
845.801453	179.500000
845.835449	185.400000
845.869446	185.100000
845.903503	185.400000
845.937439	179.000000
845.971497	187.500000
846.005493	176.500000
846.039429	184.300000
846.073486	189.900000
846.107483	180.300000
846.141418	180.700000
846.175476	181.900000
846.209473	186.200000
846.243408	178.900000
846.277405	182.300000
846.311401	179.700000
846.345337	182.300000
846.379395	185.500000
846.413330	179.600000
846.447327	190.800000
846.481323	178.600000
846.515259	180.100000
846.549255	180.800000
846.583252	183.000000
846.617187	178.900000
846.651184	183.400000
846.685120	179.800000
846.719055	188.700000
846.753052	183.400000
846.786987	184.600000
846.820984	177.500000
846.854980	188.000000
846.888916	178.200000
846.922852	183.700000
846.956848	185.000000
846.990723	181.000000
847.024719	182.800000
847.058716	180.500000
847.092590	186.100000
847.126587	183.500000
847.160522	179.400000
847.194458	184.500000
847.228455	179.600000
847.262390	177.200000
847.296265	179.900000
847.330261	185.000000
847.364136	179.700000
847.398132	181.000000
847.432068	183.200000
847.466003	179.000000
847.499939	180.900000
847.533875	183.700000
847.567749	181.100000
847.601746	180.400000
847.635681	183.900000
847.669556	175.800000
847.703491	186.300000
847.737427	190.300000
847.771301	178.100000
847.805237	183.000000
847.839233	181.800000
847.873108	178.700000
847.907043	181.300000
847.940918	186.400000
847.974854	182.500000
848.008789	183.400000
848.042664	181.400000
848.076538	183.700000
848.110474	183.100000
848.144348	182.300000
848.178284	177.400000
848.212219	182.000000
848.246094	180.800000
848.279968	181.300000
848.313904	182.900000
848.347778	181.100000
848.381653	181.400000
848.415588	179.600000
848.449463	179.000000
848.483337	183.900000
848.517212	187.700000
848.551086	181.500000
848.585022	178.000000
848.618835	188.900000
848.652771	180.400000
848.686646	178.100000
848.720520	186.500000
848.754395	180.700000
848.788330	185.700000
848.822144	183.600000
848.856018	179.600000
848.889954	187.900000
848.923767	179.000000
848.957642	179.300000
848.991577	182.400000
849.025391	182.100000
849.059265	181.700000
849.093079	179.000000
849.126953	178.100000
849.160828	185.300000
849.194641	181.400000
849.228577	180.800000
849.262451	179.500000
849.296265	180.600000
849.330139	179.000000
849.364014	181.700000
849.397827	182.700000
849.431702	182.400000
849.465515	183.700000
849.499329	176.400000
849.533203	178.400000
849.567078	175.700000
849.600891	182.700000
849.634766	181.000000
849.668518	184.300000
849.702393	182.300000
849.736267	177.200000
849.770020	189.400000
849.803894	184.100000
849.837769	184.700000
849.871521	182.100000
849.905396	185.000000
849.939270	177.400000
849.973022	181.600000
850.006897	184.000000
850.040710	185.100000
850.074524	185.600000
850.108337	182.100000
850.142151	186.100000
850.175964	187.200000
850.209778	179.700000
850.243530	174.800000
850.277405	183.500000
850.311218	182.500000
850.344971	179.500000
850.378845	187.700000
850.412659	178.200000
850.446411	183.900000
850.480225	180.600000
850.514038	184.900000
850.547791	184.100000
850.581665	182.400000
850.615417	180.100000
850.649231	183.600000
850.683044	180.600000
850.716858	180.400000
850.750610	183.500000
850.784424	183.300000
850.818176	179.400000
850.851929	180.400000
850.885742	178.500000
850.919495	180.400000
850.953308	186.600000
850.987122	187.900000
851.020874	177.800000
851.054626	177.700000
851.088440	184.400000
851.122192	184.800000
851.156006	182.500000
851.189697	180.900000
851.223511	177.500000
851.257263	184.200000
851.291077	184.100000
851.324829	180.100000
851.358582	180.600000
851.392334	181.500000
851.426086	180.800000
851.459900	186.900000
851.493591	182.100000
851.527344	181.600000
851.561157	180.900000
851.594849	182.400000
851.628662	182.300000
851.662415	187.400000
851.696106	183.100000
851.729858	184.600000
851.763611	178.500000
851.797363	182.100000
851.831116	179.000000
851.864868	183.800000
851.898560	186.600000
851.932312	179.700000
851.966064	184.500000
851.999817	182.300000
852.033569	180.300000
852.067261	187.000000
852.101013	179.500000
852.134766	181.400000
852.168457	175.500000
852.202209	185.100000
852.235901	178.400000
852.269592	182.900000
852.303345	187.900000
852.337036	184.600000
852.370789	181.600000
852.404541	184.600000
852.438171	178.100000
852.471924	183.300000
852.505676	177.400000
852.539307	183.700000
852.573059	180.100000
852.606812	181.700000
852.640442	180.700000
852.674194	186.600000
852.707886	188.000000
852.741577	186.300000
852.775269	177.100000
852.809021	183.000000
852.842651	182.500000
852.876404	186.600000
852.910034	182.600000
852.943787	184.700000
852.977478	183.200000
853.011108	180.900000
853.044861	179.100000
853.078552	187.100000
853.112183	180.900000
853.145874	182.400000
853.179626	175.600000
853.213257	182.500000
853.246948	180.000000
853.280640	187.900000
853.314270	182.100000
853.347961	187.500000
853.381653	183.400000
853.415283	185.900000
853.448975	179.000000
853.482605	184.600000
853.516296	181.100000
853.549988	178.600000
853.583618	183.400000
853.617310	184.500000
853.651001	182.700000
853.684631	178.800000
853.718323	179.700000
853.751953	187.000000
853.785583	175.500000
853.819275	185.600000
853.852966	183.800000
853.886536	176.200000
853.920227	179.200000
853.953918	184.500000
853.987488	180.600000
854.021179	184.600000
854.054749	187.200000
854.088440	183.200000
854.122131	178.700000
854.155701	182.400000
854.189331	180.500000
854.223022	183.600000
854.256592	183.600000
854.290283	179.000000
854.323914	183.500000
854.357483	182.900000
854.391174	184.300000
854.424744	186.400000
854.458374	182.100000
854.492065	190.200000
854.525696	184.500000
854.559265	186.300000
854.592896	192.200000
854.626465	182.000000
854.660095	183.000000
854.693787	183.500000
854.727356	182.000000
854.760986	185.400000
854.794617	183.800000
854.828186	181.100000
854.861816	185.700000
854.895447	182.500000
854.929016	183.800000
854.962585	182.800000
854.996155	190.000000
855.029785	183.800000
855.063416	184.200000
855.097046	185.100000
855.130615	178.400000
855.164185	186.000000
855.197754	182.200000
855.231384	184.000000
855.264954	180.000000
855.298523	184.500000
855.332153	183.200000
855.365723	187.200000
855.399292	180.900000
855.432922	180.900000
855.466492	182.600000
855.500061	181.000000
855.533630	178.700000
855.567200	184.000000
855.600769	184.800000
855.634338	187.200000
855.667969	182.600000
855.701477	178.800000
855.735046	179.200000
855.768616	176.900000
855.802185	183.100000
855.835754	194.100000
855.869324	177.000000
855.902893	180.600000
855.936401	184.800000
855.969971	183.100000
856.003540	177.700000
856.037109	185.200000
856.070618	180.200000
856.104187	178.200000
856.137695	179.000000
856.171265	176.000000
856.204834	181.100000
856.238403	186.300000
856.271912	181.000000
856.305481	184.500000
856.338989	176.500000
856.372559	185.600000
856.406128	184.100000
856.439636	185.800000
856.473145	181.400000
856.506653	188.300000
856.540222	182.800000
856.573792	187.000000
856.607300	186.100000
856.640808	179.000000
856.674377	181.900000
856.707825	215.300000
856.741394	186.400000
856.774902	180.100000
856.808472	177.400000
856.841980	185.600000
856.875488	187.300000
856.908936	177.100000
856.942505	181.000000
856.976013	181.900000
857.009521	179.200000
857.043030	182.100000
857.076477	181.700000
857.110046	187.600000
857.143555	182.500000
857.177063	184.000000
857.210571	182.100000
857.244080	177.200000
857.277527	184.400000
857.311035	183.300000
857.344543	186.600000
857.378052	181.100000
857.411499	187.600000
857.445068	188.200000
857.478516	181.300000
857.512024	178.000000
857.545532	182.300000
857.578979	182.400000
857.612427	183.500000
857.645874	177.800000
857.679382	184.100000
857.712891	185.700000
857.746399	183.000000
857.779846	184.800000
857.813354	186.500000
857.846741	181.500000
857.880249	179.500000
857.913757	182.800000
857.947266	185.200000
857.980652	184.200000
858.014160	181.000000
858.047546	179.400000
858.081055	179.800000
858.114563	191.700000
858.147949	179.200000
858.181458	184.600000
858.214844	181.200000
858.248352	176.000000
858.281799	184.900000
858.315308	190.700000
858.348694	186.000000
858.382141	188.900000
858.415588	186.100000
858.449036	185.300000
858.482483	183.600000
858.515930	179.000000
858.549377	181.400000
858.582825	186.400000
858.616211	183.700000
858.649658	184.800000
858.683105	178.000000
858.716553	180.700000
858.750000	177.700000
858.783386	180.800000
858.816833	178.000000
858.850281	183.700000
858.883728	183.000000
858.917114	183.300000
858.950562	187.200000
858.983948	188.000000
859.017395	184.100000
859.050781	182.100000
859.084167	178.200000
859.117615	179.100000
859.151062	183.500000
859.184448	180.600000
859.217834	181.000000
859.251282	180.600000
859.284668	179.700000
859.318054	176.100000
859.351440	179.700000
859.384888	189.000000
859.418274	175.400000
859.451721	177.000000
859.485046	182.900000
859.518494	184.200000
859.551819	179.300000
859.585266	185.500000
859.618652	186.100000
859.652039	179.100000
859.685425	177.800000
859.718811	178.600000
859.752197	174.100000
859.785583	185.600000
859.819031	186.700000
859.852356	184.300000
859.885742	179.600000
859.919067	182.000000
859.952454	180.900000
859.985901	187.000000
860.019287	181.600000
860.052612	0.000000
860.085999	0.000000
860.119324	0.000000
860.152710	0.000000
860.186096	0.000000
860.219421	0.000000
860.252808	0.000000
860.286133	0.000000
860.319519	0.000000
860.352905	0.000000
860.386292	0.000000
860.419617	0.000000
860.452942	0.000000
860.486267	0.000000
860.519653	0.000000
860.553040	0.000000
860.586365	0.000000
860.619690	0.000000
860.653076	0.000000
860.686340	0.000000
860.719727	0.000000
860.753113	0.000000
860.786377	0.000000
860.819763	0.000000
860.853027	0.000000
860.886414	0.000000
860.919739	0.000000
860.953125	0.000000
860.986389	0.000000
861.019714	0.000000
861.053040	0.000000
861.086365	0.000000
861.119690	0.000000
861.153076	0.000000
861.186340	0.000000
861.219666	0.000000
861.252930	0.000000
861.286316	0.000000
861.319641	0.000000
861.352905	0.000000
861.386230	0.000000
861.419495	0.000000
861.452820	0.000000
861.486145	0.000000
861.519470	0.000000
861.552734	0.000000
861.586060	0.000000
861.619324	0.000000
861.652649	0.000000
861.685974	0.000000
861.719238	0.000000
861.752563	0.000000
861.785828	0.000000
861.819092	0.000000
861.852417	0.000000
861.885742	0.000000
861.918945	0.000000
861.952271	0.000000
861.985535	0.000000
862.018799	0.000000
862.052124	0.000000
862.085449	0.000000
862.118652	0.000000
862.151978	0.000000
862.185181	0.000000
862.218506	0.000000
862.251770	0.000000
862.285034	0.000000
862.318298	0.000000
862.351562	0.000000
862.384827	0.000000
862.418091	0.000000
862.451355	0.000000
862.484619	0.000000
862.517883	0.000000
862.551086	0.000000
862.584351	0.000000
862.617676	0.000000
862.650940	0.000000
862.684143	0.000000
862.717407	0.000000
862.750610	0.000000
862.783875	0.000000
862.817139	0.000000
862.850342	0.000000
862.883606	0.000000
862.916870	0.000000
862.950073	0.000000
862.983337	0.000000
863.016602	0.000000
863.049805	0.000000
863.083069	0.000000
863.116211	0.000000
863.149475	0.000000
863.182739	0.000000
863.216003	0.000000
863.249146	0.000000
863.282410	0.000000
863.315613	0.000000
863.348816	0.000000
863.382080	0.000000
863.415222	0.000000
863.448486	0.000000
863.481689	0.000000
863.514893	0.000000
863.548157	0.000000
863.581360	0.000000
863.614502	0.000000
863.647766	0.000000
863.680908	0.000000
863.714172	0.000000
863.747375	0.000000
863.780579	0.000000
863.813721	0.000000
863.846985	0.000000
863.880127	0.000000
863.913330	0.000000
863.946533	0.000000
863.979675	0.000000
864.012939	0.000000
