Model Number: SPM-001-M   
Serial Number: 10090201
Firmware Version: 004.17.6
Exposure Time: 300000.000000us
Data Taken on: 28-01-2021 10:07:44.594
Wavelength	Amplitude
733.770752	0.000000
733.808716	0.000000
733.846619	0.000000
733.884583	0.000000
733.922546	0.000000
733.960449	0.000000
733.998413	0.000000
734.036377	0.000000
734.074219	0.000000
734.112183	0.000000
734.150085	0.000000
734.188049	0.000000
734.226013	0.000000
734.263916	0.000000
734.301819	0.000000
734.339783	0.000000
734.377686	0.000000
734.415588	0.000000
734.453552	0.000000
734.491455	0.000000
734.529419	0.000000
734.567322	0.000000
734.605225	0.000000
734.643127	0.000000
734.681091	0.000000
734.718994	0.000000
734.756897	0.000000
734.794800	0.000000
734.832703	0.000000
734.870667	0.000000
734.908508	0.000000
734.946472	0.000000
734.984375	0.000000
735.022278	0.000000
735.060181	0.000000
735.098083	0.000000
735.135986	0.000000
735.173889	0.000000
735.211792	0.000000
735.249695	0.000000
735.287598	0.000000
735.325439	0.000000
735.363403	0.000000
735.401306	0.000000
735.439148	0.000000
735.477051	0.000000
735.515015	0.000000
735.552856	0.000000
735.590759	0.000000
735.628662	0.000000
735.666504	0.000000
735.704407	0.000000
735.742310	0.000000
735.780212	0.000000
735.818115	0.000000
735.856018	0.000000
735.893860	0.000000
735.931763	0.000000
735.969604	0.000000
736.007507	0.000000
736.045410	0.000000
736.083252	0.000000
736.121094	0.000000
736.158997	0.000000
736.196838	0.000000
736.234741	0.000000
736.272644	0.000000
736.310486	0.000000
736.348389	0.000000
736.386230	0.000000
736.424072	0.000000
736.461975	0.000000
736.499878	0.000000
736.537720	0.000000
736.575562	0.000000
736.613403	0.000000
736.651306	0.000000
736.689148	0.000000
736.726990	0.000000
736.764893	0.000000
736.802734	0.000000
736.840576	0.000000
736.878418	0.000000
736.916321	0.000000
736.954102	0.000000
736.992004	0.000000
737.029846	0.000000
737.067688	0.000000
737.105530	0.000000
737.143372	0.000000
737.181213	0.000000
737.219116	0.000000
737.256897	0.000000
737.294739	0.000000
737.332642	0.000000
737.370422	0.000000
737.408325	0.000000
737.446167	0.000000
737.483948	0.000000
737.521790	0.000000
737.559692	0.000000
737.597473	0.000000
737.635315	0.000000
737.673157	0.000000
737.710999	0.000000
737.748840	0.000000
737.786621	0.000000
737.824463	0.000000
737.862305	0.000000
737.900085	0.000000
737.937927	0.000000
737.975769	0.000000
738.013550	0.000000
738.051392	0.000000
738.089233	0.000000
738.127014	0.000000
738.164856	0.000000
738.202698	0.000000
738.240479	0.000000
738.278320	0.000000
738.316162	0.000000
738.353943	0.000000
738.391785	0.000000
738.429565	0.000000
738.467407	0.000000
738.505188	0.000000
738.542969	0.000000
738.580811	0.000000
738.618652	0.000000
738.656372	0.000000
738.694214	0.000000
738.732056	0.000000
738.769836	0.000000
738.807617	0.000000
738.845459	0.000000
738.883240	0.000000
738.921021	0.000000
738.958862	0.000000
738.996582	0.000000
739.034424	0.000000
739.072205	0.000000
739.109985	0.000000
739.147827	0.000000
739.185547	0.000000
739.223389	0.000000
739.261169	0.000000
739.298889	0.000000
739.336731	0.000000
739.374512	0.000000
739.412292	0.000000
739.450073	0.000000
739.487854	0.000000
739.525635	0.000000
739.563416	0.000000
739.601135	0.000000
739.638977	0.000000
739.676758	0.000000
739.714478	0.000000
739.752258	0.000000
739.790100	0.000000
739.827820	0.000000
739.865601	0.000000
739.903381	0.000000
739.941101	0.000000
739.978882	183.300000
740.016724	179.500000
740.054443	182.800000
740.092224	178.600000
740.130005	179.900000
740.167725	177.600000
740.205505	177.500000
740.243225	184.400000
740.281006	180.900000
740.318787	175.600000
740.356506	185.700000
740.394287	183.000000
740.432068	178.200000
740.469727	174.100000
740.507507	182.900000
740.545288	181.200000
740.583008	182.400000
740.620789	178.400000
740.658569	176.200000
740.696228	179.800000
740.734009	184.500000
740.771790	172.200000
740.809509	183.500000
740.847229	176.000000
740.884949	179.600000
740.922729	174.900000
740.960449	179.600000
740.998169	177.200000
741.035950	178.600000
741.073669	179.800000
741.111389	181.100000
741.149170	185.500000
741.186890	187.300000
741.224609	182.500000
741.262329	181.600000
741.300110	186.300000
741.337769	177.000000
741.375549	176.700000
741.413208	181.100000
741.450989	177.000000
741.488708	178.700000
741.526367	179.600000
741.564148	183.100000
741.601868	183.700000
741.639526	179.800000
741.677307	182.300000
741.715027	182.400000
741.752686	177.500000
741.790466	184.700000
741.828186	182.300000
741.865845	176.200000
741.903564	175.300000
741.941345	178.500000
741.979004	178.000000
742.016724	182.600000
742.054382	180.500000
742.092102	182.200000
742.129822	176.800000
742.167480	178.800000
742.205200	179.100000
742.242920	181.800000
742.280640	183.700000
742.318359	177.000000
742.356079	181.500000
742.393738	182.900000
742.431396	179.400000
742.469116	182.800000
742.506775	173.500000
742.544495	180.200000
742.582214	183.700000
742.619873	179.200000
742.657593	185.200000
742.695251	183.400000
742.732971	180.800000
742.770630	180.500000
742.808289	181.100000
742.846008	180.800000
742.883728	180.600000
742.921326	181.200000
742.959045	179.500000
742.996765	179.200000
743.034424	180.800000
743.072083	177.600000
743.109802	179.900000
743.147400	175.200000
743.185120	178.900000
743.222839	180.200000
743.260437	184.600000
743.298157	179.900000
743.335754	172.800000
743.373474	179.900000
743.411133	176.000000
743.448792	180.700000
743.486450	179.500000
743.524170	176.500000
743.561768	179.600000
743.599487	185.300000
743.637146	187.600000
743.674744	180.000000
743.712463	179.000000
743.750122	180.700000
743.787720	180.000000
743.825439	179.500000
743.863037	178.200000
743.900696	180.700000
743.938416	203.700000
743.976013	180.100000
744.013672	184.300000
744.051331	184.100000
744.088928	185.800000
744.126587	186.100000
744.164307	181.200000
744.201904	179.100000
744.239563	180.000000
744.277222	183.700000
744.314819	179.700000
744.352478	184.000000
744.390137	180.100000
744.427734	182.600000
744.465393	176.700000
744.502991	178.900000
744.540649	181.900000
744.578308	179.900000
744.615906	175.900000
744.653564	174.000000
744.691223	182.800000
744.728821	175.600000
744.766418	179.300000
744.804077	183.300000
744.841675	179.100000
744.879333	177.500000
744.916992	179.100000
744.954529	179.800000
744.992187	183.900000
745.029785	179.800000
745.067444	178.700000
745.105042	181.400000
745.142639	181.300000
745.180298	187.500000
745.217896	179.800000
745.255493	180.000000
745.293152	184.000000
745.330750	183.600000
745.368347	185.700000
745.405945	182.800000
745.443604	181.400000
745.481140	183.100000
745.518799	181.600000
745.556396	182.700000
745.593994	183.000000
745.631592	181.100000
745.669189	177.700000
745.706787	180.400000
745.744385	178.000000
745.781982	181.900000
745.819580	178.100000
745.857178	178.000000
745.894775	179.900000
745.932373	180.000000
745.969971	181.900000
746.007568	174.000000
746.045166	186.100000
746.082764	184.600000
746.120300	184.200000
746.157898	181.600000
746.195557	179.900000
746.233093	176.800000
746.270691	182.400000
746.308228	179.800000
746.345825	183.700000
746.383423	181.400000
746.420959	177.700000
746.458557	178.000000
746.496155	178.200000
746.533691	180.200000
746.571289	177.300000
746.608887	179.300000
746.646423	181.600000
746.684021	181.100000
746.721619	177.600000
746.759155	181.900000
746.796753	176.000000
746.834351	176.500000
746.871826	177.300000
746.909424	185.600000
746.946960	180.000000
746.984558	179.500000
747.022156	178.400000
747.059631	186.700000
747.097229	182.600000
747.134827	180.100000
747.172363	184.700000
747.209900	184.200000
747.247498	177.400000
747.285034	185.100000
747.322571	183.900000
747.360168	180.000000
747.397644	175.100000
747.435242	182.600000
747.472778	184.100000
747.510315	178.400000
747.547913	178.800000
747.585388	185.100000
747.622925	177.200000
747.660522	175.500000
747.697998	178.000000
747.735596	179.100000
747.773132	177.400000
747.810669	181.200000
747.848206	180.800000
747.885742	177.600000
747.923279	175.100000
747.960815	181.900000
747.998352	180.800000
748.035889	184.500000
748.073425	182.100000
748.110901	178.900000
748.148437	177.400000
748.185974	180.200000
748.223511	186.000000
748.261047	183.600000
748.298584	180.300000
748.336060	180.800000
748.373596	180.300000
748.411133	207.200000
748.448608	178.100000
748.486145	182.500000
748.523682	184.700000
748.561218	186.500000
748.598755	180.800000
748.636292	183.600000
748.673706	179.200000
748.711243	186.700000
748.748718	181.100000
748.786255	180.600000
748.823792	180.600000
748.861267	177.400000
748.898804	182.700000
748.936340	181.300000
748.973816	178.400000
749.011292	184.700000
749.048828	182.400000
749.086304	182.600000
749.123840	188.600000
749.161316	177.600000
749.198792	187.000000
749.236328	184.600000
749.273743	182.200000
749.311279	177.000000
749.348816	183.200000
749.386230	179.900000
749.423767	174.600000
749.461304	182.900000
749.498718	181.900000
749.536255	182.600000
749.573730	190.000000
749.611206	185.400000
749.648682	180.800000
749.686218	180.900000
749.723633	183.900000
749.761169	179.600000
749.798645	177.700000
749.836060	178.600000
749.873596	179.300000
749.911011	181.900000
749.948547	186.400000
749.986023	180.100000
750.023437	182.200000
750.060913	175.200000
750.098450	176.700000
750.135864	180.200000
750.173340	180.700000
750.210815	185.200000
750.248291	177.900000
750.285767	180.500000
750.323242	183.600000
750.360657	182.800000
750.398132	177.500000
750.435608	183.100000
750.473022	178.200000
750.510498	177.600000
750.547974	178.100000
750.585449	179.900000
750.622925	173.400000
750.660339	189.800000
750.697815	180.000000
750.735291	179.800000
750.772644	180.700000
750.810120	184.200000
750.847595	182.100000
750.885010	178.200000
750.922485	184.000000
750.959961	181.500000
750.997375	186.100000
751.034851	184.000000
751.072266	182.900000
751.109680	176.200000
751.147156	183.700000
751.184570	182.500000
751.221985	179.200000
751.259460	176.200000
751.296875	179.600000
751.334290	180.400000
751.371765	183.200000
751.409180	185.000000
751.446594	183.900000
751.484070	182.700000
751.521423	180.600000
751.558899	181.500000
751.596375	186.900000
751.633728	184.900000
751.671204	188.300000
751.708618	178.400000
751.746033	181.300000
751.783447	175.700000
751.820801	178.200000
751.858276	184.700000
751.895691	178.900000
751.933105	178.400000
751.970520	176.700000
752.007935	177.400000
752.045349	184.000000
752.082764	182.100000
752.120178	179.100000
752.157532	178.200000
752.195007	179.600000
752.232422	181.900000
752.269775	183.100000
752.307190	184.100000
752.344543	178.100000
752.382019	181.200000
752.419434	180.100000
752.456787	182.700000
752.494202	184.800000
752.531616	181.700000
752.568970	183.800000
752.606384	181.700000
752.643799	183.300000
752.681152	185.700000
752.718567	184.100000
752.755981	174.700000
752.793335	183.700000
752.830750	174.600000
752.868164	184.600000
752.905518	176.100000
752.942932	183.500000
752.980225	177.500000
753.017639	184.000000
753.055054	183.800000
753.092407	181.100000
753.129822	183.100000
753.167175	186.800000
753.204529	180.400000
753.241943	177.300000
753.279358	175.800000
753.316650	182.900000
753.354065	181.800000
753.391479	184.800000
753.428772	184.400000
753.466187	182.100000
753.503479	178.200000
753.540894	180.100000
753.578308	176.900000
753.615601	177.800000
753.653015	180.500000
753.690369	179.200000
753.727722	179.000000
753.765076	176.700000
753.802490	177.500000
753.839783	175.700000
753.877136	179.500000
753.914551	189.300000
753.951843	177.700000
753.989258	182.700000
754.026611	181.100000
754.063904	182.700000
754.101257	177.500000
754.138611	176.100000
754.175964	181.800000
754.213318	188.000000
754.250610	176.600000
754.288025	180.100000
754.325378	179.200000
754.362671	182.500000
754.400024	181.300000
754.437378	186.400000
754.474670	186.900000
754.512085	178.800000
754.549438	180.700000
754.586731	177.600000
754.624084	180.800000
754.661438	176.500000
754.698730	187.300000
754.736084	179.400000
754.773376	181.200000
754.810730	180.200000
754.848083	181.200000
754.885315	183.100000
754.922668	177.100000
754.960022	178.200000
754.997314	185.000000
755.034668	180.400000
755.072021	182.700000
755.109253	177.800000
755.146606	184.900000
755.183960	179.600000
755.221252	187.200000
755.258545	182.500000
755.295898	186.900000
755.333191	185.900000
755.370544	183.700000
755.407776	182.000000
755.445129	183.000000
755.482422	184.800000
755.519714	180.200000
755.557068	177.400000
755.594360	176.800000
755.631653	184.200000
755.668945	187.400000
755.706299	182.800000
755.743530	189.600000
755.780884	187.800000
755.818176	185.400000
755.855408	186.000000
755.892761	184.400000
755.930054	183.700000
755.967346	184.400000
756.004639	184.000000
756.041870	182.800000
756.079224	186.700000
756.116516	180.200000
756.153748	185.500000
756.191040	188.900000
756.228394	186.100000
756.265625	178.900000
756.302917	183.800000
756.340210	181.800000
756.377441	186.500000
756.414795	187.900000
756.452087	183.200000
756.489319	179.400000
756.526611	186.800000
756.563843	183.200000
756.601135	188.700000
756.638428	189.100000
756.675659	181.800000
756.712952	184.300000
756.750244	187.000000
756.787476	184.100000
756.824768	188.900000
756.862061	181.700000
756.899292	228.800000
756.936584	186.200000
756.973816	191.100000
757.011047	191.600000
757.048340	185.000000
757.085632	184.100000
757.122864	197.300000
757.160156	182.000000
757.197327	186.200000
757.234619	188.700000
757.271912	184.400000
757.309082	187.900000
757.346375	182.600000
757.383667	189.400000
757.420837	183.900000
757.458130	185.400000
757.495422	184.700000
757.532593	188.500000
757.569885	181.000000
757.607117	182.200000
757.644348	187.800000
757.681580	197.200000
757.718811	177.500000
757.756042	186.600000
757.793335	184.400000
757.830505	192.500000
757.867798	184.400000
757.905029	185.100000
757.942200	186.000000
757.979492	185.100000
758.016724	186.400000
758.053894	186.300000
758.091187	197.200000
758.128418	186.400000
758.165588	184.200000
758.202820	195.400000
758.240112	186.500000
758.277283	193.900000
758.314514	187.200000
758.351685	185.200000
758.388916	191.900000
758.426147	194.300000
758.463379	192.500000
758.500610	189.100000
758.537842	188.200000
758.575012	194.100000
758.612244	184.100000
758.649475	197.800000
758.686646	184.100000
758.723877	195.600000
758.761108	194.500000
758.798279	189.900000
758.835510	189.800000
758.872742	194.300000
758.909851	190.200000
758.947083	192.900000
758.984253	191.200000
759.021484	194.600000
759.058716	192.700000
759.095886	193.600000
759.133057	189.700000
759.170288	191.700000
759.207458	190.000000
759.244690	197.700000
759.281860	195.600000
759.319031	192.100000
759.356262	190.600000
759.393433	191.300000
759.430603	190.600000
759.467773	191.300000
759.505005	196.100000
759.542175	195.900000
759.579346	191.600000
759.616516	192.300000
759.653687	194.800000
759.690918	189.600000
759.728027	193.100000
759.765259	194.200000
759.802429	195.300000
759.839539	193.500000
759.876770	197.700000
759.913940	200.000000
759.951111	195.700000
759.988281	194.500000
760.025452	192.000000
760.062561	190.700000
760.099792	201.500000
760.136963	195.000000
760.174072	194.200000
760.211243	190.600000
760.248413	192.400000
760.285583	190.400000
760.322754	203.200000
760.359863	199.800000
760.397034	199.900000
760.434204	195.300000
760.471375	196.300000
760.508545	192.400000
760.545715	196.100000
760.582825	193.400000
760.619995	199.000000
760.657166	192.300000
760.694275	200.900000
760.731445	197.300000
760.768555	197.900000
760.805664	199.200000
760.842834	198.800000
760.879944	199.600000
760.917114	198.900000
760.954285	195.900000
760.991394	193.100000
761.028564	201.900000
761.065674	199.200000
761.102783	196.300000
761.139954	202.700000
761.177124	201.700000
761.214172	202.800000
761.251343	198.100000
761.288452	198.700000
761.325562	202.200000
761.362732	196.300000
761.399841	199.900000
761.436951	200.800000
761.474121	198.300000
761.511169	199.500000
761.548340	203.400000
761.585449	199.800000
761.622559	203.900000
761.659668	200.200000
761.696838	207.100000
761.733887	201.600000
761.771057	200.000000
761.808167	200.800000
761.845276	204.200000
761.882385	209.300000
761.919434	203.200000
761.956604	211.000000
761.993713	201.600000
762.030762	205.300000
762.067871	203.100000
762.105042	202.400000
762.142090	209.100000
762.179199	203.000000
762.216309	208.300000
762.253418	212.600000
762.290527	210.900000
762.327637	208.100000
762.364685	202.000000
762.401794	207.400000
762.438904	207.200000
762.475952	202.000000
762.513062	202.500000
762.550110	203.900000
762.587219	212.900000
762.624329	212.500000
762.661377	207.800000
762.698486	207.200000
762.735596	206.800000
762.772644	203.500000
762.809753	201.900000
762.846863	206.800000
762.883911	209.700000
762.921021	210.600000
762.958069	208.400000
762.995117	214.600000
763.032227	212.900000
763.069336	208.500000
763.106323	205.500000
763.143433	205.200000
763.180481	210.800000
763.217590	210.900000
763.254639	207.800000
763.291687	210.400000
763.328735	214.600000
763.365845	209.500000
763.402893	206.900000
763.439941	211.700000
763.477051	212.100000
763.514038	213.400000
763.551147	207.800000
763.588196	212.800000
763.625244	210.700000
763.662292	217.900000
763.699402	217.600000
763.736389	215.700000
763.773499	220.800000
763.810486	217.800000
763.847534	213.700000
763.884644	219.700000
763.921631	213.500000
763.958679	221.800000
763.995728	216.300000
764.032776	222.600000
764.069824	212.800000
764.106873	220.000000
764.143860	222.600000
764.180969	217.200000
764.218018	224.300000
764.255005	217.700000
764.292053	219.100000
764.329102	225.700000
764.366089	225.300000
764.403137	225.200000
764.440125	218.700000
764.477173	221.400000
764.514221	222.300000
764.551208	220.700000
764.588257	219.600000
764.625305	226.200000
764.662292	230.100000
764.699341	231.600000
764.736389	226.500000
764.773376	236.500000
764.810425	228.200000
764.847473	232.900000
764.884399	230.400000
764.921448	235.000000
764.958435	234.600000
764.995483	228.800000
765.032532	240.200000
765.069458	227.300000
765.106506	231.700000
765.143555	227.100000
765.180481	234.400000
765.217529	236.800000
765.254578	230.000000
765.291504	232.100000
765.328552	235.100000
765.365540	227.800000
765.402527	239.900000
765.439575	231.000000
765.476501	230.300000
765.513550	228.700000
765.550537	235.600000
765.587463	238.700000
765.624512	232.900000
765.661499	227.900000
765.698486	239.300000
765.735474	232.500000
765.772461	236.900000
765.809448	238.700000
765.846436	238.900000
765.883423	243.200000
765.920410	237.900000
765.957397	236.200000
765.994385	241.300000
766.031311	244.500000
766.068359	241.600000
766.105286	243.000000
766.142273	246.600000
766.179260	242.100000
766.216187	239.900000
766.253174	237.300000
766.290161	244.200000
766.327148	245.900000
766.364136	245.500000
766.401123	254.300000
766.438049	241.300000
766.475037	251.100000
766.512024	248.900000
766.548950	257.400000
766.585937	252.900000
766.622864	250.800000
766.659790	249.800000
766.696777	244.500000
766.733704	253.000000
766.770691	247.800000
766.807678	256.200000
766.844604	253.000000
766.881531	252.600000
766.918518	257.100000
766.955444	255.300000
766.992432	254.800000
767.029358	252.700000
767.066284	260.400000
767.103271	254.500000
767.140198	287.100000
767.177124	265.000000
767.214050	258.100000
767.251038	258.900000
767.287964	258.800000
767.324890	258.900000
767.361816	259.400000
767.398743	262.600000
767.435730	258.900000
767.472595	260.300000
767.509583	264.200000
767.546509	256.400000
767.583374	261.300000
767.620361	257.000000
767.657288	260.200000
767.694214	259.300000
767.731140	259.000000
767.768066	262.000000
767.804993	263.900000
767.841919	257.400000
767.878845	263.400000
767.915710	267.800000
767.952698	262.700000
767.989563	263.300000
768.026489	264.500000
768.063416	261.100000
768.100281	261.700000
768.137207	269.700000
768.174133	267.900000
768.211060	267.400000
768.247986	266.000000
768.284912	267.000000
768.321777	267.700000
768.358704	266.100000
768.395630	268.100000
768.432495	264.500000
768.469421	269.900000
768.506348	274.500000
768.543152	277.200000
768.580078	274.100000
768.616943	274.100000
768.653870	277.500000
768.690796	274.200000
768.727661	275.100000
768.764587	276.000000
768.801453	274.300000
768.838318	278.100000
768.875244	278.900000
768.912109	282.000000
768.948975	276.600000
768.985901	278.900000
769.022766	281.400000
769.059631	281.500000
769.096558	280.500000
769.133362	280.700000
769.170288	281.200000
769.207214	281.500000
769.244019	287.900000
769.280945	283.000000
769.317810	290.800000
769.354675	287.000000
769.391541	292.400000
769.428406	288.300000
769.465271	297.500000
769.502136	289.200000
769.539062	294.700000
769.575867	292.400000
769.612732	294.800000
769.649597	297.900000
769.686462	299.600000
769.723328	296.300000
769.760193	295.500000
769.797058	294.900000
769.833923	301.500000
769.870728	301.800000
769.907593	304.300000
769.944519	302.900000
769.981323	305.300000
770.018188	306.100000
770.055054	303.900000
770.091858	304.700000
770.128723	311.200000
770.165588	317.500000
770.202393	307.100000
770.239258	317.200000
770.276062	310.200000
770.312927	315.400000
770.349792	320.000000
770.386597	317.500000
770.423462	322.400000
770.460327	328.700000
770.497131	315.800000
770.533997	318.200000
770.570862	323.800000
770.607605	326.700000
770.644470	322.600000
770.681335	325.300000
770.718140	322.800000
770.754944	320.800000
770.791809	319.400000
770.828613	323.000000
770.865479	325.500000
770.902222	333.300000
770.939087	325.300000
770.975952	322.800000
771.012695	326.900000
771.049561	339.200000
771.086365	330.500000
771.123169	328.400000
771.159973	328.200000
771.196838	329.700000
771.233582	332.500000
771.270447	333.600000
771.307251	339.300000
771.344055	336.600000
771.380859	336.100000
771.417664	332.800000
771.454468	341.900000
771.491272	339.000000
771.528076	341.600000
771.564880	338.200000
771.601685	345.800000
771.638428	339.000000
771.675293	345.200000
771.712097	338.400000
771.748840	350.200000
771.785645	345.900000
771.822449	347.600000
771.859253	349.700000
771.896057	346.000000
771.932861	356.000000
771.969604	352.600000
772.006409	345.900000
772.043213	356.300000
772.079956	353.100000
772.116760	349.300000
772.153503	350.600000
772.190308	359.300000
772.227112	354.400000
772.263855	354.000000
772.300659	354.300000
772.337463	360.800000
772.374207	353.500000
772.411011	351.600000
772.447754	353.500000
772.484497	370.700000
772.521301	363.200000
772.558105	359.500000
772.594849	362.100000
772.631592	365.700000
772.668396	363.800000
772.705139	369.500000
772.741882	364.700000
772.778625	372.400000
772.815430	372.600000
772.852173	372.400000
772.888916	372.900000
772.925720	375.300000
772.962463	383.200000
772.999207	375.700000
773.035950	376.000000
773.072754	378.400000
773.109436	373.700000
773.146240	376.000000
773.182922	377.400000
773.219727	381.600000
773.256470	376.000000
773.293152	371.800000
773.329956	375.600000
773.366699	379.600000
773.403381	375.800000
773.440186	381.200000
773.476929	380.800000
773.513611	379.800000
773.550354	378.900000
773.587158	380.100000
773.623840	379.300000
773.660583	385.500000
773.697327	393.900000
773.734009	384.400000
773.770813	382.600000
773.807495	382.300000
773.844238	386.100000
773.880981	393.400000
773.917664	392.300000
773.954407	395.200000
773.991150	389.600000
774.027832	394.200000
774.064575	391.600000
774.101318	394.500000
774.138000	400.200000
774.174744	394.100000
774.211487	396.500000
774.248108	388.400000
774.284851	392.000000
774.321594	396.500000
774.358276	399.700000
774.395020	404.700000
774.431702	400.000000
774.468384	398.500000
774.505127	393.900000
774.541809	399.000000
774.578491	407.600000
774.615234	409.700000
774.651917	400.400000
774.688599	405.400000
774.725342	413.200000
774.762024	412.700000
774.798706	418.900000
774.835449	416.600000
774.872070	420.900000
774.908813	416.400000
774.945496	418.200000
774.982178	418.900000
775.018860	423.600000
775.055542	426.600000
775.092224	425.800000
775.128967	427.200000
775.165588	429.300000
775.202271	424.400000
775.239014	433.900000
775.275635	434.300000
775.312317	427.500000
775.349060	432.500000
775.385681	432.100000
775.422363	429.400000
775.459045	438.000000
775.495667	440.000000
775.532410	439.700000
775.569092	444.700000
775.605713	441.900000
775.642395	440.200000
775.679016	444.000000
775.715698	448.400000
775.752380	447.400000
775.789001	449.200000
775.825684	448.600000
775.862366	449.500000
775.898987	459.000000
775.935669	454.200000
775.972351	465.100000
776.008972	464.000000
776.045654	461.700000
776.082336	462.400000
776.118958	459.600000
776.155640	468.300000
776.192322	470.500000
776.228882	475.400000
776.265564	475.900000
776.302185	472.300000
776.338867	473.800000
776.375488	470.600000
776.412109	480.400000
776.448792	484.700000
776.485413	488.400000
776.522034	481.400000
776.558716	478.100000
776.595337	484.400000
776.631958	486.400000
776.668579	485.500000
776.705261	492.700000
776.741882	486.800000
776.778503	487.200000
776.815186	486.200000
776.851746	491.600000
776.888367	491.200000
776.924988	501.200000
776.961609	496.900000
776.998291	498.800000
777.034851	494.800000
777.071472	504.200000
777.108154	502.000000
777.144714	512.500000
777.181335	508.500000
777.218018	502.700000
777.254578	509.300000
777.291199	508.200000
777.327759	513.300000
777.364380	522.400000
777.401062	521.200000
777.437622	527.600000
777.474243	519.200000
777.510864	522.400000
777.547424	520.800000
777.584045	526.400000
777.620667	525.600000
777.657227	529.000000
777.693848	530.500000
777.730469	538.200000
777.767029	530.900000
777.803650	535.800000
777.840271	531.400000
777.876831	530.600000
777.913452	535.700000
777.950012	523.400000
777.986633	526.400000
778.023193	528.600000
778.059753	528.900000
778.096375	533.600000
778.132996	539.700000
778.169556	531.300000
778.206116	530.800000
778.242737	531.800000
778.279297	538.200000
778.315857	531.200000
778.352478	535.900000
778.389038	541.200000
778.425598	545.700000
778.462219	548.400000
778.498718	546.700000
778.535339	551.400000
778.571838	554.700000
778.608459	555.400000
778.645020	549.800000
778.681580	554.500000
778.718140	553.400000
778.754761	545.400000
778.791260	552.800000
778.827881	560.300000
778.864441	557.200000
778.900940	556.400000
778.937561	556.500000
778.974121	557.600000
779.010620	555.000000
779.047241	559.100000
779.083801	564.600000
779.120300	564.200000
779.156860	566.400000
779.193359	561.800000
779.229980	568.900000
779.266541	572.900000
779.303040	573.900000
779.339600	561.000000
779.376160	557.600000
779.412659	558.100000
779.449219	561.500000
779.485779	564.100000
779.522278	563.200000
779.558838	565.100000
779.595398	574.700000
779.631897	568.600000
779.668457	563.300000
779.705017	570.100000
779.741516	563.900000
779.778076	566.300000
779.814575	567.100000
779.851074	571.300000
779.887634	566.900000
779.924133	572.700000
779.960693	565.700000
779.997253	580.200000
780.033691	582.500000
780.070251	582.100000
780.106812	588.800000
780.143250	582.700000
780.179810	581.800000
780.216370	586.000000
780.252808	589.800000
780.289368	596.700000
780.325867	600.200000
780.362366	590.600000
780.398865	598.300000
780.435364	594.100000
780.471863	604.500000
780.508423	598.400000
780.544861	600.000000
780.581421	602.600000
780.617920	592.900000
780.654419	595.400000
780.690918	598.800000
780.727417	608.200000
780.763916	607.300000
780.800415	615.000000
780.836914	594.600000
780.873352	608.000000
780.909912	602.400000
780.946411	609.600000
780.982849	617.500000
781.019348	622.000000
781.055786	614.900000
781.092346	622.200000
781.128845	625.600000
781.165283	629.900000
781.201782	638.500000
781.238281	638.200000
781.274719	640.100000
781.311218	639.700000
781.347717	644.000000
781.384155	641.500000
781.420654	644.600000
781.457092	651.000000
781.493591	646.200000
781.530090	640.300000
781.566528	637.500000
781.602966	643.600000
781.639465	643.800000
781.675903	643.900000
781.712402	646.800000
781.748901	655.400000
781.785278	647.900000
781.821777	649.400000
781.858276	653.300000
781.894714	663.100000
781.931152	657.400000
781.967651	661.900000
782.004089	659.500000
782.040527	668.100000
782.076965	669.600000
782.113403	668.700000
782.149902	676.600000
782.186340	674.800000
782.222778	684.400000
782.259277	676.100000
782.295654	676.500000
782.332092	684.700000
782.368591	685.800000
782.404968	681.400000
782.441467	689.100000
782.477905	686.600000
782.514282	683.200000
782.550781	691.700000
782.587219	690.400000
782.623596	697.200000
782.660095	705.700000
782.696472	703.600000
782.732910	707.600000
782.769348	705.400000
782.805786	721.200000
782.842224	720.100000
782.878662	706.300000
782.915039	712.000000
782.951477	719.100000
782.987915	712.400000
783.024292	708.400000
783.060730	695.700000
783.097168	680.600000
783.133545	660.500000
783.169983	639.600000
783.206421	616.500000
783.242798	595.000000
783.279236	562.200000
783.315613	533.600000
783.352051	497.900000
783.388489	466.200000
783.424866	429.600000
783.461304	401.300000
783.497681	377.200000
783.534058	345.800000
783.570496	321.000000
783.606934	297.200000
783.643250	280.800000
783.679687	270.400000
783.716125	254.300000
783.752441	249.200000
783.788879	254.100000
783.825317	258.400000
783.861633	253.300000
783.898071	248.800000
783.934448	249.000000
783.970825	249.100000
784.007263	250.000000
784.043579	256.500000
784.080017	260.700000
784.116394	256.800000
784.152710	264.700000
784.189148	269.300000
784.225525	276.200000
784.261902	280.600000
784.298279	294.300000
784.334656	314.200000
784.371033	330.800000
784.407410	362.100000
784.443787	388.700000
784.480164	420.200000
784.516541	456.000000
784.552856	497.000000
784.589233	533.000000
784.625610	560.700000
784.661987	613.600000
784.698364	637.800000
784.734741	654.700000
784.771057	676.900000
784.807434	700.800000
784.843811	724.900000
784.880127	730.600000
784.916504	755.600000
784.952881	758.800000
784.989197	762.000000
785.025574	769.600000
785.061951	771.400000
785.098267	785.100000
785.134644	778.500000
785.170959	775.300000
785.207275	777.200000
785.243652	774.600000
785.279968	758.800000
785.316345	761.800000
785.352722	761.700000
785.388977	759.000000
785.425354	746.100000
785.461731	736.300000
785.498047	727.600000
785.534363	723.800000
785.570679	725.000000
785.606995	727.700000
785.643372	730.200000
785.679687	721.800000
785.716003	717.100000
785.752380	721.300000
785.788635	735.900000
785.825012	744.400000
785.861328	752.100000
785.897644	741.100000
785.933960	757.700000
785.970337	771.400000
786.006592	789.700000
786.042908	791.800000
786.079285	801.400000
786.115540	807.100000
786.151855	800.700000
786.188171	796.900000
786.224487	797.500000
786.260803	789.800000
786.297119	802.700000
786.333435	792.000000
786.369751	787.300000
786.406006	780.800000
786.442322	774.500000
786.478638	766.400000
786.514954	773.900000
786.551270	768.200000
786.587585	772.900000
786.623840	752.700000
786.660156	755.400000
786.696472	744.600000
786.732727	745.600000
786.769043	753.800000
786.805298	748.700000
786.841614	755.300000
786.877930	759.100000
786.914124	752.800000
786.950439	770.300000
786.986755	782.800000
787.023010	797.900000
787.059326	804.700000
787.095642	803.300000
787.131836	824.100000
787.168152	818.000000
787.204468	827.000000
787.240723	840.600000
787.276978	843.200000
787.313293	844.800000
787.349548	834.400000
787.385803	832.700000
787.422058	832.800000
787.458313	831.100000
787.494629	826.600000
787.530823	819.800000
787.567139	811.600000
787.603455	804.600000
787.639648	794.800000
787.675903	799.200000
787.712219	803.000000
787.748413	788.900000
787.784729	792.400000
787.820984	786.500000
787.857178	783.900000
787.893494	786.900000
787.929749	788.300000
787.965942	797.800000
788.002258	810.200000
788.038452	818.600000
788.074707	817.800000
788.110962	826.600000
788.147217	828.200000
788.183472	830.900000
788.219727	847.200000
788.255920	859.800000
788.292175	864.300000
788.328430	854.600000
788.364624	847.800000
788.400879	845.500000
788.437134	859.300000
788.473328	853.300000
788.509583	851.900000
788.545837	850.900000
788.582031	853.400000
788.618286	848.900000
788.654480	854.000000
788.690735	862.800000
788.726990	872.000000
788.763184	864.500000
788.799377	869.800000
788.835632	866.800000
788.871826	875.300000
788.908081	881.900000
788.944336	873.900000
788.980469	878.700000
789.016724	878.000000
789.052979	884.800000
789.089111	866.000000
789.125366	877.000000
789.161621	870.700000
789.197754	879.000000
789.234009	870.600000
789.270142	863.600000
789.306396	852.500000
789.342590	850.900000
789.378784	838.800000
789.414978	839.100000
789.451233	847.400000
789.487366	852.100000
789.523621	851.400000
789.559814	848.100000
789.595947	851.700000
789.632202	863.800000
789.668335	877.300000
789.704529	893.300000
789.740784	898.500000
789.776917	903.400000
789.813110	892.300000
789.849304	905.000000
789.885498	905.200000
789.921692	921.200000
789.957886	920.300000
789.994019	924.400000
790.030212	922.900000
790.066406	929.100000
790.102539	927.800000
790.138733	940.600000
790.174927	940.900000
790.211060	946.300000
790.247253	935.100000
790.283386	929.300000
790.319580	924.800000
790.355774	907.100000
790.391907	904.000000
790.428101	923.400000
790.464294	922.900000
790.500427	915.300000
790.536621	896.500000
790.572754	887.600000
790.608887	887.500000
790.645081	888.400000
790.681274	908.700000
790.717346	901.100000
790.753540	892.400000
790.789734	882.900000
790.825867	872.500000
790.862000	874.900000
790.898132	892.300000
790.934265	889.800000
790.970459	886.700000
791.006592	883.800000
791.042725	874.300000
791.078918	864.900000
791.114990	875.000000
791.151184	883.000000
791.187317	900.200000
791.223389	891.400000
791.259583	876.100000
791.295715	874.200000
791.331848	881.500000
791.367981	886.200000
791.404114	889.700000
791.440247	882.200000
791.476379	883.800000
791.512451	862.100000
791.548584	864.400000
791.584778	864.200000
791.620850	881.500000
791.656982	880.100000
791.693115	886.300000
791.729187	876.900000
791.765381	878.300000
791.801514	878.800000
791.837585	882.600000
791.873718	894.800000
791.909851	902.400000
791.945923	904.300000
791.982056	883.900000
792.018188	874.500000
792.054260	873.400000
792.090393	886.500000
792.126465	876.000000
792.162598	882.200000
792.198669	871.800000
792.234741	862.500000
792.270874	854.000000
792.307007	847.200000
792.343079	856.900000
792.379150	866.800000
792.415283	861.100000
792.451355	852.800000
792.487488	831.400000
792.523560	822.700000
792.559631	801.900000
792.595764	769.300000
792.631836	746.300000
792.667908	752.100000
792.703979	760.200000
792.740051	801.500000
792.776184	830.200000
792.812256	842.600000
792.848328	851.700000
792.884399	862.600000
792.920471	863.900000
792.956543	860.900000
792.992615	862.100000
793.028748	864.900000
793.064758	871.200000
793.100830	890.700000
793.136963	894.300000
793.172974	888.800000
793.209045	876.900000
793.245178	889.400000
793.281189	881.400000
793.317261	886.800000
793.353271	888.900000
793.389404	901.800000
793.425476	893.900000
793.461487	873.600000
793.497559	872.500000
793.533630	874.000000
793.569641	875.000000
793.605713	885.200000
793.641785	885.300000
793.677795	894.000000
793.713867	885.100000
793.749878	894.700000
793.785950	904.900000
793.822021	912.700000
793.858032	895.500000
793.894104	911.500000
793.930176	903.100000
793.966187	905.800000
794.002258	902.400000
794.038269	911.200000
794.074280	906.200000
794.110352	926.600000
794.146423	916.400000
794.182373	907.300000
794.218445	895.500000
794.254517	886.200000
794.290466	882.500000
794.326538	880.800000
794.362549	889.000000
794.398560	889.400000
794.434631	885.600000
794.470581	869.400000
794.506653	861.500000
794.542664	865.700000
794.578674	866.100000
794.614685	873.300000
794.650757	876.200000
794.686707	874.500000
794.722778	869.900000
794.758789	882.600000
794.794739	896.100000
794.830811	915.700000
794.866821	933.400000
794.902771	932.000000
794.938843	922.300000
794.974792	924.400000
795.010803	928.900000
795.046814	927.500000
795.082825	917.500000
795.118835	924.800000
795.154846	908.400000
795.190796	900.500000
795.226807	888.100000
795.262817	894.300000
795.298767	900.900000
795.334778	919.900000
795.370850	901.300000
795.406799	898.600000
795.442810	886.100000
795.478821	879.300000
795.514709	884.300000
795.550720	913.900000
795.586670	896.700000
795.622681	899.500000
795.658691	896.900000
795.694641	891.400000
795.730652	880.700000
795.766663	890.900000
795.802551	901.600000
795.838562	914.800000
795.874573	899.700000
795.910522	897.400000
795.946472	891.800000
795.982483	899.400000
796.018433	900.300000
796.054382	908.400000
796.090393	906.600000
796.126282	891.200000
796.162292	872.300000
796.198242	877.400000
796.234192	872.000000
796.270203	869.300000
796.306091	875.900000
796.342041	892.400000
796.378052	874.100000
796.413940	872.800000
796.449951	876.000000
796.485901	882.300000
796.521790	895.100000
796.557800	914.000000
796.593689	904.300000
796.629639	897.600000
796.665649	883.400000
796.701599	883.100000
796.737488	888.600000
796.773437	902.800000
796.809387	899.900000
796.845337	901.600000
796.881287	883.200000
796.917175	873.000000
796.953125	873.300000
796.989075	882.300000
797.024963	882.500000
797.060913	883.100000
797.096863	872.600000
797.132751	864.700000
797.168701	857.100000
797.204590	856.900000
797.240540	861.400000
797.276489	871.900000
797.312439	878.900000
797.348328	866.400000
797.384277	855.700000
797.420166	846.100000
797.456055	852.900000
797.492004	858.700000
797.527893	869.500000
797.563843	868.400000
797.599731	864.400000
797.635620	852.200000
797.671570	853.400000
797.707520	867.700000
797.743347	872.400000
797.779297	873.900000
797.815125	863.800000
797.851074	851.800000
797.887024	835.800000
797.922913	832.800000
797.958801	840.300000
797.994690	841.000000
798.030579	846.500000
798.066467	849.700000
798.102356	843.000000
798.138245	837.200000
798.174133	828.600000
798.210083	833.300000
798.245911	841.600000
798.281799	841.300000
798.317749	840.200000
798.353577	841.600000
798.389465	834.200000
798.425293	835.400000
798.461243	838.500000
798.497131	841.200000
798.532959	840.400000
798.568848	846.100000
798.604736	837.000000
798.640564	824.600000
798.676453	826.400000
798.712402	828.300000
798.748230	826.800000
798.784119	827.900000
798.820007	824.300000
798.855835	813.100000
798.891724	811.700000
798.927551	804.700000
798.963379	813.500000
798.999268	815.100000
799.035095	805.800000
799.070984	793.400000
799.106873	787.900000
799.142700	798.400000
799.178528	790.200000
799.214417	795.700000
799.250244	807.000000
799.286133	801.400000
799.321960	797.900000
799.357788	791.700000
799.393677	779.900000
799.429504	789.200000
799.465332	793.300000
799.501221	794.500000
799.537048	795.200000
799.572876	790.500000
799.608704	787.900000
799.644531	807.600000
799.680359	800.200000
799.716248	813.500000
799.752014	823.200000
799.787903	806.000000
799.823730	795.200000
799.859558	793.600000
799.895386	793.600000
799.931213	799.500000
799.967041	790.900000
800.002869	785.500000
800.038696	788.200000
800.074463	775.900000
800.110352	788.600000
800.146179	776.000000
800.181946	788.000000
800.217773	794.800000
800.253540	782.000000
800.289429	777.500000
800.325256	774.500000
800.361023	775.000000
800.396851	783.100000
800.432678	784.600000
800.468445	781.400000
800.504272	777.200000
800.540100	763.100000
800.575867	766.000000
800.611694	770.400000
800.647461	767.400000
800.683289	772.300000
800.719116	774.400000
800.754883	765.600000
800.790649	752.400000
800.826477	749.800000
800.862244	766.700000
800.898071	760.000000
800.933838	764.000000
800.969604	763.600000
801.005432	748.100000
801.041199	751.400000
801.076965	749.200000
801.112793	744.700000
801.148560	739.800000
801.184326	739.300000
801.220154	742.200000
801.255859	733.900000
801.291687	729.000000
801.327454	728.500000
801.363281	734.800000
801.398987	729.700000
801.434814	726.900000
801.470520	731.600000
801.506287	721.600000
801.542114	712.700000
801.577820	714.600000
801.613647	719.100000
801.649414	715.100000
801.685120	714.700000
801.720886	721.800000
801.756714	715.900000
801.792419	704.500000
801.828186	697.600000
801.863892	707.600000
801.899719	703.000000
801.935486	703.300000
801.971252	715.400000
802.006958	705.300000
802.042725	697.000000
802.078430	697.000000
802.114197	699.500000
802.149963	703.600000
802.185669	692.200000
802.221436	694.300000
802.257202	697.700000
802.292908	692.000000
802.328674	701.800000
802.364441	701.300000
802.400146	694.100000
802.435913	693.100000
802.471558	693.700000
802.507324	692.500000
802.543091	684.000000
802.578796	700.100000
802.614502	698.900000
802.650269	699.000000
802.685974	682.900000
802.721741	685.400000
802.757446	687.200000
802.793152	690.700000
802.828918	699.600000
802.864624	695.700000
802.900330	694.500000
802.936035	690.600000
802.971802	687.000000
803.007446	677.100000
803.043213	670.200000
803.078857	684.200000
803.114624	674.400000
803.150330	676.400000
803.185974	665.800000
803.221741	670.900000
803.257446	672.000000
803.293152	676.400000
803.328857	671.500000
803.364563	672.000000
803.400208	668.600000
803.435974	669.400000
803.471680	659.800000
803.507324	664.100000
803.543030	673.900000
803.578735	675.500000
803.614441	670.900000
803.650146	672.800000
803.685791	656.400000
803.721497	660.300000
803.757202	648.200000
803.792847	655.700000
803.828552	655.400000
803.864258	652.500000
803.899902	647.400000
803.935608	635.400000
803.971313	638.700000
804.006958	641.900000
804.042664	638.700000
804.078308	648.100000
804.113953	635.200000
804.149658	640.200000
804.185364	628.000000
804.221008	644.200000
804.256714	630.600000
804.292297	635.600000
804.328003	631.300000
804.363708	621.700000
804.399292	624.900000
804.434998	624.500000
804.470703	617.800000
804.506287	628.000000
804.541992	619.900000
804.577637	621.800000
804.613281	614.400000
804.648926	603.600000
804.684570	609.000000
804.720215	604.100000
804.755920	608.500000
804.791565	603.600000
804.827209	612.300000
804.862854	605.800000
804.898437	602.500000
804.934143	599.000000
804.969788	595.600000
805.005371	595.500000
805.041077	597.400000
805.076721	596.700000
805.112305	590.800000
805.147949	588.700000
805.183655	588.400000
805.219238	588.700000
805.254883	587.900000
805.290466	586.800000
805.326111	585.000000
805.361755	577.000000
805.397400	579.900000
805.432983	584.200000
805.468628	580.800000
805.504211	582.500000
805.539856	585.700000
805.575500	584.700000
805.611084	574.400000
805.646729	568.500000
805.682373	575.500000
805.717957	579.600000
805.753601	579.700000
805.789246	572.300000
805.824768	577.800000
805.860413	579.500000
805.895996	569.800000
805.931641	572.700000
805.967224	578.900000
806.002869	572.000000
806.038452	573.700000
806.074036	581.600000
806.109619	565.100000
806.145264	562.600000
806.180847	556.900000
806.216431	557.300000
806.252014	556.500000
806.287659	561.400000
806.323181	565.700000
806.358826	560.000000
806.394409	547.300000
806.429993	547.700000
806.465576	555.200000
806.501160	554.100000
806.536743	544.700000
806.572327	555.100000
806.607910	542.900000
806.643494	544.300000
806.679077	538.500000
806.714661	544.000000
806.750244	540.900000
806.785828	536.100000
806.821350	533.200000
806.856934	537.600000
806.892517	531.500000
806.928101	530.100000
806.963684	530.600000
806.999268	538.200000
807.034790	525.800000
807.070374	530.900000
807.105896	520.900000
807.141479	517.900000
807.177063	523.200000
807.212585	521.400000
807.248169	522.100000
807.283752	523.700000
807.319275	516.100000
807.354858	520.800000
807.390381	514.400000
807.425903	510.700000
807.461487	510.200000
807.497070	510.500000
807.532593	511.800000
807.568115	504.500000
807.603699	499.700000
807.639221	498.100000
807.674744	504.200000
807.710266	507.600000
807.745850	512.000000
807.781372	505.500000
807.816895	498.800000
807.852417	499.700000
807.888000	499.200000
807.923523	495.300000
807.959045	501.300000
807.994629	491.900000
808.030090	488.300000
808.065613	494.400000
808.101135	497.900000
808.136658	494.700000
808.172241	490.800000
808.207764	489.100000
808.243225	488.100000
808.278809	484.100000
808.314270	494.100000
808.349792	479.400000
808.385315	478.200000
808.420837	483.500000
808.456360	488.800000
808.491882	486.200000
808.527344	483.700000
808.562866	487.200000
808.598389	479.600000
808.633850	476.200000
808.669434	475.900000
808.704895	482.700000
808.740417	487.000000
808.775940	476.800000
808.811462	473.900000
808.846924	468.600000
808.882385	465.000000
808.917847	467.600000
808.953369	470.700000
808.988892	466.500000
809.024353	471.300000
809.059875	473.100000
809.095398	468.600000
809.130798	462.400000
809.166321	461.100000
809.201843	463.200000
809.237305	463.000000
809.272766	464.200000
809.308228	453.400000
809.343750	450.300000
809.379211	453.200000
809.414734	453.100000
809.450134	458.900000
809.485657	444.400000
809.521118	449.100000
809.556580	447.500000
809.592102	449.000000
809.627502	448.100000
809.663025	443.900000
809.698486	442.500000
809.733887	440.400000
809.769409	445.200000
809.804871	437.400000
809.840271	438.200000
809.875793	436.300000
809.911194	439.100000
809.946655	434.000000
809.982178	433.000000
810.017639	432.700000
810.053040	430.200000
810.088501	425.500000
810.123901	424.800000
810.159424	424.100000
810.194885	422.000000
810.230286	422.600000
810.265747	417.800000
810.301208	415.700000
810.336609	420.800000
810.372070	412.700000
810.407532	416.700000
810.442932	414.500000
810.478394	419.100000
810.513794	411.200000
810.549255	411.400000
810.584717	409.100000
810.620117	406.500000
810.655518	407.500000
810.690979	404.500000
810.726379	404.700000
810.761841	396.100000
810.797302	395.200000
810.832642	395.000000
810.868103	402.300000
810.903564	394.600000
810.938904	400.100000
810.974365	390.500000
811.009827	393.200000
811.045166	385.300000
811.080627	383.000000
811.115967	385.300000
811.151428	390.700000
811.186829	387.300000
811.222229	387.100000
811.257629	380.800000
811.293091	385.500000
811.328430	390.800000
811.363892	386.100000
811.399292	384.700000
811.434631	380.900000
811.470093	383.800000
811.505493	379.700000
811.540833	377.900000
811.576294	379.700000
811.611694	374.000000
811.647034	371.700000
811.682434	373.500000
811.717773	377.900000
811.753235	382.000000
811.788635	373.800000
811.823975	372.700000
811.859375	379.500000
811.894775	368.200000
811.930115	370.700000
811.965515	368.500000
812.000916	369.200000
812.036255	365.400000
812.071655	369.400000
812.106995	364.400000
812.142395	366.500000
812.177795	370.600000
812.213196	365.700000
812.248474	364.300000
812.283875	361.100000
812.319214	362.900000
812.354614	361.300000
812.390015	357.000000
812.425293	354.900000
812.460693	358.200000
812.496094	356.000000
812.531433	350.000000
812.566772	350.700000
812.602173	352.000000
812.637451	349.300000
812.672852	349.700000
812.708191	348.300000
812.743530	347.200000
812.778931	340.900000
812.814270	340.400000
812.849609	345.000000
812.884949	342.100000
812.920227	335.700000
812.955627	348.600000
812.990967	339.700000
813.026306	334.600000
813.061646	325.700000
813.096985	327.400000
813.132324	323.600000
813.167664	328.600000
813.203003	332.000000
813.238281	323.800000
813.273682	322.500000
813.308960	321.700000
813.344299	318.500000
813.379639	325.200000
813.414978	319.000000
813.450256	319.800000
813.485596	317.200000
813.520874	313.800000
813.556213	315.600000
813.591614	321.500000
813.626831	311.200000
813.662170	314.800000
813.697510	321.700000
813.732788	309.900000
813.768127	314.800000
813.803467	313.100000
813.838745	312.300000
813.874084	314.200000
813.909363	310.500000
813.944641	313.600000
813.979980	304.200000
814.015320	308.900000
814.050598	305.400000
814.085876	305.100000
814.121155	303.000000
814.156494	303.900000
814.191772	304.400000
814.227051	299.200000
814.262390	301.400000
814.297668	300.700000
814.332947	301.400000
814.368225	297.400000
814.403564	299.900000
814.438782	297.800000
814.474121	298.200000
814.509338	296.300000
814.544617	300.200000
814.579956	292.600000
814.615173	300.900000
814.650513	294.700000
814.685791	292.200000
814.721008	292.500000
814.756348	293.700000
814.791626	289.600000
814.826843	290.700000
814.862122	287.600000
814.897400	288.300000
814.932678	287.800000
814.967957	289.800000
815.003235	287.100000
815.038452	283.600000
815.073730	281.500000
815.108948	289.900000
815.144226	287.900000
815.179504	292.000000
815.214722	279.000000
815.250000	281.300000
815.285278	284.800000
815.320496	280.200000
815.355774	279.500000
815.391052	281.900000
815.426270	277.500000
815.461487	277.600000
815.496765	273.600000
815.531982	271.100000
815.567261	273.300000
815.602539	280.100000
815.637695	274.800000
815.672974	275.500000
815.708191	276.600000
815.743408	279.200000
815.778687	271.200000
815.813904	278.500000
815.849121	267.600000
815.884399	266.900000
815.919556	265.500000
815.954834	266.800000
815.990051	268.900000
816.025269	271.800000
816.060486	263.700000
816.095703	263.000000
816.130920	264.900000
816.166199	261.000000
816.201416	265.100000
816.236572	265.900000
816.271851	260.400000
816.307007	262.600000
816.342224	257.000000
816.377441	258.000000
816.412659	255.200000
816.447876	259.500000
816.483093	258.300000
816.518250	254.800000
816.553467	254.300000
816.588745	257.100000
816.623901	251.400000
816.659119	246.000000
816.694275	251.400000
816.729492	246.800000
816.764709	275.300000
816.799927	245.900000
816.835083	250.000000
816.870300	242.000000
816.905457	247.100000
816.940674	246.600000
816.975830	244.200000
817.010986	242.100000
817.046204	243.300000
817.081421	240.200000
817.116577	240.900000
817.151733	245.500000
817.186951	244.200000
817.222107	241.900000
817.257324	245.100000
817.292419	242.000000
817.327637	237.400000
817.362854	238.500000
817.398010	235.400000
817.433167	238.400000
817.468323	236.200000
817.503479	238.200000
817.538635	244.100000
817.573853	237.500000
817.608948	235.000000
817.644165	230.800000
817.679321	230.600000
817.714478	230.500000
817.749634	233.000000
817.784790	241.000000
817.819946	236.600000
817.855103	223.500000
817.890198	230.100000
817.925415	226.800000
817.960571	231.600000
817.995667	231.600000
818.030823	230.000000
818.066040	227.400000
818.101135	229.400000
818.136292	227.900000
818.171448	222.600000
818.206543	227.000000
818.241699	229.000000
818.276855	228.400000
818.311951	224.200000
818.347107	222.500000
818.382263	226.200000
818.417358	229.900000
818.452515	227.200000
818.487610	229.100000
818.522766	221.300000
818.557922	227.900000
818.593018	224.200000
818.628113	224.700000
818.663269	219.100000
818.698364	222.300000
818.733521	218.600000
818.768677	222.100000
818.803711	218.400000
818.838867	216.900000
818.874023	217.500000
818.909058	215.200000
818.944214	214.400000
818.979370	217.700000
819.014404	214.600000
819.049561	213.000000
819.084595	216.900000
819.119751	210.800000
819.154846	217.200000
819.189941	210.900000
819.225037	209.300000
819.260193	206.800000
819.295227	208.700000
819.330322	205.600000
819.365479	206.000000
819.400513	238.300000
819.435608	204.200000
819.470764	202.800000
819.505798	204.700000
819.540894	207.100000
819.575989	205.200000
819.611084	208.600000
819.646179	211.400000
819.681213	207.500000
819.716309	204.200000
819.751404	203.200000
819.786438	209.200000
819.821533	199.200000
819.856628	204.500000
819.891663	203.600000
819.926758	213.500000
819.961853	208.100000
819.996887	202.200000
820.031982	203.000000
820.067017	202.300000
820.102112	235.100000
820.137207	199.400000
820.172302	211.300000
820.207275	199.300000
820.242371	197.500000
820.277405	198.800000
820.312500	199.400000
820.347534	200.900000
820.382568	204.600000
820.417664	199.500000
820.452759	197.800000
820.487732	197.600000
820.522827	197.400000
820.557861	195.300000
820.592896	197.500000
820.627930	196.900000
820.662964	195.900000
820.698059	198.100000
820.733093	195.600000
820.768127	199.300000
820.803162	197.100000
820.838196	194.000000
820.873230	196.100000
820.908264	196.900000
820.943298	193.500000
820.978333	199.600000
821.013367	196.200000
821.048401	198.200000
821.083435	198.500000
821.118469	190.900000
821.153503	198.300000
821.188477	195.500000
821.223511	191.600000
821.258484	193.900000
821.293579	195.400000
821.328613	189.300000
821.363647	193.900000
821.398621	188.400000
821.433655	192.200000
821.468628	202.900000
821.503662	193.100000
821.538696	194.900000
821.573669	189.900000
821.608704	195.200000
821.643677	192.300000
821.678650	195.200000
821.713684	197.900000
821.748718	191.300000
821.783691	193.300000
821.818726	190.900000
821.853638	194.600000
821.888672	190.100000
821.923706	191.000000
821.958618	191.000000
821.993652	191.500000
822.028687	192.800000
822.063599	198.300000
822.098633	191.000000
822.133667	190.400000
822.168579	191.300000
822.203613	191.400000
822.238586	188.300000
822.273560	193.700000
822.308533	188.800000
822.343567	189.100000
822.378479	190.500000
822.413452	189.200000
822.448425	187.100000
822.483398	193.000000
822.518372	193.400000
822.553345	186.500000
822.588318	195.600000
822.623291	188.900000
822.658203	188.600000
822.693237	189.500000
822.728210	187.500000
822.763123	190.300000
822.798096	187.000000
822.833069	187.600000
822.867981	189.800000
822.902954	191.300000
822.937927	192.700000
822.972900	194.900000
823.007874	185.200000
823.042725	191.700000
823.077698	197.000000
823.112671	185.800000
823.147583	189.500000
823.182556	190.200000
823.217529	192.200000
823.252441	186.400000
823.287415	197.500000
823.322388	190.500000
823.357239	189.600000
823.392212	192.700000
823.427185	195.400000
823.462097	186.700000
823.497009	190.600000
823.531982	187.500000
823.566895	189.700000
823.601807	185.000000
823.636719	188.400000
823.671631	190.800000
823.706604	186.900000
823.741455	190.000000
823.776428	185.000000
823.811340	190.400000
823.846252	193.600000
823.881165	191.600000
823.916138	189.500000
823.950989	193.800000
823.985901	186.700000
824.020813	190.200000
824.055725	188.400000
824.090637	183.600000
824.125610	190.600000
824.160461	190.100000
824.195374	190.100000
824.230225	191.200000
824.265198	182.900000
824.300110	187.100000
824.334961	194.400000
824.369873	181.300000
824.404785	188.700000
824.439636	192.800000
824.474548	181.300000
824.509460	182.300000
824.544312	192.100000
824.579224	190.900000
824.614075	188.300000
824.648987	186.500000
824.683899	186.500000
824.718811	184.900000
824.753662	189.700000
824.788574	190.800000
824.823364	187.300000
824.858276	184.400000
824.893188	188.800000
824.928040	191.000000
824.962952	186.500000
824.997803	188.900000
825.032654	186.100000
825.067566	188.200000
825.102417	185.200000
825.137268	184.000000
825.172119	184.300000
825.206970	182.800000
825.241882	184.800000
825.276733	182.100000
825.311646	182.700000
825.346436	181.500000
825.381348	180.800000
825.416138	184.100000
825.450989	180.800000
825.485901	178.200000
825.520691	179.400000
825.555542	179.700000
825.590454	182.800000
825.625244	178.300000
825.660095	187.200000
825.695007	184.600000
825.729797	182.600000
825.764648	181.000000
825.799438	183.100000
825.834290	183.600000
825.869202	179.200000
825.903992	184.200000
825.938843	180.400000
825.973694	178.500000
826.008484	188.900000
826.043335	178.900000
826.078186	176.300000
826.112976	183.300000
826.147827	184.400000
826.182678	187.600000
826.217468	176.800000
826.252319	184.900000
826.287109	178.500000
826.321899	183.100000
826.356750	181.100000
826.391541	177.300000
826.426392	182.900000
826.461182	181.300000
826.495972	178.200000
826.530823	173.800000
826.565613	181.500000
826.600403	177.300000
826.635254	183.700000
826.670044	174.600000
826.704834	175.900000
826.739685	173.800000
826.774475	181.600000
826.809265	179.400000
826.844055	179.100000
826.878906	183.600000
826.913635	180.900000
826.948425	180.300000
826.983215	182.400000
827.018005	181.600000
827.052856	178.700000
827.087585	182.100000
827.122375	176.000000
827.157227	178.500000
827.191956	189.800000
827.226746	175.800000
827.261536	182.200000
827.296265	175.400000
827.331116	178.600000
827.365906	182.000000
827.400635	178.000000
827.435425	173.400000
827.470215	183.300000
827.504944	178.700000
827.539734	184.500000
827.574463	178.800000
827.609253	185.200000
827.644043	179.200000
827.678772	182.800000
827.713562	178.400000
827.748352	177.500000
827.783081	178.000000
827.817871	180.800000
827.852600	175.900000
827.887329	178.400000
827.922119	173.000000
827.956848	181.100000
827.991638	189.000000
828.026367	179.400000
828.061157	179.800000
828.095886	179.200000
828.130615	191.800000
828.165344	173.100000
828.200073	180.800000
828.234863	178.400000
828.269592	179.300000
828.304321	181.400000
828.339111	181.600000
828.373779	176.400000
828.408569	182.800000
828.443298	182.600000
828.477966	178.000000
828.512756	180.400000
828.547424	177.500000
828.582214	179.200000
828.616943	178.300000
828.651672	179.300000
828.686340	182.700000
828.721130	176.700000
828.755798	180.600000
828.790527	178.400000
828.825256	179.500000
828.859924	181.100000
828.894714	184.200000
828.929443	185.700000
828.964111	177.400000
828.998840	182.800000
829.033569	176.800000
829.068237	179.300000
829.102966	178.800000
829.137634	180.900000
829.172363	181.300000
829.207092	180.900000
829.241821	177.600000
829.276489	175.500000
829.311157	180.300000
829.345825	178.700000
829.380554	182.600000
829.415283	177.700000
829.449951	175.700000
829.484619	185.600000
829.519348	185.100000
829.554016	180.800000
829.588745	179.400000
829.623413	177.100000
829.658081	186.200000
829.692749	177.300000
829.727417	181.800000
829.762146	181.500000
829.796814	176.500000
829.831482	178.000000
829.866150	179.200000
829.900879	178.800000
829.935486	179.600000
829.970154	178.000000
830.004883	187.600000
830.039490	182.200000
830.074219	177.500000
830.108887	182.000000
830.143494	179.000000
830.178223	176.200000
830.212891	177.500000
830.247498	180.300000
830.282166	184.100000
830.316772	184.800000
830.351501	177.200000
830.386169	179.700000
830.420776	178.600000
830.455444	181.300000
830.490112	176.700000
830.524719	175.300000
830.559387	181.400000
830.594055	182.100000
830.628662	179.900000
830.663330	180.300000
830.697998	185.300000
830.732605	179.500000
830.767273	180.200000
830.801941	178.200000
830.836487	186.000000
830.871155	181.600000
830.905762	181.700000
830.940430	175.200000
830.975098	177.300000
831.009644	178.800000
831.044312	186.700000
831.078979	181.900000
831.113525	173.800000
831.148193	178.700000
831.182861	177.600000
831.217407	182.400000
831.252075	191.100000
831.286621	177.800000
831.321289	176.400000
831.355896	179.600000
831.390564	186.300000
831.425110	179.200000
831.459778	185.000000
831.494324	187.800000
831.528931	181.300000
831.563599	183.900000
831.598145	175.500000
831.632751	178.500000
831.667419	179.400000
831.701965	181.800000
831.736572	181.400000
831.771179	176.700000
831.805786	178.800000
831.840393	183.800000
831.874939	174.800000
831.909546	182.000000
831.944153	174.800000
831.978760	179.100000
832.013306	176.600000
832.047913	182.700000
832.082458	187.900000
832.117065	177.400000
832.151672	186.000000
832.186218	181.900000
832.220825	180.500000
832.255432	173.700000
832.289978	177.300000
832.324585	180.900000
832.359192	180.500000
832.393677	178.900000
832.428284	180.100000
832.462830	178.700000
832.497437	177.600000
832.531982	183.000000
832.566589	178.300000
832.601135	180.500000
832.635681	175.500000
832.670227	179.800000
832.704773	184.500000
832.739380	181.300000
832.773926	178.900000
832.808472	178.200000
832.843079	179.700000
832.877563	181.300000
832.912170	178.000000
832.946716	174.700000
832.981201	182.000000
833.015808	183.000000
833.050293	180.000000
833.084839	177.300000
833.119446	178.800000
833.153992	183.200000
833.188477	177.400000
833.223022	178.300000
833.257568	180.600000
833.292114	185.100000
833.326660	188.000000
833.361145	178.600000
833.395691	173.600000
833.430237	180.400000
833.464783	180.100000
833.499329	178.900000
833.533875	176.100000
833.568359	181.200000
833.602905	181.600000
833.637390	184.200000
833.671875	177.000000
833.706421	179.300000
833.740906	177.000000
833.775452	172.800000
833.809998	176.900000
833.844482	184.800000
833.879028	179.900000
833.913513	178.100000
833.947998	181.300000
833.982544	177.100000
834.017090	177.700000
834.051514	173.700000
834.086060	182.300000
834.120544	180.200000
834.155029	181.900000
834.189575	178.000000
834.223999	181.400000
834.258545	179.100000
834.293030	181.200000
834.327515	178.600000
834.362000	177.700000
834.396545	182.300000
834.430969	178.600000
834.465454	182.100000
834.500000	175.000000
834.534424	180.600000
834.568970	174.500000
834.603455	173.700000
834.637878	178.000000
834.672363	179.700000
834.706909	180.400000
834.741333	179.600000
834.775818	175.800000
834.810242	175.900000
834.844727	181.300000
834.879211	178.100000
834.913635	180.000000
834.948181	181.500000
834.982666	180.100000
835.017090	178.200000
835.051575	181.100000
835.086060	176.800000
835.120483	181.700000
835.154907	181.300000
835.189331	179.700000
835.223816	180.800000
835.258301	176.000000
835.292786	176.400000
835.327209	183.000000
835.361694	176.500000
835.396057	177.900000
835.430542	181.200000
835.465027	180.500000
835.499390	176.000000
835.533875	206.800000
835.568359	179.100000
835.602722	174.800000
835.637207	181.500000
835.671692	175.800000
835.706055	194.200000
835.740540	181.700000
835.774902	181.200000
835.809387	180.900000
835.843811	175.600000
835.878235	183.800000
835.912659	176.700000
835.947083	177.300000
835.981506	180.000000
836.015930	174.400000
836.050354	183.900000
836.084778	185.800000
836.119202	183.700000
836.153625	191.100000
836.187988	178.100000
836.222473	177.200000
836.256897	181.200000
836.291260	176.900000
836.325684	181.700000
836.360046	178.300000
836.394470	179.400000
836.428894	182.900000
836.463318	178.500000
836.497681	182.600000
836.532104	185.900000
836.566467	179.000000
836.600891	178.800000
836.635315	183.100000
836.669678	181.800000
836.704102	181.300000
836.738525	183.400000
836.772888	173.700000
836.807251	177.600000
836.841675	182.000000
836.876038	176.300000
836.910461	177.400000
836.944763	183.200000
836.979187	176.700000
837.013611	185.200000
837.047974	176.100000
837.082336	188.900000
837.116699	182.400000
837.151062	179.900000
837.185486	176.800000
837.219849	177.600000
837.254211	183.600000
837.288574	179.200000
837.322937	175.500000
837.357300	173.700000
837.391663	188.600000
837.426086	182.500000
837.460388	180.700000
837.494751	182.100000
837.529114	178.800000
837.563477	184.200000
837.597839	180.500000
837.632141	179.400000
837.666565	178.000000
837.700928	181.400000
837.735229	181.200000
837.769592	180.300000
837.803955	183.100000
837.838257	177.900000
837.872620	178.600000
837.906982	185.200000
837.941284	180.700000
837.975647	180.800000
838.010010	185.500000
838.044312	176.600000
838.078674	179.000000
838.112976	180.700000
838.147339	182.300000
838.181702	179.800000
838.216003	186.900000
838.250366	181.000000
838.284668	182.800000
838.318970	174.300000
838.353333	178.000000
838.387634	179.100000
838.421936	181.300000
838.456299	180.800000
838.490601	184.600000
838.524902	182.800000
838.559265	183.200000
838.593567	183.600000
838.627869	176.200000
838.662170	181.700000
838.696472	175.400000
838.730774	178.200000
838.765137	182.500000
838.799377	171.800000
838.833740	181.000000
838.868042	185.400000
838.902283	174.400000
838.936646	184.600000
838.970947	180.300000
839.005188	185.500000
839.039551	174.600000
839.073792	186.200000
839.108093	179.500000
839.142395	187.500000
839.176697	174.300000
839.210937	182.500000
839.245300	187.100000
839.279541	176.200000
839.313843	178.800000
839.348145	181.900000
839.382385	182.300000
839.416687	184.600000
839.450989	182.100000
839.485229	180.600000
839.519531	177.000000
839.553833	185.300000
839.588013	178.800000
839.622314	182.100000
839.656555	181.300000
839.690857	180.100000
839.725159	176.700000
839.759460	181.100000
839.793640	177.800000
839.827942	181.600000
839.862183	177.400000
839.896423	180.100000
839.930725	189.300000
839.964966	189.100000
839.999207	183.100000
840.033508	186.100000
840.067688	177.000000
840.101990	185.000000
840.136230	180.600000
840.170471	185.800000
840.204712	177.100000
840.238953	178.700000
840.273193	181.600000
840.307434	183.500000
840.341736	178.600000
840.375916	176.300000
840.410217	177.500000
840.444397	182.900000
840.478638	181.900000
840.512878	183.900000
840.547119	180.700000
840.581360	182.200000
840.615601	186.000000
840.649780	188.300000
840.684021	180.100000
840.718262	185.900000
840.752441	186.000000
840.786682	180.700000
840.820862	181.900000
840.855103	186.900000
840.889343	181.100000
840.923584	182.900000
840.957764	181.600000
840.992004	181.900000
841.026184	191.500000
841.060425	180.200000
841.094666	178.700000
841.128845	181.900000
841.163025	182.100000
841.197266	182.200000
841.231445	181.000000
841.265686	182.100000
841.299866	178.600000
841.334045	184.100000
841.368286	180.300000
841.402405	185.700000
841.436646	182.800000
841.470825	177.400000
841.505005	180.800000
841.539185	178.200000
841.573425	179.200000
841.607544	179.600000
841.641785	180.100000
841.675964	176.400000
841.710144	180.700000
841.744324	178.100000
841.778503	179.700000
841.812683	178.400000
841.846863	186.600000
841.881042	185.800000
841.915222	178.200000
841.949402	189.500000
841.983521	175.600000
842.017700	180.200000
842.051880	181.000000
842.086060	182.800000
842.120239	181.900000
842.154419	178.600000
842.188538	180.700000
842.222717	179.300000
842.256897	187.300000
842.291016	179.100000
842.325195	180.900000
842.359375	188.400000
842.393494	185.400000
842.427673	181.500000
842.461853	181.400000
842.495911	187.500000
842.530090	181.600000
842.564209	181.500000
842.598389	181.800000
842.632568	182.300000
842.666626	182.200000
842.700806	178.300000
842.734985	178.300000
842.769043	183.200000
842.803223	179.400000
842.837402	179.800000
842.871460	175.900000
842.905640	188.100000
842.939697	176.300000
842.973877	182.000000
843.007996	186.000000
843.042175	189.200000
843.076233	178.200000
843.110413	183.200000
843.144470	185.900000
843.178589	184.600000
843.212769	179.300000
843.246826	184.800000
843.280945	178.800000
843.315125	180.600000
843.349182	177.500000
843.383301	186.000000
843.417419	190.400000
843.451538	181.200000
843.485657	178.700000
843.519714	181.200000
843.553833	181.400000
843.587952	179.700000
843.622070	178.800000
843.656128	182.600000
843.690247	178.400000
843.724304	181.700000
843.758423	181.500000
843.792542	179.000000
843.826599	181.500000
843.860718	178.300000
843.894836	176.000000
843.928894	181.100000
843.963013	181.700000
843.997070	177.700000
844.031128	178.200000
844.065247	183.800000
844.099304	183.400000
844.133362	181.800000
844.167480	183.000000
844.201599	185.400000
844.235596	182.600000
844.269714	181.700000
844.303711	181.900000
844.337830	176.100000
844.371948	182.500000
844.405945	180.200000
844.440063	178.300000
844.474121	191.100000
844.508118	180.900000
844.542236	181.300000
844.576294	180.400000
844.610352	175.600000
844.644409	180.600000
844.678406	175.300000
844.712524	184.500000
844.746582	184.600000
844.780640	180.600000
844.814636	179.900000
844.848755	190.300000
844.882751	178.800000
844.916809	184.600000
844.950867	183.300000
844.984863	188.000000
845.018921	179.100000
845.052979	179.200000
845.086975	180.400000
845.121033	176.300000
845.155090	178.400000
845.189087	185.600000
845.223145	178.800000
845.257141	182.300000
845.291199	182.800000
845.325256	185.700000
845.359253	181.800000
845.393250	193.000000
845.427307	181.000000
845.461304	181.800000
845.495361	181.600000
845.529358	188.000000
845.563354	179.900000
845.597412	177.100000
845.631409	188.500000
845.665405	186.600000
845.699463	184.700000
845.733459	179.400000
845.767456	188.300000
845.801453	179.600000
845.835449	184.500000
845.869446	183.800000
845.903503	184.700000
845.937439	177.000000
845.971497	186.400000
846.005493	176.100000
846.039429	184.900000
846.073486	187.800000
846.107483	179.600000
846.141418	179.300000
846.175476	181.900000
846.209473	185.600000
846.243408	178.600000
846.277405	181.400000
846.311401	180.100000
846.345337	180.300000
846.379395	185.400000
846.413330	178.500000
846.447327	189.500000
846.481323	177.100000
846.515259	179.300000
846.549255	179.700000
846.583252	185.100000
846.617187	177.100000
846.651184	183.300000
846.685120	180.100000
846.719055	186.900000
846.753052	184.100000
846.786987	184.100000
846.820984	176.600000
846.854980	186.500000
846.888916	178.200000
846.922852	183.100000
846.956848	185.900000
846.990723	180.400000
847.024719	182.500000
847.058716	179.200000
847.092590	186.100000
847.126587	182.900000
847.160522	179.100000
847.194458	185.200000
847.228455	178.800000
847.262390	177.600000
847.296265	180.900000
847.330261	185.100000
847.364136	180.600000
847.398132	180.600000
847.432068	183.200000
847.466003	178.400000
847.499939	182.000000
847.533875	183.400000
847.567749	181.900000
847.601746	179.700000
847.635681	183.800000
847.669556	175.200000
847.703491	187.300000
847.737427	190.400000
847.771301	176.900000
847.805237	182.500000
847.839233	181.900000
847.873108	180.200000
847.907043	180.900000
847.940918	185.700000
847.974854	183.100000
848.008789	184.500000
848.042664	181.300000
848.076538	181.900000
848.110474	181.000000
848.144348	181.700000
848.178284	176.600000
848.212219	181.400000
848.246094	179.400000
848.279968	182.600000
848.313904	183.300000
848.347778	181.000000
848.381653	179.400000
848.415588	179.900000
848.449463	179.700000
848.483337	183.300000
848.517212	187.700000
848.551086	182.000000
848.585022	179.100000
848.618835	191.000000
848.652771	179.400000
848.686646	177.900000
848.720520	187.400000
848.754395	180.300000
848.788330	183.500000
848.822144	184.700000
848.856018	178.200000
848.889954	188.800000
848.923767	179.300000
848.957642	179.000000
848.991577	182.800000
849.025391	181.200000
849.059265	180.200000
849.093079	179.100000
849.126953	178.000000
849.160828	185.800000
849.194641	181.900000
849.228577	180.300000
849.262451	179.400000
849.296265	182.000000
849.330139	179.100000
849.364014	183.100000
849.397827	181.100000
849.431702	182.000000
849.465515	185.000000
849.499329	175.200000
849.533203	178.200000
849.567078	175.400000
849.600891	183.400000
849.634766	181.400000
849.668518	184.000000
849.702393	181.800000
849.736267	176.800000
849.770020	189.900000
849.803894	183.200000
849.837769	183.200000
849.871521	181.300000
849.905396	183.800000
849.939270	179.700000
849.973022	180.300000
850.006897	183.200000
850.040710	184.400000
850.074524	183.900000
850.108337	179.800000
850.142151	185.600000
850.175964	185.600000
850.209778	181.100000
850.243530	174.200000
850.277405	186.400000
850.311218	181.000000
850.344971	179.200000
850.378845	186.600000
850.412659	179.900000
850.446411	183.700000
850.480225	180.300000
850.514038	184.000000
850.547791	184.800000
850.581665	182.200000
850.615417	180.300000
850.649231	182.400000
850.683044	180.900000
850.716858	179.700000
850.750610	184.200000
850.784424	183.500000
850.818176	179.500000
850.851929	180.100000
850.885742	180.600000
850.919495	180.100000
850.953308	188.500000
850.987122	187.300000
851.020874	178.500000
851.054626	176.600000
851.088440	185.100000
851.122192	184.500000
851.156006	183.200000
851.189697	180.800000
851.223511	177.600000
851.257263	184.500000
851.291077	183.200000
851.324829	180.700000
851.358582	179.600000
851.392334	181.700000
851.426086	180.600000
851.459900	186.000000
851.493591	182.400000
851.527344	181.100000
851.561157	180.400000
851.594849	183.200000
851.628662	181.400000
851.662415	188.100000
851.696106	183.400000
851.729858	184.900000
851.763611	176.700000
851.797363	182.400000
851.831116	177.900000
851.864868	184.100000
851.898560	185.000000
851.932312	179.800000
851.966064	183.100000
851.999817	181.400000
852.033569	180.400000
852.067261	187.100000
852.101013	177.500000
852.134766	181.500000
852.168457	175.200000
852.202209	186.400000
852.235901	177.300000
852.269592	184.400000
852.303345	187.800000
852.337036	184.500000
852.370789	181.600000
852.404541	186.000000
852.438171	176.800000
852.471924	182.200000
852.505676	177.900000
852.539307	183.100000
852.573059	180.000000
852.606812	180.600000
852.640442	178.600000
852.674194	185.800000
852.707886	188.300000
852.741577	187.600000
852.775269	178.400000
852.809021	183.300000
852.842651	182.900000
852.876404	187.900000
852.910034	183.000000
852.943787	186.300000
852.977478	183.400000
853.011108	179.800000
853.044861	179.200000
853.078552	186.700000
853.112183	182.200000
853.145874	181.600000
853.179626	176.500000
853.213257	182.500000
853.246948	179.100000
853.280640	187.100000
853.314270	180.800000
853.347961	187.200000
853.381653	183.400000
853.415283	185.200000
853.448975	179.800000
853.482605	184.400000
853.516296	180.600000
853.549988	178.000000
853.583618	183.400000
853.617310	182.700000
853.651001	183.800000
853.684631	178.500000
853.718323	179.800000
853.751953	186.100000
853.785583	176.500000
853.819275	184.000000
853.852966	185.000000
853.886536	176.400000
853.920227	178.700000
853.953918	185.100000
853.987488	182.600000
854.021179	184.900000
854.054749	189.800000
854.088440	184.700000
854.122131	179.100000
854.155701	181.900000
854.189331	179.600000
854.223022	184.600000
854.256592	182.900000
854.290283	179.200000
854.323914	184.300000
854.357483	181.600000
854.391174	183.600000
854.424744	186.800000
854.458374	182.000000
854.492065	190.500000
854.525696	182.800000
854.559265	185.800000
854.592896	190.200000
854.626465	181.400000
854.660095	181.200000
854.693787	184.300000
854.727356	180.300000
854.760986	184.600000
854.794617	182.900000
854.828186	180.300000
854.861816	183.700000
854.895447	181.500000
854.929016	182.600000
854.962585	182.100000
854.996155	188.400000
855.029785	183.900000
855.063416	182.000000
855.097046	185.100000
855.130615	178.300000
855.164185	186.100000
855.197754	182.000000
855.231384	182.600000
855.264954	180.300000
855.298523	184.900000
855.332153	182.600000
855.365723	186.400000
855.399292	177.200000
855.432922	181.200000
855.466492	182.500000
855.500061	179.800000
855.533630	178.300000
855.567200	183.900000
855.600769	184.400000
855.634338	186.200000
855.667969	181.600000
855.701477	180.100000
855.735046	178.700000
855.768616	177.400000
855.802185	182.800000
855.835754	192.500000
855.869324	175.200000
855.902893	182.500000
855.936401	185.100000
855.969971	182.400000
856.003540	177.700000
856.037109	184.900000
856.070618	179.900000
856.104187	179.000000
856.137695	179.600000
856.171265	176.000000
856.204834	182.300000
856.238403	185.500000
856.271912	180.600000
856.305481	184.200000
856.338989	177.400000
856.372559	183.800000
856.406128	183.900000
856.439636	185.100000
856.473145	179.800000
856.506653	187.300000
856.540222	180.000000
856.573792	185.500000
856.607300	186.700000
856.640808	176.700000
856.674377	181.900000
856.707825	215.900000
856.741394	186.700000
856.774902	179.200000
856.808472	175.800000
856.841980	182.400000
856.875488	186.600000
856.908936	176.600000
856.942505	182.000000
856.976013	180.800000
857.009521	179.900000
857.043030	182.700000
857.076477	181.500000
857.110046	186.600000
857.143555	183.900000
857.177063	183.600000
857.210571	181.400000
857.244080	178.100000
857.277527	183.700000
857.311035	181.900000
857.344543	186.000000
857.378052	179.600000
857.411499	187.400000
857.445068	186.600000
857.478516	182.400000
857.512024	177.600000
857.545532	180.700000
857.578979	181.600000
857.612427	182.400000
857.645874	178.300000
857.679382	182.700000
857.712891	185.200000
857.746399	182.100000
857.779846	185.200000
857.813354	185.800000
857.846741	182.300000
857.880249	178.300000
857.913757	183.800000
857.947266	183.100000
857.980652	185.200000
858.014160	180.300000
858.047546	180.200000
858.081055	180.400000
858.114563	191.000000
858.147949	178.400000
858.181458	183.700000
858.214844	181.500000
858.248352	175.900000
858.281799	183.500000
858.315308	190.100000
858.348694	184.100000
858.382141	188.600000
858.415588	184.900000
858.449036	184.500000
858.482483	183.200000
858.515930	180.900000
858.549377	182.400000
858.582825	187.300000
858.616211	182.700000
858.649658	184.900000
858.683105	177.800000
858.716553	181.700000
858.750000	177.400000
858.783386	181.000000
858.816833	176.600000
858.850281	183.300000
858.883728	181.600000
858.917114	183.600000
858.950562	188.000000
858.983948	187.200000
859.017395	185.200000
859.050781	182.600000
859.084167	177.200000
859.117615	178.200000
859.151062	183.900000
859.184448	179.800000
859.217834	181.600000
859.251282	182.800000
859.284668	177.700000
859.318054	176.000000
859.351440	180.800000
859.384888	186.500000
859.418274	176.900000
859.451721	178.100000
859.485046	182.600000
859.518494	183.600000
859.551819	178.200000
859.585266	185.000000
859.618652	184.400000
859.652039	177.500000
859.685425	177.100000
859.718811	179.000000
859.752197	174.100000
859.785583	185.200000
859.819031	188.100000
859.852356	182.400000
859.885742	179.400000
859.919067	180.600000
859.952454	179.600000
859.985901	185.400000
860.019287	180.600000
860.052612	0.000000
860.085999	0.000000
860.119324	0.000000
860.152710	0.000000
860.186096	0.000000
860.219421	0.000000
860.252808	0.000000
860.286133	0.000000
860.319519	0.000000
860.352905	0.000000
860.386292	0.000000
860.419617	0.000000
860.452942	0.000000
860.486267	0.000000
860.519653	0.000000
860.553040	0.000000
860.586365	0.000000
860.619690	0.000000
860.653076	0.000000
860.686340	0.000000
860.719727	0.000000
860.753113	0.000000
860.786377	0.000000
860.819763	0.000000
860.853027	0.000000
860.886414	0.000000
860.919739	0.000000
860.953125	0.000000
860.986389	0.000000
861.019714	0.000000
861.053040	0.000000
861.086365	0.000000
861.119690	0.000000
861.153076	0.000000
861.186340	0.000000
861.219666	0.000000
861.252930	0.000000
861.286316	0.000000
861.319641	0.000000
861.352905	0.000000
861.386230	0.000000
861.419495	0.000000
861.452820	0.000000
861.486145	0.000000
861.519470	0.000000
861.552734	0.000000
861.586060	0.000000
861.619324	0.000000
861.652649	0.000000
861.685974	0.000000
861.719238	0.000000
861.752563	0.000000
861.785828	0.000000
861.819092	0.000000
861.852417	0.000000
861.885742	0.000000
861.918945	0.000000
861.952271	0.000000
861.985535	0.000000
862.018799	0.000000
862.052124	0.000000
862.085449	0.000000
862.118652	0.000000
862.151978	0.000000
862.185181	0.000000
862.218506	0.000000
862.251770	0.000000
862.285034	0.000000
862.318298	0.000000
862.351562	0.000000
862.384827	0.000000
862.418091	0.000000
862.451355	0.000000
862.484619	0.000000
862.517883	0.000000
862.551086	0.000000
862.584351	0.000000
862.617676	0.000000
862.650940	0.000000
862.684143	0.000000
862.717407	0.000000
862.750610	0.000000
862.783875	0.000000
862.817139	0.000000
862.850342	0.000000
862.883606	0.000000
862.916870	0.000000
862.950073	0.000000
862.983337	0.000000
863.016602	0.000000
863.049805	0.000000
863.083069	0.000000
863.116211	0.000000
863.149475	0.000000
863.182739	0.000000
863.216003	0.000000
863.249146	0.000000
863.282410	0.000000
863.315613	0.000000
863.348816	0.000000
863.382080	0.000000
863.415222	0.000000
863.448486	0.000000
863.481689	0.000000
863.514893	0.000000
863.548157	0.000000
863.581360	0.000000
863.614502	0.000000
863.647766	0.000000
863.680908	0.000000
863.714172	0.000000
863.747375	0.000000
863.780579	0.000000
863.813721	0.000000
863.846985	0.000000
863.880127	0.000000
863.913330	0.000000
863.946533	0.000000
863.979675	0.000000
864.012939	0.000000
