Model Number: SPM-002-B   
Serial Number: 70087108
Firmware Version: 004.15.4
Exposure Time: 100000.000000us
Data Taken on: 11-12-2020 19:36:20.327
Wavelength	Amplitude
221.570786	0.000000
221.663406	0.000000
221.756027	0.000000
221.848648	0.000000
221.941269	0.000000
222.033905	0.000000
222.126526	0.000000
222.219162	0.000000
222.311798	0.000000
222.404419	0.000000
222.497055	0.000000
222.589676	0.000000
222.682312	0.000000
222.774933	0.000000
222.867569	0.000000
222.960205	0.000000
223.052841	0.000000
223.145462	0.000000
223.238098	0.000000
223.330734	0.000000
223.423386	0.000000
223.516022	0.000000
223.608658	0.000000
223.701309	0.000000
223.793945	0.000000
223.886581	0.000000
223.979218	0.000000
224.071869	0.000000
224.164505	0.000000
224.257156	0.000000
224.349792	0.000000
224.442444	0.000000
224.535095	0.000000
224.627747	0.000000
224.720398	0.000000
224.813034	0.000000
224.905685	0.000000
224.998337	145.680000
225.090988	145.700000
225.183640	145.780000
225.276291	145.220000
225.368942	145.380000
225.461594	146.060000
225.554245	146.140000
225.646912	146.080000
225.739578	146.920000
225.832230	147.400000
225.924896	146.760000
226.017548	147.060000
226.110199	147.480000
226.202866	146.620000
226.295532	146.600000
226.388184	146.480000
226.480850	146.040000
226.573517	145.520000
226.666168	145.900000
226.758835	145.940000
226.851501	146.660000
226.944183	146.660000
227.036850	146.300000
227.129517	146.340000
227.222183	146.480000
227.314850	146.060000
227.407516	146.180000
227.500198	146.860000
227.592865	146.380000
227.685532	146.160000
227.778214	145.800000
227.870880	146.220000
227.963562	146.540000
228.056229	147.160000
228.148926	147.060000
228.241592	148.440000
228.334274	148.180000
228.426956	147.680000
228.519638	147.660000
228.612305	147.040000
228.704987	146.680000
228.797668	146.580000
228.890350	146.460000
228.983032	146.060000
229.075714	147.060000
229.168396	146.380000
229.261108	145.920000
229.353790	146.020000
229.446472	146.080000
229.539169	145.660000
229.631851	145.780000
229.724533	146.480000
229.817230	146.820000
229.909912	147.740000
230.002609	147.560000
230.095306	147.700000
230.187988	147.560000
230.280685	147.140000
230.373383	146.200000
230.466095	146.500000
230.558792	146.540000
230.651474	146.380000
230.744171	146.420000
230.836868	145.940000
230.929581	146.220000
231.022278	146.260000
231.114975	146.240000
231.207672	145.980000
231.300369	146.720000
231.393082	146.140000
231.485779	145.520000
231.578506	145.500000
231.671204	145.700000
231.763916	145.600000
231.856613	145.760000
231.949326	146.040000
232.042023	145.880000
232.134735	146.080000
232.227448	145.600000
232.320160	145.760000
232.412872	145.860000
232.505585	146.580000
232.598297	146.980000
232.691010	147.300000
232.783722	146.500000
232.876450	147.220000
232.969162	146.960000
233.061874	146.240000
233.154587	145.920000
233.247314	146.400000
233.340027	145.520000
233.432739	145.640000
233.525467	145.740000
233.618179	146.060000
233.710907	145.900000
233.803635	146.220000
233.896347	145.820000
233.989090	146.380000
234.081818	146.300000
234.174545	146.440000
234.267258	146.260000
234.359985	146.620000
234.452713	146.360000
234.545441	146.380000
234.638168	146.420000
234.730896	146.740000
234.823639	146.560000
234.916367	146.780000
235.009094	147.020000
235.101822	147.040000
235.194580	146.600000
235.287308	146.400000
235.380051	145.780000
235.472778	145.760000
235.565521	145.880000
235.658249	145.960000
235.750992	146.180000
235.843719	146.180000
235.936462	146.420000
236.029205	146.180000
236.121948	145.840000
236.214691	146.100000
236.307449	146.780000
236.400192	146.080000
236.492935	145.940000
236.585678	146.240000
236.678421	146.180000
236.771164	145.680000
236.863907	146.360000
236.956665	146.800000
237.049408	148.240000
237.142151	147.840000
237.234909	148.600000
237.327652	148.560000
237.420410	148.240000
237.513153	147.340000
237.605927	147.320000
237.698669	146.820000
237.791428	145.840000
237.884186	146.340000
237.976944	145.840000
238.069702	146.140000
238.162445	145.840000
238.255203	146.500000
238.347961	146.560000
238.440720	146.540000
238.533478	146.380000
238.626266	146.100000
238.719025	146.400000
238.811783	146.200000
238.904541	146.200000
238.997314	145.880000
239.090073	145.900000
239.182831	145.780000
239.275604	146.320000
239.368362	146.220000
239.461136	146.940000
239.553909	146.880000
239.646667	146.780000
239.739441	146.300000
239.832214	146.500000
239.925003	146.280000
240.017761	146.900000
240.110535	147.280000
240.203308	146.840000
240.296082	146.600000
240.388855	146.600000
240.481628	146.860000
240.574417	146.960000
240.667191	146.980000
240.759964	146.960000
240.852737	146.880000
240.945526	146.340000
241.038315	145.920000
241.131088	146.460000
241.223877	146.740000
241.316650	146.240000
241.409439	146.480000
241.502228	146.340000
241.595001	146.480000
241.687790	146.380000
241.780579	146.740000
241.873367	146.820000
241.966141	146.800000
242.058929	146.200000
242.151718	146.500000
242.244507	146.640000
242.337311	146.040000
242.430099	146.720000
242.522903	147.000000
242.615692	146.340000
242.708481	146.460000
242.801270	147.040000
242.894073	146.840000
242.986862	146.940000
243.079651	147.680000
243.172455	147.400000
243.265244	147.460000
243.358063	146.700000
243.450867	146.940000
243.543655	146.580000
243.636459	146.600000
243.729263	146.600000
243.822067	147.260000
243.914856	147.420000
244.007660	147.580000
244.100464	147.700000
244.193268	147.260000
244.286072	146.900000
244.378876	146.340000
244.471680	146.040000
244.564499	146.400000
244.657318	147.380000
244.750122	147.820000
244.842926	147.440000
244.935745	147.880000
245.028549	147.160000
245.121368	146.520000
245.214172	146.040000
245.306992	146.340000
245.399796	146.160000
245.492615	146.240000
245.585434	145.960000
245.678253	146.120000
245.771072	146.200000
245.863892	146.420000
245.956711	146.880000
246.049530	146.860000
246.142349	146.620000
246.235168	146.480000
246.327988	146.760000
246.420807	146.400000
246.513626	146.580000
246.606445	146.480000
246.699280	146.620000
246.792099	146.340000
246.884918	145.960000
246.977753	145.500000
247.070587	145.440000
247.163422	145.040000
247.256241	144.780000
247.349075	145.580000
247.441895	146.060000
247.534729	146.400000
247.627563	146.860000
247.720383	147.280000
247.813217	146.720000
247.906052	146.340000
247.998886	146.480000
248.091736	146.120000
248.184570	145.700000
248.277405	145.740000
248.370239	146.660000
248.463074	147.340000
248.555908	147.660000
248.648743	147.860000
248.741592	148.200000
248.834427	147.600000
248.927261	146.400000
249.020111	146.780000
249.112946	147.160000
249.205795	146.520000
249.298630	146.700000
249.391495	146.940000
249.484344	146.360000
249.577179	146.000000
249.670029	146.660000
249.762878	146.780000
249.855728	147.080000
249.948563	146.960000
250.041412	146.520000
250.134262	146.600000
250.227112	146.580000
250.319962	146.320000
250.412827	146.600000
250.505692	146.260000
250.598541	146.000000
250.691391	145.600000
250.784241	145.780000
250.877106	145.880000
250.969955	146.160000
251.062805	146.500000
251.155670	147.000000
251.248520	146.880000
251.341385	147.320000
251.434235	147.500000
251.527100	147.240000
251.619965	146.760000
251.712814	147.520000
251.805695	147.380000
251.898560	147.440000
251.991425	147.580000
252.084290	148.000000
252.177155	146.860000
252.270020	146.220000
252.362885	146.220000
252.455750	146.300000
252.548615	145.880000
252.641479	146.120000
252.734360	146.080000
252.827240	146.060000
252.920105	145.880000
253.012970	146.040000
253.105850	146.160000
253.198715	146.020000
253.291595	146.080000
253.384460	145.960000
253.477341	145.760000
253.570221	145.940000
253.663086	146.080000
253.755966	146.560000
253.848846	146.620000
253.941727	146.860000
254.034592	146.600000
254.127472	146.600000
254.220367	146.120000
254.313248	146.240000
254.406128	145.820000
254.499008	146.300000
254.591904	147.000000
254.684784	147.720000
254.777664	147.700000
254.870544	147.760000
254.963440	147.300000
255.056335	147.060000
255.149216	146.500000
255.242111	146.960000
255.334991	147.300000
255.427887	147.340000
255.520767	147.220000
255.613663	147.380000
255.706558	146.720000
255.799438	146.500000
255.892334	146.300000
255.985229	146.300000
256.078125	146.000000
256.171021	145.800000
256.263916	146.300000
256.356812	146.860000
256.449707	146.840000
256.542603	146.580000
256.635498	147.180000
256.728394	146.580000
256.821289	146.340000
256.914215	146.700000
257.007080	146.880000
257.100006	146.860000
257.192932	147.360000
257.285828	147.360000
257.378723	146.880000
257.471619	147.040000
257.564545	146.300000
257.657440	146.380000
257.750336	146.760000
257.843262	146.680000
257.936157	147.780000
258.029053	148.380000
258.121979	148.380000
258.214874	147.900000
258.307800	147.680000
258.400696	146.480000
258.493622	146.540000
258.586517	145.800000
258.679443	146.300000
258.772339	145.880000
258.865265	145.840000
258.958160	145.400000
259.051086	146.140000
259.144012	145.560000
259.236938	146.560000
259.329834	146.980000
259.422791	146.860000
259.515717	146.100000
259.608612	146.100000
259.701538	146.160000
259.794464	145.500000
259.887390	145.680000
259.980316	145.920000
260.073212	145.920000
260.166138	144.860000
260.259064	145.420000
260.351990	145.860000
260.444916	145.980000
260.537842	146.200000
260.630768	147.360000
260.723694	147.500000
260.816620	147.180000
260.909546	146.940000
261.002472	146.580000
261.095398	145.720000
261.188354	145.400000
261.281281	145.020000
261.374207	145.160000
261.467133	145.960000
261.560089	146.380000
261.653015	146.360000
261.745972	147.400000
261.838867	147.820000
261.931824	147.700000
262.024780	147.040000
262.117706	147.520000
262.210663	147.100000
262.303589	146.820000
262.396515	147.000000
262.489471	148.200000
262.582397	147.640000
262.675354	147.500000
262.768280	147.720000
262.861237	147.480000
262.954163	147.200000
263.047119	147.420000
263.140045	147.180000
263.233002	147.080000
263.325958	146.960000
263.418884	146.520000
263.511841	146.680000
263.604797	146.940000
263.697723	146.980000
263.790680	147.220000
263.883636	147.820000
263.976593	147.320000
264.069550	147.300000
264.162476	147.100000
264.255463	146.840000
264.348419	146.460000
264.441376	146.800000
264.534332	146.400000
264.627289	146.560000
264.720245	147.120000
264.813202	146.680000
264.906158	146.880000
264.999115	147.240000
265.092072	147.020000
265.185028	146.900000
265.277985	147.260000
265.370941	146.900000
265.463898	146.640000
265.556854	146.120000
265.649811	145.060000
265.742798	145.020000
265.835754	145.100000
265.928711	145.460000
266.021667	145.960000
266.114655	146.520000
266.207611	146.780000
266.300568	146.260000
266.393585	145.900000
266.486511	146.080000
266.579498	145.380000
266.672485	145.220000
266.765442	145.460000
266.858429	145.940000
266.951385	145.800000
267.044342	146.160000
267.137329	146.060000
267.230316	146.340000
267.323273	145.900000
267.416260	146.540000
267.509216	146.660000
267.602203	146.740000
267.695160	147.320000
267.788147	147.480000
267.881134	146.680000
267.974091	147.060000
268.067078	147.160000
268.160065	146.800000
268.253052	146.500000
268.346008	146.780000
268.438995	146.300000
268.531982	146.420000
268.624969	146.020000
268.717987	146.420000
268.810944	146.280000
268.903961	146.600000
268.996948	146.340000
269.089905	147.080000
269.182892	147.060000
269.275879	147.340000
269.368866	146.940000
269.461853	147.060000
269.554871	146.440000
269.647858	146.560000
269.740845	146.720000
269.833832	147.140000
269.926819	146.900000
270.019806	147.140000
270.112793	146.600000
270.205811	146.720000
270.298798	146.400000
270.391785	146.980000
270.484772	146.560000
270.577789	147.000000
270.670776	146.100000
270.763763	146.120000
270.856750	145.740000
270.949768	145.640000
271.042786	145.380000
271.135773	146.000000
271.228790	146.480000
271.321808	146.260000
271.414795	146.060000
271.507782	145.800000
271.600800	145.080000
271.693817	144.760000
271.786804	145.100000
271.879822	145.440000
271.972809	145.600000
272.065826	146.320000
272.158844	146.180000
272.251831	146.600000
272.344849	146.640000
272.437866	146.400000
272.530853	146.340000
272.623871	146.500000
272.716888	145.480000
272.809906	145.780000
272.902893	145.900000
272.995911	145.260000
273.088928	145.220000
273.181946	145.380000
273.274963	144.880000
273.367981	145.060000
273.460999	145.620000
273.554047	145.960000
273.647003	146.820000
273.740051	146.780000
273.833069	147.240000
273.926086	147.340000
274.019135	147.020000
274.112152	146.440000
274.205170	146.700000
274.298187	146.660000
274.391205	146.160000
274.484222	146.200000
274.577240	146.040000
274.670258	145.920000
274.763306	145.680000
274.856323	146.180000
274.949341	146.460000
275.042358	147.060000
275.135406	147.080000
275.228424	146.920000
275.321442	146.980000
275.414490	146.560000
275.507507	146.660000
275.600525	147.040000
275.693573	146.780000
275.786591	146.240000
275.879669	146.520000
275.972656	145.820000
276.065735	145.600000
276.158752	146.320000
276.251801	147.100000
276.344818	147.120000
276.437866	147.440000
276.530884	147.220000
276.623932	146.280000
276.716980	146.380000
276.809998	146.360000
276.903046	146.140000
276.996094	146.940000
277.089111	147.900000
277.182159	147.900000
277.275208	147.440000
277.368256	147.860000
277.461304	147.280000
277.554321	146.380000
277.647369	146.000000
277.740417	146.420000
277.833466	146.000000
277.926514	146.100000
278.019562	147.060000
278.112610	146.700000
278.205688	146.740000
278.298706	147.120000
278.391785	146.680000
278.484833	145.980000
278.577881	146.260000
278.670929	146.280000
278.763977	146.120000
278.857025	146.500000
278.950073	146.820000
279.043121	146.540000
279.136169	146.280000
279.229248	146.120000
279.322296	146.200000
279.415344	145.880000
279.508392	145.840000
279.601440	146.080000
279.694519	145.860000
279.787567	145.760000
279.880615	145.660000
279.973694	145.660000
280.066742	145.580000
280.159790	146.020000
280.252869	145.800000
280.345917	145.900000
280.438995	145.680000
280.532074	145.600000
280.625122	145.720000
280.718201	146.440000
280.811279	146.760000
280.904327	146.920000
280.997406	146.880000
281.090454	146.920000
281.183533	146.500000
281.276581	146.080000
281.369659	146.120000
281.462738	146.320000
281.555786	146.140000
281.648865	146.260000
281.741943	146.540000
281.835022	147.320000
281.928070	147.000000
282.021149	146.800000
282.114227	146.300000
282.207306	146.400000
282.300385	146.280000
282.393433	146.480000
282.486511	146.680000
282.579590	147.560000
282.672668	147.760000
282.765747	146.960000
282.858856	146.540000
282.951904	146.500000
283.045013	145.960000
283.138062	146.140000
283.231171	146.540000
283.324249	147.280000
283.417328	147.380000
283.510406	147.040000
283.603485	146.860000
283.696564	146.920000
283.789642	146.720000
283.882751	146.540000
283.975830	147.320000
284.068909	146.780000
284.161987	147.360000
284.255066	146.800000
284.348175	146.780000
284.441254	146.580000
284.534332	146.920000
284.627441	146.100000
284.720520	146.340000
284.813599	146.460000
284.906708	146.200000
284.999786	146.020000
285.092896	146.140000
285.185974	146.860000
285.279053	146.640000
285.372192	147.040000
285.465240	147.760000
285.558380	147.760000
285.651459	147.260000
285.744568	148.080000
285.837677	147.400000
285.930756	146.920000
286.023865	146.920000
286.116943	146.560000
286.210052	146.160000
286.303162	146.240000
286.396240	146.460000
286.489349	146.320000
286.582458	146.740000
286.675568	146.640000
286.768646	146.780000
286.861755	146.900000
286.954865	147.620000
287.047974	147.120000
287.141083	146.740000
287.234161	146.500000
287.327271	146.220000
287.420380	146.300000
287.513519	146.580000
287.606598	146.780000
287.699738	147.380000
287.792816	147.500000
287.885956	146.940000
287.979034	146.860000
288.072174	146.940000
288.165283	146.640000
288.258392	146.620000
288.351501	146.160000
288.444611	146.500000
288.537720	146.740000
288.630859	146.780000
288.723969	146.740000
288.817078	147.400000
288.910187	147.380000
289.003296	147.040000
289.096436	146.460000
289.189545	146.280000
289.282654	145.880000
289.375763	146.300000
289.468903	146.640000
289.562012	147.360000
289.655121	147.140000
289.748260	147.320000
289.841400	147.180000
289.934509	146.900000
290.027649	146.980000
290.120728	147.340000
290.213898	147.220000
290.306976	146.800000
290.400146	147.080000
290.493256	146.460000
290.586395	146.460000
290.679535	146.860000
290.772644	146.720000
290.865784	145.780000
290.958893	146.160000
291.052032	145.840000
291.145172	145.700000
291.238281	145.580000
291.331421	145.980000
291.424561	146.340000
291.517670	146.260000
291.610809	146.380000
291.703949	146.460000
291.797089	147.060000
291.890228	146.360000
291.983337	146.800000
292.076477	146.560000
292.169617	146.940000
292.262756	146.540000
292.355927	146.720000
292.449036	146.360000
292.542206	146.360000
292.635315	146.320000
292.728485	146.580000
292.821625	146.460000
292.914764	147.520000
293.007904	147.680000
293.101044	147.480000
293.194183	147.060000
293.287323	147.380000
293.380463	146.480000
293.473602	146.140000
293.566742	146.520000
293.659882	147.260000
293.753021	147.260000
293.846191	147.400000
293.939331	147.340000
294.032471	147.040000
294.125610	146.500000
294.218781	146.920000
294.311920	147.260000
294.405060	147.320000
294.498230	147.100000
294.591370	147.120000
294.684540	146.320000
294.777679	145.540000
294.870850	146.120000
294.963959	146.360000
295.057159	146.240000
295.150299	146.760000
295.243469	147.000000
295.336609	146.440000
295.429779	146.360000
295.522919	146.440000
295.616089	146.320000
295.709229	146.580000
295.802399	146.860000
295.895569	146.660000
295.988708	146.780000
296.081879	146.940000
296.175018	146.480000
296.268188	146.400000
296.361359	146.980000
296.454529	147.100000
296.547668	146.700000
296.640839	147.160000
296.734009	146.740000
296.827179	146.580000
296.920319	146.780000
297.013519	146.840000
297.106659	147.080000
297.199860	147.000000
297.292999	146.820000
297.386200	146.440000
297.479309	146.360000
297.572510	146.280000
297.665680	146.340000
297.758850	146.400000
297.852020	146.300000
297.945190	146.280000
298.038361	145.480000
298.131531	146.440000
298.224701	146.120000
298.317871	146.120000
298.411072	145.640000
298.504242	145.840000
298.597412	145.140000
298.690582	145.720000
298.783752	145.460000
298.876923	146.080000
298.970093	146.400000
299.063293	146.840000
299.156464	146.780000
299.249634	147.380000
299.342834	147.280000
299.436005	147.560000
299.529205	147.300000
299.622345	147.360000
299.715576	146.540000
299.808716	146.360000
299.901917	146.200000
299.995117	146.000000
300.088287	146.100000
300.181488	146.380000
300.274658	146.240000
300.367828	146.140000
300.461029	146.280000
300.554199	146.100000
300.647400	146.160000
300.740601	146.920000
300.833771	146.620000
300.926971	147.180000
301.020142	146.540000
301.113342	146.520000
301.206512	146.300000
301.299713	146.480000
301.392914	145.880000
301.486084	146.520000
301.579285	146.360000
301.672516	146.460000
301.765686	146.540000
301.858887	146.680000
301.952057	146.660000
302.045288	146.800000
302.138458	146.700000
302.231659	146.400000
302.324860	145.960000
302.418060	145.560000
302.511261	145.440000
302.604462	145.340000
302.697662	145.320000
302.790863	145.400000
302.884064	145.460000
302.977264	145.680000
303.070465	145.980000
303.163666	146.720000
303.256866	147.380000
303.350067	147.140000
303.443268	147.200000
303.536469	147.160000
303.629669	146.560000
303.722870	146.620000
303.816071	146.540000
303.909271	146.680000
304.002472	145.980000
304.095673	145.860000
304.188934	144.900000
304.282104	145.760000
304.375336	145.540000
304.468506	145.620000
304.561768	145.580000
304.654968	146.420000
304.748169	146.060000
304.841370	146.000000
304.934601	146.420000
305.027802	146.380000
305.121002	145.980000
305.214233	145.960000
305.307434	145.860000
305.400665	146.420000
305.493866	146.200000
305.587097	146.380000
305.680298	146.320000
305.773499	147.000000
305.866730	146.360000
305.959930	147.180000
306.053162	147.500000
306.146393	147.220000
306.239594	146.340000
306.332825	146.360000
306.426025	146.160000
306.519287	145.540000
306.612488	145.840000
306.705719	146.100000
306.798920	146.200000
306.892181	145.900000
306.985352	145.800000
307.078613	145.340000
307.171844	145.720000
307.265045	145.240000
307.358276	145.000000
307.451508	145.460000
307.544739	146.140000
307.637970	145.840000
307.731201	145.880000
307.824402	146.480000
307.917633	146.560000
308.010864	146.740000
308.104095	146.960000
308.197327	147.060000
308.290558	147.160000
308.383789	146.560000
308.477020	146.180000
308.570251	145.560000
308.663483	145.500000
308.756714	145.200000
308.849976	145.300000
308.943176	145.520000
309.036438	145.820000
309.129639	145.820000
309.222900	145.740000
309.316101	145.620000
309.409393	145.180000
309.502625	145.060000
309.595856	145.200000
309.689087	145.420000
309.782318	145.860000
309.875580	146.140000
309.968811	146.380000
310.062042	146.180000
310.155273	146.040000
310.248535	146.240000
310.341766	146.200000
310.434998	145.700000
310.528259	145.820000
310.621490	146.240000
310.714722	145.580000
310.807983	145.480000
310.901215	145.680000
310.994476	146.100000
311.087708	145.680000
311.181000	146.200000
311.274200	145.780000
311.367462	146.120000
311.460693	145.560000
311.553986	146.020000
311.647186	146.540000
311.740479	147.480000
311.833710	146.860000
311.926971	146.800000
312.020203	146.120000
312.113464	145.480000
312.206726	144.980000
312.299957	145.460000
312.393219	146.060000
312.486481	146.420000
312.579712	146.440000
312.672974	146.440000
312.766235	146.320000
312.859497	146.020000
312.952759	146.000000
313.045990	146.500000
313.139252	145.980000
313.232513	146.100000
313.325775	146.320000
313.419037	146.060000
313.512299	145.140000
313.605530	145.840000
313.698822	146.060000
313.792053	146.000000
313.885345	145.860000
313.978577	146.240000
314.071869	145.780000
314.165131	145.700000
314.258392	146.200000
314.351654	146.220000
314.444916	145.820000
314.538177	146.500000
314.631439	147.040000
314.724701	146.360000
314.817993	146.240000
314.911255	146.540000
315.004517	145.740000
315.097778	145.060000
315.191040	145.580000
315.284302	146.200000
315.377594	146.060000
315.470856	146.500000
315.564117	146.300000
315.657379	145.680000
315.750671	145.220000
315.843933	145.640000
315.937195	145.240000
316.030518	145.260000
316.123749	145.200000
316.217041	145.840000
316.310303	145.780000
316.403595	146.020000
316.496857	146.380000
316.590149	146.740000
316.683411	145.960000
316.776703	145.520000
316.869965	145.460000
316.963257	145.000000
317.056519	144.580000
317.149811	145.020000
317.243073	145.240000
317.336365	145.300000
317.429626	145.920000
317.522919	146.600000
317.616180	146.340000
317.709473	146.080000
317.802765	145.880000
317.896027	145.440000
317.989319	145.600000
318.082611	145.420000
318.175873	145.320000
318.269165	145.740000
318.362488	145.840000
318.455750	145.300000
318.549042	145.960000
318.642303	146.820000
318.735626	146.340000
318.828888	146.460000
318.922211	145.960000
319.015472	146.300000
319.108765	145.720000
319.202057	145.980000
319.295349	146.280000
319.388641	146.820000
319.481934	146.380000
319.575226	146.120000
319.668518	146.180000
319.761810	146.120000
319.855103	145.980000
319.948395	145.740000
320.041687	145.860000
320.134979	145.620000
320.228271	145.440000
320.321564	145.440000
320.414856	145.420000
320.508148	145.380000
320.601440	145.600000
320.694763	145.520000
320.788025	146.100000
320.881348	146.260000
320.974640	146.380000
321.067963	145.760000
321.161224	146.000000
321.254547	145.260000
321.347839	145.660000
321.441162	145.340000
321.534454	145.840000
321.627747	145.580000
321.721069	146.080000
321.814362	146.120000
321.907654	146.480000
322.000946	146.500000
322.094269	146.900000
322.187561	146.540000
322.280884	146.400000
322.374176	146.300000
322.467468	146.720000
322.560791	146.620000
322.654083	147.100000
322.747406	147.240000
322.840698	147.840000
322.934021	147.820000
323.027344	148.000000
323.120636	147.600000
323.213959	147.240000
323.307251	146.300000
323.400574	145.960000
323.493866	145.240000
323.587219	145.520000
323.680511	145.960000
323.773834	146.400000
323.867157	146.740000
323.960449	147.020000
324.053772	146.980000
324.147095	146.740000
324.240387	147.140000
324.333710	146.940000
324.427032	147.340000
324.520355	147.120000
324.613647	146.640000
324.706970	146.180000
324.800293	146.160000
324.893616	145.920000
324.986938	146.420000
325.080231	146.540000
325.173553	146.800000
325.266876	147.120000
325.360199	146.980000
325.453522	146.360000
325.546875	146.460000
325.640167	146.700000
325.733521	146.660000
325.826813	147.100000
325.920166	147.020000
326.013489	146.820000
326.106812	146.080000
326.200134	145.660000
326.293457	144.880000
326.386780	145.240000
326.480103	145.260000
326.573425	145.380000
326.666748	145.560000
326.760071	146.100000
326.853424	146.060000
326.946747	146.140000
327.040070	147.020000
327.133392	146.920000
327.226715	146.380000
327.320068	146.080000
327.413391	146.880000
327.506714	145.860000
327.600037	145.560000
327.693390	145.760000
327.786713	145.720000
327.880066	145.260000
327.973358	146.140000
328.066742	146.980000
328.160034	147.220000
328.253418	147.860000
328.346710	147.620000
328.440063	146.920000
328.533417	146.380000
328.626740	146.860000
328.720093	146.400000
328.813416	146.220000
328.906769	146.580000
329.000092	146.720000
329.093445	146.260000
329.186768	146.340000
329.280121	147.100000
329.373444	147.080000
329.466797	146.980000
329.560120	147.140000
329.653473	147.160000
329.746796	146.420000
329.840149	146.240000
329.933502	146.280000
330.026825	145.800000
330.120178	145.500000
330.213562	145.480000
330.306854	145.620000
330.400238	145.840000
330.493561	145.820000
330.586945	146.440000
330.680237	146.800000
330.773621	146.420000
330.866974	146.480000
330.960327	146.640000
331.053680	146.460000
331.147003	146.440000
331.240356	146.980000
331.333710	146.740000
331.427063	146.540000
331.520416	146.360000
331.613770	146.040000
331.707123	146.200000
331.800476	146.220000
331.893829	147.120000
331.987152	147.260000
332.080505	147.300000
332.173859	146.920000
332.267212	146.400000
332.360565	145.700000
332.453918	145.180000
332.547333	145.200000
332.640656	145.220000
332.734039	145.820000
332.827362	146.060000
332.920746	146.780000
333.014069	147.200000
333.107452	147.780000
333.200806	147.980000
333.294159	147.980000
333.387543	147.580000
333.480896	147.040000
333.574249	146.260000
333.667603	145.640000
333.760956	145.840000
333.854340	145.680000
333.947693	146.020000
334.041046	146.700000
334.134430	147.160000
334.227783	146.940000
334.321136	147.180000
334.414520	146.700000
334.507874	146.580000
334.601227	146.400000
334.694611	146.140000
334.787964	146.080000
334.881348	146.400000
334.974701	146.180000
335.068085	145.940000
335.161438	146.320000
335.254822	146.060000
335.348175	146.320000
335.441559	145.980000
335.534943	146.660000
335.628296	146.260000
335.721680	146.440000
335.815033	146.160000
335.908417	146.680000
336.001770	146.260000
336.095154	146.480000
336.188538	146.400000
336.281891	146.000000
336.375275	145.400000
336.468658	145.340000
336.562012	145.340000
336.655396	145.440000
336.748779	146.380000
336.842133	146.840000
336.935516	146.780000
337.028900	146.340000
337.122284	146.440000
337.215637	146.140000
337.309021	145.700000
337.402435	145.400000
337.495789	145.300000
337.589203	145.140000
337.682526	144.940000
337.775940	145.300000
337.869324	145.900000
337.962708	145.960000
338.056091	146.200000
338.149475	146.140000
338.242859	146.160000
338.336243	145.620000
338.429626	145.980000
338.523010	145.920000
338.616394	145.980000
338.709778	146.240000
338.803162	146.800000
338.896545	146.780000
338.989929	146.380000
339.083313	146.420000
339.176697	145.920000
339.270081	145.500000
339.363464	145.740000
339.456848	146.400000
339.550232	145.800000
339.643616	145.920000
339.737030	146.160000
339.830383	145.980000
339.923828	145.880000
340.017181	146.280000
340.110596	146.460000
340.203949	146.580000
340.297363	146.200000
340.390778	146.000000
340.484161	146.200000
340.577545	146.040000
340.670959	145.740000
340.764343	145.800000
340.857727	145.880000
340.951111	145.400000
341.044525	145.480000
341.137909	145.260000
341.231293	145.260000
341.324707	144.860000
341.418091	145.820000
341.511505	146.060000
341.604889	146.480000
341.698303	146.640000
341.791687	147.100000
341.885071	146.460000
341.978485	145.940000
342.071899	146.140000
342.165283	146.680000
342.258698	146.820000
342.352081	147.140000
342.445496	147.820000
342.538879	147.360000
342.632324	146.640000
342.725708	146.360000
342.819122	145.640000
342.912506	145.160000
343.005920	145.340000
343.099335	146.260000
343.192719	146.180000
343.286133	146.400000
343.379547	146.320000
343.472931	146.360000
343.566345	145.660000
343.659760	145.860000
343.753143	145.840000
343.846558	145.880000
343.939972	145.740000
344.033386	146.400000
344.126770	146.240000
344.220184	146.500000
344.313599	146.740000
344.407043	147.080000
344.500427	146.260000
344.593872	146.660000
344.687225	146.660000
344.780670	146.200000
344.874054	146.000000
344.967499	146.600000
345.060913	146.320000
345.154327	146.040000
345.247742	146.060000
345.341156	145.780000
345.434570	145.400000
345.527985	145.340000
345.621399	145.600000
345.714813	145.720000
345.808228	146.000000
345.901642	145.920000
345.995056	145.940000
346.088470	145.900000
346.181885	145.960000
346.275299	145.720000
346.368713	145.740000
346.462128	145.320000
346.555573	145.040000
346.648987	145.320000
346.742401	145.380000
346.835815	145.640000
346.929260	145.680000
347.022644	146.160000
347.116119	146.320000
347.209503	146.480000
347.302948	147.080000
347.396362	147.780000
347.489807	147.580000
347.583221	147.860000
347.676636	147.640000
347.770050	146.640000
347.863495	145.940000
347.956909	146.160000
348.050323	145.500000
348.143768	145.460000
348.237183	145.560000
348.330597	146.520000
348.424042	146.800000
348.517456	147.100000
348.610901	147.460000
348.704315	147.380000
348.797760	146.660000
348.891174	145.780000
348.984619	145.200000
349.078033	145.360000
349.171448	145.980000
349.264923	145.780000
349.358337	146.260000
349.451782	146.620000
349.545197	146.120000
349.638641	145.440000
349.732086	145.200000
349.825500	145.020000
349.918945	144.500000
350.012390	144.880000
350.105804	145.420000
350.199249	146.100000
350.292664	146.520000
350.386108	146.720000
350.479553	146.980000
350.572968	146.760000
350.666412	146.400000
350.759857	146.360000
350.853302	147.020000
350.946716	146.420000
351.040161	146.380000
351.133606	146.520000
351.227081	146.400000
351.320465	146.840000
351.413940	147.100000
351.507355	146.940000
351.600830	147.080000
351.694244	146.840000
351.787720	146.140000
351.881104	146.000000
351.974579	146.120000
352.067993	146.700000
352.161469	146.600000
352.254883	146.240000
352.348358	146.280000
352.441803	146.280000
352.535248	145.740000
352.628693	146.180000
352.722137	146.300000
352.815582	146.440000
352.909027	146.540000
353.002472	146.400000
353.095917	146.260000
353.189362	146.500000
353.282806	146.600000
353.376251	146.420000
353.469696	145.940000
353.563141	146.480000
353.656586	146.240000
353.750061	145.440000
353.843475	145.420000
353.936981	146.320000
354.030396	145.380000
354.123871	145.320000
354.217285	146.420000
354.310760	146.800000
354.404175	146.580000
354.497681	146.660000
354.591095	146.760000
354.684570	145.740000
354.777985	145.380000
354.871490	145.200000
354.964935	145.640000
355.058380	145.940000
355.151855	145.600000
355.245300	146.100000
355.338745	146.600000
355.432220	146.480000
355.525665	145.740000
355.619110	146.440000
355.712585	146.080000
355.806030	145.360000
355.899475	144.820000
355.992950	145.260000
356.086426	145.800000
356.179871	145.800000
356.273346	146.100000
356.366791	146.640000
356.460266	146.880000
356.553711	146.380000
356.647186	146.360000
356.740631	146.080000
356.834106	145.680000
356.927551	145.660000
357.021027	145.720000
357.114471	145.840000
357.207947	146.080000
357.301422	146.660000
357.394867	146.660000
357.488342	147.020000
357.581818	146.920000
357.675262	147.080000
357.768738	146.680000
357.862213	146.180000
357.955658	145.760000
358.049133	145.480000
358.142609	145.600000
358.236053	145.520000
358.329529	145.880000
358.423035	146.160000
358.516449	145.860000
358.609955	146.160000
358.703400	146.800000
358.796906	146.620000
358.890350	146.260000
358.983826	146.900000
359.077271	146.140000
359.170776	145.900000
359.264221	145.840000
359.357727	145.860000
359.451172	146.240000
359.544647	146.420000
359.638123	146.180000
359.731598	146.660000
359.825073	146.980000
359.918549	146.600000
360.012024	147.080000
360.105499	146.820000
360.198975	146.620000
360.292450	146.520000
360.385925	146.180000
360.479401	145.240000
360.572876	145.520000
360.666351	145.920000
360.759857	145.840000
360.853302	146.220000
360.946808	146.340000
361.040253	146.620000
361.133759	145.820000
361.227203	146.040000
361.320709	145.700000
361.414154	146.180000
361.507660	146.260000
361.601105	146.820000
361.694641	147.300000
361.788086	147.200000
361.881592	147.660000
361.975067	147.140000
362.068542	147.300000
362.162018	147.020000
362.255524	147.080000
362.348999	146.680000
362.442474	147.060000
362.535950	146.700000
362.629456	146.120000
362.722931	146.240000
362.816406	146.480000
362.909882	146.700000
363.003387	146.520000
363.096863	147.060000
363.190338	147.080000
363.283875	146.560000
363.377319	146.280000
363.470825	146.780000
363.564301	146.200000
363.657806	146.400000
363.751282	146.300000
363.844788	146.820000
363.938232	146.400000
364.031769	147.220000
364.125214	147.220000
364.218750	147.880000
364.312225	146.740000
364.405731	146.820000
364.499207	146.020000
364.592712	145.520000
364.686188	145.300000
364.779694	146.060000
364.873169	146.240000
364.966675	146.400000
365.060150	146.840000
365.153656	147.040000
365.247131	146.800000
365.340637	146.880000
365.434143	147.480000
365.527618	147.420000
365.621155	146.820000
365.714600	146.880000
365.808136	146.740000
365.901611	145.720000
365.995117	145.440000
366.088593	145.560000
366.182129	145.360000
366.275604	145.440000
366.369110	145.740000
366.462585	145.820000
366.556122	146.520000
366.649567	146.480000
366.743103	146.680000
366.836609	146.420000
366.930115	146.640000
367.023590	146.660000
367.117096	146.780000
367.210602	146.580000
367.304108	147.240000
367.397614	147.800000
367.491119	147.400000
367.584595	147.560000
367.678101	147.900000
367.771606	147.660000
367.865112	147.180000
367.958649	146.660000
368.052124	146.260000
368.145660	145.960000
368.239136	146.700000
368.332672	146.720000
368.426147	147.240000
368.519684	147.440000
368.613159	147.520000
368.706696	146.920000
368.800171	146.580000
368.893707	146.200000
368.987183	146.260000
369.080719	145.940000
369.174225	145.600000
369.267731	146.100000
369.361237	146.280000
369.454742	146.140000
369.548248	146.540000
369.641754	146.520000
369.735260	146.140000
369.828766	145.380000
369.922272	145.900000
370.015808	145.640000
370.109314	145.520000
370.202820	145.520000
370.296356	147.060000
370.389832	146.440000
370.483368	146.140000
370.576874	146.100000
370.670410	146.560000
370.763885	145.100000
370.857422	145.020000
370.950928	144.900000
371.044464	145.780000
371.137939	145.560000
371.231476	146.260000
371.324982	147.500000
371.418518	147.720000
371.512024	147.160000
371.605560	146.960000
371.699066	146.960000
371.792572	146.080000
371.886108	146.540000
371.979614	146.400000
372.073120	146.960000
372.166656	146.700000
372.260162	146.800000
372.353668	146.480000
372.447205	146.460000
372.540710	146.020000
372.634277	146.380000
372.727753	146.680000
372.821320	146.460000
372.914795	146.700000
373.008362	146.600000
373.101837	146.460000
373.195404	146.000000
373.288879	146.080000
373.382446	146.580000
373.475922	146.740000
373.569489	147.360000
373.662964	147.700000
373.756531	147.840000
373.850037	147.960000
373.943573	147.780000
374.037109	146.620000
374.130615	146.660000
374.224152	146.440000
374.317657	145.760000
374.411194	146.660000
374.504730	146.740000
374.598236	146.140000
374.691772	146.320000
374.785309	146.720000
374.878815	145.540000
374.972351	146.140000
375.065887	146.280000
375.159454	147.080000
375.252930	146.600000
375.346497	147.040000
375.440002	147.480000
375.533569	147.380000
375.627045	146.540000
375.720612	146.580000
375.814117	146.600000
375.907684	145.860000
376.001160	145.900000
376.094727	145.240000
376.188232	146.060000
376.281799	146.180000
376.375336	146.100000
376.468872	146.800000
376.562408	147.440000
376.655914	146.820000
376.749451	146.860000
376.842987	147.080000
376.936523	146.500000
377.030060	146.460000
377.123596	146.680000
377.217133	146.080000
377.310669	145.980000
377.404205	146.520000
377.497772	147.100000
377.591278	146.580000
377.684845	147.580000
377.778351	148.040000
377.871918	147.680000
377.965424	146.800000
378.058990	146.700000
378.152496	145.940000
378.246063	146.040000
378.339569	146.280000
378.433136	146.360000
378.526642	146.560000
378.620209	146.720000
378.713745	146.060000
378.807312	146.060000
378.900848	146.100000
378.994385	146.400000
379.087921	145.820000
379.181458	146.080000
379.274994	145.440000
379.368530	145.540000
379.462097	145.720000
379.555634	146.580000
379.649170	146.480000
379.742706	146.720000
379.836273	146.880000
379.929810	146.360000
380.023376	145.980000
380.116882	145.880000
380.210449	145.940000
380.303986	145.860000
380.397552	145.360000
380.491058	145.720000
380.584656	145.460000
380.678162	145.280000
380.771729	145.040000
380.865265	146.100000
380.958832	146.020000
381.052368	146.380000
381.145935	147.000000
381.239471	147.400000
381.333008	147.220000
381.426575	146.920000
381.520111	147.100000
381.613647	146.940000
381.707214	146.740000
381.800751	146.100000
381.894318	146.460000
381.987854	145.800000
382.081421	145.540000
382.174988	145.900000
382.268524	146.140000
382.362091	145.520000
382.455627	146.680000
382.549194	146.680000
382.642731	146.020000
382.736298	145.800000
382.829834	146.080000
382.923401	146.040000
383.016937	146.160000
383.110504	146.740000
383.204041	147.000000
383.297607	147.500000
383.391174	146.480000
383.484741	146.980000
383.578278	146.280000
383.671844	145.780000
383.765411	144.980000
383.858948	145.920000
383.952515	145.260000
384.046051	146.260000
384.139618	147.080000
384.233185	147.300000
384.326721	147.000000
384.420288	147.720000
384.513855	147.380000
384.607422	147.540000
384.700989	147.860000
384.794525	147.560000
384.888123	147.480000
384.981659	147.780000
385.075226	147.280000
385.168762	146.960000
385.262360	147.060000
385.355896	146.000000
385.449463	145.500000
385.542999	145.320000
385.636597	145.940000
385.730164	145.920000
385.823730	146.220000
385.917267	145.820000
386.010834	146.340000
386.104401	146.080000
386.197968	146.540000
386.291534	146.940000
386.385101	147.420000
386.478668	147.400000
386.572235	146.980000
386.665802	146.140000
386.759338	145.840000
386.852905	145.280000
386.946472	144.980000
387.040070	145.320000
387.133606	145.460000
387.227203	145.320000
387.320740	145.840000
387.414337	145.740000
387.507874	145.660000
387.601471	145.900000
387.695007	145.680000
387.788605	145.440000
387.882141	145.480000
387.975739	145.320000
388.069275	145.200000
388.162872	145.700000
388.256439	145.780000
388.350037	145.820000
388.443604	145.820000
388.537170	145.580000
388.630737	145.980000
388.724304	146.080000
388.817871	145.940000
388.911438	146.220000
389.005005	146.880000
389.098602	146.800000
389.192169	146.660000
389.285736	147.300000
389.379333	147.120000
389.472870	146.300000
389.566467	146.040000
389.660034	146.020000
389.753632	145.180000
389.847168	145.480000
389.940765	146.040000
390.034332	146.160000
390.127930	146.040000
390.221466	145.960000
390.315063	145.700000
390.408630	145.200000
390.502228	144.560000
390.595795	144.860000
390.689362	145.560000
390.782959	145.920000
390.876526	146.440000
390.970093	146.820000
391.063690	147.260000
391.157257	147.120000
391.250824	147.100000
391.344421	146.900000
391.437988	147.160000
391.531555	146.680000
391.625153	146.480000
391.718750	146.600000
391.812317	146.720000
391.905914	146.220000
391.999481	146.420000
392.093079	146.540000
392.186615	146.620000
392.280243	146.520000
392.373779	146.840000
392.467407	147.080000
392.560944	146.940000
392.654572	146.380000
392.748108	146.120000
392.841736	146.200000
392.935303	145.720000
393.028900	145.700000
393.122467	145.760000
393.216064	145.720000
393.309631	145.340000
393.403229	145.340000
393.496796	145.040000
393.590393	144.640000
393.683990	145.060000
393.777557	145.380000
393.871155	145.440000
393.964722	145.920000
394.058350	146.260000
394.151917	145.960000
394.245514	145.800000
394.339081	146.320000
394.432678	146.680000
394.526245	146.620000
394.619873	146.440000
394.713409	146.640000
394.807037	145.860000
394.900604	145.840000
394.994202	145.680000
395.087769	145.980000
395.181396	145.740000
395.274994	146.720000
395.368561	146.060000
395.462158	146.660000
395.555756	146.380000
395.649353	146.720000
395.742920	146.160000
395.836517	146.880000
395.930115	146.060000
396.023712	146.660000
396.117279	146.680000
396.210876	146.400000
396.304474	146.080000
396.398071	146.440000
396.491669	146.300000
396.585266	146.200000
396.678833	146.020000
396.772461	146.240000
396.866028	146.400000
396.959656	146.600000
397.053223	147.080000
397.146851	147.620000
397.240417	148.500000
397.334015	150.240000
397.427582	151.440000
397.521210	153.520000
397.614807	156.640000
397.708405	159.820000
397.802002	163.440000
397.895599	169.160000
397.989197	175.360000
398.082794	182.760000
398.176392	192.180000
398.269989	202.560000
398.363586	215.280000
398.457184	230.660000
398.550781	249.000000
398.644379	267.480000
398.737976	289.040000
398.831573	310.520000
398.925201	332.020000
399.018768	353.140000
399.112396	375.320000
399.205963	396.220000
399.299591	417.600000
399.393158	438.340000
399.486786	458.200000
399.580353	476.960000
399.673981	492.960000
399.767578	506.320000
399.861206	517.100000
399.954773	524.640000
400.048401	526.120000
400.141998	524.220000
400.235596	518.600000
400.329193	508.140000
400.422791	494.640000
400.516418	479.700000
400.610016	464.240000
400.703613	446.280000
400.797211	424.640000
400.890808	401.140000
400.984436	377.020000
401.078033	350.060000
401.171631	324.240000
401.265259	301.040000
401.358826	279.500000
401.452484	259.340000
401.546051	242.220000
401.639679	224.760000
401.733246	210.660000
401.826904	197.440000
401.920471	186.360000
402.014099	176.980000
402.107697	170.580000
402.201324	164.900000
402.294891	160.800000
402.388550	157.620000
402.482147	155.120000
402.575745	152.740000
402.669373	150.780000
402.762970	149.240000
402.856567	148.360000
402.950195	148.080000
403.043793	147.620000
403.137390	148.140000
403.231018	147.640000
403.324615	147.800000
403.418243	146.820000
403.511841	146.920000
403.605469	146.160000
403.699066	146.660000
403.792694	146.660000
403.886292	147.140000
403.979919	147.380000
404.073517	147.000000
404.167145	147.360000
404.260712	146.940000
404.354370	146.460000
404.447937	146.440000
404.541595	146.700000
404.635162	146.560000
404.728821	146.880000
404.822418	146.660000
404.916046	146.160000
405.009644	146.380000
405.103271	146.400000
405.196899	146.060000
405.290497	146.480000
405.384125	146.840000
405.477722	146.460000
405.571350	145.920000
405.664948	145.940000
405.758575	145.820000
405.852203	145.480000
405.945801	145.460000
406.039429	145.500000
406.133057	145.400000
406.226654	145.380000
406.320312	145.400000
406.413879	145.740000
406.507538	146.160000
406.601135	145.980000
406.694763	146.460000
406.788361	146.040000
406.882019	145.840000
406.975586	145.960000
407.069244	146.440000
407.162872	146.180000
407.256470	146.520000
407.350098	146.420000
407.443726	145.860000
407.537323	145.620000
407.630951	145.800000
407.724579	145.480000
407.818207	145.700000
407.911804	145.640000
408.005432	145.420000
408.099060	145.520000
408.192688	146.100000
408.286285	146.100000
408.379913	146.000000
408.473572	146.200000
408.567169	145.620000
408.660828	145.480000
408.754395	145.440000
408.848053	145.620000
408.941650	145.800000
409.035309	145.700000
409.128906	145.980000
409.222565	146.040000
409.316132	146.440000
409.409790	146.060000
409.503387	146.080000
409.597046	145.520000
409.690674	145.560000
409.784302	145.280000
409.877930	145.280000
409.971558	145.720000
410.065186	145.820000
410.158783	145.420000
410.252411	145.500000
410.346039	146.100000
410.439667	146.020000
410.533295	146.600000
410.626923	147.360000
410.720551	146.980000
410.814209	147.120000
410.907806	147.220000
411.001465	146.380000
411.095062	146.140000
411.188721	146.380000
411.282318	145.940000
411.375977	145.680000
411.469574	146.180000
411.563232	145.660000
411.656830	145.560000
411.750488	145.340000
411.844086	145.040000
411.937744	145.100000
412.031372	145.380000
412.125000	145.300000
412.218628	145.420000
412.312256	146.260000
412.405884	146.380000
412.499512	146.080000
412.593170	146.520000
412.686798	146.820000
412.780426	146.300000
412.874054	146.380000
412.967682	146.720000
413.061310	147.000000
413.154968	146.860000
413.248566	147.120000
413.342224	146.900000
413.435852	146.900000
413.529510	146.500000
413.623108	145.880000
413.716766	145.640000
413.810364	145.960000
413.904022	145.740000
413.997650	145.500000
414.091309	146.580000
414.184906	146.540000
414.278564	146.200000
414.372192	146.740000
414.465851	146.980000
414.559479	146.480000
414.653107	147.120000
414.746735	146.900000
414.840393	146.520000
414.934021	146.660000
415.027649	146.300000
415.121277	145.980000
415.214935	146.320000
415.308563	146.580000
415.402191	146.040000
415.495850	146.380000
415.589478	146.040000
415.683136	146.040000
415.776733	146.000000
415.870422	146.520000
415.964020	145.980000
416.057678	146.120000
416.151306	146.180000
416.244965	146.140000
416.338562	146.300000
416.432251	147.120000
416.525848	147.720000
416.619507	147.500000
416.713165	147.780000
416.806793	147.660000
416.900421	147.400000
416.994080	146.500000
417.087708	146.280000
417.181366	145.600000
417.274994	145.340000
417.368622	145.460000
417.462280	145.860000
417.555908	146.300000
417.649567	146.540000
417.743195	146.480000
417.836853	146.540000
417.930481	146.740000
418.024170	146.600000
418.117767	147.020000
418.211426	147.700000
418.305054	147.700000
418.398712	147.280000
418.492340	147.300000
418.585999	147.380000
418.679626	147.020000
418.773285	147.060000
418.866913	147.520000
418.960571	147.780000
419.054230	147.540000
419.147858	147.580000
419.241516	147.800000
419.335144	147.360000
419.428802	147.120000
419.522461	146.960000
419.616089	146.360000
419.709747	146.060000
419.803375	146.180000
419.897034	146.140000
419.990662	146.060000
420.084320	146.860000
420.177979	147.080000
420.271606	147.220000
420.365295	147.680000
420.458893	147.840000
420.552582	147.700000
420.646210	147.480000
420.739868	146.980000
420.833496	146.460000
420.927155	145.900000
421.020782	145.700000
421.114471	145.160000
421.208069	145.680000
421.301758	146.120000
421.395386	146.620000
421.489044	146.460000
421.582703	146.740000
421.676361	147.060000
421.769989	146.600000
421.863647	146.860000
421.957306	147.300000
422.050934	147.640000
422.144592	147.380000
422.238251	147.100000
422.331909	146.540000
422.425537	146.160000
422.519196	146.040000
422.612854	145.520000
422.706543	145.280000
422.800140	145.660000
422.893829	145.180000
422.987457	144.880000
423.081146	145.160000
423.174744	146.000000
423.268433	145.400000
423.362061	145.580000
423.455750	145.400000
423.549347	145.240000
423.643036	144.460000
423.736664	145.480000
423.830353	145.540000
423.924011	146.000000
424.017639	145.840000
424.111298	145.980000
424.204956	145.420000
424.298615	145.720000
424.392273	145.640000
424.485931	145.840000
424.579559	146.360000
424.673218	146.400000
424.766876	146.400000
424.860535	146.140000
424.954193	145.720000
425.047882	145.600000
425.141510	145.500000
425.235199	145.540000
425.328796	145.520000
425.422485	145.880000
425.516113	145.300000
425.609802	145.380000
425.703430	145.140000
425.797119	144.900000
425.890747	145.000000
425.984436	145.520000
426.078064	145.580000
426.171753	145.680000
426.265411	145.700000
426.359070	145.880000
426.452728	145.680000
426.546356	145.480000
426.640015	145.620000
426.733673	145.600000
426.827332	145.280000
426.920990	145.820000
427.014648	145.700000
427.108307	145.540000
427.201965	146.060000
427.295624	146.280000
427.389282	145.740000
427.482941	146.020000
427.576630	146.280000
427.670258	145.600000
427.763947	145.540000
427.857574	145.920000
427.951263	145.780000
428.044922	145.340000
428.138611	145.560000
428.232239	145.900000
428.325928	146.040000
428.419556	146.500000
428.513245	146.280000
428.606903	146.520000
428.700562	146.000000
428.794220	145.260000
428.887878	144.640000
428.981537	144.880000
429.075195	145.260000
429.168854	145.920000
429.262512	145.980000
429.356201	145.960000
429.449860	145.860000
429.543518	145.500000
429.637177	145.020000
429.730835	145.160000
429.824493	145.180000
429.918182	145.440000
430.011810	145.020000
430.105530	144.840000
430.199158	145.140000
430.292847	145.200000
430.386475	145.060000
430.480164	145.280000
430.573792	145.060000
430.667511	144.720000
430.761139	144.820000
430.854828	145.360000
430.948456	145.460000
431.042145	146.320000
431.135834	146.360000
431.229492	146.600000
431.323151	146.340000
431.416809	146.360000
431.510468	146.020000
431.604156	146.100000
431.697815	146.120000
431.791473	145.840000
431.885132	145.720000
431.978821	146.200000
432.072479	146.400000
432.166138	146.700000
432.259827	146.580000
432.353485	146.860000
432.447174	146.680000
432.540802	146.240000
432.634491	145.900000
432.728149	146.260000
432.821838	146.460000
432.915466	146.020000
433.009186	146.260000
433.102814	145.860000
433.196503	145.520000
433.290131	145.540000
433.383850	146.080000
433.477509	146.040000
433.571167	147.180000
433.664856	147.660000
433.758514	147.860000
433.852173	147.460000
433.945862	147.520000
434.039520	146.840000
434.133179	146.420000
434.226868	145.760000
434.320526	145.480000
434.414185	145.880000
434.507874	145.560000
434.601562	145.800000
434.695221	146.120000
434.788910	146.380000
434.882538	146.100000
434.976257	145.760000
435.069885	145.540000
435.163574	145.500000
435.257233	145.000000
435.350922	144.920000
435.444580	144.900000
435.538269	144.580000
435.631897	144.780000
435.725616	145.420000
435.819275	146.040000
435.912964	146.800000
436.006622	147.460000
436.100311	147.420000
436.193970	146.780000
436.287628	146.260000
436.381317	145.860000
436.474976	145.120000
436.568665	144.620000
436.662323	144.820000
436.756012	144.960000
436.849670	144.820000
436.943390	145.240000
437.037018	145.120000
437.130737	145.120000
437.224365	144.880000
437.318085	145.160000
437.411713	145.220000
437.505432	145.640000
437.599060	146.440000
437.692780	147.180000
437.786407	147.160000
437.880127	147.100000
437.973755	146.980000
438.067474	146.340000
438.161133	145.880000
438.254822	146.240000
438.348480	146.100000
438.442169	146.560000
438.535828	146.700000
438.629517	146.320000
438.723175	145.520000
438.816864	145.860000
438.910553	145.200000
439.004211	144.800000
439.097900	144.980000
439.191559	145.320000
439.285248	144.900000
439.378906	145.440000
439.472626	145.660000
439.566284	145.420000
439.659973	145.920000
439.753632	145.900000
439.847321	146.320000
439.940979	146.280000
440.034698	146.580000
440.128326	145.660000
440.222046	145.440000
440.315674	144.460000
440.409393	144.700000
440.503082	144.600000
440.596741	145.040000
440.690430	145.620000
440.784088	145.800000
440.877777	145.400000
440.971466	145.500000
441.065125	145.320000
441.158813	145.140000
441.252502	145.000000
441.346161	145.400000
441.439850	145.740000
441.533539	145.800000
441.627197	146.100000
441.720886	146.320000
441.814606	146.280000
441.908234	146.140000
442.001953	146.020000
442.095612	145.800000
442.189301	145.820000
442.282959	146.020000
442.376678	145.440000
442.470306	146.260000
442.564026	146.440000
442.657684	146.700000
442.751404	146.640000
442.845032	147.660000
442.938751	147.200000
443.032440	146.900000
443.126099	146.380000
443.219788	146.540000
443.313477	145.960000
443.407166	146.120000
443.500824	146.160000
443.594513	146.620000
443.688202	146.400000
443.781891	146.000000
443.875549	145.380000
443.969238	145.620000
444.062927	145.700000
444.156647	145.800000
444.250275	146.280000
444.343994	146.680000
444.437653	146.720000
444.531372	146.480000
444.625031	146.360000
444.718719	146.060000
444.812378	145.820000
444.906097	145.360000
444.999756	145.000000
445.093445	144.920000
445.187103	144.640000
445.280823	145.220000
445.374512	145.240000
445.468201	145.360000
445.561859	145.300000
445.655548	145.960000
445.749237	145.360000
445.842926	145.720000
445.936615	146.360000
446.030304	146.340000
446.123962	146.300000
446.217651	146.440000
446.311340	146.560000
446.405029	146.160000
446.498749	145.720000
446.592407	145.480000
446.686096	145.700000
446.779755	145.560000
446.873474	145.600000
446.967133	146.260000
447.060852	146.100000
447.154510	145.800000
447.248230	145.800000
447.341858	145.660000
447.435577	145.180000
447.529236	144.940000
447.622955	145.080000
447.716644	145.220000
447.810333	145.620000
447.904022	146.340000
447.997711	146.580000
448.091400	146.720000
448.185059	146.540000
448.278748	146.640000
448.372437	146.080000
448.466125	146.120000
448.559814	146.260000
448.653503	146.420000
448.747192	146.340000
448.840912	146.960000
448.934570	146.940000
449.028290	147.080000
449.121948	147.000000
449.215637	146.680000
449.309296	146.180000
449.403015	146.460000
449.496674	145.940000
449.590393	145.760000
449.684052	145.660000
449.777771	146.380000
449.871429	145.820000
449.965149	145.860000
450.058838	146.160000
450.152527	146.680000
450.246216	146.260000
450.339905	146.380000
450.433594	146.420000
450.527283	146.900000
450.620972	146.300000
450.714661	146.220000
450.808350	146.440000
450.902039	146.720000
450.995728	146.320000
451.089417	146.180000
451.183105	146.220000
451.276794	146.620000
451.370514	145.920000
451.464172	145.040000
451.557892	145.000000
451.651550	145.120000
451.745270	144.480000
451.838928	144.580000
451.932648	145.340000
452.026306	146.180000
452.120026	145.800000
452.213684	146.460000
452.307404	146.820000
452.401062	146.700000
452.494781	146.520000
452.588470	146.840000
452.682159	146.160000
452.775848	146.100000
452.869537	145.820000
452.963226	145.340000
453.056915	144.900000
453.150604	145.080000
453.244293	145.340000
453.337982	146.020000
453.431671	146.500000
453.525360	147.220000
453.619049	147.220000
453.712769	146.980000
453.806427	146.480000
453.900146	146.300000
453.993805	145.860000
454.087555	146.280000
454.181213	146.280000
454.274933	145.940000
454.368591	145.820000
454.462311	145.620000
454.555969	145.280000
454.649689	146.200000
454.743347	146.420000
454.837067	147.180000
454.930756	148.020000
455.024445	148.160000
455.118134	147.360000
455.211853	147.580000
455.305542	146.600000
455.399231	145.860000
455.492920	146.000000
455.586609	146.100000
455.680298	146.300000
455.773987	146.440000
455.867676	146.880000
455.961365	146.580000
456.055084	146.460000
456.148773	146.000000
456.242493	146.120000
456.336151	145.700000
456.429871	146.080000
456.523529	146.120000
456.617249	145.940000
456.710907	146.400000
456.804626	146.320000
456.898315	145.840000
456.992035	145.700000
457.085693	145.860000
457.179413	145.060000
457.273102	146.080000
457.366791	146.340000
457.460480	146.880000
457.554199	147.500000
457.647888	147.640000
457.741577	146.920000
457.835266	146.860000
457.928955	146.440000
458.022644	146.360000
458.116364	146.660000
458.210052	146.600000
458.303741	146.720000
458.397461	146.480000
458.491119	146.120000
458.584839	146.200000
458.678528	146.040000
458.772247	145.600000
458.865906	145.820000
458.959625	146.280000
459.053284	146.040000
459.147003	146.140000
459.240692	146.800000
459.334412	146.560000
459.428070	146.200000
459.521790	146.240000
459.615479	146.200000
459.709198	146.260000
459.802887	146.300000
459.896576	146.460000
459.990265	146.740000
460.083954	146.700000
460.177673	145.980000
460.271362	146.140000
460.365051	145.780000
460.458740	145.260000
460.552429	144.780000
460.646149	145.040000
460.739838	144.640000
460.833527	144.720000
460.927246	144.720000
461.020905	145.080000
461.114655	145.100000
461.208313	145.780000
461.302032	145.540000
461.395691	145.820000
461.489441	146.000000
461.583099	146.080000
461.676819	145.500000
461.770477	146.160000
461.864197	145.740000
461.957916	145.280000
462.051605	144.540000
462.145294	145.380000
462.238983	145.020000
462.332703	145.940000
462.426392	146.860000
462.520081	147.440000
462.613770	146.720000
462.707489	146.680000
462.801178	146.060000
462.894867	145.340000
462.988556	145.020000
463.082275	145.520000
463.175964	145.260000
463.269684	145.420000
463.363342	145.680000
463.457092	145.480000
463.550751	145.340000
463.644470	145.480000
463.738129	145.200000
463.831879	145.280000
463.925537	146.200000
464.019257	146.340000
464.112946	146.540000
464.206665	146.600000
464.300323	146.340000
464.394043	145.980000
464.487762	145.620000
464.581451	146.080000
464.675140	146.340000
464.768829	146.800000
464.862549	146.900000
464.956238	147.100000
465.049927	147.000000
465.143646	146.880000
465.237335	146.340000
465.331024	146.860000
465.424713	146.860000
465.518433	146.300000
465.612152	146.100000
465.705811	146.340000
465.799561	145.900000
465.893219	145.580000
465.986938	145.760000
466.080597	145.680000
466.174347	145.680000
466.268005	145.560000
466.361725	145.380000
466.455414	145.500000
466.549133	145.420000
466.642792	145.700000
466.736542	145.600000
466.830231	146.160000
466.923920	145.660000
467.017609	145.980000
467.111328	145.320000
467.205017	145.200000
467.298706	144.880000
467.392426	145.020000
467.486115	145.160000
467.579803	145.200000
467.673523	145.500000
467.767212	145.680000
467.860901	145.780000
467.954651	145.960000
468.048309	146.080000
468.142029	145.740000
468.235718	145.840000
468.329437	145.620000
468.423096	145.520000
468.516846	145.420000
468.610504	145.300000
468.704224	144.940000
468.797913	145.120000
468.891632	144.960000
468.985291	145.080000
469.079010	145.500000
469.172729	145.040000
469.266418	145.460000
469.360107	145.560000
469.453827	145.520000
469.547516	145.380000
469.641205	146.320000
469.734924	146.300000
469.828613	146.560000
469.922302	146.680000
470.016022	146.660000
470.109711	146.400000
470.203430	145.640000
470.297150	144.480000
470.390808	144.660000
470.484558	144.540000
470.578217	145.040000
470.671936	145.760000
470.765625	146.960000
470.859344	146.560000
470.953003	146.940000
471.046753	146.280000
471.140411	145.600000
471.234131	145.340000
471.327820	146.100000
471.421539	146.140000
471.515228	146.120000
471.608948	146.740000
471.702637	146.180000
471.796326	145.700000
471.890045	145.420000
471.983734	145.400000
472.077423	144.780000
472.171143	145.300000
472.264832	145.100000
472.358521	145.020000
472.452240	145.040000
472.545929	145.760000
472.639648	145.960000
472.733337	146.320000
472.827057	146.260000
472.920746	146.400000
473.014465	146.700000
473.108124	146.280000
473.201874	146.320000
473.295532	146.280000
473.389252	146.580000
473.482941	146.080000
473.576660	146.020000
473.670319	145.820000
473.764069	146.040000
473.857727	146.120000
473.951477	146.640000
474.045166	147.140000
474.138855	146.940000
474.232574	146.840000
474.326263	146.640000
474.419952	146.520000
474.513672	146.280000
474.607361	146.400000
474.701050	146.740000
474.794769	146.940000
474.888458	146.980000
474.982178	147.020000
475.075867	147.220000
475.169586	146.840000
475.263275	146.540000
475.356995	146.320000
475.450653	146.020000
475.544403	145.700000
475.638062	146.640000
475.731812	146.160000
475.825470	146.280000
475.919189	146.260000
476.012878	146.380000
476.106598	145.240000
476.200256	145.840000
476.294006	145.600000
476.387695	145.940000
476.481384	145.960000
476.575104	146.360000
476.668793	145.860000
476.762512	145.220000
476.856201	145.440000
476.949890	145.300000
477.043610	144.740000
477.137299	144.860000
477.230988	145.600000
477.324707	145.120000
477.418396	145.780000
477.512146	146.000000
477.605804	145.920000
477.699524	146.060000
477.793213	145.960000
477.886932	145.520000
477.980591	145.680000
478.074341	145.720000
478.167999	145.060000
478.261749	145.360000
478.355408	145.200000
478.449127	145.300000
478.542816	146.000000
478.636536	146.600000
478.730225	146.620000
478.823944	146.960000
478.917633	147.100000
479.011322	146.920000
479.105042	147.100000
479.198730	147.340000
479.292450	147.220000
479.386139	147.240000
479.479828	147.260000
479.573547	147.240000
479.667267	146.820000
479.760925	146.960000
479.854675	147.000000
479.948334	146.940000
480.042084	146.340000
480.135742	146.720000
480.229462	146.100000
480.323151	145.980000
480.416870	145.380000
480.510529	145.580000
480.604279	144.760000
480.697937	145.240000
480.791656	144.920000
480.885345	144.960000
480.979065	144.820000
481.072754	145.800000
481.166473	145.960000
481.260132	146.040000
481.353882	146.120000
481.447540	146.140000
481.541260	145.980000
481.635010	145.480000
481.728668	145.200000
481.822388	145.180000
481.916077	145.800000
482.009796	145.580000
482.103485	146.020000
482.197205	146.640000
482.290863	146.500000
482.384613	145.780000
482.478271	145.440000
482.571991	145.280000
482.665680	144.840000
482.759399	146.000000
482.853058	146.400000
482.946808	146.400000
483.040466	146.240000
483.134216	146.300000
483.227875	145.300000
483.321594	145.560000
483.415283	145.780000
483.509003	145.580000
483.602661	145.540000
483.696411	145.900000
483.790070	145.340000
483.883789	145.240000
483.977478	145.920000
484.071198	146.020000
484.164917	145.960000
484.258606	145.840000
484.352325	146.280000
484.445984	145.880000
484.539734	145.960000
484.633392	145.400000
484.727142	145.580000
484.820801	145.120000
484.914520	145.140000
485.008209	145.400000
485.101929	146.060000
485.195587	146.120000
485.289337	146.120000
485.382996	145.940000
485.476715	145.740000
485.570404	145.960000
485.664124	145.860000
485.757782	146.480000
485.851532	146.440000
485.945190	146.200000
486.038910	146.420000
486.132599	146.880000
486.226318	146.040000
486.319977	146.120000
486.413727	146.920000
486.507446	146.240000
486.601105	145.520000
486.694855	145.500000
486.788513	145.660000
486.882233	145.200000
486.975922	145.180000
487.069641	145.460000
487.163300	145.460000
487.257050	146.300000
487.350708	146.020000
487.444427	145.740000
487.538116	145.700000
487.631836	145.880000
487.725494	145.080000
487.819214	145.120000
487.912903	145.380000
488.006622	145.480000
488.100281	145.760000
488.194031	145.780000
488.287689	146.220000
488.381409	146.820000
488.475098	146.960000
488.568817	147.060000
488.662476	146.720000
488.756226	146.260000
488.849945	145.200000
488.943604	145.280000
489.037354	145.240000
489.131012	145.320000
489.224731	145.420000
489.318390	145.660000
489.412140	145.560000
489.505798	145.420000
489.599518	145.220000
489.693207	145.420000
489.786926	145.380000
489.880585	145.060000
489.974335	145.300000
490.067993	146.460000
490.161713	146.360000
490.255371	147.080000
490.349121	147.240000
490.442780	146.840000
490.536499	145.720000
490.630188	145.900000
490.723907	145.460000
490.817566	145.740000
490.911285	145.980000
491.004974	146.180000
491.098694	145.680000
491.192413	146.260000
491.286102	145.820000
491.379822	145.760000
491.473480	145.960000
491.567200	146.180000
491.660889	145.480000
491.754608	145.800000
491.848267	145.960000
491.941986	145.600000
492.035675	145.600000
492.129395	146.120000
492.223053	145.660000
492.316772	145.940000
492.410461	146.180000
492.504181	146.320000
492.597839	145.720000
492.691559	146.200000
492.785248	145.760000
492.878967	145.960000
492.972626	145.700000
493.066345	145.860000
493.160034	145.260000
493.253754	145.200000
493.347412	144.660000
493.441132	144.920000
493.534882	145.320000
493.628540	145.800000
493.722260	146.180000
493.815918	146.440000
493.909668	146.600000
494.003326	146.700000
494.097046	146.440000
494.190704	146.040000
494.284454	146.400000
494.378113	146.420000
494.471832	146.260000
494.565491	146.160000
494.659210	146.420000
494.752899	146.100000
494.846619	145.500000
494.940277	145.500000
495.033997	145.720000
495.127686	145.040000
495.221405	144.760000
495.315063	145.060000
495.408783	145.080000
495.502441	145.320000
495.596191	145.600000
495.689850	145.740000
495.783569	146.140000
495.877228	146.100000
495.970947	145.540000
496.064697	145.660000
496.158356	146.700000
496.252075	146.360000
496.345734	146.100000
496.439453	147.200000
496.533142	147.300000
496.626862	147.020000
496.720520	147.040000
496.814240	147.280000
496.907898	146.500000
497.001617	146.640000
497.095306	145.880000
497.189026	145.760000
497.282684	145.580000
497.376404	145.920000
497.470062	145.560000
497.563782	145.600000
497.657471	145.660000
497.751190	145.460000
497.844849	144.820000
497.938568	145.000000
498.032227	145.020000
498.125946	144.940000
498.219635	144.880000
498.313354	145.660000
498.407074	145.480000
498.500732	145.740000
498.594452	146.000000
498.688110	145.900000
498.781830	145.220000
498.875519	145.260000
498.969238	144.920000
499.062897	144.740000
499.156616	145.380000
499.250275	145.780000
499.343994	145.620000
499.437653	145.800000
499.531372	145.920000
499.625061	146.400000
499.718781	146.600000
499.812439	146.940000
499.906158	146.880000
499.999817	146.920000
500.093536	146.180000
500.187195	145.960000
500.280914	145.820000
500.374573	146.080000
500.468323	145.540000
500.561981	145.820000
500.655701	145.220000
500.749420	145.420000
500.843079	145.520000
500.936798	146.120000
501.030457	146.260000
501.124176	146.860000
501.217834	146.540000
501.311554	146.320000
501.405212	146.160000
501.498962	145.260000
501.592621	145.140000
501.686340	145.720000
501.779999	145.700000
501.873718	145.740000
501.967377	146.260000
502.061096	146.360000
502.154755	145.440000
502.248474	145.640000
502.342133	145.860000
502.435852	145.700000
502.529510	146.360000
502.623230	147.120000
502.716888	146.680000
502.810608	146.340000
502.904266	146.920000
502.997986	146.380000
503.091705	145.920000
503.185364	145.980000
503.279083	145.960000
503.372772	145.540000
503.466492	145.160000
503.560150	145.540000
503.653870	145.780000
503.747528	146.120000
503.841248	146.160000
503.934906	146.420000
504.028625	146.260000
504.122284	146.440000
504.216003	146.860000
504.309662	146.600000
504.403381	146.740000
504.497040	146.940000
504.590759	146.580000
504.684418	146.520000
504.778137	147.040000
504.871796	147.420000
504.965515	146.940000
505.059174	147.100000
505.152893	146.340000
505.246521	145.780000
505.340240	145.120000
505.433899	145.400000
505.527618	145.580000
505.621338	145.980000
505.714996	145.740000
505.808716	145.960000
505.902374	146.320000
505.996094	146.040000
506.089752	145.740000
506.183472	146.080000
506.277130	146.160000
506.370850	145.820000
506.464508	145.840000
506.558228	146.000000
506.651886	145.820000
506.745605	145.840000
506.839264	145.780000
506.932983	146.080000
507.026611	145.940000
507.120331	146.640000
507.213989	146.160000
507.307709	146.260000
507.401367	146.280000
507.495087	147.140000
507.588745	146.540000
507.682465	147.420000
507.776123	147.260000
507.869843	147.180000
507.963531	146.300000
508.057190	146.760000
508.150909	145.600000
508.244568	146.080000
508.338287	145.720000
508.431946	145.760000
508.525665	145.540000
508.619324	145.780000
508.713013	145.720000
508.806671	146.060000
508.900391	146.600000
508.994049	146.660000
509.087769	146.440000
509.181427	146.380000
509.275146	145.960000
509.368774	145.260000
509.462494	145.340000
509.556152	145.800000
509.649872	146.000000
509.743530	146.400000
509.837250	146.560000
509.930878	146.360000
510.024597	146.360000
510.118256	146.100000
510.211975	145.880000
510.305695	145.720000
510.399353	145.880000
510.493042	146.100000
510.586700	146.160000
510.680420	146.520000
510.774078	146.380000
510.867798	146.480000
510.961426	146.000000
511.055145	145.620000
511.148804	145.340000
511.242523	146.200000
511.336151	146.280000
511.429871	146.820000
511.523529	147.020000
511.617249	146.760000
511.710876	146.140000
511.804596	146.040000
511.898254	145.780000
511.991974	145.940000
512.085632	145.980000
512.179321	145.880000
512.272949	145.920000
512.366699	146.060000
512.460327	145.900000
512.554077	146.520000
512.647766	146.560000
512.741394	146.260000
512.835144	146.520000
512.928772	146.680000
513.022461	146.500000
513.116150	146.620000
513.209839	147.240000
513.303467	146.600000
513.397217	146.020000
513.490845	145.720000
513.584595	145.600000
513.678223	144.820000
513.771912	144.260000
513.865601	144.620000
513.959290	144.140000
514.052917	144.200000
514.146667	145.040000
514.240295	145.980000
514.333984	146.240000
514.427673	146.380000
514.521362	146.580000
514.614990	145.640000
514.708740	145.580000
514.802368	145.480000
514.896057	145.780000
514.989746	146.340000
515.083435	146.480000
515.177124	146.820000
515.270752	146.340000
515.364502	146.440000
515.458130	146.320000
515.551819	146.520000
515.645508	146.120000
515.739197	146.340000
515.832825	146.240000
515.926575	145.680000
516.020203	145.780000
516.113892	146.120000
516.207520	146.200000
516.301270	146.100000
516.394897	146.220000
516.488586	146.780000
516.582275	146.680000
516.675964	146.120000
516.769592	146.260000
516.863281	146.760000
516.956970	146.440000
517.050659	146.180000
517.144287	146.540000
517.238037	146.580000
517.331665	145.900000
517.425354	145.480000
517.519043	145.400000
517.612732	145.920000
517.706421	146.100000
517.800049	145.920000
517.893738	145.620000
517.987427	145.800000
518.081116	145.480000
518.174744	145.020000
518.268433	145.520000
518.362122	146.560000
518.455811	146.180000
518.549438	146.580000
518.643127	147.500000
518.736816	147.160000
518.830505	146.300000
518.924133	146.540000
519.017822	146.440000
519.111511	145.760000
519.205200	146.300000
519.298828	146.640000
519.392517	146.480000
519.486206	146.480000
519.579895	146.800000
519.673523	146.560000
519.767212	146.460000
519.860901	146.880000
519.954590	146.800000
520.048279	146.060000
520.141907	145.660000
520.235596	146.280000
520.329224	146.360000
520.422974	146.180000
520.516602	146.400000
520.610291	146.520000
520.703918	146.300000
520.797607	145.580000
520.891296	145.500000
520.984985	145.920000
521.078613	146.440000
521.172302	145.920000
521.265930	147.280000
521.359680	147.860000
521.453308	147.560000
521.546997	147.500000
521.640625	147.660000
521.734314	146.600000
521.827942	146.480000
521.921692	146.760000
522.015320	146.400000
522.109009	146.400000
522.202698	146.380000
522.296326	145.940000
522.390015	146.220000
522.483704	146.200000
522.577393	146.080000
522.671021	145.900000
522.764709	145.740000
522.858337	145.900000
522.952026	146.080000
523.045654	146.580000
523.139404	147.380000
523.233032	147.520000
523.326721	147.000000
523.420349	146.860000
523.514038	146.420000
523.607666	146.460000
523.701355	146.200000
523.795044	146.160000
523.888733	146.360000
523.982361	146.160000
524.076050	145.720000
524.169678	146.340000
524.263367	146.000000
524.356995	145.620000
524.450684	146.000000
524.544373	145.700000
524.638062	145.400000
524.731750	145.780000
524.825378	146.040000
524.919067	145.520000
525.012695	145.780000
525.106384	145.600000
525.200012	145.520000
525.293701	145.400000
525.387329	145.980000
525.481018	146.320000
525.574646	146.860000
525.668396	146.960000
525.762024	147.180000
525.855713	147.220000
525.949341	146.700000
526.043030	146.600000
526.136658	146.320000
526.230347	146.240000
526.323975	145.880000
526.417664	145.860000
526.511292	145.460000
526.604980	145.760000
526.698608	145.440000
526.792297	145.440000
526.885925	145.700000
526.979614	146.200000
527.073303	145.960000
527.166931	146.380000
527.260620	146.520000
527.354309	146.740000
527.447998	146.280000
527.541626	146.380000
527.635315	146.040000
527.728943	146.820000
527.822632	146.780000
527.916260	146.920000
528.009949	147.280000
528.103577	147.180000
528.197266	146.100000
528.290894	145.820000
528.384583	145.760000
528.478210	145.460000
528.571899	145.940000
528.665527	146.560000
528.759216	146.980000
528.852844	147.380000
528.946533	147.580000
529.040161	147.300000
529.133850	147.020000
529.227478	146.800000
529.321167	146.960000
529.414856	147.080000
529.508484	147.440000
529.602173	146.780000
529.695801	146.480000
529.789490	146.180000
529.883057	146.060000
529.976746	146.340000
530.070374	147.100000
530.164062	147.180000
530.257690	147.280000
530.351379	147.600000
530.445007	146.780000
530.538696	146.180000
530.632324	146.860000
530.726013	146.940000
530.819641	146.560000
530.913330	146.900000
531.006958	147.080000
531.100647	146.640000
531.194275	146.420000
531.287964	146.120000
531.381592	146.040000
531.475220	146.260000
531.568848	146.180000
531.662537	146.000000
531.756226	146.640000
531.849854	146.400000
531.943542	146.360000
532.037170	145.920000
532.130859	146.600000
532.224487	146.220000
532.318176	146.200000
532.411804	146.620000
532.505432	147.060000
532.599060	146.340000
532.692749	146.000000
532.786377	146.320000
532.880066	145.540000
532.973694	145.060000
533.067383	145.000000
533.161011	145.220000
533.254639	145.040000
533.348267	145.100000
533.441956	145.600000
533.535583	145.840000
533.629272	146.340000
533.722900	145.820000
533.816589	145.980000
533.910156	146.340000
534.003845	145.920000
534.097534	145.540000
534.191162	146.760000
534.284851	147.000000
534.378479	146.320000
534.472107	146.640000
534.565735	146.600000
534.659424	146.420000
534.753052	146.680000
534.846741	146.600000
534.940369	147.140000
535.033997	146.980000
535.127625	146.940000
535.221313	147.040000
535.314941	147.060000
535.408630	146.240000
535.502197	146.480000
535.595886	146.040000
535.689514	145.660000
535.783203	146.220000
535.876831	147.040000
535.970459	147.240000
536.064087	146.920000
536.157776	147.000000
536.251404	146.900000
536.345093	146.320000
536.438721	146.160000
536.532349	146.620000
536.626038	146.400000
536.719666	146.580000
536.813293	146.560000
536.906921	146.460000
537.000610	146.700000
537.094238	146.740000
537.187866	146.400000
537.281494	146.480000
537.375183	146.840000
537.468811	146.540000
537.562439	146.620000
537.656067	146.640000
537.749756	146.400000
537.843384	146.560000
537.937012	146.720000
538.030640	146.500000
538.124329	146.720000
538.217896	147.120000
538.311584	146.840000
538.405212	146.680000
538.498901	147.020000
538.592468	147.500000
538.686157	146.760000
538.779785	146.180000
538.873413	146.120000
538.967102	145.780000
539.060730	145.200000
539.154358	145.920000
539.247986	146.440000
539.341675	146.440000
539.435242	146.460000
539.528931	146.680000
539.622559	146.220000
539.716187	146.560000
539.809814	146.560000
539.903503	146.700000
539.997070	146.520000
540.090759	146.560000
540.184387	146.060000
540.278015	146.680000
540.371643	146.820000
540.465332	146.800000
540.558899	146.800000
540.652588	146.820000
540.746216	146.140000
540.839844	146.220000
540.933472	146.340000
541.027100	146.540000
541.120728	146.520000
541.214417	146.820000
541.308044	147.000000
541.401672	146.460000
541.495300	146.140000
541.588928	146.100000
541.682617	145.640000
541.776184	145.300000
541.869873	145.940000
541.963440	146.300000
542.057129	146.380000
542.150757	146.640000
542.244385	146.240000
542.338013	145.780000
542.431641	145.760000
542.525269	145.460000
542.618958	145.880000
542.712524	146.340000
542.806213	146.180000
542.899780	146.080000
542.993469	146.100000
543.087036	145.640000
543.180725	144.940000
543.274292	145.300000
543.367981	145.400000
543.461548	145.940000
543.555237	146.020000
543.648926	147.080000
543.742493	147.940000
543.836182	147.580000
543.929749	147.320000
544.023437	147.280000
544.117004	146.960000
544.210693	146.320000
544.304260	146.720000
544.397949	146.940000
544.491516	147.220000
544.585205	147.260000
544.678772	146.460000
544.772461	146.880000
544.866028	146.460000
544.959717	146.440000
545.053284	145.820000
545.146973	146.800000
545.240540	146.440000
545.334229	147.340000
545.427795	147.400000
545.521423	148.100000
545.615051	147.720000
545.708679	148.240000
545.802307	147.720000
545.895935	147.960000
545.989624	148.260000
546.083191	148.000000
546.176880	147.580000
546.270447	147.320000
546.364136	147.520000
546.457703	147.100000
546.551331	147.280000
546.644958	147.520000
546.738586	147.580000
546.832214	146.920000
546.925842	146.340000
547.019409	146.400000
547.113098	145.680000
547.206665	145.240000
547.300354	145.220000
547.393921	145.960000
547.487549	146.220000
547.581177	146.280000
547.674805	146.460000
547.768433	145.740000
547.862061	145.440000
547.955627	144.820000
548.049316	145.480000
548.142883	145.900000
548.236572	146.720000
548.330139	146.940000
548.423767	147.060000
548.517456	146.940000
548.611023	146.780000
548.704651	146.160000
548.798279	146.020000
548.891907	146.620000
548.985474	146.340000
549.079163	146.560000
549.172729	146.620000
549.266357	145.920000
549.359985	145.720000
549.453613	145.100000
549.547180	144.720000
549.640869	145.260000
549.734436	145.560000
549.828064	145.780000
549.921631	146.320000
550.015320	146.040000
550.108887	146.340000
550.202515	146.400000
550.296143	146.060000
550.389771	146.280000
550.483337	146.880000
550.576965	146.540000
550.670593	146.980000
550.764221	146.880000
550.857849	146.700000
550.951477	146.040000
551.045105	145.800000
551.138672	145.780000
551.232300	145.300000
551.325928	145.380000
551.419556	145.840000
551.513123	146.000000
551.606750	145.820000
551.700378	146.020000
551.794006	145.740000
551.887573	145.660000
551.981201	145.920000
552.074768	145.760000
552.168457	145.840000
552.262024	147.040000
552.355652	146.700000
552.449219	147.080000
552.542847	147.220000
552.636475	146.940000
552.730103	145.940000
552.823669	146.320000
552.917297	145.480000
553.010864	145.360000
553.104553	145.760000
553.198181	145.100000
553.291748	145.340000
553.385376	145.680000
553.478943	145.620000
553.572571	145.620000
553.666199	146.360000
553.759827	146.000000
553.853394	145.620000
553.947021	145.880000
554.040588	145.800000
554.134216	145.680000
554.227783	146.500000
554.321411	147.140000
554.415039	146.460000
554.508667	146.460000
554.602234	146.740000
554.695862	145.960000
554.789429	145.600000
554.883057	146.100000
554.976624	146.400000
555.070251	146.220000
555.163818	145.960000
555.257507	145.840000
555.351074	145.680000
555.444702	146.360000
555.538330	146.200000
555.631897	146.800000
555.725525	146.720000
555.819092	146.900000
555.912720	145.720000
556.006287	146.240000
556.099915	146.040000
556.193481	146.120000
556.287109	146.200000
556.380676	146.120000
556.474304	146.140000
556.567871	146.340000
556.661499	145.980000
556.755066	146.020000
556.848694	146.700000
556.942261	146.540000
557.035889	146.340000
557.129517	146.980000
557.223145	147.160000
557.316711	146.920000
557.410339	146.680000
557.503906	146.700000
557.597473	146.840000
557.691040	146.700000
557.784668	146.560000
557.878296	146.580000
557.971863	146.700000
558.065491	146.640000
558.159058	146.600000
558.252686	147.220000
558.346252	147.740000
558.439880	147.440000
558.533447	146.820000
558.627075	146.360000
558.720642	145.820000
558.814270	145.580000
558.907837	145.580000
559.001465	145.620000
559.095032	146.500000
559.188660	146.580000
559.282227	145.860000
559.375854	146.280000
559.469360	146.220000
559.562988	146.260000
559.656555	146.340000
559.750183	146.960000
559.843750	147.040000
559.937378	147.320000
560.030945	147.000000
560.124573	0.000000
560.218140	0.000000
560.311707	0.000000
560.405334	0.000000
560.498901	0.000000
560.592529	0.000000
560.686096	0.000000
560.779724	0.000000
560.873291	0.000000
560.966858	0.000000
561.060425	0.000000
561.154053	0.000000
561.247620	0.000000
561.341248	0.000000
561.434814	0.000000
561.528381	0.000000
561.621948	0.000000
561.715576	0.000000
561.809143	0.000000
561.902771	0.000000
561.996277	0.000000
562.089905	0.000000
562.183472	0.000000
562.277100	0.000000
