Model Number: SPM-002-B   
Serial Number: 70087108
Firmware Version: 004.15.4
Exposure Time: 100000.000000us
Data Taken on: 11-12-2020 19:36:24.682
Wavelength	Amplitude
221.570786	0.000000
221.663406	0.000000
221.756027	0.000000
221.848648	0.000000
221.941269	0.000000
222.033905	0.000000
222.126526	0.000000
222.219162	0.000000
222.311798	0.000000
222.404419	0.000000
222.497055	0.000000
222.589676	0.000000
222.682312	0.000000
222.774933	0.000000
222.867569	0.000000
222.960205	0.000000
223.052841	0.000000
223.145462	0.000000
223.238098	0.000000
223.330734	0.000000
223.423386	0.000000
223.516022	0.000000
223.608658	0.000000
223.701309	0.000000
223.793945	0.000000
223.886581	0.000000
223.979218	0.000000
224.071869	0.000000
224.164505	0.000000
224.257156	0.000000
224.349792	0.000000
224.442444	0.000000
224.535095	0.000000
224.627747	0.000000
224.720398	0.000000
224.813034	0.000000
224.905685	0.000000
224.998337	145.960000
225.090988	146.080000
225.183640	146.140000
225.276291	145.740000
225.368942	146.140000
225.461594	146.520000
225.554245	146.880000
225.646912	146.760000
225.739578	147.040000
225.832230	147.240000
225.924896	146.420000
226.017548	146.620000
226.110199	147.420000
226.202866	146.820000
226.295532	146.460000
226.388184	146.620000
226.480850	146.000000
226.573517	145.420000
226.666168	145.940000
226.758835	146.580000
226.851501	147.140000
226.944183	147.220000
227.036850	147.080000
227.129517	146.740000
227.222183	146.720000
227.314850	146.500000
227.407516	146.800000
227.500198	147.500000
227.592865	147.080000
227.685532	146.720000
227.778214	146.420000
227.870880	146.620000
227.963562	146.580000
228.056229	147.140000
228.148926	147.160000
228.241592	147.860000
228.334274	147.620000
228.426956	147.220000
228.519638	147.400000
228.612305	147.140000
228.704987	146.980000
228.797668	146.860000
228.890350	146.820000
228.983032	145.860000
229.075714	146.420000
229.168396	145.900000
229.261108	145.660000
229.353790	145.660000
229.446472	146.280000
229.539169	146.000000
229.631851	145.660000
229.724533	145.940000
229.817230	146.180000
229.909912	147.080000
230.002609	146.920000
230.095306	147.300000
230.187988	147.500000
230.280685	147.140000
230.373383	146.160000
230.466095	146.000000
230.558792	146.400000
230.651474	146.260000
230.744171	146.100000
230.836868	146.180000
230.929581	146.480000
231.022278	146.280000
231.114975	146.200000
231.207672	146.220000
231.300369	146.480000
231.393082	146.540000
231.485779	146.240000
231.578506	145.840000
231.671204	146.040000
231.763916	146.000000
231.856613	146.080000
231.949326	146.200000
232.042023	146.560000
232.134735	146.500000
232.227448	146.260000
232.320160	146.340000
232.412872	146.280000
232.505585	146.860000
232.598297	147.340000
232.691010	147.180000
232.783722	146.680000
232.876450	147.320000
232.969162	146.600000
233.061874	145.740000
233.154587	145.300000
233.247314	145.440000
233.340027	144.860000
233.432739	145.440000
233.525467	145.860000
233.618179	146.720000
233.710907	146.460000
233.803635	146.840000
233.896347	146.380000
233.989090	146.840000
234.081818	146.380000
234.174545	146.780000
234.267258	146.240000
234.359985	146.560000
234.452713	146.160000
234.545441	146.120000
234.638168	146.020000
234.730896	146.640000
234.823639	146.540000
234.916367	146.960000
235.009094	147.240000
235.101822	147.040000
235.194580	146.820000
235.287308	146.760000
235.380051	145.920000
235.472778	146.120000
235.565521	146.780000
235.658249	146.300000
235.750992	146.220000
235.843719	146.620000
235.936462	146.500000
236.029205	145.640000
236.121948	145.760000
236.214691	146.280000
236.307449	146.900000
236.400192	146.680000
236.492935	146.720000
236.585678	146.720000
236.678421	146.340000
236.771164	145.880000
236.863907	146.480000
236.956665	146.960000
237.049408	148.380000
237.142151	148.140000
237.234909	148.660000
237.327652	148.200000
237.420410	148.000000
237.513153	147.040000
237.605927	146.960000
237.698669	146.240000
237.791428	145.800000
237.884186	146.180000
237.976944	145.560000
238.069702	145.860000
238.162445	145.640000
238.255203	146.040000
238.347961	146.200000
238.440720	146.260000
238.533478	145.920000
238.626266	145.720000
238.719025	145.860000
238.811783	145.340000
238.904541	145.400000
238.997314	145.400000
239.090073	145.420000
239.182831	145.600000
239.275604	146.500000
239.368362	146.500000
239.461136	146.860000
239.553909	147.060000
239.646667	146.680000
239.739441	145.960000
239.832214	146.520000
239.925003	146.420000
240.017761	146.980000
240.110535	147.640000
240.203308	147.440000
240.296082	147.040000
240.388855	147.100000
240.481628	147.020000
240.574417	146.940000
240.667191	147.160000
240.759964	147.180000
240.852737	146.860000
240.945526	146.720000
241.038315	146.380000
241.131088	146.380000
241.223877	146.380000
241.316650	146.200000
241.409439	146.520000
241.502228	146.380000
241.595001	146.660000
241.687790	146.680000
241.780579	146.900000
241.873367	146.660000
241.966141	146.880000
242.058929	146.160000
242.151718	146.080000
242.244507	146.760000
242.337311	145.920000
242.430099	146.380000
242.522903	146.800000
242.615692	146.560000
242.708481	145.940000
242.801270	146.840000
242.894073	146.420000
242.986862	146.160000
243.079651	146.800000
243.172455	146.560000
243.265244	146.440000
243.358063	145.960000
243.450867	146.520000
243.543655	146.080000
243.636459	146.320000
243.729263	146.440000
243.822067	146.740000
243.914856	146.960000
244.007660	147.340000
244.100464	147.500000
244.193268	147.200000
244.286072	147.300000
244.378876	146.520000
244.471680	146.200000
244.564499	146.440000
244.657318	146.900000
244.750122	146.980000
244.842926	146.700000
244.935745	146.980000
245.028549	146.440000
245.121368	145.960000
245.214172	145.560000
245.306992	146.180000
245.399796	145.700000
245.492615	145.800000
245.585434	145.740000
245.678253	145.920000
245.771072	145.660000
245.863892	145.980000
245.956711	146.260000
246.049530	146.100000
246.142349	145.860000
246.235168	145.820000
246.327988	146.420000
246.420807	146.260000
246.513626	146.520000
246.606445	146.560000
246.699280	146.900000
246.792099	146.120000
246.884918	145.880000
246.977753	145.400000
247.070587	145.620000
247.163422	145.340000
247.256241	145.580000
247.349075	146.060000
247.441895	146.660000
247.534729	146.560000
247.627563	146.540000
247.720383	147.080000
247.813217	146.540000
247.906052	146.260000
247.998886	146.400000
248.091736	146.520000
248.184570	145.980000
248.277405	146.380000
248.370239	147.200000
248.463074	148.060000
248.555908	148.160000
248.648743	148.180000
248.741592	148.320000
248.834427	147.600000
248.927261	146.500000
249.020111	147.080000
249.112946	147.460000
249.205795	146.660000
249.298630	146.700000
249.391495	146.640000
249.484344	145.680000
249.577179	145.700000
249.670029	146.460000
249.762878	146.960000
249.855728	147.200000
249.948563	147.420000
250.041412	146.780000
250.134262	146.540000
250.227112	146.360000
250.319962	146.560000
250.412827	146.780000
250.505692	146.560000
250.598541	146.500000
250.691391	146.080000
250.784241	145.840000
250.877106	145.900000
250.969955	145.820000
251.062805	146.360000
251.155670	147.160000
251.248520	147.000000
251.341385	146.780000
251.434235	146.920000
251.527100	146.500000
251.619965	145.700000
251.712814	146.420000
251.805695	146.460000
251.898560	146.700000
251.991425	146.660000
252.084290	147.000000
252.177155	146.160000
252.270020	145.960000
252.362885	145.720000
252.455750	145.980000
252.548615	145.580000
252.641479	145.820000
252.734360	145.800000
252.827240	145.800000
252.920105	145.760000
253.012970	145.680000
253.105850	145.400000
253.198715	145.160000
253.291595	145.400000
253.384460	144.920000
253.477341	144.800000
253.570221	145.240000
253.663086	145.520000
253.755966	146.020000
253.848846	146.320000
253.941727	146.700000
254.034592	146.660000
254.127472	146.120000
254.220367	145.760000
254.313248	145.600000
254.406128	145.160000
254.499008	144.940000
254.591904	145.840000
254.684784	146.500000
254.777664	146.660000
254.870544	146.740000
254.963440	146.640000
255.056335	146.560000
255.149216	145.920000
255.242111	146.320000
255.334991	146.540000
255.427887	146.860000
255.520767	147.000000
255.613663	147.180000
255.706558	146.680000
255.799438	146.820000
255.892334	146.560000
255.985229	146.060000
256.078125	146.080000
256.171021	146.040000
256.263916	146.460000
256.356812	146.620000
256.449707	147.080000
256.542603	146.640000
256.635498	147.160000
256.728394	146.720000
256.821289	146.460000
256.914215	146.420000
257.007080	146.640000
257.100006	146.420000
257.192932	146.860000
257.285828	147.120000
257.378723	146.720000
257.471619	146.700000
257.564545	146.220000
257.657440	145.840000
257.750336	146.420000
257.843262	146.340000
257.936157	147.280000
258.029053	148.000000
258.121979	148.340000
258.214874	147.760000
258.307800	148.120000
258.400696	147.040000
258.493622	146.780000
258.586517	145.720000
258.679443	145.900000
258.772339	145.440000
258.865265	145.400000
258.958160	144.920000
259.051086	145.960000
259.144012	145.920000
259.236938	146.820000
259.329834	146.980000
259.422791	147.180000
259.515717	146.600000
259.608612	146.220000
259.701538	145.940000
259.794464	145.800000
259.887390	145.740000
259.980316	145.800000
260.073212	145.940000
260.166138	145.080000
260.259064	145.440000
260.351990	146.180000
260.444916	146.240000
260.537842	146.840000
260.630768	147.600000
260.723694	147.180000
260.816620	147.000000
260.909546	146.980000
261.002472	146.200000
261.095398	145.720000
261.188354	145.940000
261.281281	145.160000
261.374207	145.200000
261.467133	145.980000
261.560089	146.200000
261.653015	145.840000
261.745972	146.580000
261.838867	146.960000
261.931824	146.940000
262.024780	146.580000
262.117706	147.000000
262.210663	147.080000
262.303589	146.920000
262.396515	146.640000
262.489471	147.600000
262.582397	147.500000
262.675354	147.020000
262.768280	146.820000
262.861237	146.920000
262.954163	146.600000
263.047119	146.740000
263.140045	146.640000
263.233002	146.820000
263.325958	146.580000
263.418884	146.220000
263.511841	146.240000
263.604797	146.320000
263.697723	146.180000
263.790680	146.220000
263.883636	146.780000
263.976593	146.420000
264.069550	146.740000
264.162476	146.440000
264.255463	146.620000
264.348419	145.940000
264.441376	146.220000
264.534332	145.580000
264.627289	145.760000
264.720245	146.200000
264.813202	146.160000
264.906158	146.420000
264.999115	147.120000
265.092072	147.140000
265.185028	147.180000
265.277985	147.260000
265.370941	146.960000
265.463898	146.500000
265.556854	146.260000
265.649811	145.300000
265.742798	145.260000
265.835754	145.040000
265.928711	145.540000
266.021667	145.860000
266.114655	146.280000
266.207611	146.660000
266.300568	146.520000
266.393585	146.080000
266.486511	146.360000
266.579498	145.700000
266.672485	145.580000
266.765442	145.640000
266.858429	146.200000
266.951385	145.760000
267.044342	145.980000
267.137329	145.680000
267.230316	146.020000
267.323273	145.500000
267.416260	146.360000
267.509216	146.260000
267.602203	146.480000
267.695160	146.900000
267.788147	146.860000
267.881134	145.960000
267.974091	146.500000
268.067078	146.680000
268.160065	146.140000
268.253052	145.860000
268.346008	146.160000
268.438995	145.780000
268.531982	145.680000
268.624969	145.420000
268.717987	145.920000
268.810944	145.620000
268.903961	145.820000
268.996948	145.560000
269.089905	146.480000
269.182892	146.480000
269.275879	146.900000
269.368866	146.320000
269.461853	146.660000
269.554871	146.000000
269.647858	145.960000
269.740845	146.100000
269.833832	146.800000
269.926819	146.520000
270.019806	146.780000
270.112793	146.560000
270.205811	146.460000
270.298798	146.120000
270.391785	146.620000
270.484772	146.400000
270.577789	146.720000
270.670776	146.500000
270.763763	146.560000
270.856750	146.520000
270.949768	146.240000
271.042786	146.020000
271.135773	145.960000
271.228790	146.360000
271.321808	145.940000
271.414795	145.900000
271.507782	145.720000
271.600800	145.580000
271.693817	145.540000
271.786804	145.900000
271.879822	146.100000
271.972809	146.260000
272.065826	146.840000
272.158844	146.440000
272.251831	146.980000
272.344849	147.140000
272.437866	146.740000
272.530853	146.800000
272.623871	146.980000
272.716888	145.800000
272.809906	146.340000
272.902893	146.720000
272.995911	146.180000
273.088928	146.360000
273.181946	146.660000
273.274963	145.940000
273.367981	145.500000
273.460999	145.480000
273.554047	145.760000
273.647003	146.640000
273.740051	146.760000
273.833069	147.360000
273.926086	147.520000
274.019135	147.200000
274.112152	146.440000
274.205170	146.420000
274.298187	146.620000
274.391205	146.000000
274.484222	146.020000
274.577240	146.380000
274.670258	146.340000
274.763306	145.880000
274.856323	146.780000
274.949341	146.760000
275.042358	146.840000
275.135406	146.680000
275.228424	147.080000
275.321442	146.760000
275.414490	146.420000
275.507507	146.480000
275.600525	147.140000
275.693573	146.600000
275.786591	146.460000
275.879669	147.060000
275.972656	146.760000
276.065735	146.160000
276.158752	146.940000
276.251801	147.600000
276.344818	147.240000
276.437866	147.080000
276.530884	147.020000
276.623932	146.060000
276.716980	146.020000
276.809998	146.100000
276.903046	146.180000
276.996094	147.260000
277.089111	148.140000
277.182159	148.380000
277.275208	148.420000
277.368256	148.200000
277.461304	147.380000
277.554321	146.660000
277.647369	146.140000
277.740417	146.040000
277.833466	146.060000
277.926514	145.960000
278.019562	146.680000
278.112610	146.380000
278.205688	146.520000
278.298706	146.700000
278.391785	146.460000
278.484833	145.820000
278.577881	145.800000
278.670929	145.480000
278.763977	145.760000
278.857025	146.380000
278.950073	146.480000
279.043121	146.380000
279.136169	146.780000
279.229248	146.220000
279.322296	146.120000
279.415344	146.120000
279.508392	145.960000
279.601440	145.700000
279.694519	145.680000
279.787567	145.380000
279.880615	145.240000
279.973694	145.360000
280.066742	145.640000
280.159790	145.960000
280.252869	145.840000
280.345917	146.040000
280.438995	146.340000
280.532074	145.960000
280.625122	146.260000
280.718201	147.060000
280.811279	146.940000
280.904327	146.780000
280.997406	147.260000
281.090454	147.160000
281.183533	146.420000
281.276581	146.520000
281.369659	146.240000
281.462738	146.060000
281.555786	146.020000
281.648865	146.200000
281.741943	146.000000
281.835022	146.640000
281.928070	146.380000
282.021149	146.180000
282.114227	146.100000
282.207306	146.360000
282.300385	146.780000
282.393433	146.820000
282.486511	146.700000
282.579590	147.060000
282.672668	147.240000
282.765747	146.180000
282.858856	145.960000
282.951904	146.420000
283.045013	146.420000
283.138062	146.480000
283.231171	147.160000
283.324249	147.820000
283.417328	147.540000
283.510406	147.180000
283.603485	147.060000
283.696564	146.760000
283.789642	146.760000
283.882751	146.620000
283.975830	147.140000
284.068909	146.660000
284.161987	147.420000
284.255066	146.800000
284.348175	147.120000
284.441254	146.980000
284.534332	147.480000
284.627441	146.460000
284.720520	146.380000
284.813599	146.200000
284.906708	146.260000
284.999786	145.660000
285.092896	145.540000
285.185974	146.520000
285.279053	146.100000
285.372192	146.200000
285.465240	147.140000
285.558380	147.320000
285.651459	146.440000
285.744568	147.320000
285.837677	146.800000
285.930756	146.440000
286.023865	146.600000
286.116943	146.560000
286.210052	146.440000
286.303162	146.320000
286.396240	146.280000
286.489349	146.160000
286.582458	146.740000
286.675568	146.460000
286.768646	146.700000
286.861755	147.100000
286.954865	147.760000
287.047974	146.900000
287.141083	146.740000
287.234161	146.400000
287.327271	145.920000
287.420380	146.060000
287.513519	146.340000
287.606598	146.540000
287.699738	146.880000
287.792816	146.740000
287.885956	146.100000
287.979034	146.140000
288.072174	146.180000
288.165283	146.200000
288.258392	146.560000
288.351501	146.320000
288.444611	146.560000
288.537720	146.880000
288.630859	146.940000
288.723969	147.040000
288.817078	147.640000
288.910187	147.480000
289.003296	146.800000
289.096436	146.520000
289.189545	146.440000
289.282654	146.060000
289.375763	146.640000
289.468903	147.400000
289.562012	147.580000
289.655121	147.460000
289.748260	147.400000
289.841400	147.320000
289.934509	146.780000
290.027649	147.020000
290.120728	146.600000
290.213898	146.640000
290.306976	146.280000
290.400146	146.440000
290.493256	145.720000
290.586395	146.140000
290.679535	146.440000
290.772644	146.300000
290.865784	145.600000
290.958893	145.840000
291.052032	145.720000
291.145172	145.620000
291.238281	145.480000
291.331421	145.860000
291.424561	146.660000
291.517670	146.360000
291.610809	146.420000
291.703949	146.380000
291.797089	146.360000
291.890228	145.620000
291.983337	145.900000
292.076477	145.580000
292.169617	146.020000
292.262756	146.100000
292.355927	146.260000
292.449036	146.020000
292.542206	146.240000
292.635315	146.240000
292.728485	146.620000
292.821625	146.300000
292.914764	147.320000
293.007904	147.560000
293.101044	147.480000
293.194183	147.140000
293.287323	147.420000
293.380463	146.740000
293.473602	146.000000
293.566742	146.440000
293.659882	146.880000
293.753021	146.880000
293.846191	146.680000
293.939331	146.740000
294.032471	146.220000
294.125610	145.620000
294.218781	146.040000
294.311920	146.560000
294.405060	146.960000
294.498230	146.820000
294.591370	147.180000
294.684540	146.160000
294.777679	145.580000
294.870850	146.060000
294.963959	146.080000
295.057159	145.760000
295.150299	146.580000
295.243469	146.560000
295.336609	145.820000
295.429779	146.000000
295.522919	146.560000
295.616089	146.560000
295.709229	147.100000
295.802399	147.340000
295.895569	147.200000
295.988708	146.760000
296.081879	146.640000
296.175018	146.400000
296.268188	146.300000
296.361359	146.900000
296.454529	147.020000
296.547668	147.040000
296.640839	146.980000
296.734009	146.860000
296.827179	146.640000
296.920319	147.040000
297.013519	146.820000
297.106659	147.220000
297.199860	147.580000
297.292999	147.500000
297.386200	147.020000
297.479309	146.720000
297.572510	146.680000
297.665680	146.280000
297.758850	146.540000
297.852020	146.400000
297.945190	146.320000
298.038361	145.660000
298.131531	146.660000
298.224701	146.380000
298.317871	146.300000
298.411072	146.400000
298.504242	146.500000
298.597412	145.540000
298.690582	145.800000
298.783752	145.820000
298.876923	146.360000
298.970093	146.520000
299.063293	147.000000
299.156464	147.200000
299.249634	147.520000
299.342834	147.500000
299.436005	147.740000
299.529205	147.660000
299.622345	147.380000
299.715576	146.980000
299.808716	146.560000
299.901917	146.500000
299.995117	146.560000
300.088287	146.460000
300.181488	146.260000
300.274658	146.200000
300.367828	146.300000
300.461029	146.440000
300.554199	146.720000
300.647400	147.280000
300.740601	147.900000
300.833771	147.340000
300.926971	147.160000
301.020142	146.340000
301.113342	145.940000
301.206512	145.640000
301.299713	145.960000
301.392914	146.000000
301.486084	146.840000
301.579285	146.980000
301.672516	147.380000
301.765686	147.420000
301.858887	147.180000
301.952057	146.640000
302.045288	146.740000
302.138458	146.440000
302.231659	146.160000
302.324860	146.220000
302.418060	145.880000
302.511261	145.800000
302.604462	146.000000
302.697662	146.060000
302.790863	145.900000
302.884064	146.040000
302.977264	145.780000
303.070465	145.700000
303.163666	146.180000
303.256866	146.480000
303.350067	146.640000
303.443268	146.660000
303.536469	146.780000
303.629669	146.400000
303.722870	146.440000
303.816071	146.420000
303.909271	146.700000
304.002472	146.000000
304.095673	145.760000
304.188934	145.000000
304.282104	145.500000
304.375336	145.360000
304.468506	145.620000
304.561768	145.460000
304.654968	146.300000
304.748169	145.820000
304.841370	145.920000
304.934601	146.140000
305.027802	146.140000
305.121002	145.500000
305.214233	145.420000
305.307434	145.320000
305.400665	145.740000
305.493866	145.940000
305.587097	146.520000
305.680298	146.380000
305.773499	147.000000
305.866730	146.680000
305.959930	146.960000
306.053162	146.840000
306.146393	147.000000
306.239594	146.180000
306.332825	146.160000
306.426025	146.280000
306.519287	145.940000
306.612488	145.820000
306.705719	145.960000
306.798920	146.120000
306.892181	145.560000
306.985352	145.580000
307.078613	145.200000
307.171844	145.460000
307.265045	144.860000
307.358276	144.800000
307.451508	145.240000
307.544739	146.300000
307.637970	145.960000
307.731201	146.140000
307.824402	147.020000
307.917633	146.940000
308.010864	146.960000
308.104095	147.320000
308.197327	147.180000
308.290558	146.860000
308.383789	146.460000
308.477020	145.780000
308.570251	145.380000
308.663483	145.340000
308.756714	145.060000
308.849976	145.280000
308.943176	145.880000
309.036438	145.800000
309.129639	145.840000
309.222900	145.920000
309.316101	145.720000
309.409393	144.940000
309.502625	144.740000
309.595856	144.720000
309.689087	144.900000
309.782318	144.960000
309.875580	145.200000
309.968811	145.780000
310.062042	145.840000
310.155273	145.440000
310.248535	145.820000
310.341766	145.880000
310.434998	145.700000
310.528259	145.740000
310.621490	146.500000
310.714722	145.640000
310.807983	146.000000
310.901215	145.880000
310.994476	146.000000
311.087708	145.340000
311.181000	146.040000
311.274200	145.320000
311.367462	145.620000
311.460693	145.020000
311.553986	145.800000
311.647186	145.840000
311.740479	146.920000
311.833710	146.620000
311.926971	146.880000
312.020203	145.880000
312.113464	145.540000
312.206726	144.520000
312.299957	144.880000
312.393219	145.660000
312.486481	146.140000
312.579712	146.360000
312.672974	146.560000
312.766235	146.180000
312.859497	145.800000
312.952759	145.460000
313.045990	146.180000
313.139252	146.080000
313.232513	146.660000
313.325775	146.440000
313.419037	146.320000
313.512299	145.320000
313.605530	145.980000
313.698822	145.800000
313.792053	145.920000
313.885345	145.920000
313.978577	146.020000
314.071869	145.240000
314.165131	145.160000
314.258392	145.500000
314.351654	145.840000
314.444916	145.380000
314.538177	146.140000
314.631439	146.480000
314.724701	145.920000
314.817993	145.740000
314.911255	146.260000
315.004517	145.540000
315.097778	145.340000
315.191040	146.060000
315.284302	146.440000
315.377594	146.300000
315.470856	146.580000
315.564117	145.980000
315.657379	145.120000
315.750671	144.560000
315.843933	144.800000
315.937195	144.280000
316.030518	144.360000
316.123749	144.600000
316.217041	145.600000
316.310303	145.580000
316.403595	146.140000
316.496857	146.620000
316.590149	147.280000
316.683411	146.480000
316.776703	146.320000
316.869965	146.320000
316.963257	145.940000
317.056519	145.080000
317.149811	145.040000
317.243073	145.120000
317.336365	145.140000
317.429626	145.620000
317.522919	145.880000
317.616180	145.980000
317.709473	145.700000
317.802765	145.400000
317.896027	145.140000
317.989319	145.380000
318.082611	145.380000
318.175873	145.540000
318.269165	145.920000
318.362488	145.900000
318.455750	145.800000
318.549042	146.380000
318.642303	146.620000
318.735626	146.200000
318.828888	146.340000
318.922211	145.740000
319.015472	145.720000
319.108765	145.200000
319.202057	144.940000
319.295349	145.160000
319.388641	145.400000
319.481934	145.100000
319.575226	145.180000
319.668518	145.600000
319.761810	145.320000
319.855103	145.740000
319.948395	145.640000
320.041687	145.860000
320.134979	145.940000
320.228271	145.920000
320.321564	145.820000
320.414856	145.980000
320.508148	145.780000
320.601440	145.760000
320.694763	145.780000
320.788025	146.300000
320.881348	146.080000
320.974640	146.220000
321.067963	145.840000
321.161224	145.800000
321.254547	144.940000
321.347839	145.680000
321.441162	145.540000
321.534454	145.880000
321.627747	145.800000
321.721069	146.380000
321.814362	145.960000
321.907654	145.940000
322.000946	145.800000
322.094269	146.400000
322.187561	146.040000
322.280884	146.280000
322.374176	146.400000
322.467468	146.980000
322.560791	146.780000
322.654083	147.240000
322.747406	146.920000
322.840698	147.360000
322.934021	147.620000
323.027344	147.840000
323.120636	147.460000
323.213959	147.440000
323.307251	146.560000
323.400574	146.020000
323.493866	145.400000
323.587219	145.780000
323.680511	146.120000
323.773834	146.420000
323.867157	146.560000
323.960449	146.900000
324.053772	146.600000
324.147095	146.560000
324.240387	147.500000
324.333710	147.300000
324.427032	147.100000
324.520355	147.040000
324.613647	146.540000
324.706970	145.940000
324.800293	145.820000
324.893616	145.980000
324.986938	146.360000
325.080231	146.100000
325.173553	146.440000
325.266876	147.020000
325.360199	147.140000
325.453522	146.420000
325.546875	146.460000
325.640167	146.340000
325.733521	146.180000
325.826813	146.180000
325.920166	146.300000
326.013489	146.440000
326.106812	145.600000
326.200134	145.280000
326.293457	144.740000
326.386780	145.100000
326.480103	144.920000
326.573425	145.260000
326.666748	145.360000
326.760071	145.720000
326.853424	145.440000
326.946747	145.580000
327.040070	146.400000
327.133392	146.280000
327.226715	145.820000
327.320068	145.680000
327.413391	146.200000
327.506714	145.180000
327.600037	145.340000
327.693390	145.540000
327.786713	145.600000
327.880066	145.300000
327.973358	145.960000
328.066742	146.100000
328.160034	146.440000
328.253418	146.680000
328.346710	146.540000
328.440063	146.120000
328.533417	145.660000
328.626740	145.580000
328.720093	145.380000
328.813416	145.140000
328.906769	144.960000
329.000092	145.380000
329.093445	145.260000
329.186768	145.120000
329.280121	145.780000
329.373444	146.080000
329.466797	145.920000
329.560120	145.960000
329.653473	146.280000
329.746796	145.700000
329.840149	145.820000
329.933502	145.880000
330.026825	145.760000
330.120178	145.680000
330.213562	145.800000
330.306854	145.700000
330.400238	145.440000
330.493561	145.480000
330.586945	146.000000
330.680237	146.200000
330.773621	146.260000
330.866974	146.340000
330.960327	146.660000
331.053680	145.940000
331.147003	145.900000
331.240356	146.260000
331.333710	146.320000
331.427063	145.920000
331.520416	146.080000
331.613770	145.880000
331.707123	145.780000
331.800476	145.920000
331.893829	146.900000
331.987152	147.100000
332.080505	147.240000
332.173859	146.960000
332.267212	146.440000
332.360565	145.560000
332.453918	145.340000
332.547333	145.380000
332.640656	145.740000
332.734039	146.260000
332.827362	145.900000
332.920746	146.080000
333.014069	146.080000
333.107452	146.020000
333.200806	146.080000
333.294159	146.400000
333.387543	145.900000
333.480896	145.760000
333.574249	145.520000
333.667603	145.240000
333.760956	145.560000
333.854340	145.740000
333.947693	145.540000
334.041046	145.540000
334.134430	145.660000
334.227783	145.160000
334.321136	145.280000
334.414520	145.240000
334.507874	145.480000
334.601227	145.820000
334.694611	145.940000
334.787964	145.740000
334.881348	145.960000
334.974701	145.960000
335.068085	145.220000
335.161438	145.840000
335.254822	145.960000
335.348175	146.040000
335.441559	145.560000
335.534943	146.420000
335.628296	145.760000
335.721680	145.820000
335.815033	146.060000
335.908417	146.340000
336.001770	146.220000
336.095154	146.280000
336.188538	145.900000
336.281891	145.320000
336.375275	144.980000
336.468658	144.500000
336.562012	144.640000
336.655396	145.160000
336.748779	145.820000
336.842133	145.900000
336.935516	146.160000
337.028900	145.580000
337.122284	145.620000
337.215637	145.440000
337.309021	145.280000
337.402435	145.060000
337.495789	145.540000
337.589203	145.400000
337.682526	145.260000
337.775940	145.800000
337.869324	146.060000
337.962708	145.560000
338.056091	146.000000
338.149475	145.740000
338.242859	145.680000
338.336243	145.440000
338.429626	145.960000
338.523010	145.620000
338.616394	145.680000
338.709778	145.700000
338.803162	145.740000
338.896545	145.400000
338.989929	145.020000
339.083313	145.360000
339.176697	145.120000
339.270081	144.960000
339.363464	145.660000
339.456848	146.060000
339.550232	145.480000
339.643616	145.140000
339.737030	145.200000
339.830383	144.520000
339.923828	144.460000
340.017181	144.820000
340.110596	145.320000
340.203949	145.400000
340.297363	145.320000
340.390778	145.440000
340.484161	145.560000
340.577545	145.540000
340.670959	145.440000
340.764343	145.800000
340.857727	145.520000
340.951111	144.860000
341.044525	144.880000
341.137909	144.460000
341.231293	144.180000
341.324707	143.920000
341.418091	144.780000
341.511505	144.780000
341.604889	145.520000
341.698303	146.060000
341.791687	146.140000
341.885071	145.720000
341.978485	145.420000
342.071899	145.280000
342.165283	145.360000
342.258698	145.780000
342.352081	146.040000
342.445496	146.700000
342.538879	146.840000
342.632324	146.280000
342.725708	146.380000
342.819122	146.140000
342.912506	145.640000
343.005920	145.240000
343.099335	145.880000
343.192719	145.420000
343.286133	145.160000
343.379547	145.660000
343.472931	145.860000
343.566345	145.240000
343.659760	145.780000
343.753143	145.980000
343.846558	145.280000
343.939972	145.160000
344.033386	145.600000
344.126770	145.200000
344.220184	145.360000
344.313599	145.940000
344.407043	145.880000
344.500427	145.120000
344.593872	145.440000
344.687225	145.160000
344.780670	144.780000
344.874054	144.540000
344.967499	145.200000
345.060913	145.380000
345.154327	145.500000
345.247742	145.200000
345.341156	145.260000
345.434570	145.100000
345.527985	144.660000
345.621399	144.660000
345.714813	145.060000
345.808228	145.420000
345.901642	145.080000
345.995056	145.000000
346.088470	145.380000
346.181885	145.360000
346.275299	145.320000
346.368713	145.600000
346.462128	145.340000
346.555573	144.960000
346.648987	145.140000
346.742401	144.840000
346.835815	145.040000
346.929260	145.080000
347.022644	145.280000
347.116119	145.180000
347.209503	145.560000
347.302948	146.380000
347.396362	147.040000
347.489807	147.140000
347.583221	147.620000
347.676636	147.320000
347.770050	146.180000
347.863495	145.540000
347.956909	145.280000
348.050323	144.500000
348.143768	144.400000
348.237183	144.320000
348.330597	144.880000
348.424042	145.260000
348.517456	145.660000
348.610901	145.880000
348.704315	145.900000
348.797760	145.100000
348.891174	144.440000
348.984619	143.960000
349.078033	144.280000
349.171448	144.900000
349.264923	145.200000
349.358337	145.360000
349.451782	145.600000
349.545197	145.120000
349.638641	144.440000
349.732086	144.160000
349.825500	144.660000
349.918945	144.400000
350.012390	144.960000
350.105804	145.520000
350.199249	145.860000
350.292664	145.900000
350.386108	146.180000
350.479553	146.280000
350.572968	146.040000
350.666412	145.980000
350.759857	145.680000
350.853302	146.020000
350.946716	145.560000
351.040161	145.660000
351.133606	145.960000
351.227081	145.800000
351.320465	146.160000
351.413940	146.280000
351.507355	146.160000
351.600830	146.120000
351.694244	145.820000
351.787720	145.240000
351.881104	145.100000
351.974579	145.280000
352.067993	146.060000
352.161469	146.440000
352.254883	146.220000
352.348358	146.140000
352.441803	145.960000
352.535248	145.140000
352.628693	145.540000
352.722137	145.320000
352.815582	145.520000
352.909027	145.620000
353.002472	145.580000
353.095917	145.300000
353.189362	145.560000
353.282806	145.740000
353.376251	145.600000
353.469696	145.180000
353.563141	145.620000
353.656586	145.580000
353.750061	144.920000
353.843475	144.840000
353.936981	145.340000
354.030396	144.580000
354.123871	144.760000
354.217285	145.740000
354.310760	146.020000
354.404175	145.980000
354.497681	146.140000
354.591095	145.980000
354.684570	145.020000
354.777985	144.680000
354.871490	144.540000
354.964935	144.860000
355.058380	145.120000
355.151855	145.080000
355.245300	145.740000
355.338745	146.000000
355.432220	145.580000
355.525665	145.160000
355.619110	145.860000
355.712585	145.480000
355.806030	145.120000
355.899475	145.000000
355.992950	145.640000
356.086426	145.720000
356.179871	145.580000
356.273346	145.880000
356.366791	146.240000
356.460266	146.120000
356.553711	145.660000
356.647186	146.020000
356.740631	145.560000
356.834106	145.440000
356.927551	145.460000
357.021027	145.380000
357.114471	145.400000
357.207947	146.040000
357.301422	146.160000
357.394867	145.960000
357.488342	146.600000
357.581818	146.480000
357.675262	146.600000
357.768738	146.420000
357.862213	145.960000
357.955658	145.700000
358.049133	145.460000
358.142609	145.260000
358.236053	145.200000
358.329529	145.320000
358.423035	145.460000
358.516449	145.200000
358.609955	145.800000
358.703400	146.380000
358.796906	146.620000
358.890350	146.160000
358.983826	146.560000
359.077271	145.540000
359.170776	145.180000
359.264221	145.020000
359.357727	145.300000
359.451172	145.680000
359.544647	146.040000
359.638123	146.120000
359.731598	146.580000
359.825073	146.520000
359.918549	146.180000
360.012024	146.480000
360.105499	145.940000
360.198975	145.780000
360.292450	145.800000
360.385925	145.560000
360.479401	145.160000
360.572876	145.760000
360.666351	145.740000
360.759857	145.660000
360.853302	145.940000
360.946808	145.660000
361.040253	145.520000
361.133759	145.280000
361.227203	145.440000
361.320709	145.260000
361.414154	145.780000
361.507660	146.180000
361.601105	146.680000
361.694641	147.140000
361.788086	147.000000
361.881592	146.940000
361.975067	146.600000
362.068542	146.760000
362.162018	146.260000
362.255524	145.900000
362.348999	145.760000
362.442474	145.820000
362.535950	145.060000
362.629456	144.940000
362.722931	145.480000
362.816406	145.840000
362.909882	146.100000
363.003387	146.060000
363.096863	146.440000
363.190338	146.060000
363.283875	145.700000
363.377319	145.440000
363.470825	146.000000
363.564301	145.560000
363.657806	146.040000
363.751282	145.760000
363.844788	146.400000
363.938232	145.920000
364.031769	146.760000
364.125214	146.800000
364.218750	147.780000
364.312225	146.720000
364.405731	146.880000
364.499207	146.020000
364.592712	145.580000
364.686188	145.020000
364.779694	145.580000
364.873169	145.480000
364.966675	145.320000
365.060150	145.240000
365.153656	145.560000
365.247131	145.300000
365.340637	145.900000
365.434143	146.740000
365.527618	147.100000
365.621155	146.260000
365.714600	146.560000
365.808136	146.200000
365.901611	145.040000
365.995117	145.000000
366.088593	145.160000
366.182129	144.580000
366.275604	144.840000
366.369110	145.300000
366.462585	145.220000
366.556122	145.980000
366.649567	146.260000
366.743103	146.200000
366.836609	145.960000
366.930115	146.320000
367.023590	146.020000
367.117096	146.300000
367.210602	146.180000
367.304108	147.200000
367.397614	147.540000
367.491119	147.680000
367.584595	147.540000
367.678101	147.820000
367.771606	147.300000
367.865112	146.660000
367.958649	146.200000
368.052124	146.100000
368.145660	145.680000
368.239136	145.900000
368.332672	146.020000
368.426147	146.380000
368.519684	145.980000
368.613159	146.260000
368.706696	145.720000
368.800171	145.800000
368.893707	145.460000
368.987183	145.900000
369.080719	146.080000
369.174225	146.380000
369.267731	146.560000
369.361237	146.440000
369.454742	146.200000
369.548248	146.260000
369.641754	146.020000
369.735260	145.780000
369.828766	145.340000
369.922272	146.000000
370.015808	145.720000
370.109314	145.740000
370.202820	145.440000
370.296356	146.980000
370.389832	146.380000
370.483368	146.320000
370.576874	146.200000
370.670410	146.640000
370.763885	145.520000
370.857422	145.620000
370.950928	145.320000
371.044464	146.180000
371.137939	145.900000
371.231476	146.340000
371.324982	146.880000
371.418518	147.080000
371.512024	146.720000
371.605560	146.660000
371.699066	146.680000
371.792572	146.020000
371.886108	146.320000
371.979614	146.060000
372.073120	146.800000
372.166656	146.600000
372.260162	147.020000
372.353668	146.740000
372.447205	146.300000
372.540710	145.980000
372.634277	145.620000
372.727753	145.300000
372.821320	145.460000
372.914795	145.840000
373.008362	145.360000
373.101837	145.720000
373.195404	145.720000
373.288879	145.340000
373.382446	146.080000
373.475922	146.400000
373.569489	147.020000
373.662964	147.400000
373.756531	147.600000
373.850037	147.180000
373.943573	147.080000
374.037109	145.760000
374.130615	145.680000
374.224152	145.660000
374.317657	145.320000
374.411194	145.940000
374.504730	146.260000
374.598236	145.900000
374.691772	145.720000
374.785309	145.840000
374.878815	145.040000
374.972351	145.540000
375.065887	145.740000
375.159454	146.600000
375.252930	146.360000
375.346497	146.660000
375.440002	147.220000
375.533569	147.340000
375.627045	146.480000
375.720612	146.660000
375.814117	146.820000
375.907684	145.740000
376.001160	145.200000
376.094727	144.860000
376.188232	145.540000
376.281799	145.440000
376.375336	145.860000
376.468872	146.640000
376.562408	147.060000
376.655914	146.400000
376.749451	146.440000
376.842987	146.520000
376.936523	146.260000
377.030060	146.420000
377.123596	146.400000
377.217133	145.960000
377.310669	146.100000
377.404205	146.400000
377.497772	146.920000
377.591278	146.800000
377.684845	147.300000
377.778351	147.460000
377.871918	147.060000
377.965424	146.100000
378.058990	146.200000
378.152496	146.080000
378.246063	146.060000
378.339569	146.360000
378.433136	146.560000
378.526642	146.680000
378.620209	146.480000
378.713745	145.880000
378.807312	146.200000
378.900848	146.400000
378.994385	146.420000
379.087921	145.880000
379.181458	146.340000
379.274994	145.360000
379.368530	145.080000
379.462097	145.520000
379.555634	146.340000
379.649170	145.740000
379.742706	145.980000
379.836273	146.160000
379.929810	145.380000
380.023376	144.740000
380.116882	144.800000
380.210449	144.760000
380.303986	144.380000
380.397552	144.280000
380.491058	144.900000
380.584656	144.860000
380.678162	144.940000
380.771729	145.100000
380.865265	146.160000
380.958832	146.060000
381.052368	146.240000
381.145935	146.720000
381.239471	147.240000
381.333008	146.560000
381.426575	146.460000
381.520111	146.780000
381.613647	146.780000
381.707214	146.280000
381.800751	145.820000
381.894318	145.980000
381.987854	145.460000
382.081421	145.340000
382.174988	145.820000
382.268524	146.000000
382.362091	146.040000
382.455627	146.880000
382.549194	146.380000
382.642731	145.600000
382.736298	145.460000
382.829834	145.320000
382.923401	145.620000
383.016937	145.980000
383.110504	146.680000
383.204041	147.080000
383.297607	147.400000
383.391174	146.400000
383.484741	146.880000
383.578278	146.200000
383.671844	145.820000
383.765411	145.020000
383.858948	145.480000
383.952515	144.960000
384.046051	145.600000
384.139618	146.060000
384.233185	146.340000
384.326721	146.140000
384.420288	146.740000
384.513855	146.400000
384.607422	146.600000
384.700989	146.740000
384.794525	146.160000
384.888123	145.760000
384.981659	146.020000
385.075226	145.560000
385.168762	145.200000
385.262360	145.680000
385.355896	145.100000
385.449463	145.000000
385.542999	145.060000
385.636597	145.940000
385.730164	146.180000
385.823730	145.980000
385.917267	145.380000
386.010834	145.500000
386.104401	145.480000
386.197968	145.360000
386.291534	145.980000
386.385101	146.680000
386.478668	146.780000
386.572235	146.340000
386.665802	146.020000
386.759338	145.480000
386.852905	145.220000
386.946472	144.800000
387.040070	144.920000
387.133606	145.200000
387.227203	145.180000
387.320740	145.340000
387.414337	145.620000
387.507874	145.560000
387.601471	145.840000
387.695007	146.240000
387.788605	146.120000
387.882141	146.340000
387.975739	146.280000
388.069275	145.680000
388.162872	145.700000
388.256439	145.820000
388.350037	145.300000
388.443604	145.320000
388.537170	145.440000
388.630737	145.740000
388.724304	145.680000
388.817871	145.760000
388.911438	145.620000
389.005005	145.900000
389.098602	146.060000
389.192169	145.860000
389.285736	146.080000
389.379333	146.020000
389.472870	145.740000
389.566467	145.480000
389.660034	145.560000
389.753632	145.140000
389.847168	145.500000
389.940765	145.980000
390.034332	145.860000
390.127930	145.580000
390.221466	146.060000
390.315063	145.520000
390.408630	144.600000
390.502228	144.000000
390.595795	144.700000
390.689362	144.360000
390.782959	144.720000
390.876526	145.360000
390.970093	145.580000
391.063690	145.700000
391.157257	145.780000
391.250824	146.060000
391.344421	145.940000
391.437988	146.320000
391.531555	146.120000
391.625153	146.180000
391.718750	146.200000
391.812317	145.920000
391.905914	145.800000
391.999481	145.940000
392.093079	146.160000
392.186615	146.400000
392.280243	146.880000
392.373779	147.020000
392.467407	147.180000
392.560944	146.960000
392.654572	146.140000
392.748108	146.240000
392.841736	146.360000
392.935303	145.980000
393.028900	146.000000
393.122467	146.380000
393.216064	145.980000
393.309631	145.380000
393.403229	145.000000
393.496796	145.020000
393.590393	144.520000
393.683990	144.500000
393.777557	145.320000
393.871155	145.600000
393.964722	145.880000
394.058350	146.340000
394.151917	146.300000
394.245514	145.600000
394.339081	145.920000
394.432678	146.260000
394.526245	146.280000
394.619873	146.260000
394.713409	146.580000
394.807037	146.300000
394.900604	146.340000
394.994202	146.160000
395.087769	146.480000
395.181396	146.080000
395.274994	146.960000
395.368561	146.240000
395.462158	146.540000
395.555756	146.300000
395.649353	146.960000
395.742920	146.200000
395.836517	147.080000
395.930115	146.260000
396.023712	146.260000
396.117279	146.260000
396.210876	145.880000
396.304474	145.440000
396.398071	146.200000
396.491669	146.840000
396.585266	146.480000
396.678833	146.620000
396.772461	146.800000
396.866028	146.660000
396.959656	146.740000
397.053223	147.480000
397.146851	148.040000
397.240417	148.820000
397.334015	150.680000
397.427582	151.740000
397.521210	153.780000
397.614807	156.880000
397.708405	160.360000
397.802002	164.980000
397.895599	171.520000
397.989197	178.440000
398.082794	187.040000
398.176392	197.640000
398.269989	209.380000
398.363586	223.940000
398.457184	242.000000
398.550781	262.180000
398.644379	283.280000
398.737976	306.800000
398.831573	330.600000
398.925201	352.840000
399.018768	375.020000
399.112396	396.880000
399.205963	417.760000
399.299591	437.560000
399.393158	458.140000
399.486786	478.280000
399.580353	498.140000
399.673981	515.280000
399.767578	531.120000
399.861206	542.740000
399.954773	549.460000
400.048401	549.320000
400.141998	544.280000
400.235596	533.840000
400.329193	519.540000
400.422791	501.860000
400.516418	483.220000
400.610016	464.160000
400.703613	444.160000
400.797211	421.600000
400.890808	398.840000
400.984436	375.340000
401.078033	349.740000
401.171631	325.200000
401.265259	302.120000
401.358826	280.460000
401.452484	260.240000
401.546051	243.260000
401.639679	225.880000
401.733246	211.320000
401.826904	197.880000
401.920471	186.440000
402.014099	176.720000
402.107697	169.720000
402.201324	164.300000
402.294891	160.080000
402.388550	157.040000
402.482147	154.340000
402.575745	151.980000
402.669373	149.640000
402.762970	148.520000
402.856567	147.540000
402.950195	147.380000
403.043793	147.120000
403.137390	148.020000
403.231018	147.200000
403.324615	147.740000
403.418243	147.080000
403.511841	147.500000
403.605469	146.880000
403.699066	147.680000
403.792694	147.400000
403.886292	147.740000
403.979919	147.340000
404.073517	146.860000
404.167145	146.760000
404.260712	146.460000
404.354370	146.080000
404.447937	146.180000
404.541595	146.520000
404.635162	146.680000
404.728821	147.140000
404.822418	147.160000
404.916046	146.600000
405.009644	147.120000
405.103271	147.040000
405.196899	146.920000
405.290497	146.880000
405.384125	147.500000
405.477722	146.640000
405.571350	146.160000
405.664948	146.100000
405.758575	146.100000
405.852203	145.560000
405.945801	145.980000
406.039429	146.140000
406.133057	145.760000
406.226654	145.600000
406.320312	145.800000
406.413879	145.820000
406.507538	146.140000
406.601135	146.120000
406.694763	146.660000
406.788361	146.580000
406.882019	146.380000
406.975586	146.680000
407.069244	147.200000
407.162872	147.060000
407.256470	146.940000
407.350098	147.040000
407.443726	146.420000
407.537323	145.780000
407.630951	146.120000
407.724579	145.740000
407.818207	146.080000
407.911804	145.800000
408.005432	145.700000
408.099060	145.600000
408.192688	146.360000
408.286285	146.000000
408.379913	146.080000
408.473572	146.560000
408.567169	145.740000
408.660828	145.520000
408.754395	145.360000
408.848053	145.480000
408.941650	145.380000
409.035309	145.460000
409.128906	145.460000
409.222565	145.680000
409.316132	145.880000
409.409790	145.500000
409.503387	145.660000
409.597046	145.880000
409.690674	145.860000
409.784302	145.960000
409.877930	146.040000
409.971558	146.080000
410.065186	145.700000
410.158783	145.660000
410.252411	145.460000
410.346039	145.980000
410.439667	146.320000
410.533295	146.860000
410.626923	147.320000
410.720551	147.140000
410.814209	147.520000
410.907806	147.380000
411.001465	146.340000
411.095062	146.040000
411.188721	146.240000
411.282318	145.620000
411.375977	145.460000
411.469574	146.480000
411.563232	146.360000
411.656830	146.140000
411.750488	145.980000
411.844086	145.920000
411.937744	145.820000
412.031372	145.660000
412.125000	145.900000
412.218628	146.000000
412.312256	146.700000
412.405884	147.020000
412.499512	146.900000
412.593170	147.060000
412.686798	147.500000
412.780426	146.880000
412.874054	146.600000
412.967682	146.700000
413.061310	147.040000
413.154968	146.720000
413.248566	146.760000
413.342224	146.760000
413.435852	147.000000
413.529510	146.340000
413.623108	145.740000
413.716766	145.540000
413.810364	145.660000
413.904022	145.500000
413.997650	145.080000
414.091309	145.880000
414.184906	145.840000
414.278564	145.280000
414.372192	145.580000
414.465851	146.240000
414.559479	145.900000
414.653107	146.980000
414.746735	147.080000
414.840393	147.000000
414.934021	147.160000
415.027649	147.020000
415.121277	146.760000
415.214935	147.220000
415.308563	146.940000
415.402191	146.040000
415.495850	146.060000
415.589478	145.240000
415.683136	144.980000
415.776733	145.000000
415.870422	146.080000
415.964020	145.660000
416.057678	146.060000
416.151306	145.920000
416.244965	146.160000
416.338562	145.740000
416.432251	146.700000
416.525848	147.640000
416.619507	147.980000
416.713165	147.960000
416.806793	148.000000
416.900421	147.700000
416.994080	146.540000
417.087708	146.440000
417.181366	145.980000
417.274994	145.980000
417.368622	146.240000
417.462280	146.980000
417.555908	146.820000
417.649567	146.900000
417.743195	146.700000
417.836853	146.540000
417.930481	146.360000
418.024170	146.720000
418.117767	147.480000
418.211426	147.820000
418.305054	147.840000
418.398712	147.200000
418.492340	147.060000
418.585999	147.040000
418.679626	146.940000
418.773285	147.300000
418.866913	147.940000
418.960571	148.240000
419.054230	148.020000
419.147858	148.180000
419.241516	147.920000
419.335144	147.520000
419.428802	147.180000
419.522461	147.040000
419.616089	146.600000
419.709747	146.500000
419.803375	146.800000
419.897034	146.420000
419.990662	146.460000
420.084320	146.980000
420.177979	147.400000
420.271606	147.420000
420.365295	148.180000
420.458893	148.180000
420.552582	148.380000
420.646210	148.000000
420.739868	147.720000
420.833496	147.140000
420.927155	146.940000
421.020782	146.400000
421.114471	145.880000
421.208069	145.960000
421.301758	146.200000
421.395386	146.520000
421.489044	146.660000
421.582703	146.920000
421.676361	147.280000
421.769989	146.720000
421.863647	146.720000
421.957306	146.600000
422.050934	146.740000
422.144592	146.380000
422.238251	146.500000
422.331909	146.080000
422.425537	145.960000
422.519196	145.860000
422.612854	145.500000
422.706543	145.380000
422.800140	145.560000
422.893829	145.420000
422.987457	145.160000
423.081146	145.520000
423.174744	146.400000
423.268433	146.080000
423.362061	145.920000
423.455750	145.800000
423.549347	145.820000
423.643036	145.020000
423.736664	145.580000
423.830353	146.040000
423.924011	146.460000
424.017639	146.000000
424.111298	145.980000
424.204956	145.820000
424.298615	145.580000
424.392273	145.660000
424.485931	146.000000
424.579559	146.160000
424.673218	145.860000
424.766876	145.960000
424.860535	145.500000
424.954193	145.280000
425.047882	145.960000
425.141510	146.080000
425.235199	146.140000
425.328796	146.220000
425.422485	146.220000
425.516113	145.240000
425.609802	145.340000
425.703430	145.240000
425.797119	145.240000
425.890747	145.480000
425.984436	145.740000
426.078064	145.860000
426.171753	146.060000
426.265411	145.800000
426.359070	145.820000
426.452728	145.620000
426.546356	145.340000
426.640015	144.840000
426.733673	144.840000
426.827332	144.540000
426.920990	145.360000
427.014648	145.040000
427.108307	145.540000
427.201965	146.320000
427.295624	146.520000
427.389282	145.680000
427.482941	146.140000
427.576630	145.980000
427.670258	145.320000
427.763947	145.260000
427.857574	145.620000
427.951263	145.400000
428.044922	145.260000
428.138611	145.400000
428.232239	145.760000
428.325928	146.000000
428.419556	146.640000
428.513245	146.340000
428.606903	146.540000
428.700562	146.060000
428.794220	145.320000
428.887878	144.380000
428.981537	144.960000
429.075195	144.920000
429.168854	145.400000
429.262512	145.560000
429.356201	145.900000
429.449860	145.500000
429.543518	145.600000
429.637177	145.580000
429.730835	145.660000
429.824493	145.620000
429.918182	146.020000
430.011810	145.360000
430.105530	144.620000
430.199158	145.220000
430.292847	145.140000
430.386475	144.820000
430.480164	145.160000
430.573792	145.260000
430.667511	144.900000
430.761139	144.920000
430.854828	145.360000
430.948456	145.320000
431.042145	146.160000
431.135834	146.220000
431.229492	146.740000
431.323151	146.980000
431.416809	147.420000
431.510468	147.000000
431.604156	146.840000
431.697815	146.760000
431.791473	146.000000
431.885132	145.420000
431.978821	145.660000
432.072479	146.040000
432.166138	146.340000
432.259827	146.340000
432.353485	146.660000
432.447174	146.780000
432.540802	146.200000
432.634491	146.120000
432.728149	146.460000
432.821838	146.800000
432.915466	146.380000
433.009186	146.560000
433.102814	145.620000
433.196503	145.160000
433.290131	144.820000
433.383850	145.120000
433.477509	145.140000
433.571167	146.340000
433.664856	147.200000
433.758514	147.540000
433.852173	147.200000
433.945862	147.160000
434.039520	146.480000
434.133179	146.140000
434.226868	146.080000
434.320526	145.680000
434.414185	146.000000
434.507874	145.740000
434.601562	145.700000
434.695221	145.260000
434.788910	145.860000
434.882538	145.800000
434.976257	145.620000
435.069885	145.560000
435.163574	146.040000
435.257233	145.480000
435.350922	145.480000
435.444580	145.440000
435.538269	145.100000
435.631897	145.260000
435.725616	145.620000
435.819275	145.740000
435.912964	146.640000
436.006622	146.920000
436.100311	146.540000
436.193970	146.100000
436.287628	145.840000
436.381317	145.560000
436.474976	145.580000
436.568665	145.220000
436.662323	145.700000
436.756012	145.560000
436.849670	145.220000
436.943390	145.240000
437.037018	145.340000
437.130737	145.320000
437.224365	145.180000
437.318085	145.280000
437.411713	145.240000
437.505432	145.560000
437.599060	146.000000
437.692780	146.780000
437.786407	146.760000
437.880127	146.560000
437.973755	146.540000
438.067474	145.980000
438.161133	145.820000
438.254822	146.320000
438.348480	146.180000
438.442169	146.660000
438.535828	147.120000
438.629517	146.920000
438.723175	146.320000
438.816864	146.900000
438.910553	146.340000
439.004211	145.900000
439.097900	145.540000
439.191559	145.620000
439.285248	144.860000
439.378906	145.360000
439.472626	145.000000
439.566284	144.800000
439.659973	145.280000
439.753632	145.300000
439.847321	145.320000
439.940979	145.680000
440.034698	146.220000
440.128326	145.300000
440.222046	145.440000
440.315674	144.620000
440.409393	144.920000
440.503082	144.460000
440.596741	144.960000
440.690430	145.300000
440.784088	145.280000
440.877777	144.600000
440.971466	144.860000
441.065125	144.660000
441.158813	144.340000
441.252502	144.420000
441.346161	144.940000
441.439850	145.240000
441.533539	145.340000
441.627197	145.740000
441.720886	146.100000
441.814606	146.360000
441.908234	146.560000
442.001953	146.680000
442.095612	146.700000
442.189301	146.600000
442.282959	146.220000
442.376678	145.240000
442.470306	145.680000
442.564026	145.400000
442.657684	145.440000
442.751404	145.640000
442.845032	146.960000
442.938751	146.260000
443.032440	146.560000
443.126099	146.320000
443.219788	146.740000
443.313477	146.240000
443.407166	146.660000
443.500824	146.600000
443.594513	146.800000
443.688202	146.500000
443.781891	145.800000
443.875549	145.660000
443.969238	145.460000
444.062927	145.580000
444.156647	145.400000
444.250275	146.160000
444.343994	146.140000
444.437653	146.300000
444.531372	146.020000
444.625031	145.880000
444.718719	145.340000
444.812378	145.340000
444.906097	145.300000
444.999756	144.920000
445.093445	144.920000
445.187103	145.160000
445.280823	145.740000
445.374512	145.440000
445.468201	145.780000
445.561859	145.880000
445.655548	146.020000
445.749237	145.360000
445.842926	145.560000
445.936615	146.080000
446.030304	145.960000
446.123962	146.200000
446.217651	146.200000
446.311340	146.300000
446.405029	145.480000
446.498749	145.320000
446.592407	144.940000
446.686096	145.120000
446.779755	145.080000
446.873474	145.820000
446.967133	146.060000
447.060852	145.820000
447.154510	145.560000
447.248230	145.920000
447.341858	145.480000
447.435577	145.160000
447.529236	144.960000
447.622955	145.040000
447.716644	144.540000
447.810333	144.940000
447.904022	145.520000
447.997711	145.840000
448.091400	145.820000
448.185059	145.920000
448.278748	146.080000
448.372437	145.820000
448.466125	146.060000
448.559814	146.120000
448.653503	146.800000
448.747192	146.580000
448.840912	146.980000
448.934570	146.820000
449.028290	147.140000
449.121948	146.300000
449.215637	146.080000
449.309296	145.560000
449.403015	145.960000
449.496674	145.820000
449.590393	145.940000
449.684052	145.700000
449.777771	146.540000
449.871429	145.660000
449.965149	145.460000
450.058838	145.840000
450.152527	146.380000
450.246216	145.880000
450.339905	146.220000
450.433594	146.160000
450.527283	146.580000
450.620972	146.340000
450.714661	145.880000
450.808350	146.040000
450.902039	146.520000
450.995728	146.120000
451.089417	145.720000
451.183105	146.040000
451.276794	146.460000
451.370514	145.620000
451.464172	144.900000
451.557892	145.040000
451.651550	145.440000
451.745270	144.680000
451.838928	144.720000
451.932648	145.120000
452.026306	145.760000
452.120026	145.380000
452.213684	145.820000
452.307404	145.980000
452.401062	146.100000
452.494781	145.900000
452.588470	145.980000
452.682159	145.560000
452.775848	145.660000
452.869537	145.240000
452.963226	145.080000
453.056915	144.860000
453.150604	145.180000
453.244293	145.480000
453.337982	146.120000
453.431671	146.300000
453.525360	146.720000
453.619049	146.580000
453.712769	146.360000
453.806427	145.820000
453.900146	145.360000
453.993805	145.360000
454.087555	145.860000
454.181213	145.980000
454.274933	146.140000
454.368591	146.080000
454.462311	145.760000
454.555969	145.300000
454.649689	145.840000
454.743347	145.620000
454.837067	146.500000
454.930756	146.860000
455.024445	147.060000
455.118134	146.440000
455.211853	146.820000
455.305542	146.400000
455.399231	146.140000
455.492920	146.040000
455.586609	146.020000
455.680298	146.100000
455.773987	145.760000
455.867676	145.980000
455.961365	145.940000
456.055084	146.060000
456.148773	145.660000
456.242493	145.720000
456.336151	145.460000
456.429871	146.080000
456.523529	146.560000
456.617249	146.540000
456.710907	147.120000
456.804626	147.280000
456.898315	146.340000
456.992035	145.880000
457.085693	146.000000
457.179413	145.340000
457.273102	145.880000
457.366791	146.060000
457.460480	146.380000
457.554199	146.920000
457.647888	146.960000
457.741577	146.340000
457.835266	146.760000
457.928955	146.780000
458.022644	146.700000
458.116364	147.240000
458.210052	147.300000
458.303741	147.100000
458.397461	146.740000
458.491119	145.740000
458.584839	145.360000
458.678528	145.000000
458.772247	144.760000
458.865906	144.920000
458.959625	146.500000
459.053284	146.760000
459.147003	146.900000
459.240692	147.480000
459.334412	147.380000
459.428070	146.560000
459.521790	146.280000
459.615479	145.960000
459.709198	146.220000
459.802887	146.040000
459.896576	145.940000
459.990265	146.180000
460.083954	146.660000
460.177673	145.960000
460.271362	146.220000
460.365051	146.320000
460.458740	145.900000
460.552429	145.480000
460.646149	145.480000
460.739838	145.120000
460.833527	145.160000
460.927246	145.100000
461.020905	145.220000
461.114655	145.280000
461.208313	145.760000
461.302032	145.160000
461.395691	145.580000
461.489441	145.560000
461.583099	145.460000
461.676819	145.080000
461.770477	145.740000
461.864197	145.220000
461.957916	145.200000
462.051605	144.800000
462.145294	145.800000
462.238983	145.620000
462.332703	146.320000
462.426392	147.080000
462.520081	147.520000
462.613770	146.500000
462.707489	146.360000
462.801178	146.180000
462.894867	145.760000
462.988556	145.860000
463.082275	146.060000
463.175964	145.840000
463.269684	146.040000
463.363342	146.040000
463.457092	145.380000
463.550751	145.620000
463.644470	146.020000
463.738129	145.500000
463.831879	145.380000
463.925537	146.400000
464.019257	146.100000
464.112946	145.920000
464.206665	146.020000
464.300323	146.200000
464.394043	145.600000
464.487762	145.620000
464.581451	146.060000
464.675140	146.220000
464.768829	146.220000
464.862549	146.460000
464.956238	147.080000
465.049927	146.880000
465.143646	146.820000
465.237335	146.340000
465.331024	146.580000
465.424713	145.980000
465.518433	145.920000
465.612152	145.640000
465.705811	145.880000
465.799561	145.520000
465.893219	145.600000
465.986938	145.620000
466.080597	145.800000
466.174347	146.200000
466.268005	146.400000
466.361725	146.280000
466.455414	146.180000
466.549133	146.000000
466.642792	146.000000
466.736542	145.400000
466.830231	145.520000
466.923920	145.640000
467.017609	145.740000
467.111328	145.100000
467.205017	145.180000
467.298706	145.240000
467.392426	145.360000
467.486115	145.740000
467.579803	145.760000
467.673523	146.280000
467.767212	146.200000
467.860901	145.840000
467.954651	145.940000
468.048309	146.260000
468.142029	146.140000
468.235718	146.260000
468.329437	146.000000
468.423096	145.520000
468.516846	145.520000
468.610504	145.260000
468.704224	144.940000
468.797913	145.280000
468.891632	145.540000
468.985291	145.300000
469.079010	145.640000
469.172729	145.800000
469.266418	146.140000
469.360107	146.020000
469.453827	145.980000
469.547516	145.820000
469.641205	145.800000
469.734924	145.980000
469.828613	146.240000
469.922302	146.820000
470.016022	146.980000
470.109711	146.820000
470.203430	146.180000
470.297150	145.240000
470.390808	145.060000
470.484558	144.880000
470.578217	145.540000
470.671936	145.920000
470.765625	146.940000
470.859344	146.580000
470.953003	146.800000
471.046753	146.240000
471.140411	145.800000
471.234131	145.740000
471.327820	146.160000
471.421539	145.960000
471.515228	145.740000
471.608948	146.080000
471.702637	145.380000
471.796326	144.940000
471.890045	145.040000
471.983734	145.260000
472.077423	144.760000
472.171143	145.160000
472.264832	145.180000
472.358521	145.020000
472.452240	144.820000
472.545929	145.900000
472.639648	146.140000
472.733337	146.720000
472.827057	147.020000
472.920746	147.160000
473.014465	147.080000
473.108124	146.920000
473.201874	146.640000
473.295532	146.240000
473.389252	146.540000
473.482941	146.220000
473.576660	146.180000
473.670319	145.860000
473.764069	146.460000
473.857727	146.520000
473.951477	146.520000
474.045166	146.900000
474.138855	147.080000
474.232574	146.640000
474.326263	146.540000
474.419952	146.460000
474.513672	146.320000
474.607361	146.320000
474.701050	146.720000
474.794769	147.180000
474.888458	147.360000
474.982178	147.340000
475.075867	147.320000
475.169586	147.300000
475.263275	146.820000
475.356995	146.900000
475.450653	146.580000
475.544403	146.500000
475.638062	147.000000
475.731812	146.640000
475.825470	146.220000
475.919189	146.500000
476.012878	146.700000
476.106598	145.560000
476.200256	145.880000
476.294006	145.840000
476.387695	145.840000
476.481384	145.740000
476.575104	146.240000
476.668793	146.040000
476.762512	145.800000
476.856201	146.240000
476.949890	146.240000
477.043610	145.800000
477.137299	146.040000
477.230988	146.460000
477.324707	145.960000
477.418396	146.420000
477.512146	146.600000
477.605804	146.400000
477.699524	146.440000
477.793213	146.160000
477.886932	145.600000
477.980591	145.660000
478.074341	145.320000
478.167999	144.860000
478.261749	145.140000
478.355408	145.160000
478.449127	145.620000
478.542816	147.040000
478.636536	148.200000
478.730225	148.300000
478.823944	148.700000
478.917633	148.260000
479.011322	147.720000
479.105042	147.120000
479.198730	147.180000
479.292450	146.820000
479.386139	146.940000
479.479828	146.640000
479.573547	147.040000
479.667267	146.900000
479.760925	147.040000
479.854675	147.060000
479.948334	147.320000
480.042084	146.420000
480.135742	146.800000
480.229462	146.360000
480.323151	146.400000
480.416870	145.640000
480.510529	145.900000
480.604279	145.160000
480.697937	146.040000
480.791656	145.500000
480.885345	145.600000
480.979065	145.640000
481.072754	146.140000
481.166473	145.860000
481.260132	146.200000
481.353882	146.440000
481.447540	146.200000
481.541260	146.020000
481.635010	145.380000
481.728668	145.180000
481.822388	145.120000
481.916077	145.340000
482.009796	145.160000
482.103485	145.720000
482.197205	145.800000
482.290863	145.880000
482.384613	145.460000
482.478271	145.420000
482.571991	145.400000
482.665680	145.580000
482.759399	145.780000
482.853058	146.460000
482.946808	146.740000
483.040466	146.360000
483.134216	146.160000
483.227875	145.920000
483.321594	146.220000
483.415283	146.180000
483.509003	146.360000
483.602661	146.160000
483.696411	146.440000
483.790070	145.900000
483.883789	145.800000
483.977478	146.120000
484.071198	146.100000
484.164917	145.660000
484.258606	145.440000
484.352325	145.640000
484.445984	145.740000
484.539734	146.000000
484.633392	145.880000
484.727142	146.240000
484.820801	146.180000
484.914520	145.960000
485.008209	146.400000
485.101929	146.780000
485.195587	146.360000
485.289337	146.080000
485.382996	145.980000
485.476715	145.860000
485.570404	146.100000
485.664124	146.400000
485.757782	147.120000
485.851532	146.780000
485.945190	146.520000
486.038910	146.540000
486.132599	146.780000
486.226318	145.780000
486.319977	146.000000
486.413727	146.520000
486.507446	146.080000
486.601105	145.380000
486.694855	145.600000
486.788513	145.460000
486.882233	145.180000
486.975922	145.160000
487.069641	145.500000
487.163300	145.480000
487.257050	146.500000
487.350708	145.800000
487.444427	145.720000
487.538116	145.700000
487.631836	145.700000
487.725494	145.160000
487.819214	145.540000
487.912903	145.700000
488.006622	146.040000
488.100281	146.400000
488.194031	146.280000
488.287689	146.900000
488.381409	147.420000
488.475098	147.120000
488.568817	147.240000
488.662476	146.900000
488.756226	145.920000
488.849945	144.920000
488.943604	145.100000
489.037354	145.020000
489.131012	145.080000
489.224731	145.200000
489.318390	145.160000
489.412140	144.660000
489.505798	144.460000
489.599518	144.220000
489.693207	144.800000
489.786926	145.080000
489.880585	145.340000
489.974335	145.620000
490.067993	146.980000
490.161713	147.000000
490.255371	147.940000
490.349121	147.880000
490.442780	147.640000
490.536499	146.580000
490.630188	146.600000
490.723907	145.680000
490.817566	145.960000
490.911285	146.240000
491.004974	146.100000
491.098694	145.740000
491.192413	146.560000
491.286102	146.200000
491.379822	146.060000
491.473480	146.420000
491.567200	146.560000
491.660889	145.640000
491.754608	145.880000
491.848267	145.840000
491.941986	145.580000
492.035675	145.360000
492.129395	146.100000
492.223053	145.940000
492.316772	146.100000
492.410461	145.820000
492.504181	146.160000
492.597839	145.500000
492.691559	145.860000
492.785248	145.680000
492.878967	146.380000
492.972626	145.900000
493.066345	146.060000
493.160034	145.620000
493.253754	145.840000
493.347412	145.200000
493.441132	145.520000
493.534882	145.900000
493.628540	146.000000
493.722260	145.820000
493.815918	146.520000
493.909668	146.960000
494.003326	147.200000
494.097046	147.220000
494.190704	146.920000
494.284454	146.540000
494.378113	146.380000
494.471832	145.960000
494.565491	145.920000
494.659210	146.020000
494.752899	146.020000
494.846619	145.640000
494.940277	145.900000
495.033997	145.880000
495.127686	145.620000
495.221405	145.360000
495.315063	145.600000
495.408783	145.200000
495.502441	145.180000
495.596191	145.580000
495.689850	145.520000
495.783569	145.500000
495.877228	146.040000
495.970947	145.940000
496.064697	145.980000
496.158356	146.920000
496.252075	146.680000
496.345734	146.320000
496.439453	147.300000
496.533142	147.180000
496.626862	146.800000
496.720520	147.080000
496.814240	146.780000
496.907898	146.160000
497.001617	146.080000
497.095306	145.320000
497.189026	144.960000
497.282684	145.080000
497.376404	145.240000
497.470062	145.180000
497.563782	145.700000
497.657471	145.900000
497.751190	145.920000
497.844849	145.900000
497.938568	146.220000
498.032227	146.160000
498.125946	146.280000
498.219635	146.080000
498.313354	146.040000
498.407074	145.780000
498.500732	146.120000
498.594452	146.280000
498.688110	146.120000
498.781830	145.960000
498.875519	145.600000
498.969238	145.140000
499.062897	144.920000
499.156616	145.600000
499.250275	145.500000
499.343994	145.480000
499.437653	145.900000
499.531372	145.920000
499.625061	146.180000
499.718781	146.380000
499.812439	146.980000
499.906158	146.600000
499.999817	146.300000
500.093536	145.660000
500.187195	145.560000
500.280914	145.500000
500.374573	145.460000
500.468323	145.380000
500.561981	145.680000
500.655701	145.480000
500.749420	145.300000
500.843079	145.760000
500.936798	146.000000
501.030457	146.320000
501.124176	146.720000
501.217834	146.880000
501.311554	146.500000
501.405212	146.580000
501.498962	145.760000
501.592621	145.480000
501.686340	145.680000
501.779999	145.860000
501.873718	146.020000
501.967377	146.420000
502.061096	146.840000
502.154755	146.260000
502.248474	146.360000
502.342133	146.340000
502.435852	146.380000
502.529510	146.720000
502.623230	147.420000
502.716888	146.740000
502.810608	146.720000
502.904266	147.160000
502.997986	146.440000
503.091705	145.780000
503.185364	146.320000
503.279083	146.380000
503.372772	145.880000
503.466492	145.540000
503.560150	145.940000
503.653870	146.000000
503.747528	145.880000
503.841248	146.140000
503.934906	146.560000
504.028625	146.300000
504.122284	146.600000
504.216003	147.520000
504.309662	147.080000
504.403381	147.180000
504.497040	147.140000
504.590759	146.720000
504.684418	146.100000
504.778137	146.860000
504.871796	147.340000
504.965515	147.500000
505.059174	147.500000
505.152893	147.020000
505.246521	146.140000
505.340240	145.620000
505.433899	145.800000
505.527618	145.860000
505.621338	146.180000
505.714996	146.300000
505.808716	146.160000
505.902374	146.420000
505.996094	146.980000
506.089752	146.580000
506.183472	146.760000
506.277130	146.700000
506.370850	146.320000
506.464508	145.420000
506.558228	145.620000
506.651886	145.120000
506.745605	145.560000
506.839264	145.740000
506.932983	146.320000
507.026611	146.200000
507.120331	147.200000
507.213989	146.580000
507.307709	146.440000
507.401367	146.640000
507.495087	147.640000
507.588745	146.700000
507.682465	147.660000
507.776123	147.700000
507.869843	147.440000
507.963531	147.080000
508.057190	147.800000
508.150909	146.800000
508.244568	146.740000
508.338287	146.420000
508.431946	145.760000
508.525665	145.360000
508.619324	145.420000
508.713013	145.580000
508.806671	146.180000
508.900391	147.200000
508.994049	147.200000
509.087769	147.260000
509.181427	146.880000
509.275146	146.440000
509.368774	145.400000
509.462494	145.460000
509.556152	145.380000
509.649872	145.860000
509.743530	145.900000
509.837250	146.200000
509.930878	146.060000
510.024597	146.060000
510.118256	145.800000
510.211975	145.380000
510.305695	145.200000
510.399353	145.760000
510.493042	146.620000
510.586700	146.780000
510.680420	147.840000
510.774078	147.880000
510.867798	147.600000
510.961426	146.420000
511.055145	146.440000
511.148804	145.760000
511.242523	146.300000
511.336151	146.400000
511.429871	146.960000
511.523529	146.620000
511.617249	146.440000
511.710876	146.120000
511.804596	145.440000
511.898254	145.420000
511.991974	145.720000
512.085632	145.620000
512.179321	145.560000
512.272949	146.260000
512.366699	146.780000
512.460327	146.620000
512.554077	147.680000
512.647766	147.700000
512.741394	147.500000
512.835144	147.520000
512.928772	147.340000
513.022461	146.900000
513.116150	146.480000
513.209839	146.940000
513.303467	146.080000
513.397217	145.800000
513.490845	145.460000
513.584595	145.560000
513.678223	145.020000
513.771912	144.900000
513.865601	145.240000
513.959290	145.300000
514.052917	145.140000
514.146667	145.700000
514.240295	146.140000
514.333984	146.640000
514.427673	146.300000
514.521362	146.960000
514.614990	146.020000
514.708740	146.240000
514.802368	146.100000
514.896057	146.420000
514.989746	146.860000
515.083435	147.020000
515.177124	147.060000
515.270752	146.800000
515.364502	146.840000
515.458130	146.380000
515.551819	146.240000
515.645508	145.900000
515.739197	146.140000
515.832825	146.000000
515.926575	145.680000
516.020203	146.200000
516.113892	146.920000
516.207520	146.560000
516.301270	146.400000
516.394897	146.600000
516.488586	146.680000
516.582275	146.080000
516.675964	145.580000
516.769592	145.620000
516.863281	146.380000
516.956970	146.760000
517.050659	146.740000
517.144287	147.380000
517.238037	147.760000
517.331665	146.560000
517.425354	146.220000
517.519043	146.280000
517.612732	146.440000
517.706421	146.260000
517.800049	146.440000
517.893738	146.080000
517.987427	145.860000
518.081116	145.540000
518.174744	145.140000
518.268433	145.360000
518.362122	146.120000
518.455811	146.160000
518.549438	146.700000
518.643127	147.640000
518.736816	147.280000
518.830505	146.640000
518.924133	146.760000
519.017822	146.620000
519.111511	145.920000
519.205200	146.700000
519.298828	146.960000
519.392517	146.500000
519.486206	146.740000
519.579895	147.140000
519.673523	146.820000
519.767212	146.460000
519.860901	147.200000
519.954590	146.700000
520.048279	146.280000
520.141907	146.000000
520.235596	147.260000
520.329224	147.380000
520.422974	147.380000
520.516602	147.340000
520.610291	147.080000
520.703918	146.200000
520.797607	145.680000
520.891296	145.640000
520.984985	145.960000
521.078613	146.720000
521.172302	146.200000
521.265930	147.340000
521.359680	147.780000
521.453308	147.800000
521.546997	147.580000
521.640625	147.980000
521.734314	146.640000
521.827942	146.500000
521.921692	146.640000
522.015320	146.560000
522.109009	146.340000
522.202698	146.860000
522.296326	146.660000
522.390015	146.900000
522.483704	147.000000
522.577393	147.040000
522.671021	146.480000
522.764709	146.140000
522.858337	146.400000
522.952026	146.140000
523.045654	146.380000
523.139404	147.580000
523.233032	148.080000
523.326721	147.300000
523.420349	147.600000
523.514038	147.360000
523.607666	147.080000
523.701355	146.800000
523.795044	146.920000
523.888733	146.700000
523.982361	146.880000
524.076050	146.440000
524.169678	146.660000
524.263367	146.400000
524.356995	146.060000
524.450684	146.200000
524.544373	146.260000
524.638062	146.320000
524.731750	146.380000
524.825378	146.660000
524.919067	145.860000
525.012695	145.820000
525.106384	145.360000
525.200012	145.580000
525.293701	145.400000
525.387329	145.980000
525.481018	146.140000
525.574646	146.680000
525.668396	146.580000
525.762024	147.380000
525.855713	147.760000
525.949341	147.300000
526.043030	147.160000
526.136658	146.980000
526.230347	146.460000
526.323975	145.880000
526.417664	145.920000
526.511292	146.040000
526.604980	146.420000
526.698608	146.240000
526.792297	146.320000
526.885925	146.620000
526.979614	146.680000
527.073303	146.260000
527.166931	146.360000
527.260620	146.580000
527.354309	146.780000
527.447998	146.520000
527.541626	146.520000
527.635315	146.640000
527.728943	147.300000
527.822632	147.200000
527.916260	147.180000
528.009949	147.520000
528.103577	147.100000
528.197266	146.060000
528.290894	146.320000
528.384583	146.320000
528.478210	146.380000
528.571899	146.960000
528.665527	147.640000
528.759216	147.600000
528.852844	147.860000
528.946533	148.020000
529.040161	147.840000
529.133850	147.420000
529.227478	147.240000
529.321167	147.500000
529.414856	147.540000
529.508484	147.680000
529.602173	147.200000
529.695801	147.240000
529.789490	147.020000
529.883057	146.440000
529.976746	146.600000
530.070374	147.240000
530.164062	147.000000
530.257690	146.960000
530.351379	147.280000
530.445007	147.100000
530.538696	146.700000
530.632324	146.980000
530.726013	146.840000
530.819641	146.900000
530.913330	146.880000
531.006958	146.860000
531.100647	146.740000
531.194275	146.620000
531.287964	146.060000
531.381592	146.040000
531.475220	146.280000
531.568848	146.120000
531.662537	146.240000
531.756226	147.260000
531.849854	147.240000
531.943542	147.420000
532.037170	146.960000
532.130859	147.300000
532.224487	146.560000
532.318176	146.180000
532.411804	146.620000
532.505432	147.080000
532.599060	146.620000
532.692749	146.920000
532.786377	147.460000
532.880066	146.600000
532.973694	146.280000
533.067383	146.400000
533.161011	146.160000
533.254639	146.120000
533.348267	145.980000
533.441956	146.240000
533.535583	146.120000
533.629272	146.160000
533.722900	145.500000
533.816589	145.660000
533.910156	145.920000
534.003845	145.700000
534.097534	145.780000
534.191162	146.540000
534.284851	146.780000
534.378479	146.460000
534.472107	146.580000
534.565735	146.260000
534.659424	146.260000
534.753052	146.380000
534.846741	146.340000
534.940369	147.300000
535.033997	147.560000
535.127625	147.380000
535.221313	147.620000
535.314941	147.460000
535.408630	146.440000
535.502197	146.840000
535.595886	146.500000
535.689514	146.060000
535.783203	146.540000
535.876831	147.060000
535.970459	146.740000
536.064087	146.800000
536.157776	146.820000
536.251404	146.640000
536.345093	146.360000
536.438721	146.440000
536.532349	146.560000
536.626038	146.460000
536.719666	146.660000
536.813293	146.460000
536.906921	146.460000
537.000610	146.700000
537.094238	146.660000
537.187866	146.640000
537.281494	146.480000
537.375183	146.540000
537.468811	146.300000
537.562439	146.420000
537.656067	146.460000
537.749756	146.720000
537.843384	147.080000
537.937012	147.380000
538.030640	147.000000
538.124329	147.080000
538.217896	147.440000
538.311584	147.300000
538.405212	147.080000
538.498901	147.720000
538.592468	148.140000
538.686157	147.240000
538.779785	146.280000
538.873413	146.060000
538.967102	145.680000
539.060730	144.980000
539.154358	145.660000
539.247986	146.400000
539.341675	146.760000
539.435242	146.560000
539.528931	146.700000
539.622559	146.420000
539.716187	147.020000
539.809814	146.780000
539.903503	147.040000
539.997070	146.720000
540.090759	146.940000
540.184387	146.120000
540.278015	146.880000
540.371643	147.060000
540.465332	147.220000
540.558899	147.200000
540.652588	147.500000
540.746216	146.920000
540.839844	146.980000
540.933472	147.220000
541.027100	146.800000
541.120728	146.460000
541.214417	146.560000
541.308044	146.780000
541.401672	146.420000
541.495300	146.680000
541.588928	146.740000
541.682617	146.380000
541.776184	145.740000
541.869873	146.240000
541.963440	146.540000
542.057129	146.500000
542.150757	146.640000
542.244385	146.580000
542.338013	145.880000
542.431641	145.420000
542.525269	145.340000
542.618958	145.860000
542.712524	146.240000
542.806213	146.220000
542.899780	146.540000
542.993469	146.380000
543.087036	145.680000
543.180725	145.360000
543.274292	145.900000
543.367981	145.920000
543.461548	146.160000
543.555237	146.120000
543.648926	146.800000
543.742493	147.180000
543.836182	147.160000
543.929749	147.100000
544.023437	147.220000
544.117004	147.080000
544.210693	146.820000
544.304260	146.880000
544.397949	146.780000
544.491516	147.220000
544.585205	147.100000
544.678772	146.280000
544.772461	146.660000
544.866028	146.640000
544.959717	146.420000
545.053284	145.900000
545.146973	146.700000
545.240540	146.440000
545.334229	147.180000
545.427795	147.200000
545.521423	147.680000
545.615051	147.600000
545.708679	147.960000
545.802307	147.620000
545.895935	148.000000
545.989624	148.460000
546.083191	148.260000
546.176880	147.900000
546.270447	147.420000
546.364136	147.520000
546.457703	147.040000
546.551331	146.920000
546.644958	146.760000
546.738586	147.200000
546.832214	146.680000
546.925842	146.440000
547.019409	147.060000
547.113098	146.720000
547.206665	146.440000
547.300354	146.420000
547.393921	146.760000
547.487549	146.720000
547.581177	146.520000
547.674805	146.360000
547.768433	145.800000
547.862061	145.700000
547.955627	145.020000
548.049316	145.780000
548.142883	146.140000
548.236572	146.700000
548.330139	146.840000
548.423767	146.580000
548.517456	146.340000
548.611023	146.620000
548.704651	146.060000
548.798279	145.880000
548.891907	146.680000
548.985474	146.480000
549.079163	146.380000
549.172729	146.420000
549.266357	146.120000
549.359985	145.920000
549.453613	145.480000
549.547180	145.260000
549.640869	145.700000
549.734436	145.600000
549.828064	146.000000
549.921631	146.160000
550.015320	145.720000
550.108887	146.100000
550.202515	146.300000
550.296143	145.480000
550.389771	145.740000
550.483337	146.000000
550.576965	145.500000
550.670593	145.780000
550.764221	146.220000
550.857849	145.900000
550.951477	145.420000
551.045105	145.200000
551.138672	144.900000
551.232300	144.220000
551.325928	144.780000
551.419556	145.280000
551.513123	145.240000
551.606750	145.120000
551.700378	145.580000
551.794006	145.380000
551.887573	145.200000
551.981201	145.720000
552.074768	145.620000
552.168457	145.480000
552.262024	146.220000
552.355652	146.260000
552.449219	146.660000
552.542847	147.020000
552.636475	146.820000
552.730103	145.620000
552.823669	145.480000
552.917297	144.680000
553.010864	144.680000
553.104553	145.120000
553.198181	145.320000
553.291748	145.700000
553.385376	146.060000
553.478943	145.800000
553.572571	145.760000
553.666199	146.020000
553.759827	145.500000
553.853394	145.260000
553.947021	145.300000
554.040588	145.240000
554.134216	145.220000
554.227783	145.940000
554.321411	146.260000
554.415039	145.920000
554.508667	145.880000
554.602234	146.340000
554.695862	145.820000
554.789429	145.940000
554.883057	146.360000
554.976624	146.200000
555.070251	145.720000
555.163818	145.760000
555.257507	145.400000
555.351074	145.620000
555.444702	146.760000
555.538330	146.720000
555.631897	146.880000
555.725525	146.660000
555.819092	146.300000
555.912720	144.980000
556.006287	145.480000
556.099915	145.580000
556.193481	145.960000
556.287109	146.360000
556.380676	146.540000
556.474304	146.380000
556.567871	146.500000
556.661499	145.660000
556.755066	145.500000
556.848694	145.620000
556.942261	145.340000
557.035889	145.360000
557.129517	146.100000
557.223145	146.460000
557.316711	146.780000
557.410339	146.900000
557.503906	146.840000
557.597473	147.160000
557.691040	146.700000
557.784668	146.540000
557.878296	146.580000
557.971863	146.640000
558.065491	146.600000
558.159058	146.540000
558.252686	147.200000
558.346252	147.860000
558.439880	147.460000
558.533447	146.820000
558.627075	146.440000
558.720642	145.620000
558.814270	144.880000
558.907837	144.980000
559.001465	144.880000
559.095032	145.860000
559.188660	145.940000
559.282227	145.520000
559.375854	146.080000
559.469360	146.260000
559.562988	146.080000
559.656555	146.160000
559.750183	146.700000
559.843750	146.520000
559.937378	146.400000
560.030945	146.160000
560.124573	0.000000
560.218140	0.000000
560.311707	0.000000
560.405334	0.000000
560.498901	0.000000
560.592529	0.000000
560.686096	0.000000
560.779724	0.000000
560.873291	0.000000
560.966858	0.000000
561.060425	0.000000
561.154053	0.000000
561.247620	0.000000
561.341248	0.000000
561.434814	0.000000
561.528381	0.000000
561.621948	0.000000
561.715576	0.000000
561.809143	0.000000
561.902771	0.000000
561.996277	0.000000
562.089905	0.000000
562.183472	0.000000
562.277100	0.000000
