Model Number: SPM-002-B   
Serial Number: 70087108
Firmware Version: 004.15.4
Exposure Time: 100000.000000us
Data Taken on: 11-12-2020 19:36:35.460
Wavelength	Amplitude
221.570786	0.000000
221.663406	0.000000
221.756027	0.000000
221.848648	0.000000
221.941269	0.000000
222.033905	0.000000
222.126526	0.000000
222.219162	0.000000
222.311798	0.000000
222.404419	0.000000
222.497055	0.000000
222.589676	0.000000
222.682312	0.000000
222.774933	0.000000
222.867569	0.000000
222.960205	0.000000
223.052841	0.000000
223.145462	0.000000
223.238098	0.000000
223.330734	0.000000
223.423386	0.000000
223.516022	0.000000
223.608658	0.000000
223.701309	0.000000
223.793945	0.000000
223.886581	0.000000
223.979218	0.000000
224.071869	0.000000
224.164505	0.000000
224.257156	0.000000
224.349792	0.000000
224.442444	0.000000
224.535095	0.000000
224.627747	0.000000
224.720398	0.000000
224.813034	0.000000
224.905685	0.000000
224.998337	145.180000
225.090988	144.820000
225.183640	145.060000
225.276291	144.900000
225.368942	145.340000
225.461594	145.860000
225.554245	146.240000
225.646912	145.980000
225.739578	146.660000
225.832230	146.960000
225.924896	145.920000
226.017548	146.260000
226.110199	146.720000
226.202866	145.820000
226.295532	145.480000
226.388184	145.540000
226.480850	144.900000
226.573517	144.640000
226.666168	145.120000
226.758835	145.440000
226.851501	146.320000
226.944183	146.300000
227.036850	145.820000
227.129517	145.560000
227.222183	145.440000
227.314850	145.040000
227.407516	145.700000
227.500198	146.620000
227.592865	146.580000
227.685532	146.540000
227.778214	146.400000
227.870880	146.500000
227.963562	146.560000
228.056229	147.140000
228.148926	147.060000
228.241592	147.680000
228.334274	146.980000
228.426956	146.700000
228.519638	146.540000
228.612305	146.220000
228.704987	146.240000
228.797668	146.580000
228.890350	146.500000
228.983032	145.980000
229.075714	146.800000
229.168396	146.620000
229.261108	146.280000
229.353790	146.480000
229.446472	146.720000
229.539169	146.480000
229.631851	145.880000
229.724533	146.200000
229.817230	146.080000
229.909912	146.960000
230.002609	146.880000
230.095306	147.140000
230.187988	146.780000
230.280685	146.620000
230.373383	145.420000
230.466095	145.260000
230.558792	145.300000
230.651474	145.760000
230.744171	145.720000
230.836868	145.780000
230.929581	145.660000
231.022278	145.620000
231.114975	145.220000
231.207672	144.960000
231.300369	145.740000
231.393082	146.220000
231.485779	145.880000
231.578506	145.980000
231.671204	146.220000
231.763916	145.920000
231.856613	145.340000
231.949326	145.900000
232.042023	145.720000
232.134735	145.840000
232.227448	145.540000
232.320160	146.040000
232.412872	145.700000
232.505585	146.580000
232.598297	146.600000
232.691010	146.620000
232.783722	146.300000
232.876450	147.020000
232.969162	146.260000
233.061874	145.700000
233.154587	145.540000
233.247314	145.780000
233.340027	144.920000
233.432739	145.520000
233.525467	145.720000
233.618179	146.280000
233.710907	145.920000
233.803635	146.560000
233.896347	146.400000
233.989090	147.000000
234.081818	146.560000
234.174545	146.840000
234.267258	146.100000
234.359985	145.660000
234.452713	145.500000
234.545441	145.340000
234.638168	145.320000
234.730896	146.300000
234.823639	146.180000
234.916367	146.660000
235.009094	146.940000
235.101822	146.500000
235.194580	145.940000
235.287308	146.220000
235.380051	145.480000
235.472778	145.800000
235.565521	146.320000
235.658249	146.120000
235.750992	146.240000
235.843719	146.400000
235.936462	146.380000
236.029205	146.100000
236.121948	145.980000
236.214691	146.320000
236.307449	146.860000
236.400192	146.460000
236.492935	146.300000
236.585678	146.660000
236.678421	146.360000
236.771164	145.800000
236.863907	146.400000
236.956665	146.620000
237.049408	148.140000
237.142151	147.640000
237.234909	148.380000
237.327652	148.000000
237.420410	147.820000
237.513153	146.600000
237.605927	146.680000
237.698669	145.940000
237.791428	145.700000
237.884186	146.360000
237.976944	145.760000
238.069702	146.140000
238.162445	145.920000
238.255203	145.720000
238.347961	145.640000
238.440720	145.740000
238.533478	145.540000
238.626266	145.400000
238.719025	145.760000
238.811783	145.760000
238.904541	145.820000
238.997314	145.720000
239.090073	145.580000
239.182831	145.920000
239.275604	146.300000
239.368362	146.120000
239.461136	146.300000
239.553909	146.540000
239.646667	146.140000
239.739441	145.520000
239.832214	145.800000
239.925003	146.140000
240.017761	146.880000
240.110535	147.220000
240.203308	146.980000
240.296082	147.060000
240.388855	146.840000
240.481628	146.700000
240.574417	146.600000
240.667191	146.840000
240.759964	146.820000
240.852737	146.780000
240.945526	146.180000
241.038315	146.200000
241.131088	146.160000
241.223877	146.040000
241.316650	145.600000
241.409439	146.220000
241.502228	145.860000
241.595001	146.380000
241.687790	146.580000
241.780579	146.740000
241.873367	146.800000
241.966141	147.120000
242.058929	146.460000
242.151718	146.380000
242.244507	146.880000
242.337311	145.760000
242.430099	145.940000
242.522903	146.100000
242.615692	145.500000
242.708481	145.400000
242.801270	146.560000
242.894073	146.320000
242.986862	146.900000
243.079651	147.900000
243.172455	147.520000
243.265244	147.180000
243.358063	146.900000
243.450867	146.400000
243.543655	146.100000
243.636459	146.240000
243.729263	146.380000
243.822067	146.760000
243.914856	147.520000
244.007660	147.480000
244.100464	147.520000
244.193268	147.160000
244.286072	147.060000
244.378876	146.120000
244.471680	145.660000
244.564499	145.920000
244.657318	146.800000
244.750122	146.860000
244.842926	146.560000
244.935745	147.260000
245.028549	146.500000
245.121368	145.860000
245.214172	145.900000
245.306992	146.080000
245.399796	145.360000
245.492615	145.740000
245.585434	145.620000
245.678253	145.240000
245.771072	145.360000
245.863892	145.760000
245.956711	146.020000
246.049530	145.900000
246.142349	145.600000
246.235168	145.760000
246.327988	146.520000
246.420807	146.440000
246.513626	146.440000
246.606445	146.820000
246.699280	146.860000
246.792099	146.080000
246.884918	145.540000
246.977753	145.240000
247.070587	145.460000
247.163422	145.180000
247.256241	145.220000
247.349075	145.760000
247.441895	145.920000
247.534729	145.920000
247.627563	145.800000
247.720383	146.540000
247.813217	146.320000
247.906052	146.280000
247.998886	146.460000
248.091736	146.560000
248.184570	145.820000
248.277405	146.120000
248.370239	147.200000
248.463074	147.720000
248.555908	148.240000
248.648743	148.200000
248.741592	148.040000
248.834427	146.900000
248.927261	145.560000
249.020111	145.600000
249.112946	146.100000
249.205795	146.200000
249.298630	146.580000
249.391495	147.120000
249.484344	146.620000
249.577179	146.480000
249.670029	146.340000
249.762878	146.740000
249.855728	146.680000
249.948563	146.780000
250.041412	146.140000
250.134262	146.560000
250.227112	146.480000
250.319962	146.560000
250.412827	146.560000
250.505692	146.440000
250.598541	145.920000
250.691391	145.400000
250.784241	145.620000
250.877106	145.880000
250.969955	145.820000
251.062805	146.480000
251.155670	147.140000
251.248520	146.640000
251.341385	146.700000
251.434235	146.580000
251.527100	146.100000
251.619965	145.700000
251.712814	146.600000
251.805695	146.400000
251.898560	146.680000
251.991425	146.860000
252.084290	147.280000
252.177155	146.560000
252.270020	146.360000
252.362885	146.580000
252.455750	146.620000
252.548615	146.080000
252.641479	145.940000
252.734360	146.220000
252.827240	145.960000
252.920105	145.900000
253.012970	145.780000
253.105850	146.000000
253.198715	145.640000
253.291595	145.960000
253.384460	145.780000
253.477341	145.780000
253.570221	145.900000
253.663086	145.880000
253.755966	146.240000
253.848846	146.300000
253.941727	146.580000
254.034592	146.500000
254.127472	146.040000
254.220367	145.900000
254.313248	145.820000
254.406128	145.340000
254.499008	145.520000
254.591904	146.420000
254.684784	146.820000
254.777664	146.700000
254.870544	146.720000
254.963440	146.640000
255.056335	146.420000
255.149216	145.680000
255.242111	146.120000
255.334991	146.420000
255.427887	146.360000
255.520767	146.400000
255.613663	146.920000
255.706558	146.560000
255.799438	146.340000
255.892334	146.020000
255.985229	145.840000
256.078125	145.380000
256.171021	145.480000
256.263916	145.940000
256.356812	146.480000
256.449707	146.880000
256.542603	146.800000
256.635498	147.100000
256.728394	146.800000
256.821289	146.160000
256.914215	146.100000
257.007080	146.540000
257.100006	146.340000
257.192932	146.660000
257.285828	147.300000
257.378723	146.940000
257.471619	146.460000
257.564545	146.160000
257.657440	146.180000
257.750336	146.540000
257.843262	146.220000
257.936157	147.220000
258.029053	147.640000
258.121979	147.600000
258.214874	146.660000
258.307800	147.040000
258.400696	146.140000
258.493622	146.000000
258.586517	145.060000
258.679443	145.440000
258.772339	144.900000
258.865265	144.720000
258.958160	144.260000
259.051086	145.620000
259.144012	145.580000
259.236938	146.480000
259.329834	146.760000
259.422791	146.980000
259.515717	145.900000
259.608612	145.640000
259.701538	145.620000
259.794464	145.680000
259.887390	145.200000
259.980316	145.460000
260.073212	145.360000
260.166138	144.240000
260.259064	144.400000
260.351990	145.280000
260.444916	145.220000
260.537842	145.680000
260.630768	146.560000
260.723694	146.340000
260.816620	146.140000
260.909546	146.140000
261.002472	145.760000
261.095398	145.500000
261.188354	145.540000
261.281281	145.020000
261.374207	145.280000
261.467133	146.040000
261.560089	146.000000
261.653015	145.960000
261.745972	146.980000
261.838867	147.460000
261.931824	147.560000
262.024780	147.140000
262.117706	147.120000
262.210663	147.100000
262.303589	146.500000
262.396515	146.260000
262.489471	147.420000
262.582397	147.260000
262.675354	146.640000
262.768280	146.920000
262.861237	146.780000
262.954163	146.420000
263.047119	146.900000
263.140045	146.700000
263.233002	146.360000
263.325958	146.320000
263.418884	145.820000
263.511841	145.520000
263.604797	145.800000
263.697723	146.040000
263.790680	145.880000
263.883636	146.440000
263.976593	145.880000
264.069550	145.920000
264.162476	145.900000
264.255463	146.000000
264.348419	145.580000
264.441376	146.400000
264.534332	146.120000
264.627289	146.140000
264.720245	146.480000
264.813202	146.160000
264.906158	146.100000
264.999115	146.360000
265.092072	146.380000
265.185028	146.400000
265.277985	146.880000
265.370941	146.780000
265.463898	146.500000
265.556854	146.320000
265.649811	145.320000
265.742798	145.240000
265.835754	145.140000
265.928711	145.480000
266.021667	145.040000
266.114655	145.540000
266.207611	145.760000
266.300568	145.200000
266.393585	144.760000
266.486511	145.420000
266.579498	144.860000
266.672485	144.760000
266.765442	145.180000
266.858429	145.720000
266.951385	145.260000
267.044342	145.620000
267.137329	145.280000
267.230316	145.360000
267.323273	144.580000
267.416260	145.360000
267.509216	145.280000
267.602203	145.580000
267.695160	145.980000
267.788147	146.480000
267.881134	145.580000
267.974091	145.900000
268.067078	145.840000
268.160065	145.220000
268.253052	145.000000
268.346008	145.560000
268.438995	144.980000
268.531982	144.900000
268.624969	145.100000
268.717987	145.620000
268.810944	145.580000
268.903961	146.080000
268.996948	145.740000
269.089905	146.260000
269.182892	146.080000
269.275879	146.200000
269.368866	145.600000
269.461853	146.300000
269.554871	145.760000
269.647858	145.400000
269.740845	145.580000
269.833832	146.460000
269.926819	146.100000
270.019806	146.220000
270.112793	146.220000
270.205811	146.020000
270.298798	145.440000
270.391785	145.880000
270.484772	145.620000
270.577789	146.100000
270.670776	145.680000
270.763763	145.820000
270.856750	145.660000
270.949768	145.660000
271.042786	145.660000
271.135773	145.860000
271.228790	146.100000
271.321808	145.620000
271.414795	145.480000
271.507782	144.940000
271.600800	144.700000
271.693817	144.860000
271.786804	145.240000
271.879822	145.600000
271.972809	145.980000
272.065826	146.560000
272.158844	145.900000
272.251831	146.320000
272.344849	146.180000
272.437866	145.600000
272.530853	145.520000
272.623871	145.820000
272.716888	145.000000
272.809906	145.280000
272.902893	145.660000
272.995911	145.200000
273.088928	145.360000
273.181946	145.860000
273.274963	145.460000
273.367981	145.480000
273.460999	145.520000
273.554047	145.540000
273.647003	145.960000
273.740051	146.180000
273.833069	146.500000
273.926086	146.940000
274.019135	146.820000
274.112152	146.100000
274.205170	146.020000
274.298187	146.140000
274.391205	145.480000
274.484222	145.200000
274.577240	145.440000
274.670258	145.260000
274.763306	145.140000
274.856323	145.900000
274.949341	146.440000
275.042358	146.800000
275.135406	146.980000
275.228424	146.860000
275.321442	146.840000
275.414490	146.500000
275.507507	146.660000
275.600525	147.100000
275.693573	146.740000
275.786591	146.220000
275.879669	146.540000
275.972656	145.840000
276.065735	145.660000
276.158752	146.460000
276.251801	147.060000
276.344818	147.040000
276.437866	147.300000
276.530884	146.740000
276.623932	145.740000
276.716980	145.680000
276.809998	145.560000
276.903046	145.540000
276.996094	146.620000
277.089111	147.320000
277.182159	147.640000
277.275208	147.500000
277.368256	147.380000
277.461304	146.580000
277.554321	146.080000
277.647369	145.880000
277.740417	145.900000
277.833466	146.100000
277.926514	146.120000
278.019562	146.620000
278.112610	145.880000
278.205688	146.060000
278.298706	146.020000
278.391785	145.940000
278.484833	145.600000
278.577881	145.680000
278.670929	145.840000
278.763977	145.940000
278.857025	146.680000
278.950073	147.000000
279.043121	146.820000
279.136169	146.780000
279.229248	146.480000
279.322296	145.960000
279.415344	145.540000
279.508392	145.900000
279.601440	145.880000
279.694519	145.860000
279.787567	146.000000
279.880615	145.920000
279.973694	145.780000
280.066742	145.520000
280.159790	145.980000
280.252869	145.620000
280.345917	146.040000
280.438995	146.300000
280.532074	146.320000
280.625122	146.460000
280.718201	147.220000
280.811279	146.980000
280.904327	146.740000
280.997406	147.060000
281.090454	146.860000
281.183533	146.240000
281.276581	146.060000
281.369659	145.580000
281.462738	145.460000
281.555786	145.260000
281.648865	145.400000
281.741943	145.380000
281.835022	146.300000
281.928070	145.820000
282.021149	145.680000
282.114227	145.380000
282.207306	145.400000
282.300385	145.200000
282.393433	145.780000
282.486511	145.820000
282.579590	146.400000
282.672668	146.740000
282.765747	146.420000
282.858856	146.200000
282.951904	146.260000
283.045013	146.320000
283.138062	146.500000
283.231171	146.720000
283.324249	146.740000
283.417328	147.060000
283.510406	146.400000
283.603485	146.120000
283.696564	146.220000
283.789642	146.420000
283.882751	145.960000
283.975830	146.860000
284.068909	146.480000
284.161987	146.660000
284.255066	146.300000
284.348175	146.580000
284.441254	146.160000
284.534332	146.900000
284.627441	146.520000
284.720520	146.160000
284.813599	146.160000
284.906708	145.940000
284.999786	145.360000
285.092896	145.380000
285.185974	146.380000
285.279053	145.860000
285.372192	146.060000
285.465240	146.640000
285.558380	146.460000
285.651459	146.020000
285.744568	146.740000
285.837677	146.220000
285.930756	146.020000
286.023865	146.200000
286.116943	145.780000
286.210052	145.700000
286.303162	146.080000
286.396240	146.200000
286.489349	146.100000
286.582458	146.420000
286.675568	145.920000
286.768646	145.960000
286.861755	145.840000
286.954865	146.520000
287.047974	146.120000
287.141083	146.080000
287.234161	145.780000
287.327271	145.760000
287.420380	145.860000
287.513519	145.860000
287.606598	146.280000
287.699738	146.800000
287.792816	146.560000
287.885956	146.060000
287.979034	146.160000
288.072174	145.940000
288.165283	145.520000
288.258392	145.920000
288.351501	145.320000
288.444611	145.920000
288.537720	146.420000
288.630859	146.420000
288.723969	146.500000
288.817078	147.220000
288.910187	146.700000
289.003296	145.960000
289.096436	145.760000
289.189545	145.500000
289.282654	144.920000
289.375763	145.680000
289.468903	146.360000
289.562012	146.860000
289.655121	146.700000
289.748260	146.980000
289.841400	146.880000
289.934509	146.340000
290.027649	146.300000
290.120728	146.540000
290.213898	146.480000
290.306976	146.140000
290.400146	146.440000
290.493256	146.000000
290.586395	145.920000
290.679535	146.300000
290.772644	146.200000
290.865784	145.200000
290.958893	145.260000
291.052032	144.980000
291.145172	144.800000
291.238281	144.420000
291.331421	144.940000
291.424561	145.480000
291.517670	145.440000
291.610809	145.360000
291.703949	145.500000
291.797089	145.700000
291.890228	145.040000
291.983337	145.060000
292.076477	145.140000
292.169617	145.380000
292.262756	145.500000
292.355927	145.520000
292.449036	145.220000
292.542206	145.340000
292.635315	145.620000
292.728485	145.820000
292.821625	145.800000
292.914764	147.340000
293.007904	147.080000
293.101044	146.760000
293.194183	146.440000
293.287323	146.500000
293.380463	145.400000
293.473602	145.280000
293.566742	145.460000
293.659882	145.940000
293.753021	146.420000
293.846191	146.560000
293.939331	146.320000
294.032471	146.200000
294.125610	145.660000
294.218781	145.640000
294.311920	146.140000
294.405060	146.380000
294.498230	146.320000
294.591370	146.440000
294.684540	145.660000
294.777679	144.720000
294.870850	145.360000
294.963959	145.360000
295.057159	145.200000
295.150299	146.080000
295.243469	146.600000
295.336609	145.740000
295.429779	145.840000
295.522919	146.360000
295.616089	146.040000
295.709229	146.440000
295.802399	146.760000
295.895569	146.360000
295.988708	146.140000
296.081879	146.280000
296.175018	145.520000
296.268188	145.500000
296.361359	146.080000
296.454529	146.100000
296.547668	145.820000
296.640839	146.220000
296.734009	146.140000
296.827179	146.000000
296.920319	146.280000
297.013519	146.020000
297.106659	146.000000
297.199860	146.280000
297.292999	146.320000
297.386200	145.840000
297.479309	145.960000
297.572510	145.640000
297.665680	145.280000
297.758850	145.340000
297.852020	145.420000
297.945190	145.480000
298.038361	145.320000
298.131531	146.120000
298.224701	145.980000
298.317871	145.880000
298.411072	145.440000
298.504242	145.580000
298.597412	145.120000
298.690582	145.080000
298.783752	145.060000
298.876923	145.960000
298.970093	145.980000
299.063293	146.480000
299.156464	146.780000
299.249634	146.860000
299.342834	146.640000
299.436005	147.260000
299.529205	146.540000
299.622345	146.660000
299.715576	146.020000
299.808716	145.720000
299.901917	145.380000
299.995117	145.720000
300.088287	145.560000
300.181488	145.720000
300.274658	145.800000
300.367828	145.940000
300.461029	145.680000
300.554199	145.800000
300.647400	146.160000
300.740601	146.860000
300.833771	146.500000
300.926971	146.900000
301.020142	146.100000
301.113342	146.220000
301.206512	145.800000
301.299713	146.200000
301.392914	146.160000
301.486084	146.900000
301.579285	146.660000
301.672516	147.020000
301.765686	146.540000
301.858887	146.560000
301.952057	146.480000
302.045288	146.480000
302.138458	146.080000
302.231659	146.080000
302.324860	145.660000
302.418060	145.200000
302.511261	145.160000
302.604462	145.360000
302.697662	145.440000
302.790863	145.560000
302.884064	145.500000
302.977264	145.520000
303.070465	145.700000
303.163666	146.300000
303.256866	146.420000
303.350067	146.900000
303.443268	146.900000
303.536469	146.660000
303.629669	146.020000
303.722870	146.260000
303.816071	145.740000
303.909271	145.760000
304.002472	144.940000
304.095673	144.960000
304.188934	143.980000
304.282104	144.900000
304.375336	145.020000
304.468506	145.660000
304.561768	145.660000
304.654968	146.420000
304.748169	146.080000
304.841370	145.700000
304.934601	146.060000
305.027802	145.760000
305.121002	145.560000
305.214233	145.380000
305.307434	146.020000
305.400665	146.020000
305.493866	145.840000
305.587097	146.020000
305.680298	145.740000
305.773499	146.040000
305.866730	145.700000
305.959930	146.540000
306.053162	146.820000
306.146393	146.600000
306.239594	145.520000
306.332825	145.640000
306.426025	145.580000
306.519287	144.920000
306.612488	145.660000
306.705719	146.320000
306.798920	146.360000
306.892181	145.780000
306.985352	145.940000
307.078613	145.140000
307.171844	145.540000
307.265045	145.300000
307.358276	145.140000
307.451508	145.440000
307.544739	146.080000
307.637970	145.280000
307.731201	145.280000
307.824402	146.260000
307.917633	146.160000
308.010864	146.500000
308.104095	147.140000
308.197327	147.440000
308.290558	147.100000
308.383789	146.840000
308.477020	146.120000
308.570251	145.320000
308.663483	144.880000
308.756714	144.740000
308.849976	144.740000
308.943176	145.160000
309.036438	145.280000
309.129639	145.040000
309.222900	145.020000
309.316101	144.860000
309.409393	144.660000
309.502625	144.640000
309.595856	144.900000
309.689087	145.180000
309.782318	145.460000
309.875580	145.460000
309.968811	145.780000
310.062042	145.940000
310.155273	145.780000
310.248535	146.240000
310.341766	146.120000
310.434998	145.900000
310.528259	145.820000
310.621490	145.960000
310.714722	145.240000
310.807983	145.340000
310.901215	145.260000
310.994476	145.380000
311.087708	145.140000
311.181000	145.660000
311.274200	145.360000
311.367462	145.420000
311.460693	144.700000
311.553986	145.280000
311.647186	145.440000
311.740479	145.780000
311.833710	145.300000
311.926971	145.660000
312.020203	144.900000
312.113464	144.320000
312.206726	143.920000
312.299957	144.660000
312.393219	145.140000
312.486481	145.240000
312.579712	145.360000
312.672974	145.600000
312.766235	145.360000
312.859497	145.160000
312.952759	145.200000
313.045990	145.880000
313.139252	145.320000
313.232513	145.820000
313.325775	145.840000
313.419037	145.700000
313.512299	144.720000
313.605530	145.820000
313.698822	145.920000
313.792053	145.880000
313.885345	145.620000
313.978577	145.900000
314.071869	145.000000
314.165131	144.800000
314.258392	145.260000
314.351654	145.680000
314.444916	145.180000
314.538177	146.120000
314.631439	146.200000
314.724701	145.760000
314.817993	145.760000
314.911255	146.080000
315.004517	145.240000
315.097778	145.060000
315.191040	145.460000
315.284302	145.540000
315.377594	145.540000
315.470856	145.800000
315.564117	145.280000
315.657379	144.620000
315.750671	144.100000
315.843933	144.400000
315.937195	143.840000
316.030518	144.000000
316.123749	144.000000
316.217041	144.920000
316.310303	144.860000
316.403595	145.400000
316.496857	145.760000
316.590149	146.240000
316.683411	145.320000
316.776703	145.000000
316.869965	144.980000
316.963257	144.680000
317.056519	144.120000
317.149811	144.260000
317.243073	144.480000
317.336365	144.420000
317.429626	145.020000
317.522919	145.660000
317.616180	145.680000
317.709473	145.400000
317.802765	145.700000
317.896027	145.440000
317.989319	145.420000
318.082611	145.480000
318.175873	145.520000
318.269165	145.200000
318.362488	144.940000
318.455750	144.680000
318.549042	145.280000
318.642303	145.940000
318.735626	145.800000
318.828888	146.160000
318.922211	146.000000
319.015472	146.220000
319.108765	145.640000
319.202057	145.620000
319.295349	145.600000
319.388641	145.500000
319.481934	145.100000
319.575226	144.900000
319.668518	145.100000
319.761810	145.120000
319.855103	145.140000
319.948395	144.600000
320.041687	145.020000
320.134979	144.940000
320.228271	144.780000
320.321564	144.980000
320.414856	145.480000
320.508148	144.940000
320.601440	145.160000
320.694763	145.040000
320.788025	145.500000
320.881348	145.440000
320.974640	145.460000
321.067963	144.660000
321.161224	144.920000
321.254547	144.200000
321.347839	144.660000
321.441162	144.540000
321.534454	145.420000
321.627747	145.000000
321.721069	145.680000
321.814362	145.440000
321.907654	146.060000
322.000946	145.900000
322.094269	146.520000
322.187561	146.080000
322.280884	146.220000
322.374176	146.060000
322.467468	146.100000
322.560791	145.880000
322.654083	146.300000
322.747406	146.340000
322.840698	146.940000
322.934021	147.140000
323.027344	147.380000
323.120636	147.160000
323.213959	146.940000
323.307251	145.880000
323.400574	145.740000
323.493866	145.120000
323.587219	145.240000
323.680511	145.800000
323.773834	146.300000
323.867157	146.360000
323.960449	146.860000
324.053772	146.940000
324.147095	146.480000
324.240387	147.160000
324.333710	147.220000
324.427032	147.100000
324.520355	146.820000
324.613647	146.360000
324.706970	145.840000
324.800293	145.620000
324.893616	145.680000
324.986938	145.920000
325.080231	145.680000
325.173553	145.960000
325.266876	146.340000
325.360199	146.180000
325.453522	145.760000
325.546875	145.800000
325.640167	145.780000
325.733521	146.120000
325.826813	146.200000
325.920166	146.060000
326.013489	146.180000
326.106812	145.320000
326.200134	144.240000
326.293457	143.820000
326.386780	144.040000
326.480103	144.240000
326.573425	144.760000
326.666748	145.020000
326.760071	145.700000
326.853424	145.640000
326.946747	145.520000
327.040070	146.220000
327.133392	146.060000
327.226715	145.300000
327.320068	145.200000
327.413391	146.100000
327.506714	145.160000
327.600037	145.320000
327.693390	145.760000
327.786713	145.780000
327.880066	144.940000
327.973358	145.240000
328.066742	145.780000
328.160034	145.960000
328.253418	146.400000
328.346710	146.620000
328.440063	146.460000
328.533417	146.080000
328.626740	146.200000
328.720093	145.540000
328.813416	145.240000
328.906769	145.140000
329.000092	145.180000
329.093445	144.960000
329.186768	145.200000
329.280121	145.940000
329.373444	146.280000
329.466797	146.120000
329.560120	145.980000
329.653473	146.000000
329.746796	145.420000
329.840149	145.200000
329.933502	145.340000
330.026825	145.120000
330.120178	145.280000
330.213562	145.120000
330.306854	144.880000
330.400238	144.860000
330.493561	144.920000
330.586945	145.360000
330.680237	145.700000
330.773621	145.900000
330.866974	145.940000
330.960327	146.100000
331.053680	145.740000
331.147003	145.820000
331.240356	146.120000
331.333710	146.200000
331.427063	146.040000
331.520416	145.940000
331.613770	145.760000
331.707123	145.680000
331.800476	146.080000
331.893829	147.020000
331.987152	147.160000
332.080505	146.960000
332.173859	146.820000
332.267212	145.900000
332.360565	144.920000
332.453918	144.500000
332.547333	144.660000
332.640656	144.720000
332.734039	145.020000
332.827362	145.100000
332.920746	145.700000
333.014069	145.720000
333.107452	145.900000
333.200806	146.200000
333.294159	146.500000
333.387543	145.880000
333.480896	145.780000
333.574249	145.880000
333.667603	145.580000
333.760956	145.460000
333.854340	145.400000
333.947693	145.380000
334.041046	145.240000
334.134430	145.620000
334.227783	145.280000
334.321136	145.480000
334.414520	145.320000
334.507874	145.400000
334.601227	145.020000
334.694611	145.000000
334.787964	144.980000
334.881348	145.120000
334.974701	144.920000
335.068085	144.680000
335.161438	145.300000
335.254822	145.200000
335.348175	145.220000
335.441559	144.880000
335.534943	145.800000
335.628296	145.420000
335.721680	145.720000
335.815033	145.860000
335.908417	146.340000
336.001770	146.320000
336.095154	146.300000
336.188538	145.820000
336.281891	145.260000
336.375275	144.620000
336.468658	144.000000
336.562012	144.060000
336.655396	144.740000
336.748779	145.340000
336.842133	146.000000
336.935516	146.280000
337.028900	146.120000
337.122284	145.660000
337.215637	145.820000
337.309021	145.520000
337.402435	145.060000
337.495789	145.320000
337.589203	145.400000
337.682526	145.060000
337.775940	145.400000
337.869324	145.800000
337.962708	145.540000
338.056091	146.060000
338.149475	145.620000
338.242859	145.660000
338.336243	145.320000
338.429626	145.560000
338.523010	145.360000
338.616394	145.500000
338.709778	145.680000
338.803162	146.200000
338.896545	146.060000
338.989929	145.620000
339.083313	145.800000
339.176697	145.180000
339.270081	144.860000
339.363464	145.100000
339.456848	145.480000
339.550232	144.960000
339.643616	145.280000
339.737030	145.180000
339.830383	144.940000
339.923828	145.060000
340.017181	145.680000
340.110596	145.180000
340.203949	145.260000
340.297363	144.940000
340.390778	144.760000
340.484161	144.740000
340.577545	145.240000
340.670959	145.620000
340.764343	145.840000
340.857727	146.160000
340.951111	145.460000
341.044525	145.580000
341.137909	144.900000
341.231293	144.860000
341.324707	143.980000
341.418091	145.100000
341.511505	144.920000
341.604889	145.360000
341.698303	145.620000
341.791687	145.880000
341.885071	145.360000
341.978485	145.120000
342.071899	145.020000
342.165283	145.180000
342.258698	145.660000
342.352081	146.060000
342.445496	146.900000
342.538879	146.920000
342.632324	146.560000
342.725708	146.200000
342.819122	145.640000
342.912506	144.900000
343.005920	144.980000
343.099335	145.980000
343.192719	146.020000
343.286133	145.940000
343.379547	146.480000
343.472931	146.460000
343.566345	145.600000
343.659760	145.980000
343.753143	145.920000
343.846558	145.400000
343.939972	145.200000
344.033386	145.760000
344.126770	145.280000
344.220184	145.540000
344.313599	146.020000
344.407043	146.220000
344.500427	145.460000
344.593872	146.220000
344.687225	145.920000
344.780670	145.280000
344.874054	145.060000
344.967499	145.600000
345.060913	145.080000
345.154327	145.320000
345.247742	145.340000
345.341156	145.180000
345.434570	144.760000
345.527985	144.660000
345.621399	144.920000
345.714813	144.900000
345.808228	145.420000
345.901642	145.240000
345.995056	144.940000
346.088470	145.160000
346.181885	145.320000
346.275299	144.680000
346.368713	145.000000
346.462128	144.760000
346.555573	144.400000
346.648987	144.680000
346.742401	145.040000
346.835815	145.160000
346.929260	145.320000
347.022644	145.200000
347.116119	144.740000
347.209503	145.100000
347.302948	146.060000
347.396362	146.820000
347.489807	147.080000
347.583221	147.880000
347.676636	147.040000
347.770050	145.740000
347.863495	145.140000
347.956909	145.300000
348.050323	144.940000
348.143768	145.600000
348.237183	145.400000
348.330597	145.940000
348.424042	145.880000
348.517456	146.000000
348.610901	146.080000
348.704315	146.340000
348.797760	145.680000
348.891174	145.420000
348.984619	144.840000
349.078033	144.960000
349.171448	145.440000
349.264923	145.580000
349.358337	145.480000
349.451782	145.500000
349.545197	144.840000
349.638641	144.240000
349.732086	143.860000
349.825500	144.460000
349.918945	144.500000
350.012390	145.100000
350.105804	145.700000
350.199249	146.220000
350.292664	146.100000
350.386108	146.240000
350.479553	146.260000
350.572968	146.120000
350.666412	146.400000
350.759857	146.200000
350.853302	146.640000
350.946716	146.240000
351.040161	146.060000
351.133606	145.760000
351.227081	145.580000
351.320465	146.240000
351.413940	146.340000
351.507355	146.680000
351.600830	146.740000
351.694244	146.680000
351.787720	146.080000
351.881104	146.080000
351.974579	145.740000
352.067993	146.660000
352.161469	146.680000
352.254883	146.240000
352.348358	146.200000
352.441803	146.120000
352.535248	145.460000
352.628693	146.020000
352.722137	145.880000
352.815582	145.920000
352.909027	146.160000
353.002472	145.700000
353.095917	145.520000
353.189362	145.800000
353.282806	145.860000
353.376251	145.480000
353.469696	145.060000
353.563141	145.360000
353.656586	145.060000
353.750061	144.680000
353.843475	144.740000
353.936981	145.700000
354.030396	144.980000
354.123871	145.160000
354.217285	146.160000
354.310760	146.600000
354.404175	146.140000
354.497681	146.120000
354.591095	146.280000
354.684570	145.240000
354.777985	144.640000
354.871490	144.580000
354.964935	145.100000
355.058380	145.100000
355.151855	145.180000
355.245300	145.740000
355.338745	146.260000
355.432220	146.000000
355.525665	145.400000
355.619110	145.760000
355.712585	145.640000
355.806030	145.040000
355.899475	144.760000
355.992950	145.260000
356.086426	145.700000
356.179871	145.680000
356.273346	146.220000
356.366791	146.480000
356.460266	146.580000
356.553711	145.920000
356.647186	145.860000
356.740631	145.440000
356.834106	145.200000
356.927551	145.300000
357.021027	145.520000
357.114471	145.700000
357.207947	145.920000
357.301422	146.540000
357.394867	146.460000
357.488342	146.640000
357.581818	146.620000
357.675262	146.620000
357.768738	146.040000
357.862213	145.400000
357.955658	145.320000
358.049133	145.060000
358.142609	145.560000
358.236053	145.560000
358.329529	145.820000
358.423035	145.780000
358.516449	145.500000
358.609955	145.640000
358.703400	146.480000
358.796906	146.860000
358.890350	146.500000
358.983826	147.060000
359.077271	146.420000
359.170776	146.040000
359.264221	145.700000
359.357727	146.100000
359.451172	146.360000
359.544647	146.340000
359.638123	146.080000
359.731598	146.560000
359.825073	146.640000
359.918549	146.420000
360.012024	146.580000
360.105499	145.940000
360.198975	145.900000
360.292450	145.760000
360.385925	145.620000
360.479401	145.060000
360.572876	145.500000
360.666351	145.560000
360.759857	145.480000
360.853302	145.540000
360.946808	145.400000
361.040253	145.640000
361.133759	145.180000
361.227203	145.620000
361.320709	145.260000
361.414154	145.860000
361.507660	146.220000
361.601105	146.820000
361.694641	146.820000
361.788086	146.800000
361.881592	147.520000
361.975067	146.960000
362.068542	147.040000
362.162018	147.060000
362.255524	146.740000
362.348999	146.260000
362.442474	146.760000
362.535950	146.180000
362.629456	145.620000
362.722931	145.880000
362.816406	145.900000
362.909882	145.920000
363.003387	145.620000
363.096863	146.260000
363.190338	146.440000
363.283875	146.100000
363.377319	146.040000
363.470825	146.700000
363.564301	145.880000
363.657806	145.960000
363.751282	145.900000
363.844788	146.580000
363.938232	146.100000
364.031769	147.100000
364.125214	147.060000
364.218750	147.540000
364.312225	146.320000
364.405731	146.440000
364.499207	145.800000
364.592712	145.620000
364.686188	145.380000
364.779694	145.580000
364.873169	145.540000
364.966675	145.280000
365.060150	145.060000
365.153656	145.680000
365.247131	145.800000
365.340637	146.120000
365.434143	146.920000
365.527618	147.520000
365.621155	146.280000
365.714600	146.180000
365.808136	146.120000
365.901611	144.840000
365.995117	144.360000
366.088593	144.700000
366.182129	144.520000
366.275604	144.520000
366.369110	145.140000
366.462585	145.180000
366.556122	145.720000
366.649567	145.840000
366.743103	145.680000
366.836609	145.320000
366.930115	145.840000
367.023590	145.700000
367.117096	145.780000
367.210602	145.740000
367.304108	146.280000
367.397614	146.520000
367.491119	146.520000
367.584595	146.400000
367.678101	146.760000
367.771606	146.520000
367.865112	145.720000
367.958649	145.240000
368.052124	145.060000
368.145660	144.520000
368.239136	145.080000
368.332672	145.180000
368.426147	145.260000
368.519684	145.420000
368.613159	145.980000
368.706696	145.320000
368.800171	145.620000
368.893707	145.840000
368.987183	146.200000
369.080719	146.180000
369.174225	146.380000
369.267731	146.440000
369.361237	146.180000
369.454742	146.000000
369.548248	146.280000
369.641754	145.880000
369.735260	145.740000
369.828766	145.360000
369.922272	145.940000
370.015808	145.160000
370.109314	145.360000
370.202820	145.240000
370.296356	146.280000
370.389832	145.500000
370.483368	145.540000
370.576874	145.580000
370.670410	145.960000
370.763885	145.080000
370.857422	145.360000
370.950928	145.160000
371.044464	146.080000
371.137939	145.760000
371.231476	146.260000
371.324982	146.900000
371.418518	147.080000
371.512024	146.440000
371.605560	146.240000
371.699066	146.220000
371.792572	145.200000
371.886108	145.820000
371.979614	145.760000
372.073120	146.380000
372.166656	146.460000
372.260162	147.020000
372.353668	146.660000
372.447205	146.320000
372.540710	145.880000
372.634277	145.640000
372.727753	145.940000
372.821320	145.940000
372.914795	146.160000
373.008362	146.140000
373.101837	146.320000
373.195404	145.680000
373.288879	145.700000
373.382446	146.500000
373.475922	146.580000
373.569489	147.040000
373.662964	147.540000
373.756531	147.420000
373.850037	146.900000
373.943573	147.040000
374.037109	145.760000
374.130615	145.840000
374.224152	146.060000
374.317657	145.940000
374.411194	146.600000
374.504730	147.080000
374.598236	146.440000
374.691772	146.020000
374.785309	146.060000
374.878815	144.800000
374.972351	145.160000
375.065887	145.200000
375.159454	146.260000
375.252930	146.100000
375.346497	146.880000
375.440002	147.200000
375.533569	147.320000
375.627045	146.280000
375.720612	146.060000
375.814117	145.960000
375.907684	145.360000
376.001160	145.040000
376.094727	144.800000
376.188232	145.900000
376.281799	146.160000
376.375336	146.440000
376.468872	147.260000
376.562408	147.500000
376.655914	146.580000
376.749451	145.940000
376.842987	145.960000
376.936523	145.180000
377.030060	145.180000
377.123596	145.360000
377.217133	145.100000
377.310669	144.760000
377.404205	145.400000
377.497772	146.200000
377.591278	145.860000
377.684845	146.800000
377.778351	147.080000
377.871918	146.780000
377.965424	145.480000
378.058990	145.680000
378.152496	145.200000
378.246063	145.240000
378.339569	145.400000
378.433136	145.680000
378.526642	145.640000
378.620209	145.620000
378.713745	145.420000
378.807312	145.680000
378.900848	146.020000
378.994385	146.240000
379.087921	145.620000
379.181458	145.860000
379.274994	145.300000
379.368530	145.260000
379.462097	145.380000
379.555634	146.440000
379.649170	145.960000
379.742706	145.720000
379.836273	145.900000
379.929810	145.580000
380.023376	144.740000
380.116882	144.840000
380.210449	144.900000
380.303986	144.680000
380.397552	144.560000
380.491058	145.080000
380.584656	145.080000
380.678162	145.380000
380.771729	145.500000
380.865265	146.200000
380.958832	146.220000
381.052368	146.460000
381.145935	146.740000
381.239471	146.960000
381.333008	146.700000
381.426575	146.480000
381.520111	146.740000
381.613647	146.960000
381.707214	146.680000
381.800751	146.340000
381.894318	146.500000
381.987854	146.040000
382.081421	145.640000
382.174988	145.660000
382.268524	145.320000
382.362091	145.260000
382.455627	146.140000
382.549194	145.760000
382.642731	145.080000
382.736298	145.060000
382.829834	145.020000
382.923401	144.660000
383.016937	145.200000
383.110504	146.200000
383.204041	146.360000
383.297607	146.640000
383.391174	146.060000
383.484741	146.440000
383.578278	145.720000
383.671844	145.680000
383.765411	145.060000
383.858948	145.460000
383.952515	145.180000
384.046051	145.580000
384.139618	145.880000
384.233185	146.400000
384.326721	146.500000
384.420288	146.720000
384.513855	146.980000
384.607422	147.140000
384.700989	147.460000
384.794525	147.060000
384.888123	146.840000
384.981659	147.000000
385.075226	146.640000
385.168762	146.160000
385.262360	146.180000
385.355896	145.560000
385.449463	145.140000
385.542999	145.360000
385.636597	145.900000
385.730164	146.220000
385.823730	146.080000
385.917267	145.520000
386.010834	145.380000
386.104401	144.940000
386.197968	145.180000
386.291534	145.920000
386.385101	146.420000
386.478668	146.720000
386.572235	146.680000
386.665802	146.020000
386.759338	145.560000
386.852905	145.280000
386.946472	145.020000
387.040070	145.380000
387.133606	145.480000
387.227203	145.380000
387.320740	145.880000
387.414337	145.780000
387.507874	145.460000
387.601471	145.380000
387.695007	145.360000
387.788605	144.980000
387.882141	145.460000
387.975739	145.440000
388.069275	145.060000
388.162872	145.100000
388.256439	145.280000
388.350037	144.560000
388.443604	144.540000
388.537170	144.920000
388.630737	145.620000
388.724304	145.660000
388.817871	146.020000
388.911438	146.060000
389.005005	146.580000
389.098602	146.600000
389.192169	146.380000
389.285736	146.780000
389.379333	146.740000
389.472870	146.280000
389.566467	146.000000
389.660034	146.140000
389.753632	145.420000
389.847168	145.860000
389.940765	146.020000
390.034332	146.100000
390.127930	145.820000
390.221466	145.800000
390.315063	145.240000
390.408630	144.720000
390.502228	144.100000
390.595795	144.360000
390.689362	144.660000
390.782959	145.160000
390.876526	145.660000
390.970093	145.640000
391.063690	146.260000
391.157257	146.360000
391.250824	146.520000
391.344421	146.380000
391.437988	147.000000
391.531555	146.760000
391.625153	146.740000
391.718750	146.520000
391.812317	146.680000
391.905914	146.360000
391.999481	145.980000
392.093079	146.200000
392.186615	146.300000
392.280243	146.020000
392.373779	145.900000
392.467407	146.420000
392.560944	146.000000
392.654572	145.660000
392.748108	145.840000
392.841736	146.180000
392.935303	145.740000
393.028900	145.860000
393.122467	145.780000
393.216064	145.460000
393.309631	144.660000
393.403229	144.340000
393.496796	144.360000
393.590393	143.940000
393.683990	144.280000
393.777557	145.280000
393.871155	145.680000
393.964722	145.860000
394.058350	146.300000
394.151917	146.460000
394.245514	145.880000
394.339081	146.220000
394.432678	146.560000
394.526245	146.360000
394.619873	145.700000
394.713409	146.060000
394.807037	145.460000
394.900604	145.640000
394.994202	145.840000
395.087769	146.220000
395.181396	145.580000
395.274994	146.680000
395.368561	145.420000
395.462158	145.520000
395.555756	145.440000
395.649353	145.900000
395.742920	144.960000
395.836517	145.960000
395.930115	145.440000
396.023712	145.800000
396.117279	145.940000
396.210876	145.760000
396.304474	145.500000
396.398071	146.040000
396.491669	146.240000
396.585266	146.100000
396.678833	146.340000
396.772461	146.680000
396.866028	146.560000
396.959656	146.780000
397.053223	147.380000
397.146851	147.660000
397.240417	148.580000
397.334015	150.400000
397.427582	151.400000
397.521210	153.500000
397.614807	156.820000
397.708405	160.040000
397.802002	164.120000
397.895599	170.540000
397.989197	177.680000
398.082794	185.600000
398.176392	195.780000
398.269989	207.400000
398.363586	221.660000
398.457184	238.920000
398.550781	259.220000
398.644379	281.840000
398.737976	306.760000
398.831573	333.360000
398.925201	359.520000
399.018768	386.520000
399.112396	412.500000
399.205963	437.860000
399.299591	461.140000
399.393158	484.560000
399.486786	506.500000
399.580353	527.160000
399.673981	544.760000
399.767578	561.540000
399.861206	574.800000
399.954773	584.800000
400.048401	588.660000
400.141998	588.480000
400.235596	583.180000
400.329193	573.120000
400.422791	557.500000
400.516418	540.120000
400.610016	520.960000
400.703613	498.700000
400.797211	471.860000
400.890808	443.720000
400.984436	414.080000
401.078033	383.180000
401.171631	352.740000
401.265259	325.280000
401.358826	300.540000
401.452484	277.940000
401.546051	258.140000
401.639679	238.760000
401.733246	222.260000
401.826904	207.220000
401.920471	193.540000
402.014099	182.200000
402.107697	173.660000
402.201324	166.960000
402.294891	161.520000
402.388550	158.080000
402.482147	155.140000
402.575745	152.580000
402.669373	150.240000
402.762970	149.080000
402.856567	148.500000
402.950195	147.780000
403.043793	147.700000
403.137390	148.500000
403.231018	147.620000
403.324615	148.080000
403.418243	147.580000
403.511841	147.600000
403.605469	146.840000
403.699066	147.520000
403.792694	146.600000
403.886292	146.700000
403.979919	146.540000
404.073517	146.220000
404.167145	146.540000
404.260712	146.900000
404.354370	147.080000
404.447937	147.240000
404.541595	147.540000
404.635162	147.140000
404.728821	147.260000
404.822418	146.680000
404.916046	146.260000
405.009644	146.460000
405.103271	146.740000
405.196899	146.280000
405.290497	146.860000
405.384125	147.260000
405.477722	146.540000
405.571350	145.840000
405.664948	145.940000
405.758575	145.440000
405.852203	144.860000
405.945801	145.360000
406.039429	145.400000
406.133057	145.200000
406.226654	145.520000
406.320312	145.560000
406.413879	145.620000
406.507538	145.960000
406.601135	145.500000
406.694763	145.620000
406.788361	145.560000
406.882019	145.440000
406.975586	145.740000
407.069244	146.520000
407.162872	146.320000
407.256470	146.420000
407.350098	146.320000
407.443726	145.600000
407.537323	144.980000
407.630951	145.420000
407.724579	145.100000
407.818207	145.520000
407.911804	145.760000
408.005432	145.980000
408.099060	145.840000
408.192688	146.380000
408.286285	146.080000
408.379913	145.860000
408.473572	146.100000
408.567169	145.740000
408.660828	145.540000
408.754395	145.520000
408.848053	145.560000
408.941650	145.460000
409.035309	145.140000
409.128906	145.180000
409.222565	145.300000
409.316132	145.540000
409.409790	145.520000
409.503387	145.720000
409.597046	145.860000
409.690674	145.760000
409.784302	145.840000
409.877930	145.940000
409.971558	146.300000
410.065186	146.380000
410.158783	146.220000
410.252411	146.060000
410.346039	146.280000
410.439667	146.540000
410.533295	146.660000
410.626923	146.920000
410.720551	146.640000
410.814209	147.040000
410.907806	146.980000
411.001465	146.360000
411.095062	146.400000
411.188721	146.840000
411.282318	145.960000
411.375977	145.360000
411.469574	145.740000
411.563232	145.460000
411.656830	144.820000
411.750488	145.080000
411.844086	145.020000
411.937744	145.100000
412.031372	145.020000
412.125000	145.320000
412.218628	145.140000
412.312256	145.940000
412.405884	145.940000
412.499512	145.840000
412.593170	146.420000
412.686798	146.820000
412.780426	146.020000
412.874054	146.380000
412.967682	146.580000
413.061310	146.640000
413.154968	146.680000
413.248566	147.020000
413.342224	146.600000
413.435852	147.040000
413.529510	146.420000
413.623108	145.880000
413.716766	145.720000
413.810364	146.020000
413.904022	145.300000
413.997650	145.020000
414.091309	145.860000
414.184906	145.880000
414.278564	145.520000
414.372192	146.060000
414.465851	146.480000
414.559479	145.820000
414.653107	146.480000
414.746735	146.440000
414.840393	146.060000
414.934021	146.380000
415.027649	145.940000
415.121277	145.380000
415.214935	145.680000
415.308563	145.780000
415.402191	145.160000
415.495850	145.480000
415.589478	145.440000
415.683136	145.180000
415.776733	145.680000
415.870422	146.400000
415.964020	146.220000
416.057678	146.240000
416.151306	146.220000
416.244965	145.720000
416.338562	145.420000
416.432251	145.920000
416.525848	146.740000
416.619507	147.120000
416.713165	147.420000
416.806793	147.320000
416.900421	147.200000
416.994080	146.120000
417.087708	145.820000
417.181366	145.360000
417.274994	145.160000
417.368622	145.540000
417.462280	146.340000
417.555908	146.440000
417.649567	146.280000
417.743195	146.700000
417.836853	146.620000
417.930481	146.500000
418.024170	146.520000
418.117767	147.100000
418.211426	147.020000
418.305054	147.120000
418.398712	146.540000
418.492340	146.760000
418.585999	147.220000
418.679626	147.360000
418.773285	147.180000
418.866913	147.980000
418.960571	147.940000
419.054230	147.780000
419.147858	147.760000
419.241516	147.880000
419.335144	146.980000
419.428802	146.720000
419.522461	145.900000
419.616089	145.200000
419.709747	145.340000
419.803375	145.880000
419.897034	145.680000
419.990662	146.020000
420.084320	146.600000
420.177979	146.600000
420.271606	146.520000
420.365295	147.260000
420.458893	147.660000
420.552582	147.800000
420.646210	147.600000
420.739868	147.640000
420.833496	146.900000
420.927155	146.320000
421.020782	145.920000
421.114471	145.340000
421.208069	145.340000
421.301758	145.800000
421.395386	145.920000
421.489044	145.880000
421.582703	146.080000
421.676361	146.520000
421.769989	146.100000
421.863647	146.660000
421.957306	147.040000
422.050934	147.240000
422.144592	146.860000
422.238251	146.780000
422.331909	146.280000
422.425537	145.880000
422.519196	145.640000
422.612854	145.020000
422.706543	144.820000
422.800140	145.020000
422.893829	144.860000
422.987457	144.560000
423.081146	145.000000
423.174744	145.720000
423.268433	145.500000
423.362061	145.500000
423.455750	145.300000
423.549347	145.060000
423.643036	144.140000
423.736664	144.680000
423.830353	144.860000
423.924011	145.840000
424.017639	145.800000
424.111298	146.180000
424.204956	145.760000
424.298615	145.840000
424.392273	145.400000
424.485931	145.560000
424.579559	145.880000
424.673218	145.860000
424.766876	145.940000
424.860535	145.600000
424.954193	145.540000
425.047882	145.600000
425.141510	145.800000
425.235199	145.520000
425.328796	145.660000
425.422485	145.540000
425.516113	145.000000
425.609802	144.700000
425.703430	145.060000
425.797119	145.160000
425.890747	145.360000
425.984436	145.720000
426.078064	146.060000
426.171753	146.000000
426.265411	145.660000
426.359070	145.560000
426.452728	145.360000
426.546356	145.020000
426.640015	144.820000
426.733673	145.100000
426.827332	144.840000
426.920990	145.760000
427.014648	145.560000
427.108307	145.500000
427.201965	146.100000
427.295624	146.700000
427.389282	145.720000
427.482941	146.320000
427.576630	146.640000
427.670258	145.820000
427.763947	145.440000
427.857574	145.660000
427.951263	145.320000
428.044922	145.140000
428.138611	145.400000
428.232239	145.940000
428.325928	146.220000
428.419556	146.700000
428.513245	146.180000
428.606903	146.800000
428.700562	146.160000
428.794220	145.780000
428.887878	145.120000
428.981537	145.540000
429.075195	144.980000
429.168854	145.660000
429.262512	145.660000
429.356201	146.040000
429.449860	146.140000
429.543518	146.120000
429.637177	145.880000
429.730835	145.820000
429.824493	145.540000
429.918182	145.740000
430.011810	145.240000
430.105530	144.660000
430.199158	144.920000
430.292847	144.900000
430.386475	144.540000
430.480164	144.700000
430.573792	144.760000
430.667511	144.340000
430.761139	144.580000
430.854828	145.040000
430.948456	145.200000
431.042145	145.820000
431.135834	146.060000
431.229492	145.860000
431.323151	146.160000
431.416809	146.180000
431.510468	145.860000
431.604156	145.660000
431.697815	145.660000
431.791473	144.720000
431.885132	144.620000
431.978821	144.940000
432.072479	145.140000
432.166138	145.720000
432.259827	145.620000
432.353485	145.900000
432.447174	145.740000
432.540802	145.720000
432.634491	145.320000
432.728149	145.960000
432.821838	146.160000
432.915466	145.900000
433.009186	146.080000
433.102814	145.500000
433.196503	145.320000
433.290131	145.220000
433.383850	145.400000
433.477509	145.220000
433.571167	146.320000
433.664856	146.460000
433.758514	146.660000
433.852173	146.520000
433.945862	146.260000
434.039520	145.600000
434.133179	145.280000
434.226868	145.040000
434.320526	144.780000
434.414185	145.520000
434.507874	145.580000
434.601562	145.860000
434.695221	145.520000
434.788910	145.980000
434.882538	145.920000
434.976257	145.500000
435.069885	145.660000
435.163574	145.840000
435.257233	145.340000
435.350922	145.100000
435.444580	145.140000
435.538269	144.640000
435.631897	144.960000
435.725616	145.820000
435.819275	146.220000
435.912964	146.820000
436.006622	147.200000
436.100311	146.940000
436.193970	146.140000
436.287628	146.000000
436.381317	145.640000
436.474976	145.320000
436.568665	145.220000
436.662323	145.520000
436.756012	145.380000
436.849670	145.100000
436.943390	144.940000
437.037018	144.920000
437.130737	144.920000
437.224365	144.900000
437.318085	145.260000
437.411713	145.700000
437.505432	146.120000
437.599060	146.580000
437.692780	146.900000
437.786407	146.820000
437.880127	146.780000
437.973755	146.500000
438.067474	145.740000
438.161133	145.700000
438.254822	146.240000
438.348480	145.960000
438.442169	146.380000
438.535828	146.880000
438.629517	146.460000
438.723175	145.960000
438.816864	146.380000
438.910553	145.840000
439.004211	145.660000
439.097900	145.380000
439.191559	145.300000
439.285248	144.820000
439.378906	145.220000
439.472626	145.160000
439.566284	145.100000
439.659973	145.620000
439.753632	145.460000
439.847321	145.820000
439.940979	145.600000
440.034698	145.940000
440.128326	145.460000
440.222046	145.600000
440.315674	144.420000
440.409393	145.040000
440.503082	144.960000
440.596741	145.080000
440.690430	145.420000
440.784088	145.620000
440.877777	144.840000
440.971466	144.840000
441.065125	144.740000
441.158813	144.440000
441.252502	144.860000
441.346161	145.340000
441.439850	145.440000
441.533539	145.260000
441.627197	145.800000
441.720886	145.660000
441.814606	146.080000
441.908234	146.360000
442.001953	146.240000
442.095612	145.940000
442.189301	146.140000
442.282959	145.860000
442.376678	145.120000
442.470306	146.180000
442.564026	145.740000
442.657684	145.940000
442.751404	145.800000
442.845032	146.640000
442.938751	145.840000
443.032440	146.380000
443.126099	145.620000
443.219788	146.020000
443.313477	145.900000
443.407166	146.000000
443.500824	145.860000
443.594513	146.500000
443.688202	146.200000
443.781891	145.720000
443.875549	145.400000
443.969238	145.480000
444.062927	145.320000
444.156647	145.160000
444.250275	145.500000
444.343994	145.760000
444.437653	145.720000
444.531372	145.740000
444.625031	145.660000
444.718719	145.400000
444.812378	145.440000
444.906097	145.240000
444.999756	144.640000
445.093445	144.640000
445.187103	144.780000
445.280823	145.540000
445.374512	145.120000
445.468201	145.760000
445.561859	145.400000
445.655548	145.340000
445.749237	144.660000
445.842926	145.360000
445.936615	145.600000
446.030304	145.860000
446.123962	146.120000
446.217651	145.720000
446.311340	146.080000
446.405029	145.380000
446.498749	145.380000
446.592407	145.000000
446.686096	145.560000
446.779755	145.120000
446.873474	145.580000
446.967133	145.840000
447.060852	145.620000
447.154510	145.240000
447.248230	145.040000
447.341858	144.800000
447.435577	144.460000
447.529236	144.360000
447.622955	144.220000
447.716644	144.600000
447.810333	144.780000
447.904022	145.120000
447.997711	145.400000
448.091400	145.960000
448.185059	145.800000
448.278748	145.960000
448.372437	145.680000
448.466125	145.800000
448.559814	145.560000
448.653503	145.880000
448.747192	145.760000
448.840912	146.540000
448.934570	146.740000
449.028290	147.220000
449.121948	146.660000
449.215637	146.640000
449.309296	145.740000
449.403015	145.980000
449.496674	145.640000
449.590393	145.700000
449.684052	145.560000
449.777771	146.660000
449.871429	145.860000
449.965149	145.820000
450.058838	146.040000
450.152527	146.560000
450.246216	145.920000
450.339905	146.180000
450.433594	146.200000
450.527283	146.940000
450.620972	146.640000
450.714661	146.740000
450.808350	146.800000
450.902039	146.620000
450.995728	145.860000
451.089417	145.600000
451.183105	145.660000
451.276794	146.080000
451.370514	145.720000
451.464172	145.220000
451.557892	145.000000
451.651550	144.880000
451.745270	144.340000
451.838928	144.300000
451.932648	145.080000
452.026306	145.580000
452.120026	145.180000
452.213684	145.920000
452.307404	146.160000
452.401062	145.940000
452.494781	146.300000
452.588470	146.500000
452.682159	145.740000
452.775848	145.960000
452.869537	145.700000
452.963226	145.060000
453.056915	145.060000
453.150604	145.320000
453.244293	145.200000
453.337982	145.940000
453.431671	146.620000
453.525360	147.100000
453.619049	147.200000
453.712769	147.160000
453.806427	146.400000
453.900146	145.800000
453.993805	145.460000
454.087555	145.360000
454.181213	145.780000
454.274933	145.800000
454.368591	145.740000
454.462311	145.540000
454.555969	145.600000
454.649689	145.720000
454.743347	145.640000
454.837067	146.220000
454.930756	146.580000
455.024445	146.780000
455.118134	146.580000
455.211853	147.060000
455.305542	146.620000
455.399231	146.580000
455.492920	146.200000
455.586609	146.080000
455.680298	145.920000
455.773987	145.680000
455.867676	145.540000
455.961365	145.740000
456.055084	145.600000
456.148773	145.260000
456.242493	145.600000
456.336151	145.520000
456.429871	145.640000
456.523529	145.840000
456.617249	145.740000
456.710907	146.160000
456.804626	146.180000
456.898315	145.720000
456.992035	145.540000
457.085693	145.600000
457.179413	144.960000
457.273102	145.740000
457.366791	145.940000
457.460480	146.260000
457.554199	146.920000
457.647888	147.060000
457.741577	146.520000
457.835266	146.620000
457.928955	146.420000
458.022644	146.360000
458.116364	146.640000
458.210052	146.500000
458.303741	146.700000
458.397461	146.220000
458.491119	145.540000
458.584839	145.260000
458.678528	144.820000
458.772247	144.100000
458.865906	144.480000
458.959625	145.560000
459.053284	145.680000
459.147003	145.880000
459.240692	146.840000
459.334412	147.040000
459.428070	146.280000
459.521790	146.000000
459.615479	145.920000
459.709198	145.800000
459.802887	145.360000
459.896576	145.420000
459.990265	145.680000
460.083954	146.220000
460.177673	145.860000
460.271362	146.040000
460.365051	146.000000
460.458740	145.460000
460.552429	144.700000
460.646149	144.640000
460.739838	144.580000
460.833527	144.560000
460.927246	144.500000
461.020905	144.840000
461.114655	144.740000
461.208313	145.040000
461.302032	144.700000
461.395691	145.280000
461.489441	145.560000
461.583099	145.660000
461.676819	145.280000
461.770477	146.000000
461.864197	145.460000
461.957916	144.980000
462.051605	144.620000
462.145294	145.760000
462.238983	145.280000
462.332703	146.140000
462.426392	147.140000
462.520081	147.320000
462.613770	146.360000
462.707489	146.700000
462.801178	146.340000
462.894867	145.500000
462.988556	145.580000
463.082275	145.620000
463.175964	145.120000
463.269684	145.300000
463.363342	145.320000
463.457092	144.860000
463.550751	145.080000
463.644470	145.260000
463.738129	144.920000
463.831879	145.060000
463.925537	146.120000
464.019257	146.240000
464.112946	146.360000
464.206665	146.260000
464.300323	146.620000
464.394043	145.760000
464.487762	145.460000
464.581451	145.860000
464.675140	145.940000
464.768829	145.780000
464.862549	146.160000
464.956238	146.660000
465.049927	146.260000
465.143646	146.760000
465.237335	146.360000
465.331024	146.780000
465.424713	146.440000
465.518433	146.560000
465.612152	146.020000
465.705811	146.340000
465.799561	146.080000
465.893219	146.040000
465.986938	145.860000
466.080597	145.700000
466.174347	145.800000
466.268005	145.960000
466.361725	145.880000
466.455414	145.940000
466.549133	145.980000
466.642792	146.140000
466.736542	145.620000
466.830231	145.560000
466.923920	145.720000
467.017609	145.780000
467.111328	145.300000
467.205017	145.500000
467.298706	145.500000
467.392426	145.500000
467.486115	145.940000
467.579803	145.760000
467.673523	145.900000
467.767212	146.240000
467.860901	145.900000
467.954651	145.940000
468.048309	146.280000
468.142029	146.280000
468.235718	146.220000
468.329437	146.120000
468.423096	145.880000
468.516846	145.740000
468.610504	145.540000
468.704224	145.220000
468.797913	145.340000
468.891632	145.360000
468.985291	145.660000
469.079010	145.960000
469.172729	145.500000
469.266418	146.040000
469.360107	146.060000
469.453827	145.860000
469.547516	145.440000
469.641205	146.260000
469.734924	146.340000
469.828613	146.620000
469.922302	146.640000
470.016022	146.720000
470.109711	146.280000
470.203430	145.540000
470.297150	144.880000
470.390808	145.060000
470.484558	144.920000
470.578217	145.440000
470.671936	146.120000
470.765625	146.720000
470.859344	146.320000
470.953003	146.460000
471.046753	145.980000
471.140411	145.200000
471.234131	145.100000
471.327820	145.740000
471.421539	146.140000
471.515228	145.840000
471.608948	146.240000
471.702637	145.740000
471.796326	145.300000
471.890045	145.360000
471.983734	145.640000
472.077423	145.180000
472.171143	145.480000
472.264832	145.480000
472.358521	144.900000
472.452240	144.720000
472.545929	145.540000
472.639648	145.780000
472.733337	146.200000
472.827057	146.620000
472.920746	146.760000
473.014465	146.960000
473.108124	146.700000
473.201874	146.760000
473.295532	146.460000
473.389252	146.840000
473.482941	146.360000
473.576660	146.200000
473.670319	145.840000
473.764069	146.220000
473.857727	146.080000
473.951477	146.580000
474.045166	147.380000
474.138855	147.060000
474.232574	146.900000
474.326263	147.000000
474.419952	147.120000
474.513672	146.480000
474.607361	146.400000
474.701050	146.700000
474.794769	146.900000
474.888458	146.580000
474.982178	146.880000
475.075867	147.080000
475.169586	146.660000
475.263275	146.480000
475.356995	146.360000
475.450653	145.740000
475.544403	145.740000
475.638062	146.360000
475.731812	145.800000
475.825470	145.480000
475.919189	145.760000
476.012878	145.820000
476.106598	145.300000
476.200256	145.980000
476.294006	146.180000
476.387695	146.300000
476.481384	146.140000
476.575104	146.100000
476.668793	145.540000
476.762512	145.300000
476.856201	145.800000
476.949890	145.720000
477.043610	144.940000
477.137299	145.160000
477.230988	145.620000
477.324707	145.080000
477.418396	145.720000
477.512146	146.480000
477.605804	146.140000
477.699524	145.960000
477.793213	145.980000
477.886932	145.320000
477.980591	144.820000
478.074341	144.880000
478.167999	144.500000
478.261749	144.480000
478.355408	144.600000
478.449127	145.120000
478.542816	146.020000
478.636536	146.800000
478.730225	147.000000
478.823944	147.540000
478.917633	147.620000
479.011322	147.400000
479.105042	147.200000
479.198730	147.320000
479.292450	146.720000
479.386139	146.700000
479.479828	146.660000
479.573547	146.680000
479.667267	146.480000
479.760925	146.840000
479.854675	147.080000
479.948334	146.840000
480.042084	146.320000
480.135742	146.400000
480.229462	145.760000
480.323151	145.700000
480.416870	145.320000
480.510529	145.540000
480.604279	145.040000
480.697937	145.660000
480.791656	144.900000
480.885345	144.900000
480.979065	144.820000
481.072754	145.500000
481.166473	145.440000
481.260132	145.560000
481.353882	145.800000
481.447540	145.580000
481.541260	145.240000
481.635010	145.080000
481.728668	145.280000
481.822388	145.100000
481.916077	145.240000
482.009796	145.180000
482.103485	145.560000
482.197205	145.720000
482.290863	146.120000
482.384613	145.980000
482.478271	145.900000
482.571991	145.240000
482.665680	145.080000
482.759399	145.540000
482.853058	146.120000
482.946808	146.020000
483.040466	146.480000
483.134216	146.620000
483.227875	146.020000
483.321594	146.040000
483.415283	146.280000
483.509003	145.960000
483.602661	145.720000
483.696411	145.860000
483.790070	145.840000
483.883789	145.780000
483.977478	146.060000
484.071198	146.360000
484.164917	145.920000
484.258606	145.340000
484.352325	146.000000
484.445984	145.960000
484.539734	145.780000
484.633392	145.580000
484.727142	146.220000
484.820801	145.520000
484.914520	145.420000
485.008209	145.700000
485.101929	146.300000
485.195587	145.720000
485.289337	145.760000
485.382996	145.660000
485.476715	145.540000
485.570404	145.640000
485.664124	145.720000
485.757782	146.460000
485.851532	146.400000
485.945190	146.220000
486.038910	146.300000
486.132599	146.600000
486.226318	145.480000
486.319977	145.380000
486.413727	146.020000
486.507446	145.380000
486.601105	144.920000
486.694855	145.160000
486.788513	145.220000
486.882233	144.800000
486.975922	144.920000
487.069641	144.820000
487.163300	144.720000
487.257050	145.760000
487.350708	145.600000
487.444427	145.660000
487.538116	145.900000
487.631836	145.900000
487.725494	145.380000
487.819214	145.260000
487.912903	145.300000
488.006622	145.580000
488.100281	145.760000
488.194031	145.840000
488.287689	146.260000
488.381409	146.560000
488.475098	146.600000
488.568817	146.600000
488.662476	145.960000
488.756226	145.360000
488.849945	144.520000
488.943604	144.240000
489.037354	144.560000
489.131012	144.820000
489.224731	144.940000
489.318390	145.500000
489.412140	145.740000
489.505798	145.460000
489.599518	145.340000
489.693207	145.680000
489.786926	145.420000
489.880585	145.060000
489.974335	145.460000
490.067993	146.540000
490.161713	146.720000
490.255371	147.440000
490.349121	147.640000
490.442780	147.020000
490.536499	145.660000
490.630188	145.520000
490.723907	144.980000
490.817566	145.000000
490.911285	145.340000
491.004974	145.700000
491.098694	145.320000
491.192413	145.980000
491.286102	146.060000
491.379822	146.260000
491.473480	146.220000
491.567200	146.500000
491.660889	145.640000
491.754608	145.180000
491.848267	145.040000
491.941986	144.960000
492.035675	144.780000
492.129395	145.480000
492.223053	145.660000
492.316772	145.680000
492.410461	145.820000
492.504181	145.940000
492.597839	145.400000
492.691559	145.640000
492.785248	145.620000
492.878967	145.740000
492.972626	145.320000
493.066345	145.480000
493.160034	144.820000
493.253754	144.700000
493.347412	144.260000
493.441132	144.820000
493.534882	145.320000
493.628540	145.920000
493.722260	146.140000
493.815918	146.620000
493.909668	146.720000
494.003326	146.660000
494.097046	146.600000
494.190704	146.180000
494.284454	146.280000
494.378113	146.500000
494.471832	146.400000
494.565491	146.320000
494.659210	146.400000
494.752899	146.100000
494.846619	145.520000
494.940277	145.480000
495.033997	145.440000
495.127686	145.260000
495.221405	144.920000
495.315063	145.120000
495.408783	145.040000
495.502441	145.060000
495.596191	145.400000
495.689850	145.420000
495.783569	145.880000
495.877228	145.880000
495.970947	145.660000
496.064697	145.720000
496.158356	146.580000
496.252075	146.080000
496.345734	145.900000
496.439453	147.000000
496.533142	146.940000
496.626862	147.020000
496.720520	147.140000
496.814240	147.020000
496.907898	146.380000
497.001617	146.140000
497.095306	145.100000
497.189026	145.000000
497.282684	145.140000
497.376404	145.160000
497.470062	145.280000
497.563782	145.620000
497.657471	145.340000
497.751190	145.180000
497.844849	144.880000
497.938568	144.940000
498.032227	145.240000
498.125946	145.540000
498.219635	145.580000
498.313354	146.080000
498.407074	146.020000
498.500732	146.040000
498.594452	146.240000
498.688110	146.000000
498.781830	145.480000
498.875519	145.440000
498.969238	145.220000
499.062897	144.960000
499.156616	145.660000
499.250275	146.120000
499.343994	145.600000
499.437653	145.680000
499.531372	145.860000
499.625061	145.920000
499.718781	145.860000
499.812439	146.880000
499.906158	146.800000
499.999817	146.540000
500.093536	146.260000
500.187195	146.160000
500.280914	145.500000
500.374573	145.600000
500.468323	145.440000
500.561981	145.680000
500.655701	145.600000
500.749420	145.940000
500.843079	146.180000
500.936798	146.380000
501.030457	146.480000
501.124176	146.500000
501.217834	146.400000
501.311554	146.140000
501.405212	145.960000
501.498962	145.000000
501.592621	144.940000
501.686340	145.440000
501.779999	145.580000
501.873718	145.920000
501.967377	146.460000
502.061096	146.740000
502.154755	145.800000
502.248474	145.700000
502.342133	145.820000
502.435852	145.660000
502.529510	146.140000
502.623230	147.280000
502.716888	147.040000
502.810608	146.980000
502.904266	147.600000
502.997986	146.740000
503.091705	145.760000
503.185364	145.720000
503.279083	145.740000
503.372772	145.500000
503.466492	145.440000
503.560150	145.620000
503.653870	146.220000
503.747528	146.020000
503.841248	145.920000
503.934906	146.220000
504.028625	146.200000
504.122284	146.000000
504.216003	146.500000
504.309662	146.200000
504.403381	146.440000
504.497040	146.320000
504.590759	145.940000
504.684418	145.880000
504.778137	146.560000
504.871796	146.740000
504.965515	146.880000
505.059174	147.400000
505.152893	146.820000
505.246521	145.860000
505.340240	145.440000
505.433899	145.420000
505.527618	145.180000
505.621338	145.620000
505.714996	146.040000
505.808716	146.100000
505.902374	146.560000
505.996094	146.560000
506.089752	146.200000
506.183472	146.380000
506.277130	146.420000
506.370850	146.140000
506.464508	145.940000
506.558228	146.020000
506.651886	145.520000
506.745605	145.520000
506.839264	145.660000
506.932983	145.800000
507.026611	145.800000
507.120331	146.340000
507.213989	145.740000
507.307709	145.460000
507.401367	145.960000
507.495087	146.520000
507.588745	146.100000
507.682465	147.020000
507.776123	147.280000
507.869843	146.780000
507.963531	146.760000
508.057190	147.280000
508.150909	146.460000
508.244568	146.260000
508.338287	145.840000
508.431946	145.140000
508.525665	144.880000
508.619324	144.700000
508.713013	145.160000
508.806671	146.060000
508.900391	147.220000
508.994049	147.360000
509.087769	147.640000
509.181427	147.300000
509.275146	146.540000
509.368774	145.320000
509.462494	145.020000
509.556152	145.000000
509.649872	145.260000
509.743530	145.360000
509.837250	145.860000
509.930878	146.080000
510.024597	146.100000
510.118256	145.840000
510.211975	145.880000
510.305695	145.480000
510.399353	145.440000
510.493042	145.960000
510.586700	145.780000
510.680420	146.480000
510.774078	146.680000
510.867798	146.760000
510.961426	146.180000
511.055145	146.340000
511.148804	145.680000
511.242523	145.900000
511.336151	145.860000
511.429871	146.460000
511.523529	146.400000
511.617249	145.980000
511.710876	145.760000
511.804596	145.760000
511.898254	145.260000
511.991974	145.620000
512.085632	146.080000
512.179321	146.420000
512.272949	146.600000
512.366699	147.160000
512.460327	146.940000
512.554077	147.780000
512.647766	147.560000
512.741394	147.380000
512.835144	147.540000
512.928772	147.340000
513.022461	146.980000
513.116150	146.460000
513.209839	147.020000
513.303467	146.300000
513.397217	145.880000
513.490845	145.440000
513.584595	145.400000
513.678223	144.560000
513.771912	144.080000
513.865601	144.820000
513.959290	144.680000
514.052917	145.020000
514.146667	145.780000
514.240295	146.600000
514.333984	146.900000
514.427673	147.040000
514.521362	147.300000
514.614990	146.700000
514.708740	146.700000
514.802368	146.160000
514.896057	146.260000
514.989746	146.840000
515.083435	146.600000
515.177124	146.420000
515.270752	146.840000
515.364502	146.680000
515.458130	146.340000
515.551819	146.560000
515.645508	146.400000
515.739197	145.920000
515.832825	146.120000
515.926575	145.660000
516.020203	145.860000
516.113892	146.740000
516.207520	146.940000
516.301270	146.800000
516.394897	146.980000
516.488586	147.240000
516.582275	146.800000
516.675964	146.360000
516.769592	146.120000
516.863281	146.720000
516.956970	146.960000
517.050659	146.740000
517.144287	146.920000
517.238037	147.140000
517.331665	146.340000
517.425354	145.680000
517.519043	145.400000
517.612732	145.860000
517.706421	145.920000
517.800049	145.840000
517.893738	145.640000
517.987427	145.860000
518.081116	145.040000
518.174744	144.860000
518.268433	145.260000
518.362122	145.940000
518.455811	145.760000
518.549438	146.700000
518.643127	147.460000
518.736816	147.140000
518.830505	146.580000
518.924133	146.660000
519.017822	146.340000
519.111511	146.060000
519.205200	146.620000
519.298828	146.860000
519.392517	146.720000
519.486206	147.060000
519.579895	146.840000
519.673523	146.720000
519.767212	146.660000
519.860901	147.180000
519.954590	146.620000
520.048279	146.300000
520.141907	145.740000
520.235596	146.740000
520.329224	146.900000
520.422974	146.900000
520.516602	147.020000
520.610291	146.980000
520.703918	146.300000
520.797607	145.960000
520.891296	146.180000
520.984985	146.400000
521.078613	147.140000
521.172302	146.520000
521.265930	147.140000
521.359680	147.440000
521.453308	147.280000
521.546997	146.860000
521.640625	147.140000
521.734314	146.620000
521.827942	146.260000
521.921692	146.380000
522.015320	146.460000
522.109009	146.280000
522.202698	145.900000
522.296326	146.020000
522.390015	146.160000
522.483704	146.240000
522.577393	145.880000
522.671021	145.920000
522.764709	145.600000
522.858337	145.920000
522.952026	145.920000
523.045654	147.100000
523.139404	147.820000
523.233032	148.260000
523.326721	147.820000
523.420349	147.680000
523.514038	146.780000
523.607666	146.900000
523.701355	146.040000
523.795044	146.100000
523.888733	146.100000
523.982361	146.480000
524.076050	145.640000
524.169678	146.560000
524.263367	145.980000
524.356995	145.600000
524.450684	145.400000
524.544373	145.300000
524.638062	145.080000
524.731750	145.760000
524.825378	146.220000
524.919067	145.760000
525.012695	145.940000
525.106384	145.500000
525.200012	145.420000
525.293701	145.040000
525.387329	145.780000
525.481018	146.000000
525.574646	146.460000
525.668396	146.360000
525.762024	146.800000
525.855713	146.940000
525.949341	146.360000
526.043030	146.180000
526.136658	145.700000
526.230347	145.520000
526.323975	144.700000
526.417664	145.100000
526.511292	145.120000
526.604980	145.720000
526.698608	145.720000
526.792297	146.260000
526.885925	146.460000
526.979614	147.100000
527.073303	146.720000
527.166931	146.440000
527.260620	146.720000
527.354309	146.720000
527.447998	146.040000
527.541626	145.800000
527.635315	145.920000
527.728943	145.980000
527.822632	146.200000
527.916260	146.220000
528.009949	147.000000
528.103577	146.520000
528.197266	145.960000
528.290894	145.880000
528.384583	145.880000
528.478210	145.480000
528.571899	146.200000
528.665527	146.620000
528.759216	146.540000
528.852844	147.200000
528.946533	147.380000
529.040161	147.260000
529.133850	146.720000
529.227478	146.780000
529.321167	146.660000
529.414856	146.820000
529.508484	147.200000
529.602173	147.200000
529.695801	146.980000
529.789490	146.700000
529.883057	146.260000
529.976746	146.380000
530.070374	146.880000
530.164062	147.000000
530.257690	146.980000
530.351379	147.240000
530.445007	147.000000
530.538696	146.260000
530.632324	146.380000
530.726013	146.580000
530.819641	146.700000
530.913330	146.780000
531.006958	146.880000
531.100647	146.640000
531.194275	146.360000
531.287964	146.120000
531.381592	145.740000
531.475220	146.260000
531.568848	146.480000
531.662537	146.240000
531.756226	146.740000
531.849854	146.800000
531.943542	146.480000
532.037170	145.860000
532.130859	146.580000
532.224487	146.040000
532.318176	145.840000
532.411804	146.480000
532.505432	146.840000
532.599060	146.240000
532.692749	146.100000
532.786377	146.600000
532.880066	145.800000
532.973694	145.360000
533.067383	145.440000
533.161011	145.640000
533.254639	145.280000
533.348267	145.160000
533.441956	145.800000
533.535583	145.760000
533.629272	145.980000
533.722900	145.780000
533.816589	146.440000
533.910156	146.540000
534.003845	146.220000
534.097534	146.400000
534.191162	147.180000
534.284851	147.060000
534.378479	146.640000
534.472107	146.800000
534.565735	146.540000
534.659424	146.180000
534.753052	146.500000
534.846741	146.540000
534.940369	147.260000
535.033997	146.880000
535.127625	146.980000
535.221313	147.200000
535.314941	147.200000
535.408630	146.440000
535.502197	147.020000
535.595886	146.680000
535.689514	145.940000
535.783203	146.480000
535.876831	146.820000
535.970459	146.860000
536.064087	146.720000
536.157776	146.760000
536.251404	146.460000
536.345093	146.060000
536.438721	145.760000
536.532349	146.060000
536.626038	146.000000
536.719666	146.140000
536.813293	146.280000
536.906921	146.200000
537.000610	146.340000
537.094238	146.560000
537.187866	146.480000
537.281494	146.340000
537.375183	146.600000
537.468811	146.200000
537.562439	145.900000
537.656067	145.800000
537.749756	145.860000
537.843384	146.160000
537.937012	146.800000
538.030640	146.880000
538.124329	146.960000
538.217896	147.580000
538.311584	147.440000
538.405212	147.020000
538.498901	147.260000
538.592468	147.480000
538.686157	146.620000
538.779785	145.600000
538.873413	145.380000
538.967102	144.720000
539.060730	144.600000
539.154358	145.520000
539.247986	146.300000
539.341675	146.700000
539.435242	147.120000
539.528931	147.000000
539.622559	146.360000
539.716187	146.800000
539.809814	146.380000
539.903503	146.460000
539.997070	146.040000
540.090759	145.920000
540.184387	145.620000
540.278015	146.400000
540.371643	146.540000
540.465332	147.120000
540.558899	147.240000
540.652588	147.240000
540.746216	146.580000
540.839844	146.640000
540.933472	146.380000
541.027100	146.120000
541.120728	146.260000
541.214417	146.560000
541.308044	146.720000
541.401672	146.640000
541.495300	146.700000
541.588928	146.200000
541.682617	145.940000
541.776184	145.440000
541.869873	145.580000
541.963440	145.820000
542.057129	146.000000
542.150757	146.300000
542.244385	146.300000
542.338013	145.960000
542.431641	145.980000
542.525269	145.900000
542.618958	146.000000
542.712524	146.300000
542.806213	146.300000
542.899780	146.680000
542.993469	146.660000
543.087036	146.400000
543.180725	145.960000
543.274292	146.420000
543.367981	146.300000
543.461548	146.660000
543.555237	146.640000
543.648926	147.200000
543.742493	147.540000
543.836182	147.560000
543.929749	147.300000
544.023437	147.400000
544.117004	147.580000
544.210693	147.400000
544.304260	147.260000
544.397949	146.920000
544.491516	146.960000
544.585205	146.560000
544.678772	146.320000
544.772461	146.580000
544.866028	146.720000
544.959717	146.820000
545.053284	146.480000
545.146973	146.620000
545.240540	146.520000
545.334229	147.100000
545.427795	147.040000
545.521423	147.500000
545.615051	147.280000
545.708679	147.340000
545.802307	147.240000
545.895935	147.360000
545.989624	147.880000
546.083191	147.700000
546.176880	147.700000
546.270447	147.200000
546.364136	147.480000
546.457703	146.920000
546.551331	146.920000
546.644958	147.100000
546.738586	147.420000
546.832214	146.620000
546.925842	146.340000
547.019409	146.580000
547.113098	146.040000
547.206665	145.640000
547.300354	145.860000
547.393921	146.000000
547.487549	146.060000
547.581177	145.940000
547.674805	146.160000
547.768433	145.380000
547.862061	145.480000
547.955627	145.280000
548.049316	146.140000
548.142883	146.500000
548.236572	147.320000
548.330139	147.500000
548.423767	147.240000
548.517456	146.700000
548.611023	146.640000
548.704651	145.980000
548.798279	145.700000
548.891907	146.260000
548.985474	146.180000
549.079163	146.180000
549.172729	146.240000
549.266357	146.080000
549.359985	146.120000
549.453613	145.580000
549.547180	145.060000
549.640869	146.100000
549.734436	146.080000
549.828064	146.220000
549.921631	146.580000
550.015320	146.560000
550.108887	146.400000
550.202515	146.480000
550.296143	145.860000
550.389771	146.240000
550.483337	146.560000
550.576965	146.080000
550.670593	146.480000
550.764221	146.680000
550.857849	146.620000
550.951477	145.860000
551.045105	145.680000
551.138672	145.280000
551.232300	144.560000
551.325928	144.520000
551.419556	145.240000
551.513123	145.440000
551.606750	145.340000
551.700378	146.100000
551.794006	145.580000
551.887573	145.180000
551.981201	145.640000
552.074768	145.800000
552.168457	145.520000
552.262024	146.580000
552.355652	146.740000
552.449219	146.820000
552.542847	146.860000
552.636475	146.580000
552.730103	145.420000
552.823669	145.460000
552.917297	145.060000
553.010864	145.220000
553.104553	145.660000
553.198181	145.860000
553.291748	146.320000
553.385376	146.280000
553.478943	146.080000
553.572571	146.180000
553.666199	146.440000
553.759827	146.000000
553.853394	145.640000
553.947021	145.580000
554.040588	145.320000
554.134216	145.300000
554.227783	146.240000
554.321411	147.080000
554.415039	146.980000
554.508667	147.200000
554.602234	147.260000
554.695862	146.220000
554.789429	145.960000
554.883057	145.900000
554.976624	145.860000
555.070251	145.740000
555.163818	145.780000
555.257507	145.540000
555.351074	145.880000
555.444702	146.760000
555.538330	146.500000
555.631897	146.940000
555.725525	146.920000
555.819092	146.700000
555.912720	145.500000
556.006287	145.980000
556.099915	145.620000
556.193481	145.940000
556.287109	146.180000
556.380676	146.300000
556.474304	146.240000
556.567871	146.440000
556.661499	145.600000
556.755066	145.460000
556.848694	145.640000
556.942261	145.480000
557.035889	145.460000
557.129517	145.820000
557.223145	146.000000
557.316711	146.020000
557.410339	145.940000
557.503906	145.540000
557.597473	145.900000
557.691040	145.800000
557.784668	145.580000
557.878296	145.760000
557.971863	146.140000
558.065491	146.240000
558.159058	146.060000
558.252686	147.000000
558.346252	147.300000
558.439880	146.960000
558.533447	146.320000
558.627075	145.880000
558.720642	145.140000
558.814270	144.840000
558.907837	145.060000
559.001465	145.100000
559.095032	145.900000
559.188660	146.220000
559.282227	146.120000
559.375854	146.400000
559.469360	146.380000
559.562988	146.460000
559.656555	146.140000
559.750183	146.100000
559.843750	146.180000
559.937378	146.620000
560.030945	146.360000
560.124573	0.000000
560.218140	0.000000
560.311707	0.000000
560.405334	0.000000
560.498901	0.000000
560.592529	0.000000
560.686096	0.000000
560.779724	0.000000
560.873291	0.000000
560.966858	0.000000
561.060425	0.000000
561.154053	0.000000
561.247620	0.000000
561.341248	0.000000
561.434814	0.000000
561.528381	0.000000
561.621948	0.000000
561.715576	0.000000
561.809143	0.000000
561.902771	0.000000
561.996277	0.000000
562.089905	0.000000
562.183472	0.000000
562.277100	0.000000
