Model Number: SPM-002-B   
Serial Number: 70087108
Firmware Version: 004.15.4
Exposure Time: 100000.000000us
Data Taken on: 11-12-2020 19:36:46.099
Wavelength	Amplitude
221.570786	0.000000
221.663406	0.000000
221.756027	0.000000
221.848648	0.000000
221.941269	0.000000
222.033905	0.000000
222.126526	0.000000
222.219162	0.000000
222.311798	0.000000
222.404419	0.000000
222.497055	0.000000
222.589676	0.000000
222.682312	0.000000
222.774933	0.000000
222.867569	0.000000
222.960205	0.000000
223.052841	0.000000
223.145462	0.000000
223.238098	0.000000
223.330734	0.000000
223.423386	0.000000
223.516022	0.000000
223.608658	0.000000
223.701309	0.000000
223.793945	0.000000
223.886581	0.000000
223.979218	0.000000
224.071869	0.000000
224.164505	0.000000
224.257156	0.000000
224.349792	0.000000
224.442444	0.000000
224.535095	0.000000
224.627747	0.000000
224.720398	0.000000
224.813034	0.000000
224.905685	0.000000
224.998337	145.020000
225.090988	144.780000
225.183640	145.040000
225.276291	144.740000
225.368942	145.320000
225.461594	145.800000
225.554245	146.060000
225.646912	145.860000
225.739578	146.380000
225.832230	146.780000
225.924896	146.180000
226.017548	146.280000
226.110199	147.000000
226.202866	146.200000
226.295532	145.960000
226.388184	145.960000
226.480850	145.540000
226.573517	144.700000
226.666168	145.260000
226.758835	145.500000
226.851501	145.960000
226.944183	145.900000
227.036850	145.740000
227.129517	145.340000
227.222183	145.340000
227.314850	145.180000
227.407516	145.940000
227.500198	146.780000
227.592865	146.440000
227.685532	146.080000
227.778214	146.000000
227.870880	145.920000
227.963562	146.140000
228.056229	146.760000
228.148926	147.140000
228.241592	147.980000
228.334274	147.600000
228.426956	147.140000
228.519638	147.120000
228.612305	146.260000
228.704987	145.980000
228.797668	146.140000
228.890350	145.940000
228.983032	145.400000
229.075714	146.160000
229.168396	145.420000
229.261108	144.900000
229.353790	145.000000
229.446472	145.320000
229.539169	145.100000
229.631851	145.020000
229.724533	145.160000
229.817230	145.280000
229.909912	146.000000
230.002609	145.880000
230.095306	146.400000
230.187988	146.700000
230.280685	146.540000
230.373383	145.520000
230.466095	145.280000
230.558792	145.380000
230.651474	145.260000
230.744171	145.380000
230.836868	145.300000
230.929581	145.780000
231.022278	145.520000
231.114975	145.700000
231.207672	145.500000
231.300369	145.840000
231.393082	145.920000
231.485779	145.760000
231.578506	145.600000
231.671204	145.820000
231.763916	145.900000
231.856613	145.780000
231.949326	146.040000
232.042023	146.100000
232.134735	146.140000
232.227448	145.740000
232.320160	146.040000
232.412872	146.020000
232.505585	146.680000
232.598297	147.100000
232.691010	147.220000
232.783722	146.780000
232.876450	147.080000
232.969162	146.460000
233.061874	145.740000
233.154587	145.740000
233.247314	146.080000
233.340027	145.540000
233.432739	145.900000
233.525467	145.900000
233.618179	146.140000
233.710907	146.020000
233.803635	146.440000
233.896347	146.140000
233.989090	147.100000
234.081818	146.960000
234.174545	146.820000
234.267258	146.060000
234.359985	145.980000
234.452713	145.380000
234.545441	145.340000
234.638168	145.280000
234.730896	146.040000
234.823639	146.340000
234.916367	146.560000
235.009094	146.700000
235.101822	146.660000
235.194580	146.620000
235.287308	146.560000
235.380051	146.060000
235.472778	146.240000
235.565521	146.580000
235.658249	146.060000
235.750992	146.040000
235.843719	145.880000
235.936462	146.060000
236.029205	145.800000
236.121948	145.620000
236.214691	146.020000
236.307449	146.860000
236.400192	146.340000
236.492935	146.320000
236.585678	146.700000
236.678421	146.220000
236.771164	146.060000
236.863907	146.560000
236.956665	146.620000
237.049408	147.920000
237.142151	147.740000
237.234909	148.060000
237.327652	147.620000
237.420410	147.480000
237.513153	146.820000
237.605927	146.740000
237.698669	145.860000
237.791428	145.620000
237.884186	146.320000
237.976944	145.700000
238.069702	146.080000
238.162445	146.360000
238.255203	146.460000
238.347961	146.360000
238.440720	146.380000
238.533478	146.060000
238.626266	145.480000
238.719025	146.020000
238.811783	145.680000
238.904541	145.540000
238.997314	145.540000
239.090073	145.580000
239.182831	145.400000
239.275604	146.280000
239.368362	146.260000
239.461136	146.500000
239.553909	146.740000
239.646667	146.660000
239.739441	146.000000
239.832214	146.400000
239.925003	146.220000
240.017761	146.700000
240.110535	147.200000
240.203308	146.800000
240.296082	146.580000
240.388855	146.780000
240.481628	146.400000
240.574417	146.200000
240.667191	146.380000
240.759964	146.140000
240.852737	145.860000
240.945526	145.880000
241.038315	145.620000
241.131088	145.880000
241.223877	146.340000
241.316650	146.500000
241.409439	146.760000
241.502228	146.520000
241.595001	146.660000
241.687790	146.360000
241.780579	146.360000
241.873367	146.460000
241.966141	146.720000
242.058929	146.380000
242.151718	146.680000
242.244507	146.760000
242.337311	145.900000
242.430099	146.400000
242.522903	146.300000
242.615692	145.880000
242.708481	146.040000
242.801270	146.700000
242.894073	146.380000
242.986862	146.380000
243.079651	146.880000
243.172455	146.480000
243.265244	146.800000
243.358063	146.180000
243.450867	146.540000
243.543655	146.460000
243.636459	146.580000
243.729263	146.680000
243.822067	147.260000
243.914856	147.520000
244.007660	147.720000
244.100464	147.740000
244.193268	146.900000
244.286072	146.600000
244.378876	145.800000
244.471680	145.300000
244.564499	145.660000
244.657318	146.520000
244.750122	146.580000
244.842926	146.460000
244.935745	146.560000
245.028549	146.100000
245.121368	145.760000
245.214172	145.660000
245.306992	146.040000
245.399796	146.140000
245.492615	146.040000
245.585434	145.640000
245.678253	145.720000
245.771072	145.540000
245.863892	145.760000
245.956711	146.400000
246.049530	146.540000
246.142349	146.320000
246.235168	146.420000
246.327988	146.740000
246.420807	146.300000
246.513626	146.360000
246.606445	146.340000
246.699280	146.220000
246.792099	145.920000
246.884918	145.700000
246.977753	145.260000
247.070587	145.580000
247.163422	145.840000
247.256241	145.500000
247.349075	145.980000
247.441895	146.340000
247.534729	146.220000
247.627563	145.720000
247.720383	146.280000
247.813217	145.940000
247.906052	145.840000
247.998886	145.820000
248.091736	145.960000
248.184570	145.840000
248.277405	145.880000
248.370239	146.760000
248.463074	147.960000
248.555908	148.120000
248.648743	147.820000
248.741592	148.020000
248.834427	147.060000
248.927261	145.800000
249.020111	146.200000
249.112946	146.520000
249.205795	146.100000
249.298630	146.640000
249.391495	146.680000
249.484344	146.360000
249.577179	146.260000
249.670029	146.760000
249.762878	147.000000
249.855728	147.380000
249.948563	147.240000
250.041412	146.820000
250.134262	146.920000
250.227112	146.640000
250.319962	146.480000
250.412827	146.560000
250.505692	146.280000
250.598541	146.060000
250.691391	145.880000
250.784241	145.960000
250.877106	146.000000
250.969955	146.080000
251.062805	146.320000
251.155670	146.840000
251.248520	146.380000
251.341385	146.760000
251.434235	146.800000
251.527100	146.580000
251.619965	145.540000
251.712814	146.580000
251.805695	146.280000
251.898560	146.540000
251.991425	146.720000
252.084290	147.420000
252.177155	146.340000
252.270020	146.180000
252.362885	146.080000
252.455750	145.800000
252.548615	145.460000
252.641479	145.920000
252.734360	145.940000
252.827240	145.720000
252.920105	145.980000
253.012970	145.960000
253.105850	145.700000
253.198715	145.540000
253.291595	145.900000
253.384460	145.340000
253.477341	145.280000
253.570221	145.400000
253.663086	145.240000
253.755966	145.940000
253.848846	146.040000
253.941727	146.380000
254.034592	146.380000
254.127472	146.120000
254.220367	145.720000
254.313248	146.160000
254.406128	145.800000
254.499008	145.980000
254.591904	146.940000
254.684784	147.260000
254.777664	146.960000
254.870544	146.880000
254.963440	146.700000
255.056335	146.640000
255.149216	146.200000
255.242111	146.700000
255.334991	146.980000
255.427887	147.280000
255.520767	146.920000
255.613663	146.780000
255.706558	146.160000
255.799438	146.040000
255.892334	145.400000
255.985229	145.500000
256.078125	145.400000
256.171021	145.520000
256.263916	145.960000
256.356812	146.520000
256.449707	146.900000
256.542603	147.020000
256.635498	147.340000
256.728394	146.940000
256.821289	146.600000
256.914215	146.620000
257.007080	146.660000
257.100006	146.940000
257.192932	147.380000
257.285828	147.640000
257.378723	147.320000
257.471619	147.080000
257.564545	146.360000
257.657440	146.420000
257.750336	146.740000
257.843262	146.360000
257.936157	147.360000
258.029053	147.900000
258.121979	147.720000
258.214874	147.060000
258.307800	147.260000
258.400696	146.240000
258.493622	146.260000
258.586517	145.140000
258.679443	145.540000
258.772339	145.180000
258.865265	145.100000
258.958160	144.400000
259.051086	145.880000
259.144012	145.720000
259.236938	146.560000
259.329834	146.600000
259.422791	146.760000
259.515717	146.040000
259.608612	146.080000
259.701538	146.020000
259.794464	146.140000
259.887390	146.240000
259.980316	146.160000
260.073212	145.560000
260.166138	144.720000
260.259064	144.960000
260.351990	145.520000
260.444916	145.220000
260.537842	146.020000
260.630768	146.900000
260.723694	146.740000
260.816620	146.300000
260.909546	146.600000
261.002472	146.120000
261.095398	145.400000
261.188354	145.480000
261.281281	144.980000
261.374207	145.080000
261.467133	145.920000
261.560089	146.100000
261.653015	146.040000
261.745972	147.020000
261.838867	147.340000
261.931824	147.140000
262.024780	146.740000
262.117706	146.920000
262.210663	146.620000
262.303589	146.340000
262.396515	146.300000
262.489471	147.380000
262.582397	147.060000
262.675354	146.880000
262.768280	146.940000
262.861237	146.720000
262.954163	146.560000
263.047119	146.720000
263.140045	146.440000
263.233002	146.640000
263.325958	146.400000
263.418884	145.660000
263.511841	145.680000
263.604797	145.800000
263.697723	145.700000
263.790680	146.100000
263.883636	146.360000
263.976593	146.000000
264.069550	146.060000
264.162476	145.680000
264.255463	145.280000
264.348419	145.400000
264.441376	145.980000
264.534332	145.560000
264.627289	145.960000
264.720245	146.580000
264.813202	146.060000
264.906158	146.140000
264.999115	146.700000
265.092072	146.260000
265.185028	146.440000
265.277985	147.140000
265.370941	147.020000
265.463898	146.880000
265.556854	146.880000
265.649811	145.840000
265.742798	145.680000
265.835754	145.540000
265.928711	145.960000
266.021667	146.140000
266.114655	146.460000
266.207611	146.680000
266.300568	146.420000
266.393585	146.020000
266.486511	146.360000
266.579498	146.060000
266.672485	145.820000
266.765442	145.740000
266.858429	146.280000
266.951385	145.860000
267.044342	146.200000
267.137329	146.240000
267.230316	146.320000
267.323273	145.800000
267.416260	146.400000
267.509216	146.500000
267.602203	146.340000
267.695160	147.000000
267.788147	146.960000
267.881134	146.320000
267.974091	146.340000
268.067078	146.400000
268.160065	145.820000
268.253052	145.660000
268.346008	145.860000
268.438995	145.520000
268.531982	145.800000
268.624969	145.700000
268.717987	145.980000
268.810944	146.000000
268.903961	146.200000
268.996948	145.420000
269.089905	145.820000
269.182892	145.980000
269.275879	146.240000
269.368866	145.960000
269.461853	146.360000
269.554871	146.520000
269.647858	146.380000
269.740845	146.580000
269.833832	146.860000
269.926819	146.740000
270.019806	146.680000
270.112793	146.280000
270.205811	146.160000
270.298798	145.960000
270.391785	146.940000
270.484772	146.420000
270.577789	146.660000
270.670776	146.220000
270.763763	146.420000
270.856750	145.980000
270.949768	146.000000
271.042786	146.040000
271.135773	145.940000
271.228790	145.940000
271.321808	145.220000
271.414795	144.960000
271.507782	144.680000
271.600800	144.620000
271.693817	144.900000
271.786804	145.640000
271.879822	146.040000
271.972809	146.320000
272.065826	147.020000
272.158844	146.420000
272.251831	146.880000
272.344849	146.880000
272.437866	146.360000
272.530853	146.200000
272.623871	146.620000
272.716888	145.480000
272.809906	145.760000
272.902893	145.780000
272.995911	144.980000
273.088928	145.100000
273.181946	145.600000
273.274963	145.300000
273.367981	145.660000
273.460999	146.100000
273.554047	146.120000
273.647003	146.580000
273.740051	146.540000
273.833069	146.760000
273.926086	147.180000
274.019135	146.760000
274.112152	146.380000
274.205170	146.460000
274.298187	146.880000
274.391205	146.060000
274.484222	146.220000
274.577240	145.940000
274.670258	145.960000
274.763306	145.320000
274.856323	145.840000
274.949341	146.060000
275.042358	146.320000
275.135406	146.020000
275.228424	146.120000
275.321442	146.060000
275.414490	145.540000
275.507507	145.840000
275.600525	146.240000
275.693573	146.000000
275.786591	145.960000
275.879669	146.320000
275.972656	145.900000
276.065735	145.780000
276.158752	146.520000
276.251801	147.320000
276.344818	147.540000
276.437866	147.680000
276.530884	147.620000
276.623932	146.600000
276.716980	146.200000
276.809998	146.120000
276.903046	146.060000
276.996094	146.760000
277.089111	147.900000
277.182159	148.100000
277.275208	147.560000
277.368256	147.560000
277.461304	147.160000
277.554321	146.280000
277.647369	146.200000
277.740417	146.460000
277.833466	146.160000
277.926514	145.980000
278.019562	146.500000
278.112610	145.620000
278.205688	145.980000
278.298706	146.300000
278.391785	145.920000
278.484833	145.540000
278.577881	145.980000
278.670929	146.020000
278.763977	146.020000
278.857025	146.960000
278.950073	147.000000
279.043121	146.760000
279.136169	146.720000
279.229248	146.300000
279.322296	145.840000
279.415344	145.680000
279.508392	145.620000
279.601440	145.340000
279.694519	145.780000
279.787567	145.460000
279.880615	145.340000
279.973694	145.600000
280.066742	145.600000
280.159790	145.580000
280.252869	145.440000
280.345917	145.960000
280.438995	145.680000
280.532074	145.620000
280.625122	145.880000
280.718201	146.860000
280.811279	146.680000
280.904327	147.020000
280.997406	147.240000
281.090454	147.020000
281.183533	146.580000
281.276581	146.420000
281.369659	145.820000
281.462738	145.820000
281.555786	145.960000
281.648865	145.880000
281.741943	145.920000
281.835022	146.940000
281.928070	146.860000
282.021149	146.480000
282.114227	146.240000
282.207306	146.220000
282.300385	146.180000
282.393433	146.380000
282.486511	146.440000
282.579590	147.180000
282.672668	147.340000
282.765747	146.480000
282.858856	145.860000
282.951904	146.200000
283.045013	145.920000
283.138062	146.160000
283.231171	146.720000
283.324249	147.320000
283.417328	146.980000
283.510406	146.480000
283.603485	146.340000
283.696564	146.460000
283.789642	146.220000
283.882751	146.220000
283.975830	146.660000
284.068909	146.380000
284.161987	146.860000
284.255066	146.480000
284.348175	146.620000
284.441254	146.660000
284.534332	147.060000
284.627441	146.260000
284.720520	146.460000
284.813599	146.480000
284.906708	146.360000
284.999786	145.520000
285.092896	145.200000
285.185974	145.920000
285.279053	145.500000
285.372192	145.420000
285.465240	146.440000
285.558380	146.620000
285.651459	146.140000
285.744568	146.920000
285.837677	146.520000
285.930756	146.180000
286.023865	146.280000
286.116943	146.100000
286.210052	146.240000
286.303162	146.440000
286.396240	146.380000
286.489349	146.300000
286.582458	146.720000
286.675568	146.120000
286.768646	146.540000
286.861755	146.860000
286.954865	147.700000
287.047974	147.020000
287.141083	146.820000
287.234161	146.340000
287.327271	146.180000
287.420380	145.960000
287.513519	146.180000
287.606598	146.440000
287.699738	146.700000
287.792816	146.560000
287.885956	146.400000
287.979034	146.360000
288.072174	146.480000
288.165283	146.460000
288.258392	146.840000
288.351501	146.440000
288.444611	146.740000
288.537720	147.060000
288.630859	146.880000
288.723969	146.720000
288.817078	146.960000
288.910187	146.820000
289.003296	146.200000
289.096436	145.880000
289.189545	145.480000
289.282654	145.100000
289.375763	145.580000
289.468903	145.820000
289.562012	146.340000
289.655121	146.520000
289.748260	146.860000
289.841400	146.680000
289.934509	146.640000
290.027649	146.760000
290.120728	146.580000
290.213898	146.600000
290.306976	146.600000
290.400146	146.720000
290.493256	146.140000
290.586395	146.580000
290.679535	146.800000
290.772644	146.100000
290.865784	145.480000
290.958893	145.400000
291.052032	145.300000
291.145172	145.080000
291.238281	145.320000
291.331421	145.440000
291.424561	146.060000
291.517670	145.520000
291.610809	145.660000
291.703949	145.340000
291.797089	145.600000
291.890228	145.180000
291.983337	145.140000
292.076477	144.760000
292.169617	145.420000
292.262756	145.500000
292.355927	145.420000
292.449036	145.540000
292.542206	145.760000
292.635315	145.460000
292.728485	145.420000
292.821625	145.420000
292.914764	146.560000
293.007904	146.660000
293.101044	146.820000
293.194183	146.780000
293.287323	147.000000
293.380463	146.240000
293.473602	145.980000
293.566742	146.280000
293.659882	146.960000
293.753021	147.240000
293.846191	146.920000
293.939331	146.720000
294.032471	146.280000
294.125610	145.760000
294.218781	145.820000
294.311920	146.400000
294.405060	146.700000
294.498230	146.960000
294.591370	146.880000
294.684540	146.160000
294.777679	145.760000
294.870850	146.240000
294.963959	145.860000
295.057159	145.480000
295.150299	145.940000
295.243469	145.740000
295.336609	145.020000
295.429779	145.120000
295.522919	145.740000
295.616089	145.880000
295.709229	146.560000
295.802399	146.760000
295.895569	146.520000
295.988708	146.260000
296.081879	146.260000
296.175018	145.500000
296.268188	145.520000
296.361359	146.120000
296.454529	146.340000
296.547668	146.300000
296.640839	146.580000
296.734009	146.540000
296.827179	146.540000
296.920319	146.780000
297.013519	146.440000
297.106659	146.680000
297.199860	146.540000
297.292999	146.300000
297.386200	145.740000
297.479309	145.560000
297.572510	145.600000
297.665680	145.500000
297.758850	145.780000
297.852020	145.840000
297.945190	145.920000
298.038361	145.560000
298.131531	146.360000
298.224701	145.980000
298.317871	145.700000
298.411072	145.380000
298.504242	145.260000
298.597412	144.740000
298.690582	145.280000
298.783752	145.340000
298.876923	146.060000
298.970093	146.280000
299.063293	146.860000
299.156464	146.660000
299.249634	146.980000
299.342834	146.980000
299.436005	146.920000
299.529205	146.480000
299.622345	146.720000
299.715576	146.140000
299.808716	146.000000
299.901917	145.960000
299.995117	145.920000
300.088287	145.680000
300.181488	145.720000
300.274658	145.320000
300.367828	145.280000
300.461029	145.300000
300.554199	145.740000
300.647400	145.960000
300.740601	146.560000
300.833771	146.580000
300.926971	146.720000
301.020142	146.100000
301.113342	146.120000
301.206512	146.240000
301.299713	146.600000
301.392914	146.380000
301.486084	146.640000
301.579285	146.520000
301.672516	146.420000
301.765686	145.920000
301.858887	145.760000
301.952057	145.540000
302.045288	145.620000
302.138458	145.480000
302.231659	145.320000
302.324860	145.360000
302.418060	145.040000
302.511261	145.040000
302.604462	145.340000
302.697662	145.600000
302.790863	145.400000
302.884064	145.460000
302.977264	145.440000
303.070465	145.480000
303.163666	146.100000
303.256866	146.740000
303.350067	146.860000
303.443268	146.800000
303.536469	146.780000
303.629669	146.060000
303.722870	145.800000
303.816071	145.580000
303.909271	145.800000
304.002472	145.200000
304.095673	145.260000
304.188934	144.680000
304.282104	145.560000
304.375336	145.340000
304.468506	145.360000
304.561768	145.140000
304.654968	145.980000
304.748169	145.360000
304.841370	145.400000
304.934601	145.680000
305.027802	145.760000
305.121002	145.500000
305.214233	145.580000
305.307434	145.580000
305.400665	146.340000
305.493866	146.140000
305.587097	146.160000
305.680298	146.080000
305.773499	146.660000
305.866730	145.780000
305.959930	146.540000
306.053162	146.660000
306.146393	146.500000
306.239594	145.660000
306.332825	145.840000
306.426025	145.700000
306.519287	145.260000
306.612488	145.540000
306.705719	145.800000
306.798920	146.100000
306.892181	145.700000
306.985352	145.560000
307.078613	144.760000
307.171844	145.080000
307.265045	144.420000
307.358276	144.460000
307.451508	145.180000
307.544739	145.960000
307.637970	145.800000
307.731201	145.640000
307.824402	146.020000
307.917633	146.040000
308.010864	146.480000
308.104095	146.980000
308.197327	147.520000
308.290558	147.400000
308.383789	146.880000
308.477020	146.100000
308.570251	145.340000
308.663483	145.160000
308.756714	145.280000
308.849976	145.440000
308.943176	146.160000
309.036438	146.000000
309.129639	145.600000
309.222900	145.300000
309.316101	145.220000
309.409393	144.480000
309.502625	144.580000
309.595856	144.880000
309.689087	145.040000
309.782318	145.140000
309.875580	145.440000
309.968811	145.600000
310.062042	145.200000
310.155273	145.180000
310.248535	145.460000
310.341766	145.320000
310.434998	145.200000
310.528259	145.540000
310.621490	145.520000
310.714722	145.060000
310.807983	145.340000
310.901215	145.360000
310.994476	145.520000
311.087708	145.540000
311.181000	145.460000
311.274200	145.060000
311.367462	145.400000
311.460693	145.020000
311.553986	145.680000
311.647186	146.140000
311.740479	146.580000
311.833710	145.940000
311.926971	146.300000
312.020203	145.200000
312.113464	145.040000
312.206726	144.580000
312.299957	145.320000
312.393219	145.680000
312.486481	145.960000
312.579712	145.800000
312.672974	146.040000
312.766235	145.740000
312.859497	145.180000
312.952759	145.220000
313.045990	145.840000
313.139252	145.500000
313.232513	145.920000
313.325775	146.460000
313.419037	146.660000
313.512299	146.020000
313.605530	146.620000
313.698822	146.280000
313.792053	146.080000
313.885345	145.460000
313.978577	145.540000
314.071869	144.760000
314.165131	144.880000
314.258392	144.980000
314.351654	145.520000
314.444916	145.000000
314.538177	146.060000
314.631439	146.180000
314.724701	146.160000
314.817993	146.000000
314.911255	146.680000
315.004517	145.980000
315.097778	145.600000
315.191040	146.100000
315.284302	146.620000
315.377594	146.240000
315.470856	146.400000
315.564117	146.240000
315.657379	145.460000
315.750671	144.640000
315.843933	145.140000
315.937195	144.780000
316.030518	144.860000
316.123749	144.780000
316.217041	145.640000
316.310303	145.520000
316.403595	145.820000
316.496857	145.980000
316.590149	146.200000
316.683411	145.400000
316.776703	145.120000
316.869965	144.980000
316.963257	144.620000
317.056519	143.980000
317.149811	144.200000
317.243073	144.380000
317.336365	144.820000
317.429626	145.460000
317.522919	146.200000
317.616180	146.460000
317.709473	146.480000
317.802765	146.220000
317.896027	146.060000
317.989319	146.320000
318.082611	146.260000
318.175873	145.920000
318.269165	145.840000
318.362488	145.640000
318.455750	145.180000
318.549042	145.400000
318.642303	146.020000
318.735626	145.820000
318.828888	146.120000
318.922211	146.060000
319.015472	146.340000
319.108765	145.620000
319.202057	145.560000
319.295349	145.440000
319.388641	145.460000
319.481934	145.120000
319.575226	145.280000
319.668518	145.420000
319.761810	145.720000
319.855103	145.700000
319.948395	145.540000
320.041687	145.500000
320.134979	145.560000
320.228271	145.420000
320.321564	145.140000
320.414856	145.200000
320.508148	144.720000
320.601440	144.760000
320.694763	144.380000
320.788025	145.560000
320.881348	145.720000
320.974640	146.280000
321.067963	145.880000
321.161224	146.280000
321.254547	145.180000
321.347839	145.780000
321.441162	145.480000
321.534454	145.920000
321.627747	145.520000
321.721069	146.320000
321.814362	145.900000
321.907654	146.280000
322.000946	146.280000
322.094269	147.020000
322.187561	146.540000
322.280884	146.580000
322.374176	146.420000
322.467468	146.620000
322.560791	146.400000
322.654083	146.800000
322.747406	146.780000
322.840698	147.060000
322.934021	147.160000
323.027344	147.240000
323.120636	146.940000
323.213959	146.840000
323.307251	146.360000
323.400574	145.940000
323.493866	145.540000
323.587219	145.760000
323.680511	146.180000
323.773834	146.660000
323.867157	147.020000
323.960449	147.140000
324.053772	146.880000
324.147095	146.340000
324.240387	146.460000
324.333710	146.400000
324.427032	146.440000
324.520355	146.240000
324.613647	145.900000
324.706970	145.700000
324.800293	145.660000
324.893616	145.840000
324.986938	146.140000
325.080231	146.060000
325.173553	146.300000
325.266876	146.600000
325.360199	146.460000
325.453522	146.040000
325.546875	146.100000
325.640167	146.080000
325.733521	146.100000
325.826813	146.480000
325.920166	146.480000
326.013489	146.420000
326.106812	145.680000
326.200134	145.140000
326.293457	144.540000
326.386780	144.840000
326.480103	144.840000
326.573425	145.020000
326.666748	145.000000
326.760071	145.300000
326.853424	145.140000
326.946747	145.580000
327.040070	146.460000
327.133392	146.480000
327.226715	145.680000
327.320068	145.440000
327.413391	145.680000
327.506714	144.820000
327.600037	144.740000
327.693390	145.140000
327.786713	145.080000
327.880066	145.080000
327.973358	145.440000
328.066742	146.060000
328.160034	146.400000
328.253418	147.140000
328.346710	146.760000
328.440063	146.280000
328.533417	145.880000
328.626740	146.220000
328.720093	145.940000
328.813416	145.760000
328.906769	145.940000
329.000092	146.040000
329.093445	145.780000
329.186768	145.580000
329.280121	146.340000
329.373444	146.780000
329.466797	146.800000
329.560120	146.660000
329.653473	146.840000
329.746796	146.120000
329.840149	145.840000
329.933502	145.740000
330.026825	145.740000
330.120178	145.720000
330.213562	145.820000
330.306854	146.120000
330.400238	146.140000
330.493561	146.000000
330.586945	146.580000
330.680237	146.940000
330.773621	147.040000
330.866974	147.100000
330.960327	147.300000
331.053680	146.560000
331.147003	146.580000
331.240356	146.760000
331.333710	146.720000
331.427063	146.460000
331.520416	146.380000
331.613770	145.900000
331.707123	145.480000
331.800476	145.820000
331.893829	146.720000
331.987152	146.980000
332.080505	147.060000
332.173859	147.360000
332.267212	146.860000
332.360565	146.120000
332.453918	145.900000
332.547333	145.840000
332.640656	145.460000
332.734039	145.720000
332.827362	145.660000
332.920746	146.260000
333.014069	146.660000
333.107452	147.360000
333.200806	147.500000
333.294159	147.740000
333.387543	147.280000
333.480896	146.780000
333.574249	146.340000
333.667603	146.020000
333.760956	145.780000
333.854340	145.900000
333.947693	146.300000
334.041046	146.420000
334.134430	146.700000
334.227783	146.540000
334.321136	145.980000
334.414520	145.460000
334.507874	145.300000
334.601227	145.060000
334.694611	145.060000
334.787964	145.820000
334.881348	146.680000
334.974701	146.560000
335.068085	146.220000
335.161438	146.820000
335.254822	146.620000
335.348175	146.220000
335.441559	145.800000
335.534943	146.820000
335.628296	146.380000
335.721680	146.400000
335.815033	146.660000
335.908417	147.360000
336.001770	147.140000
336.095154	147.180000
336.188538	146.960000
336.281891	146.300000
336.375275	145.560000
336.468658	145.060000
336.562012	145.180000
336.655396	145.480000
336.748779	146.320000
336.842133	146.580000
336.935516	146.740000
337.028900	146.440000
337.122284	146.340000
337.215637	146.020000
337.309021	146.160000
337.402435	145.920000
337.495789	145.940000
337.589203	145.880000
337.682526	145.400000
337.775940	145.640000
337.869324	146.100000
337.962708	146.040000
338.056091	146.380000
338.149475	146.560000
338.242859	146.800000
338.336243	146.580000
338.429626	147.000000
338.523010	146.860000
338.616394	147.040000
338.709778	147.440000
338.803162	147.680000
338.896545	147.360000
338.989929	147.140000
339.083313	147.160000
339.176697	146.300000
339.270081	146.140000
339.363464	146.660000
339.456848	146.820000
339.550232	146.220000
339.643616	145.960000
339.737030	146.040000
339.830383	145.700000
339.923828	145.720000
340.017181	146.000000
340.110596	146.340000
340.203949	145.920000
340.297363	145.640000
340.390778	145.640000
340.484161	145.540000
340.577545	145.140000
340.670959	145.320000
340.764343	145.600000
340.857727	145.560000
340.951111	145.440000
341.044525	145.900000
341.137909	145.580000
341.231293	145.240000
341.324707	145.060000
341.418091	146.000000
341.511505	146.220000
341.604889	146.700000
341.698303	147.100000
341.791687	147.100000
341.885071	146.400000
341.978485	145.760000
342.071899	145.780000
342.165283	145.820000
342.258698	146.060000
342.352081	146.460000
342.445496	147.280000
342.538879	147.160000
342.632324	146.960000
342.725708	146.860000
342.819122	146.320000
342.912506	146.100000
343.005920	145.860000
343.099335	146.620000
343.192719	146.240000
343.286133	146.320000
343.379547	146.060000
343.472931	146.180000
343.566345	145.380000
343.659760	146.100000
343.753143	145.980000
343.846558	145.980000
343.939972	146.260000
344.033386	146.820000
344.126770	146.320000
344.220184	146.580000
344.313599	147.080000
344.407043	147.040000
344.500427	146.340000
344.593872	146.980000
344.687225	146.740000
344.780670	145.900000
344.874054	145.760000
344.967499	146.300000
345.060913	146.000000
345.154327	146.260000
345.247742	146.440000
345.341156	146.120000
345.434570	145.700000
345.527985	145.640000
345.621399	145.540000
345.714813	145.500000
345.808228	146.040000
345.901642	145.920000
345.995056	145.500000
346.088470	145.840000
346.181885	145.760000
346.275299	145.160000
346.368713	145.180000
346.462128	145.020000
346.555573	145.120000
346.648987	145.480000
346.742401	145.700000
346.835815	146.060000
346.929260	145.920000
347.022644	145.600000
347.116119	145.580000
347.209503	145.860000
347.302948	146.380000
347.396362	147.400000
347.489807	147.160000
347.583221	147.580000
347.676636	147.380000
347.770050	146.380000
347.863495	145.740000
347.956909	146.280000
348.050323	145.440000
348.143768	145.220000
348.237183	145.380000
348.330597	146.020000
348.424042	146.100000
348.517456	146.900000
348.610901	147.500000
348.704315	147.600000
348.797760	146.900000
348.891174	146.100000
348.984619	145.400000
349.078033	145.480000
349.171448	146.140000
349.264923	146.040000
349.358337	146.300000
349.451782	146.520000
349.545197	145.460000
349.638641	144.600000
349.732086	144.380000
349.825500	145.000000
349.918945	144.660000
350.012390	145.320000
350.105804	145.660000
350.199249	146.100000
350.292664	145.920000
350.386108	146.300000
350.479553	146.640000
350.572968	146.140000
350.666412	146.220000
350.759857	146.320000
350.853302	146.700000
350.946716	145.980000
351.040161	146.480000
351.133606	146.300000
351.227081	145.700000
351.320465	146.180000
351.413940	146.360000
351.507355	146.420000
351.600830	146.420000
351.694244	146.440000
351.787720	145.980000
351.881104	146.300000
351.974579	145.760000
352.067993	146.360000
352.161469	146.580000
352.254883	146.120000
352.348358	145.860000
352.441803	146.040000
352.535248	145.300000
352.628693	145.340000
352.722137	145.040000
352.815582	145.080000
352.909027	145.320000
353.002472	145.700000
353.095917	145.660000
353.189362	146.400000
353.282806	146.240000
353.376251	146.180000
353.469696	145.600000
353.563141	146.100000
353.656586	145.580000
353.750061	145.220000
353.843475	145.180000
353.936981	145.760000
354.030396	145.140000
354.123871	145.140000
354.217285	146.440000
354.310760	146.820000
354.404175	146.800000
354.497681	146.620000
354.591095	146.600000
354.684570	145.480000
354.777985	144.940000
354.871490	144.560000
354.964935	144.980000
355.058380	144.980000
355.151855	144.740000
355.245300	145.220000
355.338745	145.420000
355.432220	145.320000
355.525665	144.980000
355.619110	145.960000
355.712585	145.720000
355.806030	145.780000
355.899475	145.180000
355.992950	145.600000
356.086426	145.540000
356.179871	145.520000
356.273346	145.680000
356.366791	146.120000
356.460266	146.320000
356.553711	145.520000
356.647186	145.560000
356.740631	145.200000
356.834106	145.280000
356.927551	145.280000
357.021027	145.380000
357.114471	145.300000
357.207947	145.560000
357.301422	145.740000
357.394867	145.720000
357.488342	146.220000
357.581818	146.320000
357.675262	146.320000
357.768738	145.680000
357.862213	145.100000
357.955658	145.040000
358.049133	144.780000
358.142609	145.020000
358.236053	145.300000
358.329529	145.740000
358.423035	145.920000
358.516449	145.700000
358.609955	145.900000
358.703400	146.440000
358.796906	146.520000
358.890350	145.920000
358.983826	146.340000
359.077271	145.540000
359.170776	145.240000
359.264221	145.060000
359.357727	145.520000
359.451172	145.840000
359.544647	146.040000
359.638123	145.760000
359.731598	146.300000
359.825073	146.520000
359.918549	146.180000
360.012024	146.520000
360.105499	146.420000
360.198975	145.920000
360.292450	145.520000
360.385925	145.500000
360.479401	144.960000
360.572876	145.460000
360.666351	145.940000
360.759857	146.060000
360.853302	145.880000
360.946808	145.560000
361.040253	145.620000
361.133759	144.960000
361.227203	145.000000
361.320709	144.920000
361.414154	145.720000
361.507660	145.460000
361.601105	146.180000
361.694641	146.740000
361.788086	146.860000
361.881592	147.140000
361.975067	147.000000
362.068542	146.920000
362.162018	146.280000
362.255524	145.780000
362.348999	145.220000
362.442474	145.680000
362.535950	145.240000
362.629456	145.440000
362.722931	145.600000
362.816406	146.200000
362.909882	146.060000
363.003387	145.720000
363.096863	146.120000
363.190338	146.260000
363.283875	145.860000
363.377319	145.580000
363.470825	146.240000
363.564301	145.180000
363.657806	145.540000
363.751282	145.220000
363.844788	146.220000
363.938232	145.740000
364.031769	146.840000
364.125214	146.680000
364.218750	147.420000
364.312225	146.280000
364.405731	146.540000
364.499207	145.840000
364.592712	145.460000
364.686188	145.040000
364.779694	145.000000
364.873169	144.760000
364.966675	144.820000
365.060150	145.300000
365.153656	145.480000
365.247131	145.920000
365.340637	146.180000
365.434143	146.780000
365.527618	146.820000
365.621155	146.140000
365.714600	145.820000
365.808136	145.900000
365.901611	144.840000
365.995117	144.580000
366.088593	145.100000
366.182129	144.960000
366.275604	145.060000
366.369110	145.300000
366.462585	145.320000
366.556122	145.600000
366.649567	145.940000
366.743103	146.060000
366.836609	145.880000
366.930115	146.280000
367.023590	146.300000
367.117096	146.200000
367.210602	145.840000
367.304108	146.780000
367.397614	147.080000
367.491119	146.980000
367.584595	147.140000
367.678101	147.480000
367.771606	146.880000
367.865112	146.460000
367.958649	145.840000
368.052124	145.600000
368.145660	145.140000
368.239136	145.780000
368.332672	145.860000
368.426147	146.220000
368.519684	146.020000
368.613159	146.440000
368.706696	145.820000
368.800171	145.740000
368.893707	145.600000
368.987183	145.900000
369.080719	146.020000
369.174225	146.040000
369.267731	146.280000
369.361237	146.480000
369.454742	146.380000
369.548248	146.720000
369.641754	146.340000
369.735260	146.040000
369.828766	145.200000
369.922272	146.000000
370.015808	145.320000
370.109314	145.340000
370.202820	145.220000
370.296356	146.560000
370.389832	145.840000
370.483368	145.320000
370.576874	145.260000
370.670410	145.580000
370.763885	144.360000
370.857422	144.240000
370.950928	144.500000
371.044464	145.580000
371.137939	145.280000
371.231476	146.080000
371.324982	146.500000
371.418518	146.540000
371.512024	145.920000
371.605560	145.780000
371.699066	145.660000
371.792572	145.300000
371.886108	145.940000
371.979614	145.840000
372.073120	146.500000
372.166656	146.320000
372.260162	146.720000
372.353668	146.300000
372.447205	145.860000
372.540710	145.540000
372.634277	145.740000
372.727753	145.840000
372.821320	146.080000
372.914795	146.660000
373.008362	146.500000
373.101837	146.300000
373.195404	145.860000
373.288879	145.600000
373.382446	146.340000
373.475922	146.600000
373.569489	147.220000
373.662964	147.640000
373.756531	147.660000
373.850037	147.060000
373.943573	146.860000
374.037109	145.940000
374.130615	145.920000
374.224152	146.040000
374.317657	146.080000
374.411194	146.720000
374.504730	146.820000
374.598236	146.680000
374.691772	146.240000
374.785309	146.240000
374.878815	145.480000
374.972351	146.040000
375.065887	145.400000
375.159454	146.340000
375.252930	146.020000
375.346497	146.180000
375.440002	146.380000
375.533569	146.800000
375.627045	145.780000
375.720612	145.880000
375.814117	146.260000
375.907684	145.880000
376.001160	145.820000
376.094727	145.680000
376.188232	146.200000
376.281799	146.360000
376.375336	146.020000
376.468872	146.700000
376.562408	147.160000
376.655914	146.500000
376.749451	146.020000
376.842987	146.280000
376.936523	145.680000
377.030060	145.620000
377.123596	146.200000
377.217133	145.700000
377.310669	145.640000
377.404205	145.960000
377.497772	146.400000
377.591278	146.020000
377.684845	146.820000
377.778351	147.280000
377.871918	146.940000
377.965424	146.480000
378.058990	146.200000
378.152496	145.980000
378.246063	146.180000
378.339569	146.320000
378.433136	146.320000
378.526642	146.560000
378.620209	146.400000
378.713745	145.400000
378.807312	145.960000
378.900848	146.080000
378.994385	146.160000
379.087921	145.580000
379.181458	146.400000
379.274994	145.540000
379.368530	145.380000
379.462097	145.480000
379.555634	146.100000
379.649170	145.420000
379.742706	145.440000
379.836273	145.500000
379.929810	145.380000
380.023376	144.840000
380.116882	145.060000
380.210449	145.180000
380.303986	144.900000
380.397552	144.260000
380.491058	144.680000
380.584656	144.600000
380.678162	144.620000
380.771729	145.060000
380.865265	146.220000
380.958832	146.320000
381.052368	146.500000
381.145935	146.740000
381.239471	146.700000
381.333008	146.320000
381.426575	146.400000
381.520111	146.880000
381.613647	147.220000
381.707214	146.880000
381.800751	146.320000
381.894318	146.420000
381.987854	145.540000
382.081421	145.140000
382.174988	145.560000
382.268524	145.580000
382.362091	145.340000
382.455627	146.520000
382.549194	146.000000
382.642731	145.460000
382.736298	145.640000
382.829834	145.440000
382.923401	145.340000
383.016937	146.040000
383.110504	146.520000
383.204041	146.580000
383.297607	147.120000
383.391174	145.980000
383.484741	146.500000
383.578278	146.020000
383.671844	145.680000
383.765411	144.780000
383.858948	145.200000
383.952515	144.700000
384.046051	145.040000
384.139618	145.560000
384.233185	146.040000
384.326721	146.000000
384.420288	146.400000
384.513855	146.360000
384.607422	146.520000
384.700989	146.760000
384.794525	146.580000
384.888123	146.160000
384.981659	146.400000
385.075226	146.140000
385.168762	145.860000
385.262360	146.080000
385.355896	145.400000
385.449463	145.320000
385.542999	145.100000
385.636597	145.620000
385.730164	145.780000
385.823730	145.680000
385.917267	145.220000
386.010834	145.480000
386.104401	145.400000
386.197968	145.720000
386.291534	146.360000
386.385101	146.660000
386.478668	146.880000
386.572235	146.540000
386.665802	146.100000
386.759338	145.820000
386.852905	145.720000
386.946472	145.220000
387.040070	145.420000
387.133606	145.540000
387.227203	145.380000
387.320740	145.700000
387.414337	145.680000
387.507874	145.420000
387.601471	145.600000
387.695007	145.440000
387.788605	145.200000
387.882141	145.300000
387.975739	145.700000
388.069275	145.400000
388.162872	145.860000
388.256439	145.920000
388.350037	145.800000
388.443604	145.640000
388.537170	145.380000
388.630737	145.620000
388.724304	145.400000
388.817871	145.320000
388.911438	145.240000
389.005005	145.700000
389.098602	145.960000
389.192169	145.620000
389.285736	146.220000
389.379333	146.300000
389.472870	145.760000
389.566467	145.260000
389.660034	145.460000
389.753632	145.080000
389.847168	145.360000
389.940765	145.540000
390.034332	146.020000
390.127930	146.060000
390.221466	146.000000
390.315063	145.520000
390.408630	144.940000
390.502228	144.020000
390.595795	144.380000
390.689362	144.440000
390.782959	144.980000
390.876526	145.960000
390.970093	146.200000
391.063690	146.400000
391.157257	146.520000
391.250824	146.380000
391.344421	146.000000
391.437988	146.380000
391.531555	146.500000
391.625153	146.320000
391.718750	146.320000
391.812317	146.080000
391.905914	145.600000
391.999481	145.260000
392.093079	145.460000
392.186615	145.680000
392.280243	145.860000
392.373779	146.000000
392.467407	146.600000
392.560944	146.680000
392.654572	145.940000
392.748108	146.020000
392.841736	146.480000
392.935303	145.700000
393.028900	145.480000
393.122467	146.080000
393.216064	145.800000
393.309631	145.000000
393.403229	144.880000
393.496796	144.780000
393.590393	143.880000
393.683990	144.320000
393.777557	144.920000
393.871155	145.220000
393.964722	145.780000
394.058350	146.420000
394.151917	146.220000
394.245514	145.960000
394.339081	146.280000
394.432678	146.380000
394.526245	146.400000
394.619873	146.280000
394.713409	146.420000
394.807037	146.200000
394.900604	145.960000
394.994202	145.900000
395.087769	146.300000
395.181396	146.120000
395.274994	146.600000
395.368561	146.040000
395.462158	146.200000
395.555756	145.980000
395.649353	146.440000
395.742920	145.920000
395.836517	146.700000
395.930115	146.140000
396.023712	146.180000
396.117279	146.320000
396.210876	146.080000
396.304474	145.640000
396.398071	145.860000
396.491669	146.020000
396.585266	145.500000
396.678833	145.380000
396.772461	145.740000
396.866028	146.040000
396.959656	146.300000
397.053223	147.160000
397.146851	147.780000
397.240417	148.440000
397.334015	149.940000
397.427582	151.100000
397.521210	152.680000
397.614807	155.740000
397.708405	158.580000
397.802002	161.960000
397.895599	167.100000
397.989197	173.040000
398.082794	180.180000
398.176392	190.040000
398.269989	201.340000
398.363586	215.140000
398.457184	232.860000
398.550781	252.520000
398.644379	273.220000
398.737976	296.820000
398.831573	321.140000
398.925201	343.340000
399.018768	366.460000
399.112396	389.100000
399.205963	410.360000
399.299591	431.520000
399.393158	453.060000
399.486786	474.060000
399.580353	494.320000
399.673981	512.300000
399.767578	528.520000
399.861206	542.480000
399.954773	551.720000
400.048401	554.080000
400.141998	552.080000
400.235596	545.080000
400.329193	532.140000
400.422791	515.080000
400.516418	498.740000
400.610016	480.820000
400.703613	462.040000
400.797211	439.360000
400.890808	416.760000
400.984436	391.820000
401.078033	365.680000
401.171631	338.740000
401.265259	315.420000
401.358826	293.060000
401.452484	272.300000
401.546051	253.400000
401.639679	235.020000
401.733246	219.140000
401.826904	204.340000
401.920471	191.240000
402.014099	181.020000
402.107697	173.080000
402.201324	166.520000
402.294891	161.800000
402.388550	158.140000
402.482147	154.960000
402.575745	152.380000
402.669373	150.200000
402.762970	148.420000
402.856567	147.980000
402.950195	147.380000
403.043793	146.960000
403.137390	147.560000
403.231018	146.960000
403.324615	147.300000
403.418243	147.080000
403.511841	147.320000
403.605469	146.780000
403.699066	147.420000
403.792694	147.060000
403.886292	147.100000
403.979919	146.740000
404.073517	146.660000
404.167145	146.800000
404.260712	146.780000
404.354370	146.740000
404.447937	147.160000
404.541595	147.520000
404.635162	147.700000
404.728821	147.960000
404.822418	147.600000
404.916046	147.260000
405.009644	147.140000
405.103271	147.140000
405.196899	146.700000
405.290497	147.220000
405.384125	147.360000
405.477722	146.620000
405.571350	146.080000
405.664948	146.260000
405.758575	146.000000
405.852203	145.800000
405.945801	146.020000
406.039429	146.040000
406.133057	145.640000
406.226654	145.460000
406.320312	145.660000
406.413879	146.140000
406.507538	146.300000
406.601135	145.960000
406.694763	146.720000
406.788361	146.240000
406.882019	145.740000
406.975586	145.920000
407.069244	146.940000
407.162872	146.520000
407.256470	146.320000
407.350098	146.340000
407.443726	146.020000
407.537323	145.340000
407.630951	145.400000
407.724579	145.500000
407.818207	145.780000
407.911804	145.440000
408.005432	145.880000
408.099060	146.100000
408.192688	146.620000
408.286285	146.200000
408.379913	146.240000
408.473572	145.880000
408.567169	145.180000
408.660828	145.100000
408.754395	145.100000
408.848053	145.280000
408.941650	145.480000
409.035309	145.400000
409.128906	145.560000
409.222565	145.840000
409.316132	146.220000
409.409790	145.500000
409.503387	145.660000
409.597046	145.220000
409.690674	145.280000
409.784302	145.100000
409.877930	145.500000
409.971558	145.760000
410.065186	145.880000
410.158783	145.900000
410.252411	145.700000
410.346039	145.920000
410.439667	145.860000
410.533295	146.180000
410.626923	146.160000
410.720551	146.100000
410.814209	146.340000
410.907806	146.320000
411.001465	145.480000
411.095062	145.580000
411.188721	145.600000
411.282318	145.020000
411.375977	144.820000
411.469574	145.160000
411.563232	144.740000
411.656830	144.800000
411.750488	144.760000
411.844086	144.940000
411.937744	145.340000
412.031372	145.500000
412.125000	145.560000
412.218628	146.020000
412.312256	146.480000
412.405884	146.600000
412.499512	146.660000
412.593170	146.740000
412.686798	146.680000
412.780426	146.140000
412.874054	146.140000
412.967682	146.100000
413.061310	146.940000
413.154968	147.000000
413.248566	147.280000
413.342224	147.380000
413.435852	147.460000
413.529510	146.620000
413.623108	146.120000
413.716766	145.880000
413.810364	145.960000
413.904022	145.940000
413.997650	145.480000
414.091309	146.500000
414.184906	146.420000
414.278564	146.120000
414.372192	146.580000
414.465851	147.040000
414.559479	146.400000
414.653107	147.380000
414.746735	147.240000
414.840393	146.940000
414.934021	147.100000
415.027649	146.720000
415.121277	146.220000
415.214935	146.580000
415.308563	146.620000
415.402191	146.300000
415.495850	146.500000
415.589478	146.260000
415.683136	146.140000
415.776733	146.300000
415.870422	146.660000
415.964020	146.220000
416.057678	146.160000
416.151306	145.840000
416.244965	145.640000
416.338562	145.260000
416.432251	146.180000
416.525848	146.780000
416.619507	147.180000
416.713165	147.320000
416.806793	147.260000
416.900421	147.260000
416.994080	146.500000
417.087708	146.180000
417.181366	146.160000
417.274994	146.560000
417.368622	146.540000
417.462280	146.980000
417.555908	146.980000
417.649567	146.760000
417.743195	146.620000
417.836853	146.520000
417.930481	146.560000
418.024170	146.720000
418.117767	147.040000
418.211426	147.160000
418.305054	147.180000
418.398712	146.540000
418.492340	146.380000
418.585999	146.560000
418.679626	146.660000
418.773285	146.500000
418.866913	147.100000
418.960571	147.280000
419.054230	146.960000
419.147858	147.100000
419.241516	147.460000
419.335144	147.060000
419.428802	146.920000
419.522461	146.840000
419.616089	146.360000
419.709747	146.220000
419.803375	146.500000
419.897034	146.240000
419.990662	146.080000
420.084320	146.400000
420.177979	146.600000
420.271606	146.800000
420.365295	147.660000
420.458893	148.000000
420.552582	148.080000
420.646210	148.020000
420.739868	147.540000
420.833496	146.940000
420.927155	146.700000
421.020782	146.300000
421.114471	145.880000
421.208069	146.020000
421.301758	146.100000
421.395386	146.260000
421.489044	146.600000
421.582703	146.660000
421.676361	147.080000
421.769989	147.060000
421.863647	147.300000
421.957306	147.100000
422.050934	147.480000
422.144592	147.220000
422.238251	146.760000
422.331909	146.260000
422.425537	145.920000
422.519196	145.520000
422.612854	145.240000
422.706543	145.200000
422.800140	145.380000
422.893829	145.320000
422.987457	145.000000
423.081146	145.060000
423.174744	145.640000
423.268433	145.220000
423.362061	145.340000
423.455750	145.520000
423.549347	145.780000
423.643036	145.120000
423.736664	146.020000
423.830353	146.040000
423.924011	146.500000
424.017639	145.980000
424.111298	146.200000
424.204956	145.840000
424.298615	146.000000
424.392273	145.680000
424.485931	146.000000
424.579559	146.340000
424.673218	146.100000
424.766876	146.000000
424.860535	145.500000
424.954193	145.160000
425.047882	145.520000
425.141510	145.720000
425.235199	145.840000
425.328796	146.020000
425.422485	146.060000
425.516113	145.060000
425.609802	144.820000
425.703430	144.680000
425.797119	144.800000
425.890747	145.240000
425.984436	145.800000
426.078064	146.040000
426.171753	146.160000
426.265411	146.100000
426.359070	145.780000
426.452728	145.400000
426.546356	145.100000
426.640015	144.680000
426.733673	144.760000
426.827332	144.460000
426.920990	145.620000
427.014648	145.360000
427.108307	146.120000
427.201965	146.540000
427.295624	147.120000
427.389282	146.080000
427.482941	146.460000
427.576630	145.960000
427.670258	145.220000
427.763947	144.880000
427.857574	145.180000
427.951263	145.020000
428.044922	144.880000
428.138611	145.020000
428.232239	145.720000
428.325928	146.080000
428.419556	146.820000
428.513245	146.980000
428.606903	147.620000
428.700562	146.860000
428.794220	146.000000
428.887878	144.940000
428.981537	145.060000
429.075195	144.620000
429.168854	145.180000
429.262512	145.320000
429.356201	145.760000
429.449860	145.540000
429.543518	145.500000
429.637177	145.480000
429.730835	145.680000
429.824493	145.760000
429.918182	146.080000
430.011810	145.700000
430.105530	144.960000
430.199158	145.240000
430.292847	144.880000
430.386475	144.440000
430.480164	144.520000
430.573792	144.620000
430.667511	144.420000
430.761139	144.640000
430.854828	145.260000
430.948456	145.480000
431.042145	146.080000
431.135834	145.800000
431.229492	145.760000
431.323151	145.840000
431.416809	145.920000
431.510468	145.800000
431.604156	145.740000
431.697815	145.820000
431.791473	144.960000
431.885132	144.600000
431.978821	144.780000
432.072479	144.960000
432.166138	145.420000
432.259827	145.620000
432.353485	145.960000
432.447174	145.980000
432.540802	146.120000
432.634491	145.980000
432.728149	146.680000
432.821838	147.180000
432.915466	146.420000
433.009186	146.280000
433.102814	145.840000
433.196503	145.280000
433.290131	145.040000
433.383850	145.520000
433.477509	145.600000
433.571167	146.480000
433.664856	146.960000
433.758514	147.060000
433.852173	147.060000
433.945862	146.880000
434.039520	146.440000
434.133179	145.960000
434.226868	145.640000
434.320526	145.160000
434.414185	145.740000
434.507874	145.240000
434.601562	145.620000
434.695221	145.580000
434.788910	146.080000
434.882538	145.960000
434.976257	145.840000
435.069885	145.660000
435.163574	145.560000
435.257233	145.040000
435.350922	144.860000
435.444580	144.820000
435.538269	144.780000
435.631897	145.300000
435.725616	146.020000
435.819275	146.460000
435.912964	147.180000
436.006622	147.240000
436.100311	147.060000
436.193970	146.440000
436.287628	146.160000
436.381317	145.820000
436.474976	145.420000
436.568665	144.820000
436.662323	144.940000
436.756012	144.660000
436.849670	144.460000
436.943390	144.640000
437.037018	144.800000
437.130737	145.000000
437.224365	144.920000
437.318085	145.300000
437.411713	145.500000
437.505432	146.180000
437.599060	146.500000
437.692780	147.180000
437.786407	146.920000
437.880127	146.860000
437.973755	146.540000
438.067474	145.940000
438.161133	145.740000
438.254822	146.140000
438.348480	146.040000
438.442169	146.480000
438.535828	146.960000
438.629517	146.320000
438.723175	145.820000
438.816864	146.160000
438.910553	145.540000
439.004211	145.480000
439.097900	145.620000
439.191559	145.860000
439.285248	145.220000
439.378906	145.540000
439.472626	145.240000
439.566284	145.200000
439.659973	145.480000
439.753632	145.660000
439.847321	145.580000
439.940979	145.520000
440.034698	145.920000
440.128326	145.260000
440.222046	145.280000
440.315674	145.000000
440.409393	145.480000
440.503082	145.060000
440.596741	145.860000
440.690430	145.940000
440.784088	145.580000
440.877777	145.140000
440.971466	145.120000
441.065125	144.680000
441.158813	144.780000
441.252502	145.340000
441.346161	145.460000
441.439850	145.980000
441.533539	145.700000
441.627197	145.700000
441.720886	145.640000
441.814606	145.980000
441.908234	146.040000
442.001953	146.180000
442.095612	146.300000
442.189301	146.460000
442.282959	146.500000
442.376678	146.020000
442.470306	146.560000
442.564026	146.400000
442.657684	146.300000
442.751404	146.060000
442.845032	146.920000
442.938751	146.420000
443.032440	146.580000
443.126099	146.360000
443.219788	146.880000
443.313477	146.100000
443.407166	146.460000
443.500824	146.320000
443.594513	146.540000
443.688202	146.060000
443.781891	145.960000
443.875549	145.480000
443.969238	145.580000
444.062927	145.520000
444.156647	145.520000
444.250275	145.880000
444.343994	146.000000
444.437653	146.320000
444.531372	146.160000
444.625031	145.960000
444.718719	145.520000
444.812378	145.580000
444.906097	145.100000
444.999756	144.880000
445.093445	145.180000
445.187103	145.320000
445.280823	145.920000
445.374512	145.500000
445.468201	145.920000
445.561859	145.520000
445.655548	145.620000
445.749237	144.660000
445.842926	145.080000
445.936615	145.480000
446.030304	145.520000
446.123962	145.900000
446.217651	145.940000
446.311340	146.100000
446.405029	145.440000
446.498749	145.460000
446.592407	144.900000
446.686096	145.280000
446.779755	145.260000
446.873474	145.340000
446.967133	145.600000
447.060852	145.780000
447.154510	145.660000
447.248230	145.540000
447.341858	145.660000
447.435577	145.200000
447.529236	144.800000
447.622955	144.560000
447.716644	144.540000
447.810333	144.600000
447.904022	145.260000
447.997711	145.280000
448.091400	145.560000
448.185059	145.540000
448.278748	145.700000
448.372437	145.360000
448.466125	145.780000
448.559814	145.720000
448.653503	146.040000
448.747192	146.120000
448.840912	146.200000
448.934570	146.380000
449.028290	146.900000
449.121948	146.440000
449.215637	145.860000
449.309296	145.880000
449.403015	145.760000
449.496674	145.540000
449.590393	145.760000
449.684052	145.760000
449.777771	146.260000
449.871429	145.580000
449.965149	145.420000
450.058838	145.760000
450.152527	146.320000
450.246216	146.000000
450.339905	146.500000
450.433594	146.240000
450.527283	146.640000
450.620972	146.320000
450.714661	146.340000
450.808350	146.340000
450.902039	146.720000
450.995728	146.120000
451.089417	145.720000
451.183105	145.660000
451.276794	146.080000
451.370514	145.380000
451.464172	144.760000
451.557892	145.220000
451.651550	145.260000
451.745270	144.660000
451.838928	144.380000
451.932648	144.660000
452.026306	145.040000
452.120026	144.640000
452.213684	144.880000
452.307404	145.320000
452.401062	145.660000
452.494781	145.640000
452.588470	145.760000
452.682159	145.380000
452.775848	145.500000
452.869537	144.980000
452.963226	144.660000
453.056915	144.440000
453.150604	144.920000
453.244293	145.320000
453.337982	146.200000
453.431671	146.420000
453.525360	146.980000
453.619049	146.960000
453.712769	146.620000
453.806427	145.900000
453.900146	145.500000
453.993805	145.260000
454.087555	145.580000
454.181213	145.700000
454.274933	145.540000
454.368591	145.560000
454.462311	145.420000
454.555969	144.880000
454.649689	145.320000
454.743347	145.260000
454.837067	145.920000
454.930756	146.260000
455.024445	146.460000
455.118134	145.880000
455.211853	146.340000
455.305542	145.680000
455.399231	145.260000
455.492920	145.160000
455.586609	145.680000
455.680298	145.820000
455.773987	145.680000
455.867676	145.920000
455.961365	146.300000
456.055084	145.960000
456.148773	145.260000
456.242493	145.580000
456.336151	145.520000
456.429871	145.640000
456.523529	145.920000
456.617249	146.140000
456.710907	146.540000
456.804626	146.520000
456.898315	145.800000
456.992035	145.400000
457.085693	145.340000
457.179413	144.580000
457.273102	145.280000
457.366791	145.500000
457.460480	146.060000
457.554199	146.840000
457.647888	147.140000
457.741577	146.540000
457.835266	146.660000
457.928955	146.480000
458.022644	146.400000
458.116364	146.820000
458.210052	146.440000
458.303741	146.260000
458.397461	145.600000
458.491119	144.760000
458.584839	144.400000
458.678528	144.660000
458.772247	144.680000
458.865906	145.120000
458.959625	146.200000
459.053284	146.040000
459.147003	145.880000
459.240692	146.340000
459.334412	146.000000
459.428070	145.780000
459.521790	145.760000
459.615479	145.740000
459.709198	145.960000
459.802887	146.040000
459.896576	145.720000
459.990265	146.040000
460.083954	146.400000
460.177673	145.600000
460.271362	145.940000
460.365051	145.800000
460.458740	145.420000
460.552429	144.760000
460.646149	145.000000
460.739838	144.340000
460.833527	144.440000
460.927246	144.340000
461.020905	144.600000
461.114655	144.580000
461.208313	145.000000
461.302032	144.600000
461.395691	144.920000
461.489441	145.000000
461.583099	144.740000
461.676819	144.260000
461.770477	144.980000
461.864197	144.660000
461.957916	144.780000
462.051605	144.480000
462.145294	145.680000
462.238983	145.120000
462.332703	145.700000
462.426392	146.020000
462.520081	146.440000
462.613770	145.840000
462.707489	146.120000
462.801178	145.760000
462.894867	145.520000
462.988556	145.520000
463.082275	145.660000
463.175964	145.300000
463.269684	145.340000
463.363342	145.500000
463.457092	145.000000
463.550751	145.160000
463.644470	145.560000
463.738129	145.420000
463.831879	145.460000
463.925537	146.420000
464.019257	146.300000
464.112946	145.900000
464.206665	146.200000
464.300323	145.980000
464.394043	145.540000
464.487762	145.320000
464.581451	145.760000
464.675140	145.540000
464.768829	145.920000
464.862549	146.060000
464.956238	146.540000
465.049927	146.700000
465.143646	146.760000
465.237335	146.100000
465.331024	146.720000
465.424713	146.480000
465.518433	146.220000
465.612152	146.240000
465.705811	146.280000
465.799561	145.520000
465.893219	145.240000
465.986938	145.200000
466.080597	144.720000
466.174347	145.320000
466.268005	145.580000
466.361725	145.540000
466.455414	145.620000
466.549133	145.800000
466.642792	145.680000
466.736542	145.460000
466.830231	145.920000
466.923920	145.680000
467.017609	145.840000
467.111328	145.380000
467.205017	145.180000
467.298706	144.920000
467.392426	145.280000
467.486115	145.380000
467.579803	145.420000
467.673523	145.900000
467.767212	146.080000
467.860901	145.980000
467.954651	146.200000
468.048309	146.540000
468.142029	146.160000
468.235718	146.040000
468.329437	145.680000
468.423096	145.640000
468.516846	145.220000
468.610504	145.260000
468.704224	144.780000
468.797913	144.860000
468.891632	144.600000
468.985291	144.720000
469.079010	145.020000
469.172729	145.000000
469.266418	145.560000
469.360107	145.600000
469.453827	145.460000
469.547516	145.400000
469.641205	145.920000
469.734924	145.880000
469.828613	146.320000
469.922302	146.620000
470.016022	146.660000
470.109711	146.420000
470.203430	145.580000
470.297150	144.760000
470.390808	145.020000
470.484558	144.780000
470.578217	145.340000
470.671936	146.340000
470.765625	147.220000
470.859344	146.600000
470.953003	146.680000
471.046753	146.300000
471.140411	145.380000
471.234131	145.300000
471.327820	146.160000
471.421539	146.340000
471.515228	146.060000
471.608948	146.340000
471.702637	145.580000
471.796326	144.900000
471.890045	145.000000
471.983734	145.300000
472.077423	145.060000
472.171143	145.460000
472.264832	145.360000
472.358521	145.000000
472.452240	144.420000
472.545929	145.300000
472.639648	145.640000
472.733337	146.100000
472.827057	146.200000
472.920746	146.600000
473.014465	146.600000
473.108124	146.600000
473.201874	146.440000
473.295532	146.440000
473.389252	146.960000
473.482941	146.720000
473.576660	146.240000
473.670319	146.060000
473.764069	146.380000
473.857727	146.060000
473.951477	146.180000
474.045166	146.560000
474.138855	146.120000
474.232574	145.900000
474.326263	145.780000
474.419952	145.660000
474.513672	145.600000
474.607361	146.140000
474.701050	146.060000
474.794769	146.220000
474.888458	146.440000
474.982178	146.440000
475.075867	146.580000
475.169586	146.660000
475.263275	146.400000
475.356995	145.940000
475.450653	145.700000
475.544403	145.400000
475.638062	146.280000
475.731812	146.200000
475.825470	145.960000
475.919189	146.100000
476.012878	146.300000
476.106598	145.160000
476.200256	145.540000
476.294006	145.740000
476.387695	145.940000
476.481384	145.760000
476.575104	146.160000
476.668793	145.660000
476.762512	145.360000
476.856201	145.580000
476.949890	145.420000
477.043610	144.740000
477.137299	144.960000
477.230988	145.480000
477.324707	144.640000
477.418396	145.480000
477.512146	145.960000
477.605804	145.640000
477.699524	145.600000
477.793213	145.860000
477.886932	145.340000
477.980591	144.940000
478.074341	144.900000
478.167999	144.540000
478.261749	144.760000
478.355408	144.560000
478.449127	144.900000
478.542816	145.980000
478.636536	146.680000
478.730225	146.620000
478.823944	146.700000
478.917633	146.740000
479.011322	146.460000
479.105042	146.300000
479.198730	146.440000
479.292450	146.420000
479.386139	146.640000
479.479828	146.340000
479.573547	146.340000
479.667267	146.080000
479.760925	145.960000
479.854675	146.020000
479.948334	146.260000
480.042084	145.880000
480.135742	146.280000
480.229462	146.240000
480.323151	146.000000
480.416870	145.400000
480.510529	145.580000
480.604279	144.900000
480.697937	145.420000
480.791656	145.080000
480.885345	145.180000
480.979065	145.020000
481.072754	145.540000
481.166473	145.720000
481.260132	145.720000
481.353882	145.700000
481.447540	145.520000
481.541260	145.520000
481.635010	144.980000
481.728668	144.940000
481.822388	144.900000
481.916077	145.380000
482.009796	145.480000
482.103485	146.020000
482.197205	146.280000
482.290863	146.360000
482.384613	146.040000
482.478271	145.560000
482.571991	145.340000
482.665680	145.340000
482.759399	146.080000
482.853058	146.560000
482.946808	146.720000
483.040466	146.320000
483.134216	146.340000
483.227875	145.640000
483.321594	145.800000
483.415283	145.940000
483.509003	146.260000
483.602661	146.100000
483.696411	146.400000
483.790070	146.020000
483.883789	145.680000
483.977478	145.660000
484.071198	145.880000
484.164917	145.520000
484.258606	145.240000
484.352325	145.660000
484.445984	146.000000
484.539734	145.840000
484.633392	145.760000
484.727142	146.400000
484.820801	146.180000
484.914520	145.940000
485.008209	146.280000
485.101929	146.800000
485.195587	146.080000
485.289337	146.300000
485.382996	146.160000
485.476715	145.960000
485.570404	146.240000
485.664124	146.440000
485.757782	146.840000
485.851532	146.780000
485.945190	146.880000
486.038910	146.640000
486.132599	147.000000
486.226318	146.320000
486.319977	146.000000
486.413727	146.360000
486.507446	145.820000
486.601105	145.360000
486.694855	145.560000
486.788513	145.660000
486.882233	145.060000
486.975922	145.200000
487.069641	145.360000
487.163300	144.800000
487.257050	145.800000
487.350708	145.720000
487.444427	145.540000
487.538116	145.660000
487.631836	145.880000
487.725494	145.340000
487.819214	145.620000
487.912903	145.760000
488.006622	145.940000
488.100281	146.320000
488.194031	146.340000
488.287689	146.540000
488.381409	147.360000
488.475098	146.980000
488.568817	146.980000
488.662476	146.740000
488.756226	146.440000
488.849945	145.360000
488.943604	145.540000
489.037354	145.720000
489.131012	145.460000
489.224731	145.020000
489.318390	145.120000
489.412140	145.220000
489.505798	145.120000
489.599518	145.140000
489.693207	145.920000
489.786926	146.220000
489.880585	146.080000
489.974335	146.040000
490.067993	147.280000
490.161713	147.240000
490.255371	147.760000
490.349121	147.900000
490.442780	147.680000
490.536499	146.300000
490.630188	146.400000
490.723907	145.600000
490.817566	145.560000
490.911285	145.580000
491.004974	145.840000
491.098694	145.340000
491.192413	146.120000
491.286102	145.820000
491.379822	145.860000
491.473480	146.360000
491.567200	146.260000
491.660889	145.460000
491.754608	145.720000
491.848267	145.740000
491.941986	145.300000
492.035675	145.520000
492.129395	146.040000
492.223053	145.720000
492.316772	146.080000
492.410461	145.960000
492.504181	145.820000
492.597839	145.540000
492.691559	145.940000
492.785248	145.640000
492.878967	145.880000
492.972626	145.800000
493.066345	145.860000
493.160034	145.260000
493.253754	145.200000
493.347412	144.840000
493.441132	145.080000
493.534882	145.600000
493.628540	146.220000
493.722260	146.440000
493.815918	146.820000
493.909668	147.300000
494.003326	147.300000
494.097046	147.000000
494.190704	146.600000
494.284454	146.520000
494.378113	146.420000
494.471832	145.840000
494.565491	145.680000
494.659210	146.100000
494.752899	146.280000
494.846619	146.020000
494.940277	146.280000
495.033997	146.240000
495.127686	145.640000
495.221405	145.220000
495.315063	145.140000
495.408783	145.160000
495.502441	145.320000
495.596191	145.760000
495.689850	145.720000
495.783569	145.920000
495.877228	145.980000
495.970947	145.820000
496.064697	145.600000
496.158356	146.580000
496.252075	146.560000
496.345734	146.660000
496.439453	147.620000
496.533142	148.040000
496.626862	147.900000
496.720520	147.920000
496.814240	147.660000
496.907898	146.940000
497.001617	146.900000
497.095306	145.940000
497.189026	145.900000
497.282684	145.840000
497.376404	146.140000
497.470062	145.680000
497.563782	146.020000
497.657471	145.940000
497.751190	145.940000
497.844849	145.880000
497.938568	146.440000
498.032227	146.560000
498.125946	146.500000
498.219635	146.380000
498.313354	146.480000
498.407074	145.860000
498.500732	146.120000
498.594452	146.140000
498.688110	146.060000
498.781830	145.680000
498.875519	145.980000
498.969238	145.560000
499.062897	145.380000
499.156616	145.840000
499.250275	145.960000
499.343994	145.440000
499.437653	145.620000
499.531372	145.980000
499.625061	146.280000
499.718781	146.440000
499.812439	147.160000
499.906158	146.820000
499.999817	146.900000
500.093536	146.440000
500.187195	146.540000
500.280914	146.200000
500.374573	146.780000
500.468323	146.240000
500.561981	146.640000
500.655701	146.240000
500.749420	146.700000
500.843079	146.640000
500.936798	146.800000
501.030457	146.780000
501.124176	147.100000
501.217834	146.720000
501.311554	146.640000
501.405212	146.260000
501.498962	145.480000
501.592621	145.520000
501.686340	145.740000
501.779999	145.720000
501.873718	146.380000
501.967377	146.820000
502.061096	146.940000
502.154755	146.640000
502.248474	146.760000
502.342133	146.680000
502.435852	146.800000
502.529510	147.040000
502.623230	147.640000
502.716888	147.120000
502.810608	147.040000
502.904266	147.300000
502.997986	146.860000
503.091705	146.300000
503.185364	146.380000
503.279083	146.420000
503.372772	146.140000
503.466492	145.940000
503.560150	146.040000
503.653870	146.560000
503.747528	146.720000
503.841248	146.540000
503.934906	146.680000
504.028625	146.240000
504.122284	146.200000
504.216003	146.700000
504.309662	146.420000
504.403381	146.540000
504.497040	146.680000
504.590759	146.260000
504.684418	146.340000
504.778137	146.900000
504.871796	146.880000
504.965515	147.000000
505.059174	147.120000
505.152893	146.060000
505.246521	145.580000
505.340240	145.480000
505.433899	145.480000
505.527618	145.780000
505.621338	146.360000
505.714996	146.380000
505.808716	146.360000
505.902374	146.900000
505.996094	146.720000
506.089752	146.260000
506.183472	146.400000
506.277130	146.520000
506.370850	146.100000
506.464508	145.880000
506.558228	145.940000
506.651886	145.520000
506.745605	145.720000
506.839264	145.980000
506.932983	146.120000
507.026611	146.300000
507.120331	146.880000
507.213989	146.100000
507.307709	145.820000
507.401367	145.820000
507.495087	146.680000
507.588745	146.200000
507.682465	147.120000
507.776123	147.160000
507.869843	147.180000
507.963531	146.400000
508.057190	147.000000
508.150909	146.260000
508.244568	146.400000
508.338287	146.140000
508.431946	146.180000
508.525665	145.800000
508.619324	146.020000
508.713013	145.980000
508.806671	146.460000
508.900391	147.000000
508.994049	147.200000
509.087769	146.900000
509.181427	146.960000
509.275146	146.460000
509.368774	145.500000
509.462494	145.480000
509.556152	145.480000
509.649872	145.720000
509.743530	145.980000
509.837250	146.220000
509.930878	146.320000
510.024597	146.200000
510.118256	145.780000
510.211975	145.740000
510.305695	145.500000
510.399353	145.420000
510.493042	145.860000
510.586700	146.120000
510.680420	146.520000
510.774078	146.660000
510.867798	146.760000
510.961426	146.440000
511.055145	146.340000
511.148804	145.880000
511.242523	146.280000
511.336151	146.260000
511.429871	146.680000
511.523529	146.400000
511.617249	146.120000
511.710876	145.860000
511.804596	145.360000
511.898254	145.120000
511.991974	145.520000
512.085632	145.720000
512.179321	145.720000
512.272949	146.400000
512.366699	146.840000
512.460327	146.640000
512.554077	147.440000
512.647766	147.420000
512.741394	147.040000
512.835144	147.340000
512.928772	147.100000
513.022461	146.800000
513.116150	146.520000
513.209839	147.120000
513.303467	146.100000
513.397217	145.980000
513.490845	145.600000
513.584595	145.700000
513.678223	145.000000
513.771912	144.680000
513.865601	145.140000
513.959290	144.940000
514.052917	145.140000
514.146667	145.920000
514.240295	146.820000
514.333984	147.080000
514.427673	147.340000
514.521362	147.620000
514.614990	146.960000
514.708740	146.880000
514.802368	146.720000
514.896057	146.740000
514.989746	146.980000
515.083435	146.800000
515.177124	146.800000
515.270752	146.680000
515.364502	146.740000
515.458130	146.340000
515.551819	146.320000
515.645508	146.160000
515.739197	145.880000
515.832825	145.720000
515.926575	145.580000
516.020203	146.000000
516.113892	146.500000
516.207520	146.560000
516.301270	146.620000
516.394897	146.780000
516.488586	146.900000
516.582275	146.600000
516.675964	146.100000
516.769592	146.080000
516.863281	146.480000
516.956970	146.720000
517.050659	146.620000
517.144287	146.960000
517.238037	146.960000
517.331665	146.200000
517.425354	145.460000
517.519043	145.000000
517.612732	145.540000
517.706421	145.620000
517.800049	145.420000
517.893738	145.520000
517.987427	145.700000
518.081116	145.420000
518.174744	145.080000
518.268433	145.600000
518.362122	146.180000
518.455811	146.520000
518.549438	147.100000
518.643127	148.020000
518.736816	147.760000
518.830505	147.060000
518.924133	146.820000
519.017822	146.500000
519.111511	146.060000
519.205200	146.620000
519.298828	147.100000
519.392517	147.060000
519.486206	147.020000
519.579895	146.840000
519.673523	146.400000
519.767212	146.280000
519.860901	146.520000
519.954590	146.280000
520.048279	145.960000
520.141907	146.000000
520.235596	146.700000
520.329224	146.760000
520.422974	146.880000
520.516602	146.640000
520.610291	146.460000
520.703918	146.160000
520.797607	145.840000
520.891296	145.640000
520.984985	146.520000
521.078613	146.900000
521.172302	146.240000
521.265930	147.260000
521.359680	148.060000
521.453308	147.580000
521.546997	147.320000
521.640625	147.620000
521.734314	146.640000
521.827942	146.180000
521.921692	146.560000
522.015320	146.460000
522.109009	146.100000
522.202698	146.140000
522.296326	145.900000
522.390015	145.740000
522.483704	146.260000
522.577393	146.340000
522.671021	146.380000
522.764709	146.160000
522.858337	146.540000
522.952026	146.380000
523.045654	147.040000
523.139404	147.640000
523.233032	148.280000
523.326721	147.720000
523.420349	147.620000
523.514038	146.920000
523.607666	146.900000
523.701355	146.020000
523.795044	146.100000
523.888733	146.140000
523.982361	146.240000
524.076050	145.640000
524.169678	146.440000
524.263367	146.080000
524.356995	145.840000
524.450684	145.620000
524.544373	145.480000
524.638062	144.960000
524.731750	145.400000
524.825378	145.560000
524.919067	145.500000
525.012695	145.860000
525.106384	145.980000
525.200012	145.980000
525.293701	145.620000
525.387329	146.220000
525.481018	146.280000
525.574646	146.520000
525.668396	146.580000
525.762024	147.000000
525.855713	147.000000
525.949341	146.560000
526.043030	146.800000
526.136658	146.420000
526.230347	146.200000
526.323975	145.540000
526.417664	145.600000
526.511292	145.480000
526.604980	145.960000
526.698608	145.980000
526.792297	146.080000
526.885925	146.580000
526.979614	146.660000
527.073303	146.760000
527.166931	147.020000
527.260620	147.340000
527.354309	147.540000
527.447998	147.280000
527.541626	146.720000
527.635315	146.700000
527.728943	147.300000
527.822632	147.220000
527.916260	147.400000
528.009949	147.740000
528.103577	147.380000
528.197266	146.580000
528.290894	146.120000
528.384583	146.000000
528.478210	146.020000
528.571899	146.780000
528.665527	147.180000
528.759216	147.280000
528.852844	147.680000
528.946533	147.600000
529.040161	146.940000
529.133850	146.580000
529.227478	146.960000
529.321167	146.780000
529.414856	147.100000
529.508484	147.800000
529.602173	147.520000
529.695801	147.420000
529.789490	147.460000
529.883057	147.060000
529.976746	146.900000
530.070374	147.500000
530.164062	147.400000
530.257690	147.500000
530.351379	148.000000
530.445007	147.840000
530.538696	147.420000
530.632324	147.700000
530.726013	147.380000
530.819641	147.160000
530.913330	147.260000
531.006958	147.380000
531.100647	147.100000
531.194275	147.040000
531.287964	146.680000
531.381592	146.180000
531.475220	146.300000
531.568848	146.200000
531.662537	146.360000
531.756226	146.980000
531.849854	147.020000
531.943542	147.160000
532.037170	146.780000
532.130859	147.120000
532.224487	146.840000
532.318176	146.640000
532.411804	147.040000
532.505432	147.540000
532.599060	146.960000
532.692749	146.680000
532.786377	147.060000
532.880066	146.200000
532.973694	145.640000
533.067383	145.600000
533.161011	145.600000
533.254639	145.560000
533.348267	145.500000
533.441956	146.000000
533.535583	145.960000
533.629272	146.180000
533.722900	145.680000
533.816589	146.040000
533.910156	146.360000
534.003845	146.260000
534.097534	146.200000
534.191162	147.100000
534.284851	146.980000
534.378479	146.380000
534.472107	146.680000
534.565735	146.600000
534.659424	146.480000
534.753052	146.740000
534.846741	146.560000
534.940369	147.060000
535.033997	147.080000
535.127625	146.760000
535.221313	147.200000
535.314941	147.540000
535.408630	146.640000
535.502197	147.060000
535.595886	146.960000
535.689514	146.340000
535.783203	146.620000
535.876831	147.320000
535.970459	147.020000
536.064087	146.860000
536.157776	146.920000
536.251404	146.740000
536.345093	146.540000
536.438721	146.580000
536.532349	147.100000
536.626038	146.860000
536.719666	146.820000
536.813293	146.260000
536.906921	146.160000
537.000610	146.300000
537.094238	146.520000
537.187866	146.180000
537.281494	146.240000
537.375183	146.600000
537.468811	145.920000
537.562439	145.880000
537.656067	146.100000
537.749756	146.280000
537.843384	146.500000
537.937012	146.880000
538.030640	146.740000
538.124329	146.740000
538.217896	147.080000
538.311584	147.000000
538.405212	147.240000
538.498901	147.560000
538.592468	148.140000
538.686157	147.380000
538.779785	146.600000
538.873413	146.260000
538.967102	145.880000
539.060730	145.080000
539.154358	145.640000
539.247986	146.160000
539.341675	146.120000
539.435242	146.120000
539.528931	146.560000
539.622559	146.200000
539.716187	146.180000
539.809814	146.120000
539.903503	146.340000
539.997070	146.080000
540.090759	146.280000
540.184387	146.140000
540.278015	146.580000
540.371643	146.700000
540.465332	146.660000
540.558899	146.420000
540.652588	146.440000
540.746216	145.980000
540.839844	146.220000
540.933472	146.400000
541.027100	146.700000
541.120728	146.880000
541.214417	147.440000
541.308044	147.740000
541.401672	147.480000
541.495300	147.360000
541.588928	147.060000
541.682617	146.380000
541.776184	145.700000
541.869873	146.000000
541.963440	146.140000
542.057129	146.060000
542.150757	146.160000
542.244385	146.020000
542.338013	145.820000
542.431641	145.880000
542.525269	145.780000
542.618958	146.520000
542.712524	146.740000
542.806213	146.620000
542.899780	146.460000
542.993469	146.460000
543.087036	145.800000
543.180725	145.420000
543.274292	145.720000
543.367981	145.880000
543.461548	146.380000
543.555237	146.580000
543.648926	147.140000
543.742493	147.900000
543.836182	147.820000
543.929749	147.780000
544.023437	147.740000
544.117004	147.860000
544.210693	147.480000
544.304260	147.700000
544.397949	147.200000
544.491516	147.040000
544.585205	146.680000
544.678772	145.940000
544.772461	146.120000
544.866028	146.320000
544.959717	146.780000
545.053284	146.660000
545.146973	147.140000
545.240540	147.100000
545.334229	147.560000
545.427795	147.680000
545.521423	148.100000
545.615051	147.800000
545.708679	147.980000
545.802307	147.600000
545.895935	147.580000
545.989624	148.020000
546.083191	148.100000
546.176880	147.940000
546.270447	147.960000
546.364136	148.040000
546.457703	147.520000
546.551331	147.500000
546.644958	147.360000
546.738586	147.560000
546.832214	147.180000
546.925842	146.860000
547.019409	147.120000
547.113098	146.560000
547.206665	146.200000
547.300354	146.060000
547.393921	146.220000
547.487549	146.420000
547.581177	146.700000
547.674805	146.700000
547.768433	145.980000
547.862061	146.160000
547.955627	145.840000
548.049316	145.980000
548.142883	146.180000
548.236572	147.320000
548.330139	147.200000
548.423767	147.040000
548.517456	147.140000
548.611023	147.180000
548.704651	146.240000
548.798279	146.440000
548.891907	146.800000
548.985474	146.840000
549.079163	147.040000
549.172729	147.120000
549.266357	146.220000
549.359985	146.060000
549.453613	145.580000
549.547180	145.180000
549.640869	145.900000
549.734436	146.200000
549.828064	146.340000
549.921631	146.520000
550.015320	146.240000
550.108887	146.440000
550.202515	146.380000
550.296143	145.920000
550.389771	145.840000
550.483337	146.320000
550.576965	145.660000
550.670593	146.160000
550.764221	146.400000
550.857849	146.420000
550.951477	146.140000
551.045105	146.200000
551.138672	146.240000
551.232300	146.020000
551.325928	146.360000
551.419556	146.420000
551.513123	146.340000
551.606750	145.840000
551.700378	145.940000
551.794006	145.700000
551.887573	145.480000
551.981201	145.860000
552.074768	145.860000
552.168457	145.800000
552.262024	146.660000
552.355652	146.580000
552.449219	147.080000
552.542847	147.360000
552.636475	147.000000
552.730103	146.160000
552.823669	146.240000
552.917297	145.080000
553.010864	145.180000
553.104553	145.720000
553.198181	145.380000
553.291748	145.960000
553.385376	146.460000
553.478943	146.140000
553.572571	146.260000
553.666199	146.380000
553.759827	145.900000
553.853394	145.540000
553.947021	145.700000
554.040588	145.460000
554.134216	145.640000
554.227783	146.140000
554.321411	146.840000
554.415039	146.680000
554.508667	146.840000
554.602234	147.200000
554.695862	146.640000
554.789429	146.260000
554.883057	146.480000
554.976624	146.140000
555.070251	145.980000
555.163818	145.900000
555.257507	146.080000
555.351074	145.840000
555.444702	147.160000
555.538330	146.540000
555.631897	147.040000
555.725525	146.700000
555.819092	146.560000
555.912720	145.460000
556.006287	146.240000
556.099915	145.820000
556.193481	146.180000
556.287109	146.740000
556.380676	146.720000
556.474304	146.380000
556.567871	146.860000
556.661499	146.120000
556.755066	145.700000
556.848694	145.520000
556.942261	145.560000
557.035889	145.720000
557.129517	146.200000
557.223145	147.120000
557.316711	147.340000
557.410339	147.620000
557.503906	147.000000
557.597473	147.280000
557.691040	146.460000
557.784668	146.540000
557.878296	146.100000
557.971863	146.420000
558.065491	146.360000
558.159058	146.240000
558.252686	146.720000
558.346252	147.420000
558.439880	147.020000
558.533447	146.500000
558.627075	146.260000
558.720642	145.580000
558.814270	145.000000
558.907837	145.160000
559.001465	145.300000
559.095032	146.020000
559.188660	146.660000
559.282227	146.240000
559.375854	146.720000
559.469360	146.900000
559.562988	147.160000
559.656555	146.440000
559.750183	146.960000
559.843750	147.180000
559.937378	146.800000
560.030945	146.220000
560.124573	0.000000
560.218140	0.000000
560.311707	0.000000
560.405334	0.000000
560.498901	0.000000
560.592529	0.000000
560.686096	0.000000
560.779724	0.000000
560.873291	0.000000
560.966858	0.000000
561.060425	0.000000
561.154053	0.000000
561.247620	0.000000
561.341248	0.000000
561.434814	0.000000
561.528381	0.000000
561.621948	0.000000
561.715576	0.000000
561.809143	0.000000
561.902771	0.000000
561.996277	0.000000
562.089905	0.000000
562.183472	0.000000
562.277100	0.000000
