Model Number: SPM-002-B   
Serial Number: 70087108
Firmware Version: 004.15.4
Exposure Time: 100000.000000us
Data Taken on: 11-12-2020 19:36:57.478
Wavelength	Amplitude
221.570786	0.000000
221.663406	0.000000
221.756027	0.000000
221.848648	0.000000
221.941269	0.000000
222.033905	0.000000
222.126526	0.000000
222.219162	0.000000
222.311798	0.000000
222.404419	0.000000
222.497055	0.000000
222.589676	0.000000
222.682312	0.000000
222.774933	0.000000
222.867569	0.000000
222.960205	0.000000
223.052841	0.000000
223.145462	0.000000
223.238098	0.000000
223.330734	0.000000
223.423386	0.000000
223.516022	0.000000
223.608658	0.000000
223.701309	0.000000
223.793945	0.000000
223.886581	0.000000
223.979218	0.000000
224.071869	0.000000
224.164505	0.000000
224.257156	0.000000
224.349792	0.000000
224.442444	0.000000
224.535095	0.000000
224.627747	0.000000
224.720398	0.000000
224.813034	0.000000
224.905685	0.000000
224.998337	145.620000
225.090988	145.580000
225.183640	145.820000
225.276291	145.120000
225.368942	145.300000
225.461594	145.640000
225.554245	145.520000
225.646912	145.180000
225.739578	145.720000
225.832230	145.980000
225.924896	145.280000
226.017548	145.580000
226.110199	146.280000
226.202866	145.800000
226.295532	145.660000
226.388184	145.820000
226.480850	145.560000
226.573517	145.080000
226.666168	145.480000
226.758835	145.760000
226.851501	146.600000
226.944183	146.640000
227.036850	146.200000
227.129517	145.960000
227.222183	146.100000
227.314850	145.980000
227.407516	146.200000
227.500198	147.200000
227.592865	146.960000
227.685532	146.620000
227.778214	146.460000
227.870880	146.480000
227.963562	146.560000
228.056229	147.200000
228.148926	147.040000
228.241592	147.540000
228.334274	147.400000
228.426956	147.220000
228.519638	146.940000
228.612305	146.700000
228.704987	146.220000
228.797668	146.240000
228.890350	146.000000
228.983032	145.560000
229.075714	146.220000
229.168396	146.100000
229.261108	145.680000
229.353790	145.500000
229.446472	145.700000
229.539169	145.320000
229.631851	144.860000
229.724533	145.140000
229.817230	145.260000
229.909912	146.080000
230.002609	146.380000
230.095306	146.380000
230.187988	146.340000
230.280685	146.200000
230.373383	145.080000
230.466095	145.040000
230.558792	145.700000
230.651474	145.600000
230.744171	145.540000
230.836868	145.800000
230.929581	145.840000
231.022278	145.680000
231.114975	145.940000
231.207672	145.720000
231.300369	146.000000
231.393082	145.560000
231.485779	145.380000
231.578506	145.300000
231.671204	145.560000
231.763916	145.500000
231.856613	145.620000
231.949326	145.800000
232.042023	145.520000
232.134735	145.480000
232.227448	145.140000
232.320160	145.480000
232.412872	145.600000
232.505585	146.640000
232.598297	146.960000
232.691010	147.000000
232.783722	146.400000
232.876450	147.000000
232.969162	146.200000
233.061874	145.600000
233.154587	145.340000
233.247314	145.540000
233.340027	144.620000
233.432739	145.140000
233.525467	145.520000
233.618179	146.220000
233.710907	146.060000
233.803635	146.680000
233.896347	146.340000
233.989090	146.720000
234.081818	146.280000
234.174545	146.680000
234.267258	146.020000
234.359985	146.100000
234.452713	145.960000
234.545441	146.000000
234.638168	145.740000
234.730896	146.180000
234.823639	146.060000
234.916367	146.040000
235.009094	146.100000
235.101822	146.160000
235.194580	145.920000
235.287308	145.760000
235.380051	145.360000
235.472778	145.580000
235.565521	145.820000
235.658249	145.540000
235.750992	145.640000
235.843719	145.860000
235.936462	146.080000
236.029205	145.620000
236.121948	145.580000
236.214691	145.900000
236.307449	146.660000
236.400192	146.120000
236.492935	146.100000
236.585678	146.340000
236.678421	146.260000
236.771164	145.360000
236.863907	146.060000
236.956665	146.300000
237.049408	147.720000
237.142151	147.220000
237.234909	148.180000
237.327652	148.080000
237.420410	148.000000
237.513153	147.120000
237.605927	147.280000
237.698669	146.780000
237.791428	145.860000
237.884186	146.340000
237.976944	145.780000
238.069702	146.280000
238.162445	145.960000
238.255203	146.220000
238.347961	146.460000
238.440720	146.660000
238.533478	146.180000
238.626266	145.900000
238.719025	146.320000
238.811783	146.000000
238.904541	145.500000
238.997314	145.220000
239.090073	145.180000
239.182831	145.380000
239.275604	146.100000
239.368362	146.300000
239.461136	146.620000
239.553909	146.580000
239.646667	146.200000
239.739441	145.500000
239.832214	146.120000
239.925003	146.440000
240.017761	146.980000
240.110535	147.580000
240.203308	147.120000
240.296082	146.980000
240.388855	146.760000
240.481628	146.940000
240.574417	146.800000
240.667191	147.060000
240.759964	146.600000
240.852737	146.620000
240.945526	145.880000
241.038315	145.460000
241.131088	145.720000
241.223877	145.840000
241.316650	145.420000
241.409439	145.780000
241.502228	145.640000
241.595001	145.560000
241.687790	145.460000
241.780579	145.580000
241.873367	145.960000
241.966141	146.240000
242.058929	145.700000
242.151718	146.100000
242.244507	146.600000
242.337311	145.660000
242.430099	145.900000
242.522903	146.400000
242.615692	145.940000
242.708481	145.740000
242.801270	146.640000
242.894073	146.840000
242.986862	146.880000
243.079651	147.540000
243.172455	147.060000
243.265244	147.160000
243.358063	146.260000
243.450867	146.480000
243.543655	146.060000
243.636459	146.400000
243.729263	146.440000
243.822067	146.900000
243.914856	147.160000
244.007660	147.180000
244.100464	147.180000
244.193268	146.560000
244.286072	146.420000
244.378876	145.720000
244.471680	145.420000
244.564499	145.660000
244.657318	146.460000
244.750122	146.680000
244.842926	146.180000
244.935745	146.900000
245.028549	146.440000
245.121368	145.960000
245.214172	145.960000
245.306992	146.900000
245.399796	146.420000
245.492615	146.540000
245.585434	146.380000
245.678253	146.160000
245.771072	145.620000
245.863892	146.080000
245.956711	146.500000
246.049530	146.320000
246.142349	146.380000
246.235168	146.700000
246.327988	146.600000
246.420807	146.280000
246.513626	146.560000
246.606445	146.300000
246.699280	146.100000
246.792099	145.880000
246.884918	145.500000
246.977753	145.340000
247.070587	145.680000
247.163422	145.660000
247.256241	145.700000
247.349075	146.380000
247.441895	146.260000
247.534729	146.020000
247.627563	145.920000
247.720383	146.400000
247.813217	146.300000
247.906052	146.060000
247.998886	146.080000
248.091736	145.960000
248.184570	145.400000
248.277405	145.080000
248.370239	146.180000
248.463074	146.940000
248.555908	147.340000
248.648743	147.380000
248.741592	147.560000
248.834427	146.680000
248.927261	145.960000
249.020111	146.100000
249.112946	146.640000
249.205795	146.320000
249.298630	146.820000
249.391495	146.500000
249.484344	146.300000
249.577179	146.120000
249.670029	146.460000
249.762878	146.660000
249.855728	147.080000
249.948563	147.200000
250.041412	146.660000
250.134262	146.820000
250.227112	146.740000
250.319962	146.780000
250.412827	146.500000
250.505692	146.040000
250.598541	146.120000
250.691391	145.880000
250.784241	145.780000
250.877106	145.980000
250.969955	146.240000
251.062805	146.400000
251.155670	146.800000
251.248520	146.800000
251.341385	147.020000
251.434235	147.020000
251.527100	146.620000
251.619965	145.980000
251.712814	146.640000
251.805695	146.400000
251.898560	146.640000
251.991425	146.860000
252.084290	147.080000
252.177155	146.260000
252.270020	146.100000
252.362885	146.380000
252.455750	146.200000
252.548615	145.660000
252.641479	145.640000
252.734360	145.240000
252.827240	144.600000
252.920105	144.600000
253.012970	144.900000
253.105850	145.000000
253.198715	145.100000
253.291595	145.200000
253.384460	144.820000
253.477341	144.960000
253.570221	145.020000
253.663086	144.880000
253.755966	145.800000
253.848846	145.880000
253.941727	146.040000
254.034592	145.900000
254.127472	145.700000
254.220367	145.400000
254.313248	145.400000
254.406128	144.740000
254.499008	145.100000
254.591904	146.180000
254.684784	146.340000
254.777664	146.560000
254.870544	146.740000
254.963440	146.560000
255.056335	146.060000
255.149216	145.580000
255.242111	146.100000
255.334991	146.380000
255.427887	146.480000
255.520767	146.760000
255.613663	147.020000
255.706558	146.420000
255.799438	146.000000
255.892334	146.020000
255.985229	146.020000
256.078125	145.720000
256.171021	145.960000
256.263916	146.780000
256.356812	146.940000
256.449707	146.700000
256.542603	146.460000
256.635498	146.620000
256.728394	145.960000
256.821289	145.560000
256.914215	145.700000
257.007080	146.040000
257.100006	146.220000
257.192932	146.960000
257.285828	147.140000
257.378723	147.240000
257.471619	147.060000
257.564545	146.240000
257.657440	146.120000
257.750336	146.440000
257.843262	146.200000
257.936157	147.360000
258.029053	147.900000
258.121979	147.760000
258.214874	147.440000
258.307800	147.500000
258.400696	146.380000
258.493622	146.400000
258.586517	145.500000
258.679443	145.740000
258.772339	145.240000
258.865265	145.340000
258.958160	144.880000
259.051086	146.240000
259.144012	146.160000
259.236938	146.900000
259.329834	147.140000
259.422791	147.100000
259.515717	146.200000
259.608612	145.820000
259.701538	145.740000
259.794464	145.380000
259.887390	145.680000
259.980316	145.600000
260.073212	145.620000
260.166138	144.840000
260.259064	145.020000
260.351990	145.440000
260.444916	145.700000
260.537842	146.160000
260.630768	146.940000
260.723694	147.040000
260.816620	146.760000
260.909546	146.900000
261.002472	146.520000
261.095398	146.260000
261.188354	146.340000
261.281281	146.160000
261.374207	145.980000
261.467133	146.520000
261.560089	146.620000
261.653015	146.320000
261.745972	146.920000
261.838867	147.360000
261.931824	147.340000
262.024780	147.020000
262.117706	147.360000
262.210663	147.460000
262.303589	147.200000
262.396515	147.180000
262.489471	147.960000
262.582397	147.680000
262.675354	146.800000
262.768280	146.820000
262.861237	146.580000
262.954163	146.300000
263.047119	146.460000
263.140045	146.340000
263.233002	146.280000
263.325958	146.000000
263.418884	145.280000
263.511841	145.060000
263.604797	145.300000
263.697723	145.180000
263.790680	145.440000
263.883636	146.240000
263.976593	146.320000
264.069550	146.400000
264.162476	146.040000
264.255463	146.160000
264.348419	145.780000
264.441376	146.060000
264.534332	145.580000
264.627289	146.400000
264.720245	146.600000
264.813202	146.220000
264.906158	146.280000
264.999115	147.080000
265.092072	146.700000
265.185028	146.960000
265.277985	147.520000
265.370941	147.220000
265.463898	146.820000
265.556854	146.620000
265.649811	145.500000
265.742798	145.240000
265.835754	145.200000
265.928711	145.540000
266.021667	145.640000
266.114655	146.120000
266.207611	146.280000
266.300568	146.020000
266.393585	145.500000
266.486511	145.660000
266.579498	145.200000
266.672485	145.120000
266.765442	145.280000
266.858429	146.000000
266.951385	145.680000
267.044342	146.040000
267.137329	145.960000
267.230316	146.080000
267.323273	145.280000
267.416260	146.040000
267.509216	145.920000
267.602203	145.800000
267.695160	145.940000
267.788147	146.120000
267.881134	145.480000
267.974091	145.620000
268.067078	145.560000
268.160065	145.560000
268.253052	145.480000
268.346008	145.700000
268.438995	145.780000
268.531982	146.140000
268.624969	145.640000
268.717987	146.300000
268.810944	146.160000
268.903961	146.060000
268.996948	145.720000
269.089905	146.580000
269.182892	146.300000
269.275879	146.420000
269.368866	146.160000
269.461853	146.380000
269.554871	146.140000
269.647858	146.120000
269.740845	146.280000
269.833832	146.840000
269.926819	146.860000
270.019806	146.860000
270.112793	146.620000
270.205811	146.540000
270.298798	146.260000
270.391785	146.800000
270.484772	146.440000
270.577789	146.780000
270.670776	146.240000
270.763763	146.360000
270.856750	146.220000
270.949768	145.820000
271.042786	145.520000
271.135773	145.820000
271.228790	145.880000
271.321808	145.340000
271.414795	145.400000
271.507782	145.280000
271.600800	145.220000
271.693817	145.260000
271.786804	145.760000
271.879822	146.440000
271.972809	146.540000
272.065826	147.080000
272.158844	146.760000
272.251831	147.260000
272.344849	146.860000
272.437866	146.720000
272.530853	146.560000
272.623871	146.660000
272.716888	145.240000
272.809906	145.480000
272.902893	145.520000
272.995911	145.020000
273.088928	144.940000
273.181946	145.680000
273.274963	145.380000
273.367981	145.440000
273.460999	145.500000
273.554047	146.040000
273.647003	146.360000
273.740051	146.480000
273.833069	147.000000
273.926086	147.520000
274.019135	147.060000
274.112152	146.600000
274.205170	146.720000
274.298187	146.680000
274.391205	145.940000
274.484222	146.260000
274.577240	146.360000
274.670258	146.260000
274.763306	145.960000
274.856323	146.860000
274.949341	146.760000
275.042358	147.220000
275.135406	147.060000
275.228424	147.020000
275.321442	146.520000
275.414490	145.940000
275.507507	146.160000
275.600525	146.420000
275.693573	146.040000
275.786591	145.800000
275.879669	146.560000
275.972656	146.000000
276.065735	145.860000
276.158752	146.660000
276.251801	147.560000
276.344818	147.400000
276.437866	147.400000
276.530884	147.380000
276.623932	146.440000
276.716980	146.720000
276.809998	146.660000
276.903046	146.620000
276.996094	147.360000
277.089111	148.060000
277.182159	147.820000
277.275208	147.320000
277.368256	147.080000
277.461304	146.580000
277.554321	146.020000
277.647369	145.720000
277.740417	145.980000
277.833466	145.940000
277.926514	145.920000
278.019562	146.720000
278.112610	146.160000
278.205688	146.220000
278.298706	146.660000
278.391785	146.180000
278.484833	145.740000
278.577881	145.520000
278.670929	146.040000
278.763977	145.520000
278.857025	146.260000
278.950073	146.140000
279.043121	146.460000
279.136169	145.820000
279.229248	145.860000
279.322296	145.420000
279.415344	145.300000
279.508392	145.160000
279.601440	145.160000
279.694519	145.160000
279.787567	145.380000
279.880615	145.640000
279.973694	145.780000
280.066742	146.040000
280.159790	146.340000
280.252869	146.020000
280.345917	145.700000
280.438995	145.680000
280.532074	145.700000
280.625122	145.900000
280.718201	146.900000
280.811279	147.200000
280.904327	147.260000
280.997406	147.240000
281.090454	147.220000
281.183533	146.440000
281.276581	146.380000
281.369659	146.200000
281.462738	146.260000
281.555786	146.540000
281.648865	146.580000
281.741943	146.320000
281.835022	147.000000
281.928070	146.620000
282.021149	146.180000
282.114227	146.020000
282.207306	146.440000
282.300385	146.400000
282.393433	146.700000
282.486511	146.740000
282.579590	147.400000
282.672668	147.240000
282.765747	146.520000
282.858856	146.360000
282.951904	146.600000
283.045013	146.260000
283.138062	146.460000
283.231171	146.940000
283.324249	147.400000
283.417328	147.340000
283.510406	146.800000
283.603485	146.640000
283.696564	146.300000
283.789642	146.040000
283.882751	145.520000
283.975830	146.560000
284.068909	146.160000
284.161987	146.760000
284.255066	146.180000
284.348175	146.660000
284.441254	145.780000
284.534332	146.420000
284.627441	145.940000
284.720520	145.560000
284.813599	145.580000
284.906708	145.860000
284.999786	145.080000
285.092896	144.900000
285.185974	146.420000
285.279053	145.760000
285.372192	145.980000
285.465240	146.720000
285.558380	146.600000
285.651459	145.920000
285.744568	146.880000
285.837677	146.300000
285.930756	146.140000
286.023865	146.380000
286.116943	146.140000
286.210052	146.100000
286.303162	146.300000
286.396240	146.280000
286.489349	146.200000
286.582458	146.580000
286.675568	146.160000
286.768646	146.260000
286.861755	146.880000
286.954865	147.540000
287.047974	147.100000
287.141083	146.820000
287.234161	146.620000
287.327271	145.860000
287.420380	145.920000
287.513519	145.840000
287.606598	146.040000
287.699738	146.200000
287.792816	146.100000
287.885956	145.580000
287.979034	145.620000
288.072174	145.700000
288.165283	145.480000
288.258392	146.000000
288.351501	145.500000
288.444611	145.900000
288.537720	146.140000
288.630859	146.220000
288.723969	145.940000
288.817078	146.780000
288.910187	146.580000
289.003296	145.740000
289.096436	145.760000
289.189545	145.660000
289.282654	145.040000
289.375763	145.300000
289.468903	146.200000
289.562012	146.300000
289.655121	146.500000
289.748260	146.620000
289.841400	146.660000
289.934509	146.320000
290.027649	146.420000
290.120728	146.140000
290.213898	146.280000
290.306976	146.080000
290.400146	146.240000
290.493256	145.600000
290.586395	145.900000
290.679535	146.100000
290.772644	146.140000
290.865784	145.460000
290.958893	146.020000
291.052032	145.700000
291.145172	145.360000
291.238281	145.020000
291.331421	145.460000
291.424561	145.760000
291.517670	145.660000
291.610809	145.800000
291.703949	145.820000
291.797089	145.680000
291.890228	144.960000
291.983337	145.040000
292.076477	144.840000
292.169617	145.140000
292.262756	145.100000
292.355927	145.220000
292.449036	145.020000
292.542206	145.300000
292.635315	145.420000
292.728485	145.860000
292.821625	145.680000
292.914764	146.720000
293.007904	146.720000
293.101044	146.620000
293.194183	146.360000
293.287323	146.740000
293.380463	145.880000
293.473602	145.600000
293.566742	145.800000
293.659882	146.340000
293.753021	146.420000
293.846191	146.740000
293.939331	146.880000
294.032471	146.340000
294.125610	145.940000
294.218781	146.180000
294.311920	146.420000
294.405060	146.480000
294.498230	146.840000
294.591370	146.800000
294.684540	146.360000
294.777679	145.820000
294.870850	146.440000
294.963959	146.320000
295.057159	146.300000
295.150299	146.720000
295.243469	146.780000
295.336609	145.840000
295.429779	145.940000
295.522919	146.320000
295.616089	145.960000
295.709229	146.440000
295.802399	146.720000
295.895569	146.260000
295.988708	145.920000
296.081879	146.220000
296.175018	145.720000
296.268188	145.960000
296.361359	147.020000
296.454529	147.100000
296.547668	146.800000
296.640839	147.100000
296.734009	146.660000
296.827179	146.300000
296.920319	146.660000
297.013519	146.480000
297.106659	146.300000
297.199860	146.280000
297.292999	146.080000
297.386200	145.620000
297.479309	145.660000
297.572510	145.680000
297.665680	145.400000
297.758850	145.640000
297.852020	145.400000
297.945190	145.400000
298.038361	145.320000
298.131531	146.420000
298.224701	145.920000
298.317871	145.780000
298.411072	145.280000
298.504242	145.340000
298.597412	144.700000
298.690582	145.280000
298.783752	145.480000
298.876923	146.280000
298.970093	146.320000
299.063293	146.760000
299.156464	146.440000
299.249634	146.820000
299.342834	146.780000
299.436005	146.960000
299.529205	146.620000
299.622345	146.860000
299.715576	146.200000
299.808716	145.940000
299.901917	145.800000
299.995117	145.960000
300.088287	146.160000
300.181488	146.240000
300.274658	146.160000
300.367828	146.260000
300.461029	146.320000
300.554199	146.340000
300.647400	146.640000
300.740601	147.320000
300.833771	147.020000
300.926971	147.300000
301.020142	146.700000
301.113342	146.540000
301.206512	146.380000
301.299713	146.560000
301.392914	146.140000
301.486084	146.480000
301.579285	146.520000
301.672516	146.680000
301.765686	146.760000
301.858887	147.000000
301.952057	146.960000
302.045288	146.980000
302.138458	146.540000
302.231659	146.120000
302.324860	145.700000
302.418060	145.320000
302.511261	145.160000
302.604462	145.640000
302.697662	145.940000
302.790863	145.820000
302.884064	145.720000
302.977264	145.800000
303.070465	145.980000
303.163666	146.300000
303.256866	146.740000
303.350067	147.060000
303.443268	147.080000
303.536469	146.760000
303.629669	146.380000
303.722870	146.580000
303.816071	146.300000
303.909271	146.400000
304.002472	145.740000
304.095673	145.780000
304.188934	144.980000
304.282104	145.880000
304.375336	145.720000
304.468506	145.820000
304.561768	145.260000
304.654968	145.860000
304.748169	145.040000
304.841370	145.180000
304.934601	145.660000
305.027802	145.860000
305.121002	145.360000
305.214233	145.440000
305.307434	145.420000
305.400665	145.780000
305.493866	145.520000
305.587097	145.920000
305.680298	146.060000
305.773499	146.720000
305.866730	146.040000
305.959930	146.880000
306.053162	147.220000
306.146393	146.820000
306.239594	145.620000
306.332825	145.700000
306.426025	145.920000
306.519287	145.320000
306.612488	145.600000
306.705719	145.800000
306.798920	145.900000
306.892181	145.040000
306.985352	144.780000
307.078613	144.300000
307.171844	145.080000
307.265045	144.680000
307.358276	144.400000
307.451508	144.780000
307.544739	145.380000
307.637970	144.740000
307.731201	144.960000
307.824402	146.020000
307.917633	146.180000
308.010864	146.400000
308.104095	146.620000
308.197327	146.920000
308.290558	146.800000
308.383789	146.520000
308.477020	146.120000
308.570251	145.720000
308.663483	145.080000
308.756714	144.780000
308.849976	145.200000
308.943176	145.860000
309.036438	145.800000
309.129639	145.800000
309.222900	145.780000
309.316101	145.220000
309.409393	144.480000
309.502625	144.420000
309.595856	144.580000
309.689087	144.480000
309.782318	144.880000
309.875580	144.980000
309.968811	145.480000
310.062042	145.460000
310.155273	145.380000
310.248535	145.640000
310.341766	145.260000
310.434998	145.100000
310.528259	144.900000
310.621490	145.540000
310.714722	144.620000
310.807983	144.820000
310.901215	144.700000
310.994476	145.300000
311.087708	144.720000
311.181000	145.520000
311.274200	145.700000
311.367462	145.880000
311.460693	145.440000
311.553986	146.320000
311.647186	146.340000
311.740479	146.860000
311.833710	146.560000
311.926971	146.580000
312.020203	145.600000
312.113464	145.420000
312.206726	144.620000
312.299957	145.100000
312.393219	145.780000
312.486481	145.960000
312.579712	145.760000
312.672974	145.920000
312.766235	145.760000
312.859497	145.360000
312.952759	145.340000
313.045990	146.120000
313.139252	145.700000
313.232513	145.840000
313.325775	145.760000
313.419037	145.780000
313.512299	144.820000
313.605530	145.680000
313.698822	145.540000
313.792053	145.780000
313.885345	145.320000
313.978577	145.640000
314.071869	144.860000
314.165131	145.200000
314.258392	145.240000
314.351654	145.600000
314.444916	145.080000
314.538177	146.060000
314.631439	146.180000
314.724701	145.880000
314.817993	145.880000
314.911255	146.260000
315.004517	145.460000
315.097778	145.000000
315.191040	145.560000
315.284302	145.760000
315.377594	145.620000
315.470856	146.140000
315.564117	145.900000
315.657379	145.240000
315.750671	144.800000
315.843933	145.100000
315.937195	144.640000
316.030518	144.780000
316.123749	145.240000
316.217041	146.160000
316.310303	146.040000
316.403595	146.340000
316.496857	146.520000
316.590149	146.300000
316.683411	145.520000
316.776703	145.140000
316.869965	145.040000
316.963257	144.460000
317.056519	143.920000
317.149811	143.780000
317.243073	144.020000
317.336365	144.180000
317.429626	145.100000
317.522919	145.860000
317.616180	146.120000
317.709473	146.020000
317.802765	145.780000
317.896027	145.260000
317.989319	145.340000
318.082611	145.180000
318.175873	145.220000
318.269165	145.500000
318.362488	145.460000
318.455750	145.160000
318.549042	145.540000
318.642303	145.940000
318.735626	145.300000
318.828888	145.580000
318.922211	145.160000
319.015472	145.440000
319.108765	144.820000
319.202057	144.800000
319.295349	145.000000
319.388641	145.480000
319.481934	145.240000
319.575226	145.340000
319.668518	145.680000
319.761810	145.620000
319.855103	145.560000
319.948395	145.340000
320.041687	145.640000
320.134979	145.540000
320.228271	145.480000
320.321564	145.260000
320.414856	145.360000
320.508148	145.060000
320.601440	145.180000
320.694763	144.940000
320.788025	145.660000
320.881348	145.740000
320.974640	145.740000
321.067963	145.500000
321.161224	145.460000
321.254547	144.720000
321.347839	145.220000
321.441162	145.040000
321.534454	145.380000
321.627747	145.400000
321.721069	145.880000
321.814362	145.840000
321.907654	146.020000
322.000946	145.700000
322.094269	146.360000
322.187561	146.040000
322.280884	146.160000
322.374176	146.380000
322.467468	147.040000
322.560791	146.600000
322.654083	147.080000
322.747406	146.960000
322.840698	147.120000
322.934021	147.200000
323.027344	147.480000
323.120636	147.120000
323.213959	146.740000
323.307251	146.040000
323.400574	145.600000
323.493866	145.200000
323.587219	145.540000
323.680511	145.960000
323.773834	146.200000
323.867157	146.220000
323.960449	146.080000
324.053772	145.800000
324.147095	145.600000
324.240387	146.240000
324.333710	146.280000
324.427032	146.500000
324.520355	146.060000
324.613647	145.780000
324.706970	145.540000
324.800293	145.500000
324.893616	145.780000
324.986938	146.340000
325.080231	146.040000
325.173553	146.260000
325.266876	146.460000
325.360199	146.360000
325.453522	145.860000
325.546875	145.980000
325.640167	145.980000
325.733521	146.120000
325.826813	146.200000
325.920166	146.160000
326.013489	145.920000
326.106812	145.460000
326.200134	145.040000
326.293457	144.380000
326.386780	144.660000
326.480103	144.960000
326.573425	144.800000
326.666748	144.880000
326.760071	145.200000
326.853424	145.360000
326.946747	145.540000
327.040070	146.160000
327.133392	146.260000
327.226715	145.940000
327.320068	145.440000
327.413391	145.840000
327.506714	145.060000
327.600037	145.140000
327.693390	145.400000
327.786713	145.560000
327.880066	145.380000
327.973358	146.000000
328.066742	146.140000
328.160034	146.380000
328.253418	146.860000
328.346710	146.520000
328.440063	145.920000
328.533417	145.460000
328.626740	145.800000
328.720093	145.260000
328.813416	145.460000
328.906769	145.840000
329.000092	146.280000
329.093445	145.840000
329.186768	145.860000
329.280121	146.280000
329.373444	146.700000
329.466797	146.400000
329.560120	146.400000
329.653473	146.800000
329.746796	146.000000
329.840149	145.640000
329.933502	145.660000
330.026825	145.660000
330.120178	145.320000
330.213562	145.620000
330.306854	145.680000
330.400238	145.800000
330.493561	145.600000
330.586945	146.480000
330.680237	146.580000
330.773621	146.740000
330.866974	146.560000
330.960327	146.740000
331.053680	145.860000
331.147003	145.860000
331.240356	145.940000
331.333710	146.180000
331.427063	146.140000
331.520416	146.440000
331.613770	146.120000
331.707123	146.320000
331.800476	146.160000
331.893829	147.060000
331.987152	147.220000
332.080505	147.440000
332.173859	146.980000
332.267212	146.580000
332.360565	145.940000
332.453918	145.440000
332.547333	145.440000
332.640656	145.480000
332.734039	145.640000
332.827362	145.400000
332.920746	146.280000
333.014069	146.360000
333.107452	146.760000
333.200806	147.300000
333.294159	147.460000
333.387543	146.580000
333.480896	145.900000
333.574249	145.540000
333.667603	144.980000
333.760956	144.860000
333.854340	145.160000
333.947693	145.760000
334.041046	145.680000
334.134430	146.060000
334.227783	145.780000
334.321136	145.300000
334.414520	144.820000
334.507874	144.800000
334.601227	144.700000
334.694611	144.700000
334.787964	144.980000
334.881348	145.600000
334.974701	145.680000
335.068085	145.520000
335.161438	145.780000
335.254822	145.700000
335.348175	145.420000
335.441559	144.860000
335.534943	145.520000
335.628296	145.700000
335.721680	145.500000
335.815033	145.880000
335.908417	146.460000
336.001770	146.100000
336.095154	145.720000
336.188538	145.720000
336.281891	145.080000
336.375275	144.820000
336.468658	144.440000
336.562012	144.760000
336.655396	145.280000
336.748779	145.880000
336.842133	145.920000
336.935516	146.180000
337.028900	146.000000
337.122284	145.760000
337.215637	145.920000
337.309021	145.700000
337.402435	145.320000
337.495789	145.220000
337.589203	145.120000
337.682526	144.820000
337.775940	145.480000
337.869324	145.920000
337.962708	145.500000
338.056091	146.200000
338.149475	145.760000
338.242859	145.400000
338.336243	144.900000
338.429626	145.580000
338.523010	145.160000
338.616394	145.400000
338.709778	145.760000
338.803162	146.100000
338.896545	145.980000
338.989929	145.420000
339.083313	145.640000
339.176697	145.040000
339.270081	144.860000
339.363464	145.000000
339.456848	145.720000
339.550232	145.020000
339.643616	145.420000
339.737030	145.760000
339.830383	145.340000
339.923828	145.420000
340.017181	145.920000
340.110596	145.820000
340.203949	145.580000
340.297363	145.560000
340.390778	145.440000
340.484161	145.160000
340.577545	145.500000
340.670959	145.780000
340.764343	145.800000
340.857727	145.880000
340.951111	145.340000
341.044525	145.280000
341.137909	144.780000
341.231293	145.040000
341.324707	144.440000
341.418091	145.900000
341.511505	145.660000
341.604889	146.040000
341.698303	146.080000
341.791687	146.400000
341.885071	145.600000
341.978485	145.320000
342.071899	145.520000
342.165283	145.420000
342.258698	145.520000
342.352081	146.120000
342.445496	146.960000
342.538879	146.840000
342.632324	146.660000
342.725708	146.660000
342.819122	145.680000
342.912506	145.000000
343.005920	144.980000
343.099335	145.960000
343.192719	145.820000
343.286133	146.140000
343.379547	146.240000
343.472931	146.200000
343.566345	145.260000
343.659760	145.380000
343.753143	145.420000
343.846558	145.400000
343.939972	145.280000
344.033386	145.900000
344.126770	145.840000
344.220184	146.080000
344.313599	146.380000
344.407043	146.560000
344.500427	145.840000
344.593872	146.320000
344.687225	145.760000
344.780670	145.340000
344.874054	145.100000
344.967499	145.880000
345.060913	145.580000
345.154327	145.960000
345.247742	145.580000
345.341156	145.480000
345.434570	144.920000
345.527985	144.800000
345.621399	144.880000
345.714813	145.400000
345.808228	145.640000
345.901642	145.400000
345.995056	145.240000
346.088470	145.180000
346.181885	145.140000
346.275299	144.800000
346.368713	144.880000
346.462128	144.780000
346.555573	144.760000
346.648987	144.780000
346.742401	145.060000
346.835815	145.440000
346.929260	145.160000
347.022644	145.300000
347.116119	145.660000
347.209503	145.940000
347.302948	146.580000
347.396362	147.360000
347.489807	147.480000
347.583221	148.040000
347.676636	147.600000
347.770050	146.560000
347.863495	146.000000
347.956909	146.140000
348.050323	145.260000
348.143768	145.440000
348.237183	145.720000
348.330597	146.080000
348.424042	146.100000
348.517456	146.520000
348.610901	146.580000
348.704315	146.240000
348.797760	145.720000
348.891174	144.980000
348.984619	144.280000
349.078033	144.680000
349.171448	145.300000
349.264923	145.360000
349.358337	145.560000
349.451782	145.640000
349.545197	144.600000
349.638641	143.980000
349.732086	143.800000
349.825500	144.080000
349.918945	143.900000
350.012390	144.640000
350.105804	145.220000
350.199249	145.460000
350.292664	145.540000
350.386108	145.960000
350.479553	146.400000
350.572968	145.920000
350.666412	146.260000
350.759857	146.180000
350.853302	146.440000
350.946716	145.900000
351.040161	146.220000
351.133606	146.240000
351.227081	146.200000
351.320465	146.840000
351.413940	147.000000
351.507355	147.020000
351.600830	147.160000
351.694244	146.720000
351.787720	146.300000
351.881104	146.080000
351.974579	145.760000
352.067993	146.140000
352.161469	146.480000
352.254883	145.700000
352.348358	145.480000
352.441803	145.560000
352.535248	144.880000
352.628693	145.380000
352.722137	145.320000
352.815582	145.760000
352.909027	146.120000
353.002472	145.940000
353.095917	145.660000
353.189362	145.960000
353.282806	145.520000
353.376251	145.140000
353.469696	145.060000
353.563141	145.480000
353.656586	145.360000
353.750061	145.020000
353.843475	144.920000
353.936981	145.320000
354.030396	144.440000
354.123871	144.540000
354.217285	145.360000
354.310760	145.960000
354.404175	145.980000
354.497681	146.000000
354.591095	146.240000
354.684570	145.660000
354.777985	145.160000
354.871490	144.720000
354.964935	145.220000
355.058380	145.220000
355.151855	145.100000
355.245300	145.540000
355.338745	146.020000
355.432220	145.780000
355.525665	145.280000
355.619110	145.840000
355.712585	145.400000
355.806030	145.040000
355.899475	144.600000
355.992950	145.080000
356.086426	145.360000
356.179871	145.640000
356.273346	146.100000
356.366791	146.660000
356.460266	146.380000
356.553711	145.760000
356.647186	145.840000
356.740631	145.460000
356.834106	145.300000
356.927551	145.520000
357.021027	145.600000
357.114471	145.520000
357.207947	145.600000
357.301422	145.560000
357.394867	145.540000
357.488342	145.840000
357.581818	145.840000
357.675262	146.180000
357.768738	145.960000
357.862213	145.480000
357.955658	145.480000
358.049133	145.080000
358.142609	144.880000
358.236053	144.600000
358.329529	144.700000
358.423035	144.680000
358.516449	144.820000
358.609955	145.580000
358.703400	146.500000
358.796906	146.700000
358.890350	146.180000
358.983826	146.360000
359.077271	145.600000
359.170776	145.240000
359.264221	144.880000
359.357727	145.560000
359.451172	145.960000
359.544647	145.820000
359.638123	145.820000
359.731598	146.420000
359.825073	146.540000
359.918549	146.300000
360.012024	146.340000
360.105499	146.000000
360.198975	145.980000
360.292450	145.680000
360.385925	145.420000
360.479401	145.360000
360.572876	145.700000
360.666351	145.740000
360.759857	145.820000
360.853302	146.180000
360.946808	145.600000
361.040253	145.620000
361.133759	145.140000
361.227203	145.200000
361.320709	144.440000
361.414154	145.240000
361.507660	145.380000
361.601105	145.960000
361.694641	146.380000
361.788086	146.480000
361.881592	146.640000
361.975067	146.360000
362.068542	146.760000
362.162018	146.360000
362.255524	146.120000
362.348999	146.060000
362.442474	146.480000
362.535950	145.640000
362.629456	145.600000
362.722931	145.920000
362.816406	146.260000
362.909882	146.380000
363.003387	146.300000
363.096863	146.380000
363.190338	146.400000
363.283875	145.820000
363.377319	145.440000
363.470825	145.700000
363.564301	145.180000
363.657806	145.460000
363.751282	145.120000
363.844788	145.740000
363.938232	145.560000
364.031769	146.460000
364.125214	146.600000
364.218750	147.280000
364.312225	146.300000
364.405731	146.300000
364.499207	145.640000
364.592712	145.280000
364.686188	145.060000
364.779694	145.340000
364.873169	145.720000
364.966675	145.420000
365.060150	145.260000
365.153656	145.660000
365.247131	145.720000
365.340637	145.640000
365.434143	146.280000
365.527618	146.660000
365.621155	145.960000
365.714600	146.080000
365.808136	146.120000
365.901611	145.100000
365.995117	144.840000
366.088593	144.820000
366.182129	144.680000
366.275604	144.500000
366.369110	144.880000
366.462585	144.740000
366.556122	145.420000
366.649567	145.440000
366.743103	145.780000
366.836609	145.980000
366.930115	146.480000
367.023590	146.160000
367.117096	146.040000
367.210602	145.800000
367.304108	146.240000
367.397614	146.580000
367.491119	146.860000
367.584595	147.040000
367.678101	147.140000
367.771606	146.640000
367.865112	145.920000
367.958649	145.040000
368.052124	144.880000
368.145660	144.680000
368.239136	145.480000
368.332672	145.980000
368.426147	146.520000
368.519684	146.440000
368.613159	146.720000
368.706696	146.080000
368.800171	145.380000
368.893707	145.080000
368.987183	144.920000
369.080719	144.900000
369.174225	144.840000
369.267731	145.280000
369.361237	145.440000
369.454742	145.820000
369.548248	146.080000
369.641754	145.720000
369.735260	145.520000
369.828766	144.680000
369.922272	145.200000
370.015808	144.500000
370.109314	144.380000
370.202820	144.280000
370.296356	145.680000
370.389832	145.100000
370.483368	145.000000
370.576874	145.340000
370.670410	145.660000
370.763885	144.660000
370.857422	144.620000
370.950928	144.840000
371.044464	145.380000
371.137939	145.380000
371.231476	146.080000
371.324982	146.500000
371.418518	146.880000
371.512024	146.560000
371.605560	146.300000
371.699066	146.300000
371.792572	145.820000
371.886108	146.120000
371.979614	145.980000
372.073120	146.400000
372.166656	146.140000
372.260162	146.760000
372.353668	145.920000
372.447205	145.760000
372.540710	145.660000
372.634277	145.460000
372.727753	145.400000
372.821320	145.640000
372.914795	145.720000
373.008362	145.700000
373.101837	146.160000
373.195404	145.720000
373.288879	145.780000
373.382446	146.660000
373.475922	146.700000
373.569489	147.200000
373.662964	147.600000
373.756531	147.480000
373.850037	147.280000
373.943573	146.960000
374.037109	145.920000
374.130615	145.740000
374.224152	145.860000
374.317657	145.360000
374.411194	146.200000
374.504730	146.260000
374.598236	146.200000
374.691772	146.240000
374.785309	146.560000
374.878815	145.560000
374.972351	146.000000
375.065887	145.960000
375.159454	146.680000
375.252930	146.160000
375.346497	146.460000
375.440002	146.940000
375.533569	146.740000
375.627045	145.500000
375.720612	145.480000
375.814117	145.700000
375.907684	145.100000
376.001160	144.880000
376.094727	144.940000
376.188232	145.640000
376.281799	145.800000
376.375336	145.940000
376.468872	146.800000
376.562408	147.040000
376.655914	146.660000
376.749451	146.300000
376.842987	146.260000
376.936523	145.980000
377.030060	146.160000
377.123596	146.220000
377.217133	145.900000
377.310669	145.760000
377.404205	145.720000
377.497772	146.060000
377.591278	146.020000
377.684845	147.020000
377.778351	147.260000
377.871918	147.280000
377.965424	146.560000
378.058990	146.380000
378.152496	145.880000
378.246063	145.940000
378.339569	146.220000
378.433136	146.460000
378.526642	146.740000
378.620209	146.920000
378.713745	146.560000
378.807312	146.700000
378.900848	146.460000
378.994385	146.720000
379.087921	145.760000
379.181458	146.220000
379.274994	145.360000
379.368530	145.300000
379.462097	145.300000
379.555634	146.260000
379.649170	145.700000
379.742706	146.040000
379.836273	146.600000
379.929810	146.020000
380.023376	145.440000
380.116882	145.460000
380.210449	145.280000
380.303986	144.920000
380.397552	144.480000
380.491058	144.940000
380.584656	144.800000
380.678162	144.960000
380.771729	144.860000
380.865265	146.260000
380.958832	146.320000
381.052368	146.880000
381.145935	147.200000
381.239471	147.960000
381.333008	147.260000
381.426575	146.920000
381.520111	146.920000
381.613647	147.020000
381.707214	146.460000
381.800751	145.940000
381.894318	146.240000
381.987854	145.980000
382.081421	145.460000
382.174988	145.740000
382.268524	145.760000
382.362091	145.660000
382.455627	146.160000
382.549194	146.100000
382.642731	145.480000
382.736298	145.500000
382.829834	145.300000
382.923401	145.520000
383.016937	145.900000
383.110504	146.160000
383.204041	146.300000
383.297607	146.620000
383.391174	145.820000
383.484741	146.440000
383.578278	146.080000
383.671844	145.740000
383.765411	145.300000
383.858948	145.520000
383.952515	144.880000
384.046051	145.580000
384.139618	146.180000
384.233185	146.140000
384.326721	146.320000
384.420288	146.700000
384.513855	146.340000
384.607422	146.540000
384.700989	146.800000
384.794525	146.220000
384.888123	145.800000
384.981659	146.260000
385.075226	145.860000
385.168762	145.920000
385.262360	146.200000
385.355896	145.640000
385.449463	145.240000
385.542999	145.360000
385.636597	145.800000
385.730164	146.140000
385.823730	146.120000
385.917267	146.080000
386.010834	146.220000
386.104401	145.940000
386.197968	145.860000
386.291534	146.420000
386.385101	146.720000
386.478668	146.920000
386.572235	146.760000
386.665802	146.140000
386.759338	145.600000
386.852905	145.420000
386.946472	144.920000
387.040070	145.140000
387.133606	145.560000
387.227203	145.680000
387.320740	145.860000
387.414337	145.940000
387.507874	145.760000
387.601471	145.780000
387.695007	145.520000
387.788605	145.140000
387.882141	145.160000
387.975739	145.160000
388.069275	144.660000
388.162872	145.440000
388.256439	145.420000
388.350037	145.220000
388.443604	145.400000
388.537170	145.840000
388.630737	146.120000
388.724304	146.240000
388.817871	146.300000
388.911438	146.220000
389.005005	146.420000
389.098602	146.500000
389.192169	146.480000
389.285736	146.980000
389.379333	146.580000
389.472870	146.100000
389.566467	145.680000
389.660034	145.720000
389.753632	145.320000
389.847168	145.780000
389.940765	146.320000
390.034332	146.600000
390.127930	146.360000
390.221466	145.940000
390.315063	145.560000
390.408630	144.600000
390.502228	143.740000
390.595795	144.100000
390.689362	144.520000
390.782959	145.040000
390.876526	145.680000
390.970093	145.680000
391.063690	145.960000
391.157257	146.220000
391.250824	146.240000
391.344421	146.120000
391.437988	146.840000
391.531555	146.740000
391.625153	146.820000
391.718750	147.000000
391.812317	146.800000
391.905914	146.240000
391.999481	146.200000
392.093079	146.080000
392.186615	146.060000
392.280243	146.380000
392.373779	146.660000
392.467407	146.840000
392.560944	146.520000
392.654572	145.760000
392.748108	145.720000
392.841736	145.980000
392.935303	145.680000
393.028900	145.640000
393.122467	146.080000
393.216064	145.860000
393.309631	145.220000
393.403229	144.940000
393.496796	144.840000
393.590393	144.420000
393.683990	144.800000
393.777557	145.440000
393.871155	145.760000
393.964722	146.500000
394.058350	146.700000
394.151917	146.400000
394.245514	145.720000
394.339081	146.080000
394.432678	146.280000
394.526245	146.360000
394.619873	146.120000
394.713409	146.740000
394.807037	146.300000
394.900604	146.100000
394.994202	145.960000
395.087769	146.540000
395.181396	145.880000
395.274994	146.960000
395.368561	146.160000
395.462158	146.460000
395.555756	146.060000
395.649353	146.580000
395.742920	145.640000
395.836517	146.360000
395.930115	145.720000
396.023712	146.180000
396.117279	146.540000
396.210876	146.220000
396.304474	146.320000
396.398071	146.800000
396.491669	146.860000
396.585266	146.440000
396.678833	146.620000
396.772461	146.600000
396.866028	146.640000
396.959656	146.900000
397.053223	147.560000
397.146851	147.700000
397.240417	148.180000
397.334015	149.300000
397.427582	150.160000
397.521210	151.280000
397.614807	153.960000
397.708405	156.640000
397.802002	160.000000
397.895599	164.820000
397.989197	170.340000
398.082794	176.720000
398.176392	185.040000
398.269989	194.420000
398.363586	205.900000
398.457184	220.220000
398.550781	237.320000
398.644379	255.060000
398.737976	275.300000
398.831573	296.400000
398.925201	317.500000
399.018768	338.880000
399.112396	361.120000
399.205963	382.360000
399.299591	403.080000
399.393158	423.900000
399.486786	443.760000
399.580353	461.200000
399.673981	476.640000
399.767578	490.940000
399.861206	502.600000
399.954773	511.140000
400.048401	514.700000
400.141998	514.880000
400.235596	510.840000
400.329193	502.860000
400.422791	490.580000
400.516418	477.960000
400.610016	463.460000
400.703613	446.800000
400.797211	426.220000
400.890808	403.860000
400.984436	380.400000
401.078033	355.020000
401.171631	329.120000
401.265259	305.520000
401.358826	284.680000
401.452484	264.280000
401.546051	247.040000
401.639679	230.520000
401.733246	216.240000
401.826904	202.220000
401.920471	190.320000
402.014099	180.460000
402.107697	172.840000
402.201324	166.120000
402.294891	161.180000
402.388550	157.700000
402.482147	154.580000
402.575745	151.860000
402.669373	149.900000
402.762970	148.500000
402.856567	147.640000
402.950195	147.140000
403.043793	146.920000
403.137390	147.520000
403.231018	146.820000
403.324615	147.320000
403.418243	146.840000
403.511841	147.120000
403.605469	146.400000
403.699066	146.980000
403.792694	146.860000
403.886292	146.960000
403.979919	146.860000
404.073517	146.560000
404.167145	146.720000
404.260712	146.320000
404.354370	146.280000
404.447937	146.120000
404.541595	146.340000
404.635162	146.540000
404.728821	146.880000
404.822418	146.620000
404.916046	146.520000
405.009644	146.780000
405.103271	146.960000
405.196899	146.540000
405.290497	146.440000
405.384125	146.780000
405.477722	146.480000
405.571350	145.740000
405.664948	145.940000
405.758575	146.000000
405.852203	145.380000
405.945801	145.420000
406.039429	145.640000
406.133057	145.120000
406.226654	145.180000
406.320312	145.360000
406.413879	145.520000
406.507538	145.620000
406.601135	145.580000
406.694763	146.040000
406.788361	145.500000
406.882019	144.940000
406.975586	145.120000
407.069244	145.820000
407.162872	145.780000
407.256470	146.200000
407.350098	146.380000
407.443726	145.860000
407.537323	145.480000
407.630951	145.340000
407.724579	145.080000
407.818207	145.760000
407.911804	145.820000
408.005432	145.740000
408.099060	145.980000
408.192688	146.660000
408.286285	146.240000
408.379913	146.160000
408.473572	146.240000
408.567169	145.400000
408.660828	145.220000
408.754395	145.420000
408.848053	145.280000
408.941650	145.420000
409.035309	145.360000
409.128906	145.060000
409.222565	144.640000
409.316132	145.180000
409.409790	145.100000
409.503387	145.460000
409.597046	145.620000
409.690674	145.740000
409.784302	145.600000
409.877930	145.700000
409.971558	145.740000
410.065186	145.780000
410.158783	145.700000
410.252411	145.360000
410.346039	145.220000
410.439667	145.120000
410.533295	145.180000
410.626923	145.640000
410.720551	145.780000
410.814209	146.320000
410.907806	146.680000
411.001465	146.400000
411.095062	146.160000
411.188721	146.200000
411.282318	145.520000
411.375977	145.220000
411.469574	145.300000
411.563232	145.160000
411.656830	144.860000
411.750488	144.980000
411.844086	144.880000
411.937744	145.180000
412.031372	145.060000
412.125000	145.540000
412.218628	145.620000
412.312256	146.060000
412.405884	146.520000
412.499512	146.620000
412.593170	146.460000
412.686798	146.800000
412.780426	146.140000
412.874054	145.820000
412.967682	145.980000
413.061310	146.640000
413.154968	146.680000
413.248566	147.200000
413.342224	146.860000
413.435852	146.720000
413.529510	146.100000
413.623108	145.180000
413.716766	145.060000
413.810364	145.540000
413.904022	145.200000
413.997650	144.680000
414.091309	145.680000
414.184906	145.720000
414.278564	145.260000
414.372192	145.700000
414.465851	146.240000
414.559479	145.940000
414.653107	146.480000
414.746735	146.520000
414.840393	146.580000
414.934021	146.820000
415.027649	145.940000
415.121277	145.740000
415.214935	146.280000
415.308563	146.180000
415.402191	145.780000
415.495850	146.380000
415.589478	146.100000
415.683136	145.380000
415.776733	145.560000
415.870422	146.100000
415.964020	145.460000
416.057678	145.600000
416.151306	145.820000
416.244965	145.700000
416.338562	145.400000
416.432251	146.560000
416.525848	147.380000
416.619507	147.380000
416.713165	147.760000
416.806793	147.360000
416.900421	147.080000
416.994080	145.960000
417.087708	146.120000
417.181366	145.480000
417.274994	145.600000
417.368622	145.860000
417.462280	146.360000
417.555908	146.140000
417.649567	146.120000
417.743195	146.340000
417.836853	146.080000
417.930481	146.060000
418.024170	146.480000
418.117767	147.140000
418.211426	147.120000
418.305054	147.320000
418.398712	146.780000
418.492340	146.460000
418.585999	146.300000
418.679626	146.640000
418.773285	146.540000
418.866913	147.120000
418.960571	147.340000
419.054230	147.520000
419.147858	147.320000
419.241516	147.420000
419.335144	147.020000
419.428802	146.900000
419.522461	146.500000
419.616089	145.960000
419.709747	145.720000
419.803375	145.820000
419.897034	145.560000
419.990662	145.320000
420.084320	145.960000
420.177979	146.440000
420.271606	146.660000
420.365295	147.480000
420.458893	147.720000
420.552582	147.740000
420.646210	147.380000
420.739868	147.100000
420.833496	146.340000
420.927155	146.120000
421.020782	145.840000
421.114471	145.580000
421.208069	145.680000
421.301758	145.940000
421.395386	146.280000
421.489044	146.140000
421.582703	146.320000
421.676361	146.700000
421.769989	146.240000
421.863647	146.220000
421.957306	146.540000
422.050934	146.520000
422.144592	146.240000
422.238251	146.120000
422.331909	145.940000
422.425537	146.140000
422.519196	146.660000
422.612854	146.260000
422.706543	146.280000
422.800140	146.480000
422.893829	146.140000
422.987457	145.360000
423.081146	145.600000
423.174744	146.460000
423.268433	146.120000
423.362061	145.660000
423.455750	145.700000
423.549347	145.760000
423.643036	144.920000
423.736664	145.560000
423.830353	146.040000
423.924011	146.300000
424.017639	145.480000
424.111298	145.420000
424.204956	144.960000
424.298615	144.880000
424.392273	144.820000
424.485931	145.520000
424.579559	145.600000
424.673218	145.840000
424.766876	146.320000
424.860535	145.960000
424.954193	145.680000
425.047882	146.460000
425.141510	146.320000
425.235199	146.100000
425.328796	146.020000
425.422485	146.080000
425.516113	145.260000
425.609802	144.980000
425.703430	144.640000
425.797119	144.820000
425.890747	145.280000
425.984436	145.280000
426.078064	145.460000
426.171753	145.620000
426.265411	145.520000
426.359070	145.500000
426.452728	145.680000
426.546356	145.640000
426.640015	145.360000
426.733673	145.120000
426.827332	144.660000
426.920990	145.140000
427.014648	144.900000
427.108307	145.120000
427.201965	146.100000
427.295624	146.600000
427.389282	146.080000
427.482941	146.460000
427.576630	146.580000
427.670258	145.320000
427.763947	145.020000
427.857574	145.160000
427.951263	145.160000
428.044922	144.700000
428.138611	145.340000
428.232239	145.920000
428.325928	146.260000
428.419556	146.440000
428.513245	146.400000
428.606903	146.180000
428.700562	145.320000
428.794220	144.480000
428.887878	143.920000
428.981537	144.460000
429.075195	145.040000
429.168854	145.700000
429.262512	146.000000
429.356201	146.340000
429.449860	146.160000
429.543518	145.780000
429.637177	145.920000
429.730835	145.740000
429.824493	145.840000
429.918182	145.940000
430.011810	145.600000
430.105530	144.700000
430.199158	145.200000
430.292847	144.780000
430.386475	144.600000
430.480164	144.480000
430.573792	144.540000
430.667511	144.380000
430.761139	144.340000
430.854828	144.500000
430.948456	144.920000
431.042145	145.560000
431.135834	145.380000
431.229492	145.980000
431.323151	146.060000
431.416809	145.940000
431.510468	145.760000
431.604156	145.900000
431.697815	145.620000
431.791473	145.120000
431.885132	144.920000
431.978821	145.320000
432.072479	145.460000
432.166138	145.960000
432.259827	145.680000
432.353485	146.140000
432.447174	146.200000
432.540802	146.100000
432.634491	145.960000
432.728149	147.020000
432.821838	147.420000
432.915466	146.780000
433.009186	146.640000
433.102814	146.120000
433.196503	145.520000
433.290131	145.140000
433.383850	145.300000
433.477509	145.420000
433.571167	146.380000
433.664856	146.720000
433.758514	146.900000
433.852173	146.820000
433.945862	146.640000
434.039520	146.100000
434.133179	145.760000
434.226868	145.540000
434.320526	145.280000
434.414185	146.000000
434.507874	145.520000
434.601562	146.020000
434.695221	145.620000
434.788910	145.860000
434.882538	145.720000
434.976257	145.600000
435.069885	145.200000
435.163574	145.640000
435.257233	145.280000
435.350922	145.100000
435.444580	145.320000
435.538269	145.160000
435.631897	145.360000
435.725616	146.080000
435.819275	146.440000
435.912964	146.800000
436.006622	147.120000
436.100311	146.800000
436.193970	145.900000
436.287628	145.340000
436.381317	144.980000
436.474976	144.560000
436.568665	144.500000
436.662323	144.940000
436.756012	145.140000
436.849670	145.120000
436.943390	145.160000
437.037018	145.040000
437.130737	144.980000
437.224365	144.620000
437.318085	144.800000
437.411713	145.260000
437.505432	145.900000
437.599060	146.660000
437.692780	147.580000
437.786407	147.440000
437.880127	147.280000
437.973755	147.020000
438.067474	146.440000
438.161133	145.860000
438.254822	146.160000
438.348480	146.020000
438.442169	146.580000
438.535828	146.700000
438.629517	146.520000
438.723175	146.000000
438.816864	146.280000
438.910553	145.480000
439.004211	145.080000
439.097900	144.660000
439.191559	144.620000
439.285248	144.080000
439.378906	144.560000
439.472626	144.860000
439.566284	144.940000
439.659973	145.460000
439.753632	145.300000
439.847321	145.280000
439.940979	145.280000
440.034698	146.000000
440.128326	145.340000
440.222046	145.700000
440.315674	144.960000
440.409393	145.060000
440.503082	144.660000
440.596741	145.120000
440.690430	145.480000
440.784088	145.620000
440.877777	144.940000
440.971466	144.880000
441.065125	144.920000
441.158813	144.460000
441.252502	144.820000
441.346161	145.500000
441.439850	145.760000
441.533539	145.560000
441.627197	146.000000
441.720886	145.940000
441.814606	145.980000
441.908234	146.240000
442.001953	146.240000
442.095612	146.100000
442.189301	146.260000
442.282959	146.360000
442.376678	145.520000
442.470306	146.440000
442.564026	146.120000
442.657684	146.100000
442.751404	145.880000
442.845032	146.900000
442.938751	146.200000
443.032440	146.280000
443.126099	146.020000
443.219788	146.300000
443.313477	146.300000
443.407166	146.640000
443.500824	146.860000
443.594513	147.060000
443.688202	146.940000
443.781891	145.860000
443.875549	145.380000
443.969238	145.460000
444.062927	145.660000
444.156647	145.540000
444.250275	146.260000
444.343994	146.400000
444.437653	146.440000
444.531372	146.180000
444.625031	146.140000
444.718719	145.980000
444.812378	145.740000
444.906097	145.580000
444.999756	145.240000
445.093445	145.260000
445.187103	145.440000
445.280823	145.980000
445.374512	145.520000
445.468201	145.720000
445.561859	145.560000
445.655548	145.520000
445.749237	144.760000
445.842926	145.340000
445.936615	145.680000
446.030304	145.400000
446.123962	145.380000
446.217651	145.680000
446.311340	145.760000
446.405029	145.400000
446.498749	145.520000
446.592407	145.240000
446.686096	145.280000
446.779755	144.940000
446.873474	145.160000
446.967133	145.780000
447.060852	145.900000
447.154510	146.020000
447.248230	146.340000
447.341858	146.400000
447.435577	145.580000
447.529236	145.400000
447.622955	145.040000
447.716644	144.920000
447.810333	145.040000
447.904022	145.720000
447.997711	145.700000
448.091400	146.480000
448.185059	146.300000
448.278748	146.660000
448.372437	146.340000
448.466125	146.780000
448.559814	146.680000
448.653503	147.300000
448.747192	147.000000
448.840912	147.360000
448.934570	147.140000
449.028290	147.300000
449.121948	146.520000
449.215637	146.140000
449.309296	145.820000
449.403015	146.060000
449.496674	145.700000
449.590393	145.960000
449.684052	145.820000
449.777771	146.820000
449.871429	146.440000
449.965149	146.500000
450.058838	146.800000
450.152527	147.480000
450.246216	146.640000
450.339905	146.720000
450.433594	146.280000
450.527283	146.820000
450.620972	146.200000
450.714661	146.220000
450.808350	146.180000
450.902039	146.680000
450.995728	146.280000
451.089417	146.140000
451.183105	146.180000
451.276794	146.700000
451.370514	145.740000
451.464172	145.080000
451.557892	145.440000
451.651550	145.340000
451.745270	144.580000
451.838928	144.840000
451.932648	145.040000
452.026306	145.360000
452.120026	145.240000
452.213684	145.680000
452.307404	145.760000
452.401062	146.000000
452.494781	146.100000
452.588470	146.120000
452.682159	145.940000
452.775848	146.260000
452.869537	145.740000
452.963226	145.060000
453.056915	144.920000
453.150604	144.880000
453.244293	144.960000
453.337982	145.920000
453.431671	146.400000
453.525360	146.860000
453.619049	146.960000
453.712769	146.900000
453.806427	146.080000
453.900146	145.660000
453.993805	145.160000
454.087555	145.500000
454.181213	145.700000
454.274933	145.540000
454.368591	145.520000
454.462311	145.680000
454.555969	145.300000
454.649689	145.760000
454.743347	145.760000
454.837067	146.600000
454.930756	147.260000
455.024445	147.320000
455.118134	146.780000
455.211853	147.000000
455.305542	146.160000
455.399231	145.640000
455.492920	145.440000
455.586609	145.500000
455.680298	145.620000
455.773987	145.460000
455.867676	145.540000
455.961365	145.880000
456.055084	145.820000
456.148773	145.640000
456.242493	145.880000
456.336151	145.600000
456.429871	145.740000
456.523529	145.840000
456.617249	145.520000
456.710907	146.200000
456.804626	146.480000
456.898315	146.100000
456.992035	145.840000
457.085693	146.060000
457.179413	145.180000
457.273102	145.900000
457.366791	145.840000
457.460480	146.120000
457.554199	146.720000
457.647888	147.120000
457.741577	146.340000
457.835266	146.700000
457.928955	146.800000
458.022644	146.840000
458.116364	147.100000
458.210052	147.180000
458.303741	147.320000
458.397461	146.680000
458.491119	146.220000
458.584839	145.980000
458.678528	145.380000
458.772247	144.940000
458.865906	145.520000
458.959625	146.300000
459.053284	146.220000
459.147003	146.680000
459.240692	147.180000
459.334412	147.160000
459.428070	146.260000
459.521790	146.140000
459.615479	145.880000
459.709198	146.140000
459.802887	145.740000
459.896576	145.740000
459.990265	145.660000
460.083954	146.100000
460.177673	145.420000
460.271362	145.280000
460.365051	145.460000
460.458740	145.460000
460.552429	144.860000
460.646149	144.740000
460.739838	144.780000
460.833527	144.940000
460.927246	144.680000
461.020905	144.800000
461.114655	144.880000
461.208313	145.300000
461.302032	144.800000
461.395691	145.500000
461.489441	145.680000
461.583099	145.720000
461.676819	145.580000
461.770477	146.280000
461.864197	145.620000
461.957916	145.520000
462.051605	145.080000
462.145294	145.720000
462.238983	144.980000
462.332703	145.740000
462.426392	146.300000
462.520081	146.500000
462.613770	145.700000
462.707489	146.120000
462.801178	145.580000
462.894867	145.220000
462.988556	145.500000
463.082275	145.600000
463.175964	145.320000
463.269684	145.640000
463.363342	145.800000
463.457092	145.600000
463.550751	145.980000
463.644470	146.380000
463.738129	145.940000
463.831879	145.680000
463.925537	146.320000
464.019257	146.060000
464.112946	145.860000
464.206665	146.020000
464.300323	145.980000
464.394043	145.440000
464.487762	145.380000
464.581451	145.700000
464.675140	145.560000
464.768829	145.980000
464.862549	146.000000
464.956238	146.280000
465.049927	146.060000
465.143646	146.300000
465.237335	146.140000
465.331024	146.720000
465.424713	146.660000
465.518433	146.820000
465.612152	146.560000
465.705811	146.620000
465.799561	146.300000
465.893219	146.000000
465.986938	145.780000
466.080597	146.120000
466.174347	146.500000
466.268005	146.860000
466.361725	147.180000
466.455414	147.240000
466.549133	146.620000
466.642792	146.560000
466.736542	145.840000
466.830231	145.660000
466.923920	145.520000
467.017609	145.920000
467.111328	145.020000
467.205017	145.220000
467.298706	144.800000
467.392426	145.060000
467.486115	145.140000
467.579803	145.300000
467.673523	145.500000
467.767212	146.100000
467.860901	145.920000
467.954651	146.260000
468.048309	146.680000
468.142029	146.600000
468.235718	146.560000
468.329437	146.220000
468.423096	145.980000
468.516846	146.100000
468.610504	145.800000
468.704224	145.240000
468.797913	145.340000
468.891632	145.620000
468.985291	145.280000
469.079010	145.540000
469.172729	145.300000
469.266418	145.960000
469.360107	145.680000
469.453827	145.440000
469.547516	145.480000
469.641205	146.480000
469.734924	146.680000
469.828613	146.880000
469.922302	147.300000
470.016022	147.320000
470.109711	146.920000
470.203430	145.940000
470.297150	145.340000
470.390808	145.320000
470.484558	145.040000
470.578217	145.440000
470.671936	146.360000
470.765625	147.080000
470.859344	146.820000
470.953003	146.920000
471.046753	146.700000
471.140411	145.680000
471.234131	145.580000
471.327820	146.180000
471.421539	146.220000
471.515228	145.720000
471.608948	146.220000
471.702637	145.720000
471.796326	145.360000
471.890045	145.540000
471.983734	145.860000
472.077423	145.520000
472.171143	145.900000
472.264832	145.620000
472.358521	145.440000
472.452240	145.480000
472.545929	146.360000
472.639648	145.900000
472.733337	146.540000
472.827057	146.700000
472.920746	146.340000
473.014465	146.260000
473.108124	146.880000
473.201874	146.460000
473.295532	146.260000
473.389252	146.980000
473.482941	146.800000
473.576660	146.140000
473.670319	146.120000
473.764069	146.420000
473.857727	146.320000
473.951477	146.500000
474.045166	147.180000
474.138855	147.020000
474.232574	146.880000
474.326263	146.520000
474.419952	146.580000
474.513672	146.500000
474.607361	146.600000
474.701050	146.700000
474.794769	146.960000
474.888458	147.040000
474.982178	146.920000
475.075867	146.720000
475.169586	146.520000
475.263275	146.380000
475.356995	145.900000
475.450653	145.420000
475.544403	145.500000
475.638062	146.240000
475.731812	145.720000
475.825470	145.420000
475.919189	145.760000
476.012878	145.840000
476.106598	144.880000
476.200256	145.800000
476.294006	146.000000
476.387695	146.300000
476.481384	146.080000
476.575104	146.280000
476.668793	145.660000
476.762512	145.340000
476.856201	145.560000
476.949890	145.740000
477.043610	145.240000
477.137299	145.300000
477.230988	145.780000
477.324707	145.240000
477.418396	145.720000
477.512146	145.900000
477.605804	145.620000
477.699524	145.640000
477.793213	145.500000
477.886932	145.180000
477.980591	145.280000
478.074341	145.420000
478.167999	145.120000
478.261749	145.180000
478.355408	145.220000
478.449127	145.560000
478.542816	146.560000
478.636536	147.260000
478.730225	147.480000
478.823944	147.500000
478.917633	147.420000
479.011322	147.020000
479.105042	146.660000
479.198730	146.860000
479.292450	146.440000
479.386139	146.820000
479.479828	146.780000
479.573547	147.120000
479.667267	146.720000
479.760925	147.200000
479.854675	147.120000
479.948334	147.060000
480.042084	146.080000
480.135742	146.720000
480.229462	146.200000
480.323151	146.100000
480.416870	145.600000
480.510529	145.900000
480.604279	145.080000
480.697937	145.540000
480.791656	144.960000
480.885345	145.060000
480.979065	145.160000
481.072754	145.820000
481.166473	146.060000
481.260132	146.280000
481.353882	146.400000
481.447540	146.500000
481.541260	146.160000
481.635010	145.620000
481.728668	145.720000
481.822388	145.400000
481.916077	145.460000
482.009796	145.600000
482.103485	146.060000
482.197205	146.220000
482.290863	146.720000
482.384613	146.440000
482.478271	146.140000
482.571991	145.860000
482.665680	145.660000
482.759399	146.220000
482.853058	146.660000
482.946808	146.580000
483.040466	146.520000
483.134216	146.420000
483.227875	145.760000
483.321594	146.200000
483.415283	146.660000
483.509003	146.760000
483.602661	146.600000
483.696411	146.740000
483.790070	146.620000
483.883789	146.640000
483.977478	146.940000
484.071198	147.380000
484.164917	146.800000
484.258606	145.980000
484.352325	146.040000
484.445984	146.000000
484.539734	145.900000
484.633392	145.720000
484.727142	146.280000
484.820801	146.240000
484.914520	145.900000
485.008209	145.940000
485.101929	146.560000
485.195587	146.380000
485.289337	146.080000
485.382996	146.240000
485.476715	146.260000
485.570404	146.760000
485.664124	146.560000
485.757782	147.240000
485.851532	146.700000
485.945190	146.600000
486.038910	146.700000
486.132599	147.220000
486.226318	146.440000
486.319977	146.640000
486.413727	147.060000
486.507446	145.880000
486.601105	145.160000
486.694855	145.180000
486.788513	145.180000
486.882233	144.780000
486.975922	145.280000
487.069641	145.300000
487.163300	145.000000
487.257050	146.320000
487.350708	146.140000
487.444427	145.960000
487.538116	146.240000
487.631836	146.480000
487.725494	145.700000
487.819214	145.800000
487.912903	145.680000
488.006622	145.860000
488.100281	145.880000
488.194031	145.740000
488.287689	146.000000
488.381409	146.700000
488.475098	146.580000
488.568817	146.720000
488.662476	146.660000
488.756226	145.860000
488.849945	144.960000
488.943604	144.660000
489.037354	144.740000
489.131012	144.580000
489.224731	144.620000
489.318390	144.860000
489.412140	145.180000
489.505798	145.180000
489.599518	144.860000
489.693207	145.520000
489.786926	145.220000
489.880585	144.920000
489.974335	145.040000
490.067993	146.060000
490.161713	146.440000
490.255371	147.640000
490.349121	147.840000
490.442780	147.460000
490.536499	146.700000
490.630188	146.560000
490.723907	145.600000
490.817566	145.920000
490.911285	146.040000
491.004974	145.560000
491.098694	144.700000
491.192413	145.580000
491.286102	145.040000
491.379822	145.300000
491.473480	146.140000
491.567200	146.580000
491.660889	145.600000
491.754608	145.780000
491.848267	145.440000
491.941986	145.080000
492.035675	144.920000
492.129395	145.440000
492.223053	145.380000
492.316772	145.600000
492.410461	145.780000
492.504181	145.980000
492.597839	145.780000
492.691559	145.840000
492.785248	145.900000
492.878967	145.900000
492.972626	145.660000
493.066345	146.000000
493.160034	145.640000
493.253754	145.780000
493.347412	145.480000
493.441132	145.880000
493.534882	146.000000
493.628540	146.360000
493.722260	146.300000
493.815918	146.760000
493.909668	147.060000
494.003326	146.980000
494.097046	147.040000
494.190704	146.700000
494.284454	146.540000
494.378113	146.420000
494.471832	146.140000
494.565491	145.880000
494.659210	145.860000
494.752899	145.680000
494.846619	145.480000
494.940277	145.820000
495.033997	145.820000
495.127686	145.620000
495.221405	145.600000
495.315063	145.580000
495.408783	145.260000
495.502441	145.540000
495.596191	145.740000
495.689850	145.320000
495.783569	145.560000
495.877228	145.400000
495.970947	145.000000
496.064697	145.060000
496.158356	146.080000
496.252075	145.820000
496.345734	145.840000
496.439453	146.580000
496.533142	146.560000
496.626862	146.680000
496.720520	146.500000
496.814240	146.600000
496.907898	146.240000
497.001617	146.600000
497.095306	145.640000
497.189026	145.780000
497.282684	145.980000
497.376404	146.080000
497.470062	145.700000
497.563782	145.880000
497.657471	145.640000
497.751190	145.400000
497.844849	145.220000
497.938568	145.500000
498.032227	145.600000
498.125946	145.760000
498.219635	145.500000
498.313354	145.640000
498.407074	145.460000
498.500732	145.640000
498.594452	145.900000
498.688110	145.980000
498.781830	145.500000
498.875519	145.480000
498.969238	145.260000
499.062897	144.860000
499.156616	145.260000
499.250275	145.740000
499.343994	145.320000
499.437653	145.320000
499.531372	145.580000
499.625061	146.260000
499.718781	146.280000
499.812439	146.840000
499.906158	146.900000
499.999817	146.720000
500.093536	146.040000
500.187195	146.060000
500.280914	146.000000
500.374573	146.240000
500.468323	146.000000
500.561981	145.900000
500.655701	145.600000
500.749420	145.560000
500.843079	145.780000
500.936798	146.060000
501.030457	146.460000
501.124176	146.760000
501.217834	146.640000
501.311554	146.260000
501.405212	146.000000
501.498962	145.560000
501.592621	145.320000
501.686340	145.680000
501.779999	146.180000
501.873718	146.560000
501.967377	146.480000
502.061096	146.960000
502.154755	146.200000
502.248474	145.640000
502.342133	145.560000
502.435852	145.280000
502.529510	145.580000
502.623230	146.460000
502.716888	146.300000
502.810608	146.340000
502.904266	147.220000
502.997986	146.600000
503.091705	145.780000
503.185364	145.760000
503.279083	145.840000
503.372772	145.600000
503.466492	145.060000
503.560150	145.320000
503.653870	145.760000
503.747528	145.720000
503.841248	145.500000
503.934906	145.980000
504.028625	146.100000
504.122284	146.160000
504.216003	146.580000
504.309662	146.220000
504.403381	146.640000
504.497040	146.480000
504.590759	146.040000
504.684418	145.940000
504.778137	146.500000
504.871796	146.580000
504.965515	146.480000
505.059174	146.820000
505.152893	146.140000
505.246521	145.560000
505.340240	145.020000
505.433899	145.200000
505.527618	145.400000
505.621338	146.080000
505.714996	146.240000
505.808716	146.460000
505.902374	146.900000
505.996094	146.740000
506.089752	146.540000
506.183472	146.660000
506.277130	146.620000
506.370850	146.300000
506.464508	145.880000
506.558228	145.600000
506.651886	145.300000
506.745605	145.500000
506.839264	145.700000
506.932983	146.160000
507.026611	146.120000
507.120331	147.020000
507.213989	146.340000
507.307709	146.100000
507.401367	146.020000
507.495087	147.080000
507.588745	146.140000
507.682465	147.060000
507.776123	147.200000
507.869843	147.020000
507.963531	146.220000
508.057190	146.920000
508.150909	146.480000
508.244568	146.560000
508.338287	146.320000
508.431946	146.200000
508.525665	145.820000
508.619324	145.460000
508.713013	145.760000
508.806671	146.100000
508.900391	146.700000
508.994049	146.940000
509.087769	146.640000
509.181427	146.140000
509.275146	145.700000
509.368774	144.920000
509.462494	144.760000
509.556152	145.160000
509.649872	145.580000
509.743530	146.000000
509.837250	146.560000
509.930878	146.440000
510.024597	146.380000
510.118256	146.200000
510.211975	145.880000
510.305695	145.500000
510.399353	145.740000
510.493042	146.340000
510.586700	146.060000
510.680420	146.680000
510.774078	146.460000
510.867798	146.460000
510.961426	145.880000
511.055145	145.700000
511.148804	145.220000
511.242523	145.800000
511.336151	145.820000
511.429871	146.220000
511.523529	146.140000
511.617249	145.940000
511.710876	145.520000
511.804596	145.000000
511.898254	144.520000
511.991974	145.300000
512.085632	145.300000
512.179321	145.540000
512.272949	146.340000
512.366699	147.160000
512.460327	146.500000
512.554077	147.580000
512.647766	147.300000
512.741394	147.000000
512.835144	147.040000
512.928772	147.340000
513.022461	146.740000
513.116150	146.620000
513.209839	146.940000
513.303467	146.180000
513.397217	145.620000
513.490845	145.620000
513.584595	145.580000
513.678223	145.080000
513.771912	144.680000
513.865601	145.320000
513.959290	144.980000
514.052917	145.160000
514.146667	145.700000
514.240295	146.340000
514.333984	146.580000
514.427673	146.640000
514.521362	146.980000
514.614990	146.160000
514.708740	146.220000
514.802368	146.060000
514.896057	146.200000
514.989746	146.620000
515.083435	146.940000
515.177124	147.120000
515.270752	146.900000
515.364502	146.760000
515.458130	146.380000
515.551819	146.440000
515.645508	146.080000
515.739197	145.980000
515.832825	146.020000
515.926575	145.680000
516.020203	145.560000
516.113892	146.060000
516.207520	145.920000
516.301270	145.980000
516.394897	146.180000
516.488586	146.920000
516.582275	146.480000
516.675964	146.260000
516.769592	146.060000
516.863281	146.580000
516.956970	146.480000
517.050659	146.520000
517.144287	146.760000
517.238037	147.200000
517.331665	146.460000
517.425354	145.980000
517.519043	145.780000
517.612732	146.080000
517.706421	145.780000
517.800049	145.640000
517.893738	145.520000
517.987427	145.720000
518.081116	145.540000
518.174744	145.160000
518.268433	145.740000
518.362122	146.480000
518.455811	146.500000
518.549438	146.940000
518.643127	148.060000
518.736816	147.600000
518.830505	146.780000
518.924133	146.620000
519.017822	146.980000
519.111511	146.420000
519.205200	146.940000
519.298828	147.280000
519.392517	147.060000
519.486206	146.980000
519.579895	147.040000
519.673523	146.760000
519.767212	146.300000
519.860901	146.700000
519.954590	145.840000
520.048279	145.560000
520.141907	145.500000
520.235596	146.660000
520.329224	146.920000
520.422974	147.160000
520.516602	147.260000
520.610291	146.880000
520.703918	146.280000
520.797607	145.600000
520.891296	145.500000
520.984985	145.560000
521.078613	146.060000
521.172302	145.460000
521.265930	146.500000
521.359680	147.380000
521.453308	147.240000
521.546997	147.020000
521.640625	147.440000
521.734314	146.680000
521.827942	146.000000
521.921692	146.380000
522.015320	146.420000
522.109009	145.900000
522.202698	145.960000
522.296326	146.080000
522.390015	146.040000
522.483704	146.160000
522.577393	146.340000
522.671021	145.940000
522.764709	145.280000
522.858337	145.640000
522.952026	145.820000
523.045654	146.600000
523.139404	147.400000
523.233032	148.160000
523.326721	147.500000
523.420349	147.400000
523.514038	146.660000
523.607666	146.680000
523.701355	146.240000
523.795044	146.420000
523.888733	146.660000
523.982361	147.100000
524.076050	146.200000
524.169678	146.440000
524.263367	145.800000
524.356995	145.200000
524.450684	144.880000
524.544373	145.120000
524.638062	144.920000
524.731750	145.560000
524.825378	145.860000
524.919067	145.780000
525.012695	146.100000
525.106384	146.000000
525.200012	145.980000
525.293701	145.460000
525.387329	145.860000
525.481018	145.900000
525.574646	146.420000
525.668396	146.160000
525.762024	146.700000
525.855713	146.780000
525.949341	146.300000
526.043030	146.160000
526.136658	146.160000
526.230347	146.000000
526.323975	145.240000
526.417664	145.380000
526.511292	145.420000
526.604980	145.640000
526.698608	145.660000
526.792297	146.360000
526.885925	146.740000
526.979614	146.840000
527.073303	146.580000
527.166931	146.520000
527.260620	146.340000
527.354309	146.600000
527.447998	146.420000
527.541626	146.380000
527.635315	146.400000
527.728943	147.100000
527.822632	146.840000
527.916260	146.700000
528.009949	146.960000
528.103577	146.620000
528.197266	145.640000
528.290894	145.620000
528.384583	145.660000
528.478210	145.600000
528.571899	146.080000
528.665527	146.640000
528.759216	146.660000
528.852844	147.000000
528.946533	147.180000
529.040161	147.080000
529.133850	146.620000
529.227478	146.840000
529.321167	146.860000
529.414856	147.140000
529.508484	147.560000
529.602173	147.460000
529.695801	147.240000
529.789490	147.100000
529.883057	146.800000
529.976746	146.860000
530.070374	147.440000
530.164062	147.400000
530.257690	147.280000
530.351379	147.260000
530.445007	146.960000
530.538696	146.160000
530.632324	146.200000
530.726013	146.420000
530.819641	146.420000
530.913330	146.360000
531.006958	146.540000
531.100647	146.620000
531.194275	146.100000
531.287964	145.920000
531.381592	145.800000
531.475220	145.980000
531.568848	145.580000
531.662537	145.980000
531.756226	146.420000
531.849854	146.100000
531.943542	145.980000
532.037170	145.620000
532.130859	145.860000
532.224487	145.440000
532.318176	145.340000
532.411804	145.940000
532.505432	146.660000
532.599060	146.300000
532.692749	146.320000
532.786377	146.840000
532.880066	146.020000
532.973694	145.420000
533.067383	145.180000
533.161011	145.140000
533.254639	145.140000
533.348267	145.300000
533.441956	145.700000
533.535583	145.720000
533.629272	145.720000
533.722900	145.220000
533.816589	145.380000
533.910156	145.620000
534.003845	145.340000
534.097534	145.660000
534.191162	146.420000
534.284851	146.380000
534.378479	146.160000
534.472107	146.480000
534.565735	146.140000
534.659424	146.240000
534.753052	146.260000
534.846741	145.980000
534.940369	146.560000
535.033997	146.660000
535.127625	146.500000
535.221313	147.080000
535.314941	147.160000
535.408630	146.240000
535.502197	146.720000
535.595886	146.380000
535.689514	145.940000
535.783203	146.700000
535.876831	147.440000
535.970459	147.100000
536.064087	146.940000
536.157776	147.080000
536.251404	146.620000
536.345093	146.320000
536.438721	146.460000
536.532349	146.660000
536.626038	146.300000
536.719666	146.600000
536.813293	146.320000
536.906921	145.940000
537.000610	146.280000
537.094238	146.340000
537.187866	146.220000
537.281494	146.520000
537.375183	146.920000
537.468811	146.500000
537.562439	146.480000
537.656067	146.000000
537.749756	145.780000
537.843384	146.160000
537.937012	146.560000
538.030640	146.400000
538.124329	146.660000
538.217896	147.120000
538.311584	146.660000
538.405212	146.480000
538.498901	146.740000
538.592468	147.300000
538.686157	146.840000
538.779785	146.280000
538.873413	146.100000
538.967102	146.000000
539.060730	145.480000
539.154358	145.840000
539.247986	146.520000
539.341675	146.740000
539.435242	146.660000
539.528931	146.580000
539.622559	146.140000
539.716187	146.560000
539.809814	146.140000
539.903503	146.080000
539.997070	146.040000
540.090759	146.280000
540.184387	145.680000
540.278015	146.380000
540.371643	146.680000
540.465332	146.520000
540.558899	146.420000
540.652588	146.420000
540.746216	145.920000
540.839844	146.180000
540.933472	146.420000
541.027100	146.300000
541.120728	146.260000
541.214417	146.680000
541.308044	146.700000
541.401672	146.620000
541.495300	146.780000
541.588928	146.520000
541.682617	145.980000
541.776184	145.480000
541.869873	145.740000
541.963440	145.780000
542.057129	146.040000
542.150757	146.280000
542.244385	146.220000
542.338013	145.620000
542.431641	145.540000
542.525269	145.400000
542.618958	145.620000
542.712524	146.060000
542.806213	146.180000
542.899780	146.440000
542.993469	146.040000
543.087036	145.560000
543.180725	144.900000
543.274292	145.680000
543.367981	145.820000
543.461548	146.400000
543.555237	146.460000
543.648926	147.320000
543.742493	147.180000
543.836182	146.640000
543.929749	146.360000
544.023437	146.460000
544.117004	146.140000
544.210693	145.940000
544.304260	146.260000
544.397949	146.260000
544.491516	146.640000
544.585205	146.320000
544.678772	146.120000
544.772461	146.320000
544.866028	146.480000
544.959717	146.560000
545.053284	146.640000
545.146973	147.140000
545.240540	147.340000
545.334229	147.880000
545.427795	147.840000
545.521423	148.040000
545.615051	147.680000
545.708679	147.380000
545.802307	147.000000
545.895935	146.860000
545.989624	147.260000
546.083191	147.040000
546.176880	146.980000
546.270447	146.700000
546.364136	147.040000
546.457703	146.680000
546.551331	146.700000
546.644958	146.840000
546.738586	147.080000
546.832214	146.520000
546.925842	146.380000
547.019409	146.720000
547.113098	146.320000
547.206665	146.040000
547.300354	146.180000
547.393921	146.340000
547.487549	146.420000
547.581177	146.180000
547.674805	146.140000
547.768433	145.560000
547.862061	145.560000
547.955627	144.920000
548.049316	145.600000
548.142883	145.760000
548.236572	146.660000
548.330139	146.720000
548.423767	146.800000
548.517456	146.540000
548.611023	146.860000
548.704651	146.000000
548.798279	146.080000
548.891907	146.580000
548.985474	146.340000
549.079163	146.280000
549.172729	146.200000
549.266357	145.640000
549.359985	145.520000
549.453613	145.160000
549.547180	145.000000
549.640869	146.020000
549.734436	146.160000
549.828064	146.380000
549.921631	146.600000
550.015320	146.080000
550.108887	145.920000
550.202515	146.020000
550.296143	145.500000
550.389771	145.820000
550.483337	146.080000
550.576965	145.600000
550.670593	145.960000
550.764221	146.000000
550.857849	145.920000
550.951477	145.660000
551.045105	145.560000
551.138672	145.340000
551.232300	145.180000
551.325928	145.500000
551.419556	146.040000
551.513123	146.040000
551.606750	145.740000
551.700378	146.100000
551.794006	145.700000
551.887573	145.540000
551.981201	146.040000
552.074768	146.020000
552.168457	145.620000
552.262024	146.600000
552.355652	146.500000
552.449219	146.640000
552.542847	146.860000
552.636475	146.560000
552.730103	145.720000
552.823669	145.660000
552.917297	145.040000
553.010864	144.740000
553.104553	145.280000
553.198181	145.000000
553.291748	145.600000
553.385376	145.640000
553.478943	145.620000
553.572571	145.600000
553.666199	145.980000
553.759827	145.240000
553.853394	145.300000
553.947021	145.740000
554.040588	145.660000
554.134216	145.620000
554.227783	146.300000
554.321411	146.820000
554.415039	146.140000
554.508667	146.360000
554.602234	146.440000
554.695862	145.960000
554.789429	145.660000
554.883057	146.360000
554.976624	146.260000
555.070251	146.080000
555.163818	145.880000
555.257507	145.580000
555.351074	145.400000
555.444702	146.420000
555.538330	146.080000
555.631897	146.800000
555.725525	146.980000
555.819092	146.800000
555.912720	145.600000
556.006287	146.320000
556.099915	145.800000
556.193481	146.060000
556.287109	146.500000
556.380676	146.460000
556.474304	146.520000
556.567871	146.780000
556.661499	146.360000
556.755066	146.240000
556.848694	146.600000
556.942261	146.380000
557.035889	146.380000
557.129517	146.720000
557.223145	146.860000
557.316711	146.740000
557.410339	146.740000
557.503906	146.520000
557.597473	146.540000
557.691040	146.520000
557.784668	146.680000
557.878296	146.520000
557.971863	146.780000
558.065491	146.680000
558.159058	145.900000
558.252686	146.440000
558.346252	146.920000
558.439880	146.320000
558.533447	145.800000
558.627075	146.120000
558.720642	145.360000
558.814270	145.160000
558.907837	145.420000
559.001465	145.400000
559.095032	145.960000
559.188660	146.200000
559.282227	145.400000
559.375854	146.260000
559.469360	146.380000
559.562988	146.560000
559.656555	146.360000
559.750183	146.820000
559.843750	146.280000
559.937378	146.420000
560.030945	145.900000
560.124573	0.000000
560.218140	0.000000
560.311707	0.000000
560.405334	0.000000
560.498901	0.000000
560.592529	0.000000
560.686096	0.000000
560.779724	0.000000
560.873291	0.000000
560.966858	0.000000
561.060425	0.000000
561.154053	0.000000
561.247620	0.000000
561.341248	0.000000
561.434814	0.000000
561.528381	0.000000
561.621948	0.000000
561.715576	0.000000
561.809143	0.000000
561.902771	0.000000
561.996277	0.000000
562.089905	0.000000
562.183472	0.000000
562.277100	0.000000
