Model Number: SPM-002-B   
Serial Number: 70087108
Firmware Version: 004.15.4
Exposure Time: 100000.000000us
Data Taken on: 11-12-2020 19:37:13.938
Wavelength	Amplitude
221.570786	0.000000
221.663406	0.000000
221.756027	0.000000
221.848648	0.000000
221.941269	0.000000
222.033905	0.000000
222.126526	0.000000
222.219162	0.000000
222.311798	0.000000
222.404419	0.000000
222.497055	0.000000
222.589676	0.000000
222.682312	0.000000
222.774933	0.000000
222.867569	0.000000
222.960205	0.000000
223.052841	0.000000
223.145462	0.000000
223.238098	0.000000
223.330734	0.000000
223.423386	0.000000
223.516022	0.000000
223.608658	0.000000
223.701309	0.000000
223.793945	0.000000
223.886581	0.000000
223.979218	0.000000
224.071869	0.000000
224.164505	0.000000
224.257156	0.000000
224.349792	0.000000
224.442444	0.000000
224.535095	0.000000
224.627747	0.000000
224.720398	0.000000
224.813034	0.000000
224.905685	0.000000
224.998337	145.260000
225.090988	145.100000
225.183640	144.680000
225.276291	144.400000
225.368942	145.120000
225.461594	145.720000
225.554245	146.140000
225.646912	146.540000
225.739578	147.100000
225.832230	147.400000
225.924896	146.480000
226.017548	146.820000
226.110199	147.260000
226.202866	146.520000
226.295532	146.120000
226.388184	146.180000
226.480850	145.320000
226.573517	144.360000
226.666168	144.960000
226.758835	145.340000
226.851501	145.880000
226.944183	146.120000
227.036850	146.240000
227.129517	146.100000
227.222183	146.020000
227.314850	146.060000
227.407516	146.300000
227.500198	147.180000
227.592865	147.020000
227.685532	146.600000
227.778214	146.400000
227.870880	146.380000
227.963562	146.500000
228.056229	146.800000
228.148926	146.980000
228.241592	147.400000
228.334274	147.260000
228.426956	146.740000
228.519638	146.760000
228.612305	146.440000
228.704987	146.580000
228.797668	146.620000
228.890350	146.740000
228.983032	146.040000
229.075714	146.740000
229.168396	146.140000
229.261108	145.880000
229.353790	145.660000
229.446472	146.140000
229.539169	145.820000
229.631851	145.680000
229.724533	145.900000
229.817230	146.100000
229.909912	147.260000
230.002609	147.300000
230.095306	147.460000
230.187988	147.480000
230.280685	147.400000
230.373383	145.960000
230.466095	145.800000
230.558792	145.980000
230.651474	145.920000
230.744171	145.680000
230.836868	145.900000
230.929581	146.060000
231.022278	145.860000
231.114975	145.940000
231.207672	145.720000
231.300369	146.080000
231.393082	146.260000
231.485779	146.000000
231.578506	145.780000
231.671204	146.100000
231.763916	145.880000
231.856613	145.480000
231.949326	145.960000
232.042023	146.000000
232.134735	146.100000
232.227448	145.760000
232.320160	146.040000
232.412872	146.040000
232.505585	146.740000
232.598297	147.100000
232.691010	146.820000
232.783722	146.680000
232.876450	147.080000
232.969162	146.700000
233.061874	145.980000
233.154587	145.920000
233.247314	146.100000
233.340027	145.500000
233.432739	145.860000
233.525467	145.800000
233.618179	146.340000
233.710907	146.020000
233.803635	146.460000
233.896347	146.240000
233.989090	147.260000
234.081818	147.060000
234.174545	147.240000
234.267258	146.920000
234.359985	146.860000
234.452713	146.460000
234.545441	146.500000
234.638168	146.360000
234.730896	146.680000
234.823639	146.480000
234.916367	146.740000
235.009094	146.680000
235.101822	146.780000
235.194580	146.540000
235.287308	146.680000
235.380051	146.000000
235.472778	146.420000
235.565521	146.900000
235.658249	146.580000
235.750992	146.620000
235.843719	146.960000
235.936462	146.780000
236.029205	145.940000
236.121948	145.960000
236.214691	146.120000
236.307449	146.600000
236.400192	146.460000
236.492935	146.680000
236.585678	146.740000
236.678421	146.440000
236.771164	146.100000
236.863907	146.580000
236.956665	146.820000
237.049408	148.300000
237.142151	147.880000
237.234909	148.260000
237.327652	148.060000
237.420410	147.900000
237.513153	146.960000
237.605927	147.260000
237.698669	146.660000
237.791428	146.040000
237.884186	146.580000
237.976944	146.060000
238.069702	146.160000
238.162445	145.960000
238.255203	146.260000
238.347961	146.220000
238.440720	146.500000
238.533478	146.280000
238.626266	145.980000
238.719025	146.320000
238.811783	146.200000
238.904541	145.800000
238.997314	145.800000
239.090073	145.720000
239.182831	145.860000
239.275604	146.380000
239.368362	146.180000
239.461136	146.220000
239.553909	146.420000
239.646667	146.300000
239.739441	145.880000
239.832214	146.540000
239.925003	146.940000
240.017761	147.680000
240.110535	147.980000
240.203308	147.440000
240.296082	147.260000
240.388855	147.140000
240.481628	147.280000
240.574417	147.320000
240.667191	147.700000
240.759964	147.340000
240.852737	147.040000
240.945526	146.320000
241.038315	145.920000
241.131088	145.920000
241.223877	146.360000
241.316650	145.980000
241.409439	146.280000
241.502228	146.140000
241.595001	146.440000
241.687790	146.160000
241.780579	146.620000
241.873367	146.680000
241.966141	146.960000
242.058929	146.220000
242.151718	146.820000
242.244507	147.240000
242.337311	146.620000
242.430099	146.680000
242.522903	146.980000
242.615692	146.260000
242.708481	145.900000
242.801270	146.580000
242.894073	146.420000
242.986862	146.440000
243.079651	147.200000
243.172455	146.880000
243.265244	146.880000
243.358063	146.400000
243.450867	146.780000
243.543655	146.560000
243.636459	147.120000
243.729263	147.200000
243.822067	147.680000
243.914856	147.920000
244.007660	147.840000
244.100464	147.340000
244.193268	146.860000
244.286072	146.700000
244.378876	145.880000
244.471680	145.440000
244.564499	146.000000
244.657318	146.620000
244.750122	146.900000
244.842926	146.680000
244.935745	147.140000
245.028549	146.560000
245.121368	146.200000
245.214172	146.120000
245.306992	146.640000
245.399796	146.320000
245.492615	146.640000
245.585434	146.420000
245.678253	146.140000
245.771072	145.940000
245.863892	146.340000
245.956711	146.700000
246.049530	146.440000
246.142349	146.280000
246.235168	146.300000
246.327988	146.720000
246.420807	146.120000
246.513626	146.260000
246.606445	146.120000
246.699280	146.060000
246.792099	145.500000
246.884918	145.280000
246.977753	144.920000
247.070587	145.060000
247.163422	145.200000
247.256241	145.080000
247.349075	145.580000
247.441895	145.880000
247.534729	146.020000
247.627563	145.540000
247.720383	146.140000
247.813217	146.080000
247.906052	146.060000
247.998886	146.040000
248.091736	146.340000
248.184570	145.740000
248.277405	145.680000
248.370239	146.760000
248.463074	147.760000
248.555908	147.940000
248.648743	147.800000
248.741592	147.980000
248.834427	147.020000
248.927261	145.720000
249.020111	146.100000
249.112946	146.500000
249.205795	145.920000
249.298630	146.020000
249.391495	146.420000
249.484344	146.160000
249.577179	146.280000
249.670029	146.700000
249.762878	147.140000
249.855728	147.040000
249.948563	146.780000
250.041412	146.260000
250.134262	146.600000
250.227112	146.380000
250.319962	146.640000
250.412827	146.760000
250.505692	146.580000
250.598541	146.280000
250.691391	145.960000
250.784241	145.780000
250.877106	146.260000
250.969955	146.220000
251.062805	146.700000
251.155670	147.180000
251.248520	147.040000
251.341385	146.760000
251.434235	146.620000
251.527100	146.220000
251.619965	146.100000
251.712814	146.900000
251.805695	146.960000
251.898560	147.380000
251.991425	147.380000
252.084290	147.440000
252.177155	146.560000
252.270020	146.300000
252.362885	146.080000
252.455750	146.080000
252.548615	145.800000
252.641479	146.060000
252.734360	146.120000
252.827240	146.160000
252.920105	146.360000
253.012970	146.340000
253.105850	146.320000
253.198715	145.980000
253.291595	146.360000
253.384460	146.020000
253.477341	145.800000
253.570221	146.120000
253.663086	145.920000
253.755966	146.380000
253.848846	146.340000
253.941727	146.640000
254.034592	146.440000
254.127472	146.180000
254.220367	145.880000
254.313248	146.040000
254.406128	145.640000
254.499008	145.960000
254.591904	147.000000
254.684784	147.360000
254.777664	147.240000
254.870544	147.560000
254.963440	147.080000
255.056335	146.960000
255.149216	146.300000
255.242111	146.800000
255.334991	147.120000
255.427887	147.060000
255.520767	147.120000
255.613663	147.420000
255.706558	146.900000
255.799438	146.420000
255.892334	146.240000
255.985229	145.900000
256.078125	145.440000
256.171021	145.560000
256.263916	146.100000
256.356812	146.720000
256.449707	146.860000
256.542603	147.020000
256.635498	147.300000
256.728394	146.940000
256.821289	146.580000
256.914215	146.780000
257.007080	147.260000
257.100006	147.140000
257.192932	147.680000
257.285828	147.960000
257.378723	147.520000
257.471619	146.760000
257.564545	146.420000
257.657440	146.140000
257.750336	146.500000
257.843262	146.400000
257.936157	147.620000
258.029053	148.140000
258.121979	148.020000
258.214874	147.580000
258.307800	147.640000
258.400696	146.820000
258.493622	146.360000
258.586517	145.660000
258.679443	145.920000
258.772339	145.980000
258.865265	145.740000
258.958160	145.420000
259.051086	146.620000
259.144012	146.080000
259.236938	146.900000
259.329834	147.080000
259.422791	147.200000
259.515717	146.740000
259.608612	146.660000
259.701538	146.240000
259.794464	146.060000
259.887390	146.060000
259.980316	145.620000
260.073212	145.780000
260.166138	144.880000
260.259064	145.320000
260.351990	146.160000
260.444916	146.240000
260.537842	146.480000
260.630768	147.380000
260.723694	147.360000
260.816620	146.820000
260.909546	146.820000
261.002472	146.260000
261.095398	145.520000
261.188354	145.240000
261.281281	145.060000
261.374207	145.300000
261.467133	146.260000
261.560089	146.660000
261.653015	146.480000
261.745972	147.120000
261.838867	147.580000
261.931824	147.340000
262.024780	146.780000
262.117706	147.160000
262.210663	147.060000
262.303589	146.780000
262.396515	146.880000
262.489471	148.060000
262.582397	147.880000
262.675354	147.320000
262.768280	147.100000
262.861237	147.020000
262.954163	146.480000
263.047119	146.540000
263.140045	146.700000
263.233002	146.560000
263.325958	146.360000
263.418884	146.080000
263.511841	146.520000
263.604797	146.460000
263.697723	146.900000
263.790680	146.720000
263.883636	147.120000
263.976593	146.560000
264.069550	146.620000
264.162476	146.180000
264.255463	146.420000
264.348419	146.400000
264.441376	146.880000
264.534332	146.600000
264.627289	146.800000
264.720245	147.280000
264.813202	146.620000
264.906158	146.460000
264.999115	147.060000
265.092072	146.980000
265.185028	147.260000
265.277985	147.720000
265.370941	147.420000
265.463898	146.960000
265.556854	146.580000
265.649811	145.360000
265.742798	145.280000
265.835754	145.400000
265.928711	145.720000
266.021667	145.960000
266.114655	146.380000
266.207611	146.920000
266.300568	146.500000
266.393585	145.900000
266.486511	146.060000
266.579498	145.420000
266.672485	144.860000
266.765442	144.940000
266.858429	145.740000
266.951385	145.420000
267.044342	145.800000
267.137329	145.940000
267.230316	146.360000
267.323273	146.000000
267.416260	146.880000
267.509216	146.900000
267.602203	146.940000
267.695160	147.220000
267.788147	147.040000
267.881134	146.380000
267.974091	146.600000
268.067078	146.440000
268.160065	146.040000
268.253052	146.160000
268.346008	146.280000
268.438995	146.160000
268.531982	146.260000
268.624969	146.260000
268.717987	146.500000
268.810944	146.460000
268.903961	146.460000
268.996948	146.220000
269.089905	146.340000
269.182892	146.320000
269.275879	146.440000
269.368866	145.800000
269.461853	146.060000
269.554871	146.320000
269.647858	146.120000
269.740845	146.260000
269.833832	146.800000
269.926819	146.500000
270.019806	146.520000
270.112793	146.340000
270.205811	146.300000
270.298798	146.000000
270.391785	146.820000
270.484772	146.400000
270.577789	146.600000
270.670776	146.500000
270.763763	146.740000
270.856750	146.600000
270.949768	146.440000
271.042786	146.340000
271.135773	146.140000
271.228790	146.240000
271.321808	145.680000
271.414795	145.320000
271.507782	144.960000
271.600800	144.960000
271.693817	145.200000
271.786804	145.540000
271.879822	146.100000
271.972809	146.240000
272.065826	146.660000
272.158844	146.160000
272.251831	147.020000
272.344849	146.680000
272.437866	146.440000
272.530853	146.500000
272.623871	146.860000
272.716888	145.380000
272.809906	145.920000
272.902893	146.180000
272.995911	145.280000
273.088928	145.260000
273.181946	145.600000
273.274963	145.160000
273.367981	145.240000
273.460999	145.620000
273.554047	145.900000
273.647003	146.660000
273.740051	146.580000
273.833069	146.840000
273.926086	147.120000
274.019135	146.800000
274.112152	146.340000
274.205170	146.600000
274.298187	146.880000
274.391205	145.920000
274.484222	145.900000
274.577240	145.960000
274.670258	145.820000
274.763306	145.500000
274.856323	146.460000
274.949341	146.500000
275.042358	146.820000
275.135406	146.800000
275.228424	146.600000
275.321442	146.540000
275.414490	146.180000
275.507507	146.320000
275.600525	146.820000
275.693573	146.720000
275.786591	146.480000
275.879669	146.880000
275.972656	146.060000
276.065735	145.540000
276.158752	146.080000
276.251801	146.540000
276.344818	146.500000
276.437866	146.720000
276.530884	146.800000
276.623932	146.220000
276.716980	146.260000
276.809998	146.240000
276.903046	146.320000
276.996094	147.040000
277.089111	147.640000
277.182159	148.040000
277.275208	148.240000
277.368256	148.140000
277.461304	147.740000
277.554321	147.140000
277.647369	146.740000
277.740417	146.580000
277.833466	146.660000
277.926514	146.700000
278.019562	147.300000
278.112610	146.740000
278.205688	146.860000
278.298706	146.900000
278.391785	146.720000
278.484833	146.100000
278.577881	146.240000
278.670929	146.420000
278.763977	146.700000
278.857025	146.660000
278.950073	146.580000
279.043121	146.540000
279.136169	146.120000
279.229248	145.440000
279.322296	145.660000
279.415344	146.200000
279.508392	146.020000
279.601440	146.260000
279.694519	146.240000
279.787567	145.960000
279.880615	145.520000
279.973694	145.460000
280.066742	145.080000
280.159790	145.280000
280.252869	145.300000
280.345917	145.660000
280.438995	145.740000
280.532074	146.020000
280.625122	146.360000
280.718201	147.040000
280.811279	147.020000
280.904327	147.160000
280.997406	147.360000
281.090454	147.340000
281.183533	146.580000
281.276581	146.280000
281.369659	146.100000
281.462738	145.960000
281.555786	146.220000
281.648865	146.240000
281.741943	146.400000
281.835022	147.140000
281.928070	147.000000
282.021149	146.420000
282.114227	146.240000
282.207306	146.280000
282.300385	146.240000
282.393433	146.440000
282.486511	146.580000
282.579590	147.280000
282.672668	147.480000
282.765747	146.940000
282.858856	146.780000
282.951904	146.920000
283.045013	147.040000
283.138062	147.260000
283.231171	147.620000
283.324249	147.900000
283.417328	148.160000
283.510406	147.620000
283.603485	147.340000
283.696564	147.160000
283.789642	147.000000
283.882751	146.460000
283.975830	146.800000
284.068909	146.560000
284.161987	146.840000
284.255066	146.580000
284.348175	147.000000
284.441254	146.920000
284.534332	147.380000
284.627441	147.280000
284.720520	147.320000
284.813599	147.100000
284.906708	147.060000
284.999786	146.360000
285.092896	145.940000
285.185974	146.720000
285.279053	146.200000
285.372192	146.360000
285.465240	147.200000
285.558380	147.140000
285.651459	146.520000
285.744568	147.540000
285.837677	147.280000
285.930756	146.840000
286.023865	147.060000
286.116943	146.880000
286.210052	146.740000
286.303162	146.700000
286.396240	146.800000
286.489349	146.400000
286.582458	146.660000
286.675568	146.340000
286.768646	146.180000
286.861755	146.260000
286.954865	147.260000
287.047974	146.720000
287.141083	146.440000
287.234161	146.500000
287.327271	146.360000
287.420380	146.560000
287.513519	146.680000
287.606598	147.040000
287.699738	147.180000
287.792816	147.140000
287.885956	146.280000
287.979034	146.340000
288.072174	146.100000
288.165283	145.840000
288.258392	146.240000
288.351501	146.340000
288.444611	146.640000
288.537720	147.260000
288.630859	147.520000
288.723969	147.360000
288.817078	147.520000
288.910187	147.420000
289.003296	146.780000
289.096436	146.340000
289.189545	146.200000
289.282654	145.920000
289.375763	146.460000
289.468903	146.960000
289.562012	147.380000
289.655121	147.760000
289.748260	148.100000
289.841400	148.140000
289.934509	147.680000
290.027649	147.660000
290.120728	147.100000
290.213898	147.060000
290.306976	146.640000
290.400146	146.800000
290.493256	146.380000
290.586395	146.500000
290.679535	146.660000
290.772644	146.300000
290.865784	145.660000
290.958893	145.900000
291.052032	146.000000
291.145172	145.780000
291.238281	145.760000
291.331421	146.200000
291.424561	146.740000
291.517670	146.480000
291.610809	146.500000
291.703949	146.640000
291.797089	147.040000
291.890228	146.420000
291.983337	146.440000
292.076477	146.520000
292.169617	146.920000
292.262756	146.580000
292.355927	146.660000
292.449036	146.460000
292.542206	146.420000
292.635315	146.400000
292.728485	146.720000
292.821625	146.500000
292.914764	147.420000
293.007904	147.440000
293.101044	147.140000
293.194183	146.640000
293.287323	146.760000
293.380463	146.260000
293.473602	146.260000
293.566742	146.380000
293.659882	147.100000
293.753021	147.360000
293.846191	147.160000
293.939331	146.660000
294.032471	146.760000
294.125610	146.100000
294.218781	146.080000
294.311920	146.820000
294.405060	147.180000
294.498230	146.720000
294.591370	147.200000
294.684540	146.820000
294.777679	145.920000
294.870850	145.980000
294.963959	146.020000
295.057159	145.700000
295.150299	146.180000
295.243469	146.300000
295.336609	145.800000
295.429779	145.940000
295.522919	146.480000
295.616089	146.380000
295.709229	147.100000
295.802399	147.460000
295.895569	147.200000
295.988708	146.560000
296.081879	146.720000
296.175018	146.080000
296.268188	145.980000
296.361359	146.480000
296.454529	146.920000
296.547668	146.760000
296.640839	147.140000
296.734009	147.020000
296.827179	146.860000
296.920319	146.880000
297.013519	146.560000
297.106659	146.240000
297.199860	146.420000
297.292999	146.360000
297.386200	145.960000
297.479309	145.880000
297.572510	146.060000
297.665680	145.820000
297.758850	146.020000
297.852020	145.820000
297.945190	145.820000
298.038361	145.580000
298.131531	146.400000
298.224701	146.100000
298.317871	146.160000
298.411072	145.960000
298.504242	145.800000
298.597412	145.180000
298.690582	145.380000
298.783752	145.800000
298.876923	146.360000
298.970093	146.500000
299.063293	146.600000
299.156464	146.800000
299.249634	146.580000
299.342834	146.800000
299.436005	147.180000
299.529205	146.940000
299.622345	146.860000
299.715576	146.240000
299.808716	146.060000
299.901917	145.880000
299.995117	146.360000
300.088287	146.460000
300.181488	146.580000
300.274658	146.540000
300.367828	146.420000
300.461029	146.340000
300.554199	146.440000
300.647400	146.640000
300.740601	146.880000
300.833771	146.840000
300.926971	147.280000
301.020142	146.640000
301.113342	146.520000
301.206512	146.400000
301.299713	146.620000
301.392914	146.300000
301.486084	146.960000
301.579285	147.000000
301.672516	147.300000
301.765686	147.020000
301.858887	147.060000
301.952057	146.520000
302.045288	146.700000
302.138458	146.520000
302.231659	146.200000
302.324860	145.740000
302.418060	145.580000
302.511261	145.420000
302.604462	145.300000
302.697662	145.220000
302.790863	145.160000
302.884064	145.440000
302.977264	145.680000
303.070465	145.740000
303.163666	146.520000
303.256866	147.080000
303.350067	147.040000
303.443268	146.720000
303.536469	146.840000
303.629669	146.480000
303.722870	146.360000
303.816071	146.400000
303.909271	146.620000
304.002472	145.720000
304.095673	145.320000
304.188934	144.740000
304.282104	145.380000
304.375336	145.540000
304.468506	146.100000
304.561768	146.060000
304.654968	146.380000
304.748169	146.140000
304.841370	145.900000
304.934601	146.060000
305.027802	146.220000
305.121002	146.000000
305.214233	145.700000
305.307434	145.920000
305.400665	146.220000
305.493866	146.060000
305.587097	146.500000
305.680298	146.420000
305.773499	146.620000
305.866730	146.460000
305.959930	147.380000
306.053162	147.440000
306.146393	147.260000
306.239594	146.580000
306.332825	146.360000
306.426025	146.420000
306.519287	145.880000
306.612488	146.120000
306.705719	146.440000
306.798920	146.580000
306.892181	145.900000
306.985352	145.760000
307.078613	145.520000
307.171844	145.780000
307.265045	145.300000
307.358276	144.820000
307.451508	145.440000
307.544739	146.040000
307.637970	145.720000
307.731201	145.800000
307.824402	146.700000
307.917633	146.820000
308.010864	146.980000
308.104095	147.460000
308.197327	147.560000
308.290558	147.480000
308.383789	147.020000
308.477020	146.300000
308.570251	145.820000
308.663483	145.280000
308.756714	145.020000
308.849976	145.460000
308.943176	145.960000
309.036438	145.820000
309.129639	146.320000
309.222900	146.260000
309.316101	145.700000
309.409393	144.960000
309.502625	144.640000
309.595856	145.140000
309.689087	145.560000
309.782318	145.800000
309.875580	145.860000
309.968811	146.340000
310.062042	145.900000
310.155273	145.400000
310.248535	145.920000
310.341766	146.000000
310.434998	145.660000
310.528259	145.280000
310.621490	145.680000
310.714722	144.900000
310.807983	144.980000
310.901215	145.320000
310.994476	146.000000
311.087708	145.600000
311.181000	146.080000
311.274200	145.800000
311.367462	145.880000
311.460693	145.180000
311.553986	146.080000
311.647186	145.820000
311.740479	146.740000
311.833710	146.300000
311.926971	146.600000
312.020203	145.780000
312.113464	145.880000
312.206726	145.080000
312.299957	145.800000
312.393219	146.380000
312.486481	146.860000
312.579712	146.600000
312.672974	146.720000
312.766235	146.300000
312.859497	145.820000
312.952759	145.460000
313.045990	146.240000
313.139252	146.160000
313.232513	146.660000
313.325775	146.800000
313.419037	146.500000
313.512299	145.680000
313.605530	146.300000
313.698822	146.200000
313.792053	146.180000
313.885345	146.060000
313.978577	146.520000
314.071869	145.980000
314.165131	145.940000
314.258392	146.100000
314.351654	146.560000
314.444916	145.820000
314.538177	146.340000
314.631439	146.460000
314.724701	146.340000
314.817993	146.020000
314.911255	146.420000
315.004517	145.840000
315.097778	145.620000
315.191040	145.800000
315.284302	145.940000
315.377594	145.780000
315.470856	145.960000
315.564117	145.400000
315.657379	144.640000
315.750671	144.240000
315.843933	144.480000
315.937195	144.220000
316.030518	144.200000
316.123749	144.480000
316.217041	145.680000
316.310303	145.720000
316.403595	145.860000
316.496857	146.420000
316.590149	146.840000
316.683411	145.860000
316.776703	145.520000
316.869965	145.380000
316.963257	145.060000
317.056519	144.300000
317.149811	144.300000
317.243073	144.520000
317.336365	144.880000
317.429626	145.320000
317.522919	146.100000
317.616180	146.340000
317.709473	146.040000
317.802765	145.940000
317.896027	145.840000
317.989319	145.800000
318.082611	145.560000
318.175873	145.680000
318.269165	145.440000
318.362488	145.220000
318.455750	145.040000
318.549042	145.400000
318.642303	145.880000
318.735626	145.960000
318.828888	146.080000
318.922211	145.820000
319.015472	146.160000
319.108765	145.620000
319.202057	145.320000
319.295349	145.720000
319.388641	145.860000
319.481934	145.580000
319.575226	145.640000
319.668518	145.960000
319.761810	145.920000
319.855103	145.980000
319.948395	145.920000
320.041687	146.200000
320.134979	146.460000
320.228271	146.300000
320.321564	145.960000
320.414856	146.100000
320.508148	145.660000
320.601440	145.520000
320.694763	145.300000
320.788025	146.280000
320.881348	146.200000
320.974640	146.460000
321.067963	145.860000
321.161224	145.920000
321.254547	144.940000
321.347839	145.560000
321.441162	145.420000
321.534454	145.860000
321.627747	145.620000
321.721069	146.460000
321.814362	146.140000
321.907654	146.240000
322.000946	146.420000
322.094269	147.500000
322.187561	146.980000
322.280884	147.240000
322.374176	147.340000
322.467468	147.440000
322.560791	146.900000
322.654083	147.300000
322.747406	147.160000
322.840698	147.380000
322.934021	147.660000
323.027344	147.740000
323.120636	147.420000
323.213959	147.220000
323.307251	146.720000
323.400574	146.140000
323.493866	145.520000
323.587219	145.560000
323.680511	145.740000
323.773834	146.160000
323.867157	146.340000
323.960449	146.540000
324.053772	146.460000
324.147095	146.200000
324.240387	146.400000
324.333710	146.400000
324.427032	146.400000
324.520355	146.400000
324.613647	146.140000
324.706970	145.660000
324.800293	145.600000
324.893616	145.640000
324.986938	145.780000
325.080231	145.520000
325.173553	146.140000
325.266876	146.520000
325.360199	146.720000
325.453522	146.140000
325.546875	146.360000
325.640167	146.320000
325.733521	146.340000
325.826813	146.440000
325.920166	146.440000
326.013489	146.500000
326.106812	145.720000
326.200134	145.480000
326.293457	145.000000
326.386780	145.180000
326.480103	144.920000
326.573425	144.960000
326.666748	144.840000
326.760071	145.300000
326.853424	145.500000
326.946747	145.700000
327.040070	146.620000
327.133392	146.580000
327.226715	145.940000
327.320068	145.520000
327.413391	146.120000
327.506714	145.240000
327.600037	145.120000
327.693390	145.640000
327.786713	145.900000
327.880066	145.500000
327.973358	146.100000
328.066742	146.740000
328.160034	146.300000
328.253418	146.680000
328.346710	146.420000
328.440063	146.000000
328.533417	145.520000
328.626740	146.080000
328.720093	145.820000
328.813416	146.080000
328.906769	146.100000
329.000092	146.240000
329.093445	145.880000
329.186768	145.620000
329.280121	146.000000
329.373444	146.340000
329.466797	146.360000
329.560120	146.720000
329.653473	147.040000
329.746796	146.400000
329.840149	146.060000
329.933502	145.960000
330.026825	145.620000
330.120178	145.180000
330.213562	145.420000
330.306854	145.620000
330.400238	145.420000
330.493561	145.240000
330.586945	145.960000
330.680237	146.280000
330.773621	146.400000
330.866974	146.740000
330.960327	147.020000
331.053680	146.520000
331.147003	146.140000
331.240356	146.200000
331.333710	146.100000
331.427063	145.700000
331.520416	145.820000
331.613770	145.780000
331.707123	145.720000
331.800476	145.920000
331.893829	147.040000
331.987152	147.220000
332.080505	147.200000
332.173859	147.140000
332.267212	146.360000
332.360565	145.780000
332.453918	145.520000
332.547333	145.600000
332.640656	145.460000
332.734039	146.160000
332.827362	145.880000
332.920746	146.560000
333.014069	146.740000
333.107452	147.340000
333.200806	147.180000
333.294159	147.400000
333.387543	146.880000
333.480896	146.520000
333.574249	146.320000
333.667603	146.220000
333.760956	146.400000
333.854340	146.520000
333.947693	146.800000
334.041046	146.580000
334.134430	146.880000
334.227783	146.320000
334.321136	146.040000
334.414520	145.640000
334.507874	145.660000
334.601227	145.420000
334.694611	145.480000
334.787964	145.320000
334.881348	145.620000
334.974701	145.580000
335.068085	145.260000
335.161438	145.640000
335.254822	145.720000
335.348175	145.520000
335.441559	145.140000
335.534943	145.900000
335.628296	145.620000
335.721680	145.780000
335.815033	146.100000
335.908417	146.340000
336.001770	146.000000
336.095154	145.900000
336.188538	145.700000
336.281891	145.140000
336.375275	144.780000
336.468658	144.540000
336.562012	144.700000
336.655396	145.280000
336.748779	146.040000
336.842133	146.540000
336.935516	147.000000
337.028900	147.020000
337.122284	146.500000
337.215637	146.540000
337.309021	146.240000
337.402435	145.820000
337.495789	145.540000
337.589203	145.720000
337.682526	145.040000
337.775940	145.260000
337.869324	145.540000
337.962708	145.340000
338.056091	145.680000
338.149475	145.540000
338.242859	145.460000
338.336243	145.300000
338.429626	145.760000
338.523010	145.340000
338.616394	145.600000
338.709778	145.780000
338.803162	146.000000
338.896545	146.240000
338.989929	146.040000
339.083313	146.280000
339.176697	145.980000
339.270081	145.520000
339.363464	145.500000
339.456848	145.900000
339.550232	145.160000
339.643616	145.220000
339.737030	145.560000
339.830383	145.020000
339.923828	145.080000
340.017181	145.600000
340.110596	145.500000
340.203949	145.340000
340.297363	145.340000
340.390778	145.040000
340.484161	145.120000
340.577545	145.380000
340.670959	145.460000
340.764343	145.300000
340.857727	145.520000
340.951111	144.760000
341.044525	145.140000
341.137909	144.820000
341.231293	144.820000
341.324707	144.620000
341.418091	146.160000
341.511505	145.760000
341.604889	145.980000
341.698303	146.240000
341.791687	146.360000
341.885071	145.400000
341.978485	144.960000
342.071899	145.060000
342.165283	145.360000
342.258698	145.500000
342.352081	145.920000
342.445496	146.780000
342.538879	146.560000
342.632324	146.460000
342.725708	146.620000
342.819122	146.020000
342.912506	145.540000
343.005920	145.800000
343.099335	146.320000
343.192719	146.100000
343.286133	146.480000
343.379547	146.740000
343.472931	146.460000
343.566345	146.260000
343.659760	146.400000
343.753143	145.920000
343.846558	145.540000
343.939972	145.760000
344.033386	146.060000
344.126770	145.920000
344.220184	146.280000
344.313599	146.540000
344.407043	146.600000
344.500427	145.800000
344.593872	146.200000
344.687225	145.860000
344.780670	145.340000
344.874054	145.160000
344.967499	145.700000
345.060913	145.280000
345.154327	145.740000
345.247742	145.860000
345.341156	145.880000
345.434570	145.440000
345.527985	145.600000
345.621399	145.720000
345.714813	145.820000
345.808228	146.120000
345.901642	146.060000
345.995056	145.260000
346.088470	145.260000
346.181885	145.400000
346.275299	144.960000
346.368713	144.880000
346.462128	145.280000
346.555573	145.060000
346.648987	145.180000
346.742401	145.160000
346.835815	145.480000
346.929260	145.280000
347.022644	145.180000
347.116119	145.440000
347.209503	145.800000
347.302948	146.500000
347.396362	147.300000
347.489807	147.680000
347.583221	148.060000
347.676636	147.820000
347.770050	146.600000
347.863495	145.860000
347.956909	145.540000
348.050323	144.820000
348.143768	145.000000
348.237183	145.000000
348.330597	145.720000
348.424042	146.260000
348.517456	146.740000
348.610901	146.880000
348.704315	147.180000
348.797760	146.460000
348.891174	145.500000
348.984619	144.680000
349.078033	145.000000
349.171448	145.800000
349.264923	145.960000
349.358337	146.240000
349.451782	146.440000
349.545197	145.660000
349.638641	144.880000
349.732086	144.700000
349.825500	145.200000
349.918945	145.020000
350.012390	145.600000
350.105804	145.940000
350.199249	145.900000
350.292664	146.020000
350.386108	146.400000
350.479553	146.900000
350.572968	146.700000
350.666412	147.180000
350.759857	146.760000
350.853302	146.980000
350.946716	145.940000
351.040161	146.260000
351.133606	145.920000
351.227081	145.940000
351.320465	146.660000
351.413940	146.940000
351.507355	146.960000
351.600830	147.400000
351.694244	147.300000
351.787720	146.860000
351.881104	146.960000
351.974579	146.860000
352.067993	147.580000
352.161469	147.700000
352.254883	146.960000
352.348358	147.060000
352.441803	147.200000
352.535248	146.480000
352.628693	146.900000
352.722137	147.120000
352.815582	147.080000
352.909027	146.900000
353.002472	146.800000
353.095917	146.480000
353.189362	146.320000
353.282806	146.020000
353.376251	145.820000
353.469696	145.380000
353.563141	145.740000
353.656586	145.980000
353.750061	145.640000
353.843475	145.460000
353.936981	146.300000
354.030396	145.600000
354.123871	145.500000
354.217285	146.740000
354.310760	146.860000
354.404175	146.360000
354.497681	146.300000
354.591095	146.320000
354.684570	145.100000
354.777985	145.060000
354.871490	144.820000
354.964935	145.380000
355.058380	145.360000
355.151855	145.340000
355.245300	145.740000
355.338745	146.240000
355.432220	145.900000
355.525665	145.700000
355.619110	146.480000
355.712585	146.040000
355.806030	145.660000
355.899475	145.520000
355.992950	145.980000
356.086426	145.980000
356.179871	146.380000
356.273346	146.700000
356.366791	146.940000
356.460266	147.160000
356.553711	146.800000
356.647186	146.580000
356.740631	146.120000
356.834106	146.000000
356.927551	145.820000
357.021027	145.720000
357.114471	145.900000
357.207947	146.200000
357.301422	146.440000
357.394867	146.540000
357.488342	146.940000
357.581818	146.880000
357.675262	147.040000
357.768738	146.760000
357.862213	145.940000
357.955658	145.780000
358.049133	145.420000
358.142609	145.380000
358.236053	145.120000
358.329529	145.520000
358.423035	145.880000
358.516449	145.840000
358.609955	146.280000
358.703400	147.140000
358.796906	147.140000
358.890350	146.400000
358.983826	146.680000
359.077271	145.940000
359.170776	145.840000
359.264221	145.640000
359.357727	145.860000
359.451172	146.300000
359.544647	146.920000
359.638123	146.660000
359.731598	147.160000
359.825073	147.480000
359.918549	147.300000
360.012024	147.080000
360.105499	146.440000
360.198975	146.160000
360.292450	146.060000
360.385925	145.560000
360.479401	145.080000
360.572876	145.760000
360.666351	146.000000
360.759857	145.860000
360.853302	146.380000
360.946808	146.140000
361.040253	146.140000
361.133759	145.680000
361.227203	146.060000
361.320709	145.600000
361.414154	146.000000
361.507660	146.220000
361.601105	147.060000
361.694641	147.400000
361.788086	147.460000
361.881592	147.840000
361.975067	147.200000
362.068542	147.120000
362.162018	146.760000
362.255524	146.360000
362.348999	146.000000
362.442474	146.560000
362.535950	146.080000
362.629456	145.820000
362.722931	145.900000
362.816406	146.360000
362.909882	146.560000
363.003387	146.420000
363.096863	146.720000
363.190338	146.900000
363.283875	146.580000
363.377319	146.300000
363.470825	146.680000
363.564301	146.200000
363.657806	146.460000
363.751282	146.040000
363.844788	146.840000
363.938232	146.320000
364.031769	147.060000
364.125214	147.080000
364.218750	147.960000
364.312225	146.620000
364.405731	146.940000
364.499207	146.220000
364.592712	146.020000
364.686188	145.780000
364.779694	146.140000
364.873169	146.280000
364.966675	146.140000
365.060150	146.240000
365.153656	146.460000
365.247131	146.500000
365.340637	146.560000
365.434143	147.500000
365.527618	147.780000
365.621155	146.840000
365.714600	146.780000
365.808136	146.720000
365.901611	145.520000
365.995117	144.940000
366.088593	145.180000
366.182129	145.160000
366.275604	145.160000
366.369110	145.620000
366.462585	145.900000
366.556122	146.540000
366.649567	147.000000
366.743103	146.960000
366.836609	146.680000
366.930115	146.880000
367.023590	146.820000
367.117096	146.560000
367.210602	146.560000
367.304108	147.520000
367.397614	147.660000
367.491119	147.460000
367.584595	147.500000
367.678101	147.860000
367.771606	147.320000
367.865112	146.760000
367.958649	146.260000
368.052124	146.140000
368.145660	145.680000
368.239136	146.220000
368.332672	146.620000
368.426147	146.860000
368.519684	146.660000
368.613159	147.240000
368.706696	146.820000
368.800171	146.680000
368.893707	146.840000
368.987183	146.960000
369.080719	146.720000
369.174225	146.480000
369.267731	146.720000
369.361237	146.580000
369.454742	146.360000
369.548248	146.560000
369.641754	146.160000
369.735260	145.600000
369.828766	145.000000
369.922272	145.640000
370.015808	145.180000
370.109314	145.300000
370.202820	145.480000
370.296356	146.780000
370.389832	146.340000
370.483368	146.100000
370.576874	145.860000
370.670410	145.980000
370.763885	144.900000
370.857422	144.820000
370.950928	144.820000
371.044464	146.000000
371.137939	146.040000
371.231476	146.520000
371.324982	146.920000
371.418518	147.120000
371.512024	146.740000
371.605560	146.660000
371.699066	146.700000
371.792572	146.500000
371.886108	146.860000
371.979614	146.440000
372.073120	146.980000
372.166656	147.040000
372.260162	146.960000
372.353668	146.600000
372.447205	146.540000
372.540710	146.300000
372.634277	146.240000
372.727753	146.620000
372.821320	146.380000
372.914795	146.500000
373.008362	146.240000
373.101837	146.160000
373.195404	145.820000
373.288879	146.040000
373.382446	146.880000
373.475922	146.780000
373.569489	147.340000
373.662964	147.500000
373.756531	147.520000
373.850037	147.080000
373.943573	147.100000
374.037109	146.160000
374.130615	146.220000
374.224152	146.020000
374.317657	145.900000
374.411194	146.780000
374.504730	146.900000
374.598236	146.760000
374.691772	146.960000
374.785309	146.800000
374.878815	145.580000
374.972351	146.180000
375.065887	146.080000
375.159454	146.480000
375.252930	146.300000
375.346497	147.020000
375.440002	147.220000
375.533569	147.200000
375.627045	146.420000
375.720612	146.920000
375.814117	147.100000
375.907684	146.480000
376.001160	146.180000
376.094727	146.160000
376.188232	146.460000
376.281799	146.240000
376.375336	146.640000
376.468872	147.620000
376.562408	147.780000
376.655914	146.960000
376.749451	147.020000
376.842987	147.000000
376.936523	146.320000
377.030060	146.300000
377.123596	146.700000
377.217133	146.160000
377.310669	146.200000
377.404205	146.420000
377.497772	147.000000
377.591278	146.820000
377.684845	147.560000
377.778351	147.480000
377.871918	147.200000
377.965424	146.260000
378.058990	145.940000
378.152496	145.760000
378.246063	145.720000
378.339569	146.020000
378.433136	146.460000
378.526642	146.940000
378.620209	146.560000
378.713745	145.820000
378.807312	146.160000
378.900848	145.840000
378.994385	146.100000
379.087921	145.480000
379.181458	146.100000
379.274994	145.460000
379.368530	145.700000
379.462097	145.440000
379.555634	146.240000
379.649170	145.660000
379.742706	145.580000
379.836273	145.580000
379.929810	145.180000
380.023376	144.820000
380.116882	145.420000
380.210449	145.440000
380.303986	145.320000
380.397552	145.040000
380.491058	145.220000
380.584656	144.860000
380.678162	145.160000
380.771729	145.260000
380.865265	146.560000
380.958832	146.800000
381.052368	147.180000
381.145935	147.360000
381.239471	147.860000
381.333008	147.300000
381.426575	147.300000
381.520111	147.360000
381.613647	147.520000
381.707214	146.960000
381.800751	146.240000
381.894318	146.340000
381.987854	146.100000
382.081421	145.580000
382.174988	145.640000
382.268524	145.660000
382.362091	145.600000
382.455627	146.440000
382.549194	146.320000
382.642731	145.800000
382.736298	146.020000
382.829834	145.740000
382.923401	145.580000
383.016937	146.120000
383.110504	146.940000
383.204041	147.140000
383.297607	147.440000
383.391174	146.640000
383.484741	146.900000
383.578278	146.420000
383.671844	146.000000
383.765411	145.280000
383.858948	145.800000
383.952515	145.420000
384.046051	146.340000
384.139618	146.680000
384.233185	147.240000
384.326721	147.240000
384.420288	147.740000
384.513855	147.300000
384.607422	147.360000
384.700989	147.500000
384.794525	146.940000
384.888123	146.580000
384.981659	146.600000
385.075226	146.120000
385.168762	145.940000
385.262360	145.940000
385.355896	145.140000
385.449463	145.000000
385.542999	145.380000
385.636597	145.640000
385.730164	145.920000
385.823730	145.960000
385.917267	145.820000
386.010834	146.100000
386.104401	146.180000
386.197968	146.440000
386.291534	147.100000
386.385101	147.340000
386.478668	147.640000
386.572235	147.360000
386.665802	146.980000
386.759338	146.440000
386.852905	146.120000
386.946472	145.560000
387.040070	145.720000
387.133606	145.620000
387.227203	145.640000
387.320740	145.980000
387.414337	145.940000
387.507874	145.700000
387.601471	145.800000
387.695007	145.780000
387.788605	145.640000
387.882141	145.840000
387.975739	146.140000
388.069275	145.900000
388.162872	146.320000
388.256439	146.040000
388.350037	145.720000
388.443604	145.380000
388.537170	145.580000
388.630737	145.960000
388.724304	146.320000
388.817871	146.420000
388.911438	146.700000
389.005005	147.100000
389.098602	146.960000
389.192169	146.680000
389.285736	146.880000
389.379333	146.780000
389.472870	146.360000
389.566467	146.200000
389.660034	146.220000
389.753632	145.700000
389.847168	145.860000
389.940765	146.180000
390.034332	146.280000
390.127930	145.920000
390.221466	146.180000
390.315063	145.780000
390.408630	145.160000
390.502228	144.300000
390.595795	144.780000
390.689362	144.960000
390.782959	145.320000
390.876526	145.860000
390.970093	146.120000
391.063690	146.560000
391.157257	146.560000
391.250824	146.740000
391.344421	146.440000
391.437988	147.040000
391.531555	146.900000
391.625153	146.920000
391.718750	147.120000
391.812317	146.920000
391.905914	146.720000
391.999481	146.720000
392.093079	146.740000
392.186615	146.600000
392.280243	147.040000
392.373779	147.080000
392.467407	147.320000
392.560944	147.280000
392.654572	146.960000
392.748108	146.940000
392.841736	146.780000
392.935303	146.200000
393.028900	145.960000
393.122467	145.900000
393.216064	145.520000
393.309631	145.100000
393.403229	144.720000
393.496796	144.760000
393.590393	144.340000
393.683990	144.920000
393.777557	145.620000
393.871155	145.960000
393.964722	146.480000
394.058350	146.900000
394.151917	146.760000
394.245514	146.480000
394.339081	147.000000
394.432678	146.940000
394.526245	146.800000
394.619873	146.140000
394.713409	146.340000
394.807037	145.960000
394.900604	145.960000
394.994202	146.120000
395.087769	146.880000
395.181396	146.320000
395.274994	146.860000
395.368561	146.360000
395.462158	146.540000
395.555756	145.800000
395.649353	146.440000
395.742920	145.660000
395.836517	146.320000
395.930115	145.780000
396.023712	146.200000
396.117279	146.040000
396.210876	145.680000
396.304474	145.640000
396.398071	145.940000
396.491669	146.240000
396.585266	146.080000
396.678833	146.620000
396.772461	146.860000
396.866028	146.540000
396.959656	146.640000
397.053223	147.040000
397.146851	147.100000
397.240417	147.180000
397.334015	148.740000
397.427582	149.680000
397.521210	151.380000
397.614807	153.940000
397.708405	156.360000
397.802002	158.820000
397.895599	162.380000
397.989197	166.120000
398.082794	171.100000
398.176392	178.060000
398.269989	186.520000
398.363586	196.860000
398.457184	209.480000
398.550781	224.040000
398.644379	238.860000
398.737976	255.680000
398.831573	272.960000
398.925201	290.480000
399.018768	308.720000
399.112396	326.540000
399.205963	343.800000
399.299591	361.260000
399.393158	377.620000
399.486786	393.220000
399.580353	409.100000
399.673981	423.400000
399.767578	436.900000
399.861206	449.900000
399.954773	459.800000
400.048401	464.640000
400.141998	465.460000
400.235596	462.200000
400.329193	454.580000
400.422791	444.080000
400.516418	432.000000
400.610016	420.820000
400.703613	407.000000
400.797211	389.880000
400.890808	371.140000
400.984436	352.700000
401.078033	330.320000
401.171631	308.780000
401.265259	288.740000
401.358826	270.380000
401.452484	252.540000
401.546051	237.160000
401.639679	221.840000
401.733246	209.000000
401.826904	196.580000
401.920471	185.580000
402.014099	176.780000
402.107697	170.040000
402.201324	164.360000
402.294891	160.040000
402.388550	157.120000
402.482147	154.320000
402.575745	152.040000
402.669373	149.900000
402.762970	148.680000
402.856567	147.840000
402.950195	147.400000
403.043793	146.880000
403.137390	147.800000
403.231018	147.140000
403.324615	147.480000
403.418243	146.900000
403.511841	147.260000
403.605469	146.580000
403.699066	147.300000
403.792694	147.140000
403.886292	147.520000
403.979919	147.440000
404.073517	147.360000
404.167145	147.460000
404.260712	147.220000
404.354370	146.920000
404.447937	147.220000
404.541595	147.540000
404.635162	147.520000
404.728821	148.020000
404.822418	147.840000
404.916046	147.400000
405.009644	147.240000
405.103271	147.160000
405.196899	146.640000
405.290497	146.920000
405.384125	147.220000
405.477722	146.720000
405.571350	146.120000
405.664948	146.160000
405.758575	145.760000
405.852203	145.260000
405.945801	145.400000
406.039429	145.560000
406.133057	145.300000
406.226654	145.400000
406.320312	145.480000
406.413879	145.780000
406.507538	145.960000
406.601135	145.740000
406.694763	146.440000
406.788361	146.220000
406.882019	145.920000
406.975586	146.180000
407.069244	146.820000
407.162872	146.560000
407.256470	146.620000
407.350098	146.700000
407.443726	146.440000
407.537323	146.020000
407.630951	146.180000
407.724579	146.020000
407.818207	146.100000
407.911804	145.880000
408.005432	145.680000
408.099060	145.400000
408.192688	145.920000
408.286285	145.740000
408.379913	145.480000
408.473572	145.720000
408.567169	145.260000
408.660828	145.200000
408.754395	144.960000
408.848053	145.140000
408.941650	145.180000
409.035309	145.100000
409.128906	144.660000
409.222565	144.920000
409.316132	145.100000
409.409790	144.780000
409.503387	144.980000
409.597046	145.380000
409.690674	145.520000
409.784302	145.860000
409.877930	146.000000
409.971558	146.260000
410.065186	146.000000
410.158783	145.680000
410.252411	145.180000
410.346039	145.440000
410.439667	145.380000
410.533295	145.800000
410.626923	146.300000
410.720551	146.440000
410.814209	146.760000
410.907806	146.940000
411.001465	146.420000
411.095062	146.640000
411.188721	146.740000
411.282318	146.340000
411.375977	145.920000
411.469574	146.220000
411.563232	145.740000
411.656830	145.620000
411.750488	145.440000
411.844086	145.400000
411.937744	145.680000
412.031372	145.600000
412.125000	145.420000
412.218628	145.540000
412.312256	146.420000
412.405884	146.460000
412.499512	146.440000
412.593170	147.000000
412.686798	147.340000
412.780426	146.620000
412.874054	146.620000
412.967682	146.840000
413.061310	147.240000
413.154968	147.140000
413.248566	147.180000
413.342224	146.860000
413.435852	147.060000
413.529510	146.140000
413.623108	145.520000
413.716766	145.420000
413.810364	145.840000
413.904022	145.260000
413.997650	145.120000
414.091309	146.060000
414.184906	146.000000
414.278564	145.740000
414.372192	146.340000
414.465851	147.100000
414.559479	146.420000
414.653107	147.700000
414.746735	147.240000
414.840393	147.100000
414.934021	147.360000
415.027649	146.940000
415.121277	146.020000
415.214935	146.680000
415.308563	147.000000
415.402191	145.740000
415.495850	146.060000
415.589478	145.800000
415.683136	145.600000
415.776733	145.640000
415.870422	146.420000
415.964020	146.180000
416.057678	146.480000
416.151306	146.480000
416.244965	146.100000
416.338562	146.040000
416.432251	146.820000
416.525848	147.420000
416.619507	147.340000
416.713165	147.460000
416.806793	147.480000
416.900421	147.500000
416.994080	146.480000
417.087708	146.660000
417.181366	146.420000
417.274994	146.420000
417.368622	146.560000
417.462280	147.240000
417.555908	146.900000
417.649567	146.660000
417.743195	146.540000
417.836853	146.220000
417.930481	146.380000
418.024170	146.500000
418.117767	146.960000
418.211426	147.300000
418.305054	147.300000
418.398712	146.500000
418.492340	146.500000
418.585999	146.760000
418.679626	146.760000
418.773285	146.760000
418.866913	147.360000
418.960571	147.700000
419.054230	147.700000
419.147858	147.640000
419.241516	147.600000
419.335144	147.020000
419.428802	146.820000
419.522461	146.320000
419.616089	145.680000
419.709747	145.920000
419.803375	146.400000
419.897034	146.300000
419.990662	146.260000
420.084320	147.020000
420.177979	147.280000
420.271606	147.280000
420.365295	147.700000
420.458893	147.820000
420.552582	147.940000
420.646210	147.700000
420.739868	147.360000
420.833496	147.000000
420.927155	146.620000
421.020782	146.460000
421.114471	145.880000
421.208069	146.260000
421.301758	146.540000
421.395386	146.880000
421.489044	146.360000
421.582703	146.840000
421.676361	147.040000
421.769989	146.620000
421.863647	146.940000
421.957306	147.160000
422.050934	146.940000
422.144592	146.640000
422.238251	146.340000
422.331909	146.140000
422.425537	145.900000
422.519196	145.900000
422.612854	145.560000
422.706543	145.540000
422.800140	145.600000
422.893829	145.320000
422.987457	145.020000
423.081146	145.180000
423.174744	145.900000
423.268433	145.200000
423.362061	145.520000
423.455750	145.640000
423.549347	145.680000
423.643036	144.840000
423.736664	145.660000
423.830353	145.860000
423.924011	146.260000
424.017639	145.900000
424.111298	146.280000
424.204956	145.880000
424.298615	145.780000
424.392273	145.400000
424.485931	145.580000
424.579559	145.440000
424.673218	145.340000
424.766876	145.120000
424.860535	144.840000
424.954193	144.840000
425.047882	145.400000
425.141510	145.520000
425.235199	145.780000
425.328796	145.940000
425.422485	145.780000
425.516113	144.880000
425.609802	144.900000
425.703430	144.800000
425.797119	144.740000
425.890747	144.960000
425.984436	145.300000
426.078064	145.280000
426.171753	145.480000
426.265411	145.380000
426.359070	145.440000
426.452728	145.320000
426.546356	145.200000
426.640015	144.860000
426.733673	144.820000
426.827332	144.220000
426.920990	145.100000
427.014648	144.780000
427.108307	145.000000
427.201965	145.700000
427.295624	146.300000
427.389282	145.480000
427.482941	146.260000
427.576630	146.300000
427.670258	145.520000
427.763947	145.460000
427.857574	145.740000
427.951263	145.480000
428.044922	145.340000
428.138611	145.840000
428.232239	146.220000
428.325928	146.400000
428.419556	146.860000
428.513245	146.580000
428.606903	146.220000
428.700562	145.580000
428.794220	144.880000
428.887878	144.280000
428.981537	144.620000
429.075195	145.120000
429.168854	145.880000
429.262512	146.480000
429.356201	146.720000
429.449860	146.660000
429.543518	146.520000
429.637177	146.660000
429.730835	146.520000
429.824493	146.300000
429.918182	146.280000
430.011810	145.760000
430.105530	144.960000
430.199158	145.060000
430.292847	144.940000
430.386475	144.620000
430.480164	144.560000
430.573792	144.480000
430.667511	144.300000
430.761139	144.500000
430.854828	145.360000
430.948456	145.640000
431.042145	146.340000
431.135834	146.420000
431.229492	146.440000
431.323151	146.040000
431.416809	146.080000
431.510468	145.740000
431.604156	145.560000
431.697815	145.720000
431.791473	145.600000
431.885132	145.540000
431.978821	145.740000
432.072479	146.140000
432.166138	146.520000
432.259827	146.200000
432.353485	146.620000
432.447174	146.460000
432.540802	146.200000
432.634491	145.960000
432.728149	146.560000
432.821838	146.820000
432.915466	146.780000
433.009186	146.800000
433.102814	146.080000
433.196503	145.960000
433.290131	145.700000
433.383850	145.800000
433.477509	145.800000
433.571167	146.600000
433.664856	146.660000
433.758514	146.960000
433.852173	146.720000
433.945862	146.480000
434.039520	146.420000
434.133179	146.060000
434.226868	145.380000
434.320526	144.880000
434.414185	145.620000
434.507874	145.280000
434.601562	145.700000
434.695221	145.920000
434.788910	146.480000
434.882538	146.360000
434.976257	146.140000
435.069885	146.180000
435.163574	146.100000
435.257233	145.900000
435.350922	145.700000
435.444580	145.760000
435.538269	145.400000
435.631897	145.960000
435.725616	146.540000
435.819275	146.900000
435.912964	147.440000
436.006622	147.840000
436.100311	147.600000
436.193970	146.600000
436.287628	146.340000
436.381317	146.080000
436.474976	145.700000
436.568665	145.340000
436.662323	145.880000
436.756012	145.520000
436.849670	145.480000
436.943390	145.360000
437.037018	145.420000
437.130737	145.580000
437.224365	145.540000
437.318085	145.540000
437.411713	145.900000
437.505432	146.280000
437.599060	146.660000
437.692780	147.580000
437.786407	147.420000
437.880127	147.380000
437.973755	147.040000
438.067474	146.520000
438.161133	145.920000
438.254822	146.300000
438.348480	146.040000
438.442169	146.540000
438.535828	146.820000
438.629517	146.620000
438.723175	145.980000
438.816864	146.440000
438.910553	145.720000
439.004211	145.440000
439.097900	145.440000
439.191559	145.580000
439.285248	144.880000
439.378906	145.420000
439.472626	145.400000
439.566284	145.380000
439.659973	145.880000
439.753632	145.860000
439.847321	146.320000
439.940979	146.340000
440.034698	146.480000
440.128326	145.920000
440.222046	146.000000
440.315674	144.920000
440.409393	144.940000
440.503082	144.840000
440.596741	145.340000
440.690430	145.520000
440.784088	145.700000
440.877777	145.260000
440.971466	145.240000
441.065125	144.780000
441.158813	144.560000
441.252502	144.600000
441.346161	144.980000
441.439850	145.180000
441.533539	145.020000
441.627197	145.620000
441.720886	145.520000
441.814606	146.220000
441.908234	146.440000
442.001953	146.720000
442.095612	146.380000
442.189301	146.720000
442.282959	146.240000
442.376678	145.520000
442.470306	146.140000
442.564026	146.140000
442.657684	146.260000
442.751404	146.260000
442.845032	147.400000
442.938751	146.660000
443.032440	146.680000
443.126099	146.380000
443.219788	146.640000
443.313477	145.900000
443.407166	146.160000
443.500824	146.200000
443.594513	146.280000
443.688202	146.120000
443.781891	145.900000
443.875549	145.760000
443.969238	145.780000
444.062927	145.820000
444.156647	145.740000
444.250275	146.340000
444.343994	146.300000
444.437653	146.660000
444.531372	146.480000
444.625031	146.420000
444.718719	145.820000
444.812378	145.700000
444.906097	145.220000
444.999756	144.800000
445.093445	144.880000
445.187103	145.060000
445.280823	145.940000
445.374512	145.580000
445.468201	146.000000
445.561859	145.920000
445.655548	146.100000
445.749237	145.380000
445.842926	145.900000
445.936615	146.320000
446.030304	145.900000
446.123962	146.200000
446.217651	146.100000
446.311340	146.140000
446.405029	145.440000
446.498749	145.460000
446.592407	145.020000
446.686096	145.400000
446.779755	145.320000
446.873474	145.700000
446.967133	145.960000
447.060852	145.620000
447.154510	145.420000
447.248230	145.400000
447.341858	145.280000
447.435577	145.080000
447.529236	144.960000
447.622955	144.700000
447.716644	144.700000
447.810333	145.020000
447.904022	145.660000
447.997711	145.940000
448.091400	146.420000
448.185059	146.420000
448.278748	146.300000
448.372437	146.040000
448.466125	146.240000
448.559814	145.980000
448.653503	146.480000
448.747192	146.660000
448.840912	146.960000
448.934570	146.820000
449.028290	147.280000
449.121948	146.800000
449.215637	146.460000
449.309296	145.840000
449.403015	146.140000
449.496674	146.000000
449.590393	146.280000
449.684052	146.100000
449.777771	147.040000
449.871429	146.540000
449.965149	146.360000
450.058838	146.320000
450.152527	146.920000
450.246216	146.240000
450.339905	146.340000
450.433594	146.240000
450.527283	146.740000
450.620972	146.200000
450.714661	146.420000
450.808350	146.360000
450.902039	146.620000
450.995728	145.820000
451.089417	145.780000
451.183105	145.620000
451.276794	146.140000
451.370514	145.480000
451.464172	145.280000
451.557892	145.420000
451.651550	145.500000
451.745270	144.940000
451.838928	144.860000
451.932648	145.180000
452.026306	145.480000
452.120026	144.920000
452.213684	145.140000
452.307404	145.520000
452.401062	145.600000
452.494781	145.740000
452.588470	145.980000
452.682159	145.620000
452.775848	145.800000
452.869537	145.280000
452.963226	144.640000
453.056915	144.840000
453.150604	145.180000
453.244293	145.340000
453.337982	146.000000
453.431671	146.540000
453.525360	146.840000
453.619049	146.920000
453.712769	146.560000
453.806427	146.120000
453.900146	145.860000
453.993805	145.620000
454.087555	145.960000
454.181213	145.800000
454.274933	145.800000
454.368591	145.620000
454.462311	145.380000
454.555969	144.860000
454.649689	145.840000
454.743347	145.700000
454.837067	146.580000
454.930756	147.180000
455.024445	147.480000
455.118134	146.960000
455.211853	147.380000
455.305542	146.700000
455.399231	146.520000
455.492920	146.400000
455.586609	146.380000
455.680298	146.460000
455.773987	146.160000
455.867676	145.700000
455.961365	145.880000
456.055084	145.500000
456.148773	145.140000
456.242493	145.300000
456.336151	145.600000
456.429871	145.700000
456.523529	146.320000
456.617249	145.800000
456.710907	146.420000
456.804626	146.320000
456.898315	145.780000
456.992035	145.540000
457.085693	145.780000
457.179413	145.000000
457.273102	145.880000
457.366791	146.060000
457.460480	146.500000
457.554199	147.380000
457.647888	147.580000
457.741577	146.900000
457.835266	146.980000
457.928955	146.860000
458.022644	146.780000
458.116364	147.240000
458.210052	147.020000
458.303741	146.840000
458.397461	146.100000
458.491119	145.120000
458.584839	144.960000
458.678528	144.660000
458.772247	144.800000
458.865906	145.240000
458.959625	146.620000
459.053284	146.220000
459.147003	146.420000
459.240692	146.920000
459.334412	146.900000
459.428070	146.120000
459.521790	146.340000
459.615479	146.220000
459.709198	146.460000
459.802887	146.020000
459.896576	145.880000
459.990265	145.840000
460.083954	146.160000
460.177673	145.080000
460.271362	145.320000
460.365051	145.240000
460.458740	145.040000
460.552429	144.540000
460.646149	144.640000
460.739838	144.280000
460.833527	144.280000
460.927246	144.300000
461.020905	144.220000
461.114655	144.700000
461.208313	145.080000
461.302032	145.080000
461.395691	145.240000
461.489441	145.700000
461.583099	145.220000
461.676819	145.160000
461.770477	145.580000
461.864197	145.380000
461.957916	145.140000
462.051605	145.000000
462.145294	145.660000
462.238983	145.040000
462.332703	145.460000
462.426392	146.400000
462.520081	146.500000
462.613770	145.680000
462.707489	146.240000
462.801178	145.840000
462.894867	145.240000
462.988556	145.520000
463.082275	146.120000
463.175964	145.760000
463.269684	146.220000
463.363342	145.840000
463.457092	145.340000
463.550751	145.560000
463.644470	145.720000
463.738129	145.400000
463.831879	145.920000
463.925537	146.760000
464.019257	146.220000
464.112946	146.280000
464.206665	146.120000
464.300323	145.880000
464.394043	145.420000
464.487762	145.160000
464.581451	145.400000
464.675140	145.700000
464.768829	145.640000
464.862549	145.780000
464.956238	146.360000
465.049927	146.300000
465.143646	146.380000
465.237335	146.080000
465.331024	146.420000
465.424713	146.520000
465.518433	146.260000
465.612152	145.860000
465.705811	146.200000
465.799561	145.920000
465.893219	145.460000
465.986938	145.660000
466.080597	145.640000
466.174347	146.000000
466.268005	146.260000
466.361725	146.160000
466.455414	146.100000
466.549133	146.220000
466.642792	146.320000
466.736542	145.840000
466.830231	146.060000
466.923920	146.260000
467.017609	146.340000
467.111328	145.700000
467.205017	145.760000
467.298706	145.760000
467.392426	145.780000
467.486115	146.060000
467.579803	145.860000
467.673523	146.240000
467.767212	146.400000
467.860901	146.220000
467.954651	146.040000
468.048309	146.660000
468.142029	146.340000
468.235718	146.100000
468.329437	145.700000
468.423096	145.700000
468.516846	145.480000
468.610504	145.400000
468.704224	145.160000
468.797913	145.460000
468.891632	145.300000
468.985291	145.000000
469.079010	144.860000
469.172729	144.800000
469.266418	145.240000
469.360107	145.400000
469.453827	145.300000
469.547516	145.600000
469.641205	146.300000
469.734924	146.360000
469.828613	146.540000
469.922302	146.800000
470.016022	146.560000
470.109711	146.020000
470.203430	145.120000
470.297150	144.460000
470.390808	144.920000
470.484558	144.820000
470.578217	145.500000
470.671936	146.140000
470.765625	147.060000
470.859344	146.440000
470.953003	146.920000
471.046753	146.300000
471.140411	145.620000
471.234131	145.660000
471.327820	146.420000
471.421539	146.240000
471.515228	146.100000
471.608948	146.520000
471.702637	145.900000
471.796326	145.460000
471.890045	145.860000
471.983734	146.200000
472.077423	146.040000
472.171143	146.080000
472.264832	145.960000
472.358521	145.420000
472.452240	145.060000
472.545929	145.640000
472.639648	145.920000
472.733337	146.420000
472.827057	146.400000
472.920746	146.760000
473.014465	147.080000
473.108124	147.100000
473.201874	146.900000
473.295532	146.980000
473.389252	147.040000
473.482941	146.640000
473.576660	146.160000
473.670319	145.980000
473.764069	146.480000
473.857727	146.520000
473.951477	146.740000
474.045166	147.180000
474.138855	146.920000
474.232574	146.600000
474.326263	146.400000
474.419952	146.460000
474.513672	146.560000
474.607361	146.600000
474.701050	146.740000
474.794769	147.360000
474.888458	147.360000
474.982178	147.040000
475.075867	147.340000
475.169586	147.260000
475.263275	146.680000
475.356995	146.260000
475.450653	146.000000
475.544403	145.700000
475.638062	146.540000
475.731812	146.440000
475.825470	146.560000
475.919189	147.120000
476.012878	147.560000
476.106598	146.340000
476.200256	146.500000
476.294006	146.220000
476.387695	146.080000
476.481384	145.700000
476.575104	145.900000
476.668793	145.560000
476.762512	145.260000
476.856201	145.600000
476.949890	145.380000
477.043610	145.220000
477.137299	145.300000
477.230988	145.860000
477.324707	145.440000
477.418396	146.220000
477.512146	146.320000
477.605804	146.400000
477.699524	146.340000
477.793213	146.380000
477.886932	146.020000
477.980591	145.800000
478.074341	145.600000
478.167999	145.080000
478.261749	145.060000
478.355408	144.900000
478.449127	145.300000
478.542816	146.280000
478.636536	147.420000
478.730225	147.720000
478.823944	147.980000
478.917633	147.780000
479.011322	147.600000
479.105042	147.060000
479.198730	146.920000
479.292450	146.780000
479.386139	147.140000
479.479828	147.000000
479.573547	147.220000
479.667267	147.080000
479.760925	147.120000
479.854675	147.180000
479.948334	147.120000
480.042084	146.700000
480.135742	147.180000
480.229462	146.940000
480.323151	146.920000
480.416870	146.580000
480.510529	146.500000
480.604279	145.540000
480.697937	146.140000
480.791656	145.320000
480.885345	145.060000
480.979065	145.500000
481.072754	146.340000
481.166473	146.340000
481.260132	146.960000
481.353882	147.120000
481.447540	146.640000
481.541260	146.500000
481.635010	145.840000
481.728668	145.540000
481.822388	145.700000
481.916077	145.960000
482.009796	145.740000
482.103485	146.200000
482.197205	146.600000
482.290863	146.720000
482.384613	146.320000
482.478271	145.880000
482.571991	145.720000
482.665680	145.280000
482.759399	145.720000
482.853058	146.340000
482.946808	146.400000
483.040466	146.420000
483.134216	146.520000
483.227875	145.780000
483.321594	145.880000
483.415283	146.380000
483.509003	145.960000
483.602661	145.920000
483.696411	146.120000
483.790070	146.020000
483.883789	145.660000
483.977478	146.220000
484.071198	146.440000
484.164917	146.280000
484.258606	145.820000
484.352325	146.460000
484.445984	146.460000
484.539734	145.940000
484.633392	145.700000
484.727142	146.040000
484.820801	145.820000
484.914520	145.680000
485.008209	146.220000
485.101929	146.740000
485.195587	146.360000
485.289337	146.160000
485.382996	146.220000
485.476715	146.200000
485.570404	146.440000
485.664124	146.420000
485.757782	146.780000
485.851532	146.360000
485.945190	146.300000
486.038910	145.940000
486.132599	146.500000
486.226318	145.560000
486.319977	145.720000
486.413727	146.160000
486.507446	146.000000
486.601105	145.400000
486.694855	145.580000
486.788513	145.580000
486.882233	145.080000
486.975922	145.180000
487.069641	145.040000
487.163300	145.280000
487.257050	146.360000
487.350708	146.220000
487.444427	146.080000
487.538116	146.000000
487.631836	145.840000
487.725494	144.840000
487.819214	144.880000
487.912903	144.880000
488.006622	145.620000
488.100281	146.180000
488.194031	146.380000
488.287689	147.060000
488.381409	147.640000
488.475098	147.420000
488.568817	147.460000
488.662476	147.160000
488.756226	146.200000
488.849945	145.140000
488.943604	145.080000
489.037354	144.920000
489.131012	145.060000
489.224731	145.260000
489.318390	145.560000
489.412140	145.680000
489.505798	145.500000
489.599518	145.180000
489.693207	145.760000
489.786926	145.800000
489.880585	145.500000
489.974335	146.020000
490.067993	147.340000
490.161713	147.520000
490.255371	148.400000
490.349121	148.460000
490.442780	147.740000
490.536499	146.540000
490.630188	146.060000
490.723907	145.440000
490.817566	145.740000
490.911285	146.040000
491.004974	146.300000
491.098694	146.020000
491.192413	146.780000
491.286102	146.480000
491.379822	146.440000
491.473480	146.500000
491.567200	146.640000
491.660889	145.860000
491.754608	145.900000
491.848267	145.740000
491.941986	145.700000
492.035675	145.980000
492.129395	146.320000
492.223053	146.040000
492.316772	146.480000
492.410461	146.280000
492.504181	145.960000
492.597839	145.360000
492.691559	145.620000
492.785248	145.520000
492.878967	145.580000
492.972626	145.180000
493.066345	145.600000
493.160034	145.200000
493.253754	145.100000
493.347412	144.880000
493.441132	145.680000
493.534882	145.900000
493.628540	146.680000
493.722260	147.040000
493.815918	147.160000
493.909668	147.380000
494.003326	147.180000
494.097046	146.760000
494.190704	146.020000
494.284454	146.320000
494.378113	145.860000
494.471832	146.000000
494.565491	145.940000
494.659210	146.300000
494.752899	146.040000
494.846619	146.040000
494.940277	145.920000
495.033997	145.900000
495.127686	145.600000
495.221405	145.500000
495.315063	145.340000
495.408783	145.340000
495.502441	145.360000
495.596191	145.500000
495.689850	145.360000
495.783569	145.740000
495.877228	145.660000
495.970947	145.240000
496.064697	145.040000
496.158356	145.880000
496.252075	145.680000
496.345734	145.520000
496.439453	146.520000
496.533142	146.840000
496.626862	146.980000
496.720520	147.060000
496.814240	147.580000
496.907898	147.420000
497.001617	147.440000
497.095306	146.560000
497.189026	146.380000
497.282684	146.020000
497.376404	146.020000
497.470062	145.900000
497.563782	146.280000
497.657471	146.420000
497.751190	146.020000
497.844849	145.860000
497.938568	146.100000
498.032227	146.000000
498.125946	145.800000
498.219635	146.140000
498.313354	146.220000
498.407074	145.860000
498.500732	146.260000
498.594452	146.380000
498.688110	146.060000
498.781830	145.560000
498.875519	145.560000
498.969238	145.080000
499.062897	145.040000
499.156616	145.740000
499.250275	146.200000
499.343994	145.800000
499.437653	145.840000
499.531372	145.760000
499.625061	146.020000
499.718781	146.140000
499.812439	146.620000
499.906158	146.400000
499.999817	146.100000
500.093536	145.240000
500.187195	144.980000
500.280914	145.140000
500.374573	145.340000
500.468323	145.380000
500.561981	145.920000
500.655701	145.360000
500.749420	145.240000
500.843079	145.420000
500.936798	145.580000
501.030457	145.680000
501.124176	146.200000
501.217834	146.080000
501.311554	145.940000
501.405212	145.960000
501.498962	145.440000
501.592621	145.300000
501.686340	145.960000
501.779999	145.960000
501.873718	146.180000
501.967377	146.400000
502.061096	146.660000
502.154755	145.620000
502.248474	145.660000
502.342133	145.680000
502.435852	145.560000
502.529510	146.160000
502.623230	147.460000
502.716888	147.140000
502.810608	147.200000
502.904266	147.520000
502.997986	146.680000
503.091705	145.880000
503.185364	145.740000
503.279083	145.440000
503.372772	145.100000
503.466492	145.240000
503.560150	145.440000
503.653870	145.920000
503.747528	145.940000
503.841248	146.140000
503.934906	146.360000
504.028625	145.940000
504.122284	146.400000
504.216003	147.380000
504.309662	147.140000
504.403381	147.280000
504.497040	147.260000
504.590759	146.600000
504.684418	146.000000
504.778137	146.500000
504.871796	146.540000
504.965515	146.520000
505.059174	146.560000
505.152893	146.000000
505.246521	145.580000
505.340240	145.300000
505.433899	145.740000
505.527618	145.900000
505.621338	146.520000
505.714996	146.180000
505.808716	145.960000
505.902374	146.040000
505.996094	146.420000
506.089752	146.120000
506.183472	146.520000
506.277130	146.880000
506.370850	146.860000
506.464508	146.400000
506.558228	146.480000
506.651886	145.980000
506.745605	145.980000
506.839264	146.000000
506.932983	146.180000
507.026611	146.060000
507.120331	146.640000
507.213989	145.740000
507.307709	145.380000
507.401367	145.660000
507.495087	146.560000
507.588745	146.200000
507.682465	147.420000
507.776123	147.720000
507.869843	147.340000
507.963531	146.700000
508.057190	147.260000
508.150909	146.380000
508.244568	146.140000
508.338287	145.920000
508.431946	145.720000
508.525665	145.060000
508.619324	145.080000
508.713013	145.440000
508.806671	145.800000
508.900391	146.540000
508.994049	147.000000
509.087769	146.860000
509.181427	146.480000
509.275146	146.060000
509.368774	145.000000
509.462494	144.800000
509.556152	145.060000
509.649872	145.480000
509.743530	145.860000
509.837250	146.160000
509.930878	146.260000
510.024597	146.060000
510.118256	145.840000
510.211975	145.820000
510.305695	145.660000
510.399353	145.920000
510.493042	146.440000
510.586700	146.600000
510.680420	147.160000
510.774078	147.320000
510.867798	147.240000
510.961426	146.800000
511.055145	146.540000
511.148804	145.700000
511.242523	146.060000
511.336151	146.120000
511.429871	146.400000
511.523529	146.520000
511.617249	146.520000
511.710876	146.080000
511.804596	145.520000
511.898254	145.440000
511.991974	145.700000
512.085632	145.660000
512.179321	146.080000
512.272949	146.860000
512.366699	147.140000
512.460327	146.980000
512.554077	147.980000
512.647766	147.480000
512.741394	146.820000
512.835144	147.200000
512.928772	146.640000
513.022461	146.240000
513.116150	146.420000
513.209839	147.180000
513.303467	146.520000
513.397217	146.520000
513.490845	145.900000
513.584595	145.660000
513.678223	144.820000
513.771912	144.320000
513.865601	144.740000
513.959290	144.640000
514.052917	144.780000
514.146667	145.680000
514.240295	146.520000
514.333984	146.640000
514.427673	146.760000
514.521362	147.100000
514.614990	146.260000
514.708740	146.320000
514.802368	146.080000
514.896057	146.120000
514.989746	146.540000
515.083435	146.600000
515.177124	146.340000
515.270752	146.340000
515.364502	146.740000
515.458130	146.680000
515.551819	146.440000
515.645508	146.220000
515.739197	146.500000
515.832825	146.280000
515.926575	145.740000
516.020203	146.120000
516.113892	146.840000
516.207520	146.540000
516.301270	146.620000
516.394897	146.700000
516.488586	147.400000
516.582275	146.800000
516.675964	146.280000
516.769592	146.100000
516.863281	146.780000
516.956970	146.680000
517.050659	146.520000
517.144287	147.200000
517.238037	147.420000
517.331665	146.540000
517.425354	146.000000
517.519043	146.200000
517.612732	146.200000
517.706421	145.780000
517.800049	145.560000
517.893738	145.320000
517.987427	145.300000
518.081116	145.320000
518.174744	145.280000
518.268433	145.900000
518.362122	146.620000
518.455811	146.760000
518.549438	146.880000
518.643127	148.160000
518.736816	147.960000
518.830505	147.460000
518.924133	147.300000
519.017822	147.600000
519.111511	146.640000
519.205200	147.220000
519.298828	147.220000
519.392517	147.220000
519.486206	147.180000
519.579895	147.260000
519.673523	146.620000
519.767212	146.820000
519.860901	147.320000
519.954590	147.020000
520.048279	146.780000
520.141907	146.640000
520.235596	147.720000
520.329224	147.500000
520.422974	147.260000
520.516602	147.360000
520.610291	147.580000
520.703918	146.720000
520.797607	146.460000
520.891296	146.540000
520.984985	146.880000
521.078613	147.160000
521.172302	146.560000
521.265930	147.320000
521.359680	147.940000
521.453308	147.640000
521.546997	147.260000
521.640625	147.600000
521.734314	146.900000
521.827942	146.480000
521.921692	146.860000
522.015320	146.980000
522.109009	146.480000
522.202698	146.360000
522.296326	146.280000
522.390015	146.200000
522.483704	146.360000
522.577393	146.540000
522.671021	146.560000
522.764709	146.380000
522.858337	146.800000
522.952026	146.920000
523.045654	147.460000
523.139404	148.040000
523.233032	148.320000
523.326721	147.640000
523.420349	147.300000
523.514038	146.780000
523.607666	146.720000
523.701355	146.160000
523.795044	146.200000
523.888733	146.460000
523.982361	147.160000
524.076050	146.640000
524.169678	147.200000
524.263367	147.000000
524.356995	146.780000
524.450684	146.200000
524.544373	146.160000
524.638062	146.000000
524.731750	146.280000
524.825378	146.120000
524.919067	145.600000
525.012695	145.720000
525.106384	145.500000
525.200012	145.600000
525.293701	145.600000
525.387329	146.480000
525.481018	146.520000
525.574646	146.900000
525.668396	146.800000
525.762024	147.200000
525.855713	146.960000
525.949341	146.640000
526.043030	146.380000
526.136658	146.220000
526.230347	145.700000
526.323975	145.220000
526.417664	145.540000
526.511292	145.860000
526.604980	146.220000
526.698608	146.260000
526.792297	146.460000
526.885925	146.520000
526.979614	146.660000
527.073303	146.320000
527.166931	146.560000
527.260620	146.760000
527.354309	147.220000
527.447998	146.800000
527.541626	146.680000
527.635315	146.640000
527.728943	147.280000
527.822632	147.180000
527.916260	147.160000
528.009949	147.420000
528.103577	147.420000
528.197266	146.480000
528.290894	146.340000
528.384583	146.320000
528.478210	146.400000
528.571899	146.300000
528.665527	146.640000
528.759216	146.600000
528.852844	147.180000
528.946533	147.100000
529.040161	147.240000
529.133850	146.980000
529.227478	147.120000
529.321167	147.020000
529.414856	147.460000
529.508484	147.680000
529.602173	147.560000
529.695801	147.300000
529.789490	147.000000
529.883057	146.320000
529.976746	146.340000
530.070374	147.000000
530.164062	147.080000
530.257690	147.320000
530.351379	147.700000
530.445007	147.540000
530.538696	146.820000
530.632324	146.960000
530.726013	146.960000
530.819641	146.700000
530.913330	146.940000
531.006958	147.080000
531.100647	146.820000
531.194275	146.600000
531.287964	146.440000
531.381592	145.860000
531.475220	145.840000
531.568848	145.960000
531.662537	145.980000
531.756226	146.460000
531.849854	146.680000
531.943542	147.020000
532.037170	146.360000
532.130859	146.820000
532.224487	146.120000
532.318176	145.960000
532.411804	146.540000
532.505432	147.200000
532.599060	146.620000
532.692749	146.760000
532.786377	147.200000
532.880066	146.380000
532.973694	145.920000
533.067383	145.940000
533.161011	146.360000
533.254639	146.260000
533.348267	146.200000
533.441956	146.560000
533.535583	146.540000
533.629272	146.400000
533.722900	145.880000
533.816589	145.980000
533.910156	146.240000
534.003845	145.940000
534.097534	146.280000
534.191162	147.260000
534.284851	147.420000
534.378479	147.180000
534.472107	147.380000
534.565735	147.080000
534.659424	146.560000
534.753052	146.820000
534.846741	146.340000
534.940369	147.320000
535.033997	147.220000
535.127625	147.160000
535.221313	147.420000
535.314941	147.600000
535.408630	146.360000
535.502197	146.600000
535.595886	146.520000
535.689514	146.040000
535.783203	146.760000
535.876831	147.360000
535.970459	147.320000
536.064087	146.960000
536.157776	146.940000
536.251404	146.420000
536.345093	146.100000
536.438721	146.180000
536.532349	146.780000
536.626038	146.580000
536.719666	146.960000
536.813293	146.740000
536.906921	146.440000
537.000610	146.380000
537.094238	146.460000
537.187866	146.180000
537.281494	146.440000
537.375183	146.680000
537.468811	146.680000
537.562439	146.640000
537.656067	146.660000
537.749756	146.660000
537.843384	147.100000
537.937012	147.360000
538.030640	146.900000
538.124329	146.820000
538.217896	147.220000
538.311584	147.040000
538.405212	146.880000
538.498901	147.520000
538.592468	148.140000
538.686157	147.560000
538.779785	146.700000
538.873413	146.480000
538.967102	146.180000
539.060730	145.240000
539.154358	145.720000
539.247986	146.180000
539.341675	146.180000
539.435242	146.180000
539.528931	146.780000
539.622559	146.340000
539.716187	147.040000
539.809814	147.100000
539.903503	147.260000
539.997070	146.820000
540.090759	146.860000
540.184387	146.480000
540.278015	147.020000
540.371643	147.140000
540.465332	147.440000
540.558899	147.300000
540.652588	146.980000
540.746216	146.140000
540.839844	146.300000
540.933472	146.160000
541.027100	146.300000
541.120728	146.620000
541.214417	147.080000
541.308044	147.180000
541.401672	147.060000
541.495300	146.860000
541.588928	146.800000
541.682617	146.480000
541.776184	145.900000
541.869873	146.240000
541.963440	146.480000
542.057129	146.200000
542.150757	146.360000
542.244385	146.180000
542.338013	145.780000
542.431641	145.640000
542.525269	145.940000
542.618958	146.480000
542.712524	147.040000
542.806213	147.100000
542.899780	147.460000
542.993469	146.820000
543.087036	146.140000
543.180725	145.640000
543.274292	146.040000
543.367981	146.000000
543.461548	146.660000
543.555237	146.740000
543.648926	147.520000
543.742493	148.040000
543.836182	147.940000
543.929749	147.520000
544.023437	147.380000
544.117004	147.080000
544.210693	146.440000
544.304260	146.600000
544.397949	146.540000
544.491516	146.900000
544.585205	146.720000
544.678772	146.420000
544.772461	146.460000
544.866028	146.580000
544.959717	146.660000
545.053284	146.480000
545.146973	146.920000
545.240540	146.820000
545.334229	147.460000
545.427795	147.740000
545.521423	148.080000
545.615051	147.960000
545.708679	148.360000
545.802307	148.100000
545.895935	148.080000
545.989624	149.000000
546.083191	148.960000
546.176880	148.820000
546.270447	148.740000
546.364136	148.660000
546.457703	147.780000
546.551331	147.620000
546.644958	147.700000
546.738586	147.740000
546.832214	147.380000
546.925842	146.980000
547.019409	147.120000
547.113098	146.320000
547.206665	145.720000
547.300354	145.780000
547.393921	146.100000
547.487549	146.120000
547.581177	146.300000
547.674805	146.540000
547.768433	145.640000
547.862061	145.700000
547.955627	145.100000
548.049316	145.620000
548.142883	145.680000
548.236572	146.600000
548.330139	146.500000
548.423767	146.920000
548.517456	146.460000
548.611023	146.640000
548.704651	145.960000
548.798279	146.080000
548.891907	146.460000
548.985474	146.460000
549.079163	146.320000
549.172729	146.520000
549.266357	146.040000
549.359985	145.700000
549.453613	145.440000
549.547180	145.400000
549.640869	145.840000
549.734436	145.980000
549.828064	146.340000
549.921631	146.460000
550.015320	146.220000
550.108887	146.600000
550.202515	146.680000
550.296143	146.060000
550.389771	146.080000
550.483337	146.320000
550.576965	145.660000
550.670593	146.000000
550.764221	146.380000
550.857849	146.400000
550.951477	145.760000
551.045105	145.640000
551.138672	145.760000
551.232300	145.380000
551.325928	145.740000
551.419556	146.300000
551.513123	146.140000
551.606750	145.640000
551.700378	146.000000
551.794006	145.940000
551.887573	146.120000
551.981201	146.960000
552.074768	147.180000
552.168457	146.640000
552.262024	147.320000
552.355652	147.040000
552.449219	146.980000
552.542847	146.900000
552.636475	147.180000
552.730103	146.060000
552.823669	145.860000
552.917297	145.320000
553.010864	145.160000
553.104553	145.240000
553.198181	144.920000
553.291748	145.340000
553.385376	145.680000
553.478943	145.720000
553.572571	145.760000
553.666199	146.540000
553.759827	146.400000
553.853394	145.980000
553.947021	146.020000
554.040588	146.280000
554.134216	146.240000
554.227783	146.700000
554.321411	147.120000
554.415039	146.580000
554.508667	146.160000
554.602234	146.320000
554.695862	145.700000
554.789429	145.600000
554.883057	146.280000
554.976624	146.300000
555.070251	146.320000
555.163818	146.440000
555.257507	146.320000
555.351074	146.320000
555.444702	147.360000
555.538330	146.880000
555.631897	147.200000
555.725525	147.320000
555.819092	147.040000
555.912720	146.100000
556.006287	146.580000
556.099915	145.980000
556.193481	146.020000
556.287109	146.120000
556.380676	145.840000
556.474304	145.940000
556.567871	146.720000
556.661499	146.140000
556.755066	146.200000
556.848694	146.560000
556.942261	145.960000
557.035889	145.820000
557.129517	146.360000
557.223145	146.620000
557.316711	146.280000
557.410339	146.740000
557.503906	146.440000
557.597473	146.460000
557.691040	146.460000
557.784668	146.820000
557.878296	146.520000
557.971863	146.980000
558.065491	147.280000
558.159058	146.980000
558.252686	147.480000
558.346252	148.240000
558.439880	147.540000
558.533447	146.980000
558.627075	146.440000
558.720642	145.640000
558.814270	145.220000
558.907837	145.440000
559.001465	145.160000
559.095032	146.100000
559.188660	146.680000
559.282227	146.220000
559.375854	146.680000
559.469360	146.760000
559.562988	146.740000
559.656555	146.660000
559.750183	146.800000
559.843750	146.760000
559.937378	147.180000
560.030945	147.120000
560.124573	0.000000
560.218140	0.000000
560.311707	0.000000
560.405334	0.000000
560.498901	0.000000
560.592529	0.000000
560.686096	0.000000
560.779724	0.000000
560.873291	0.000000
560.966858	0.000000
561.060425	0.000000
561.154053	0.000000
561.247620	0.000000
561.341248	0.000000
561.434814	0.000000
561.528381	0.000000
561.621948	0.000000
561.715576	0.000000
561.809143	0.000000
561.902771	0.000000
561.996277	0.000000
562.089905	0.000000
562.183472	0.000000
562.277100	0.000000
