Model Number: SPM-002-B   
Serial Number: 70087108
Firmware Version: 004.15.4
Exposure Time: 100000.000000us
Data Taken on: 11-12-2020 19:37:36.289
Wavelength	Amplitude
221.570786	0.000000
221.663406	0.000000
221.756027	0.000000
221.848648	0.000000
221.941269	0.000000
222.033905	0.000000
222.126526	0.000000
222.219162	0.000000
222.311798	0.000000
222.404419	0.000000
222.497055	0.000000
222.589676	0.000000
222.682312	0.000000
222.774933	0.000000
222.867569	0.000000
222.960205	0.000000
223.052841	0.000000
223.145462	0.000000
223.238098	0.000000
223.330734	0.000000
223.423386	0.000000
223.516022	0.000000
223.608658	0.000000
223.701309	0.000000
223.793945	0.000000
223.886581	0.000000
223.979218	0.000000
224.071869	0.000000
224.164505	0.000000
224.257156	0.000000
224.349792	0.000000
224.442444	0.000000
224.535095	0.000000
224.627747	0.000000
224.720398	0.000000
224.813034	0.000000
224.905685	0.000000
224.998337	145.440000
225.090988	144.900000
225.183640	144.840000
225.276291	144.660000
225.368942	145.260000
225.461594	145.620000
225.554245	145.940000
225.646912	146.420000
225.739578	146.760000
225.832230	146.900000
225.924896	146.160000
226.017548	146.580000
226.110199	146.680000
226.202866	146.140000
226.295532	145.880000
226.388184	145.640000
226.480850	144.940000
226.573517	144.600000
226.666168	145.020000
226.758835	145.420000
226.851501	146.260000
226.944183	146.280000
227.036850	145.860000
227.129517	145.560000
227.222183	145.300000
227.314850	145.320000
227.407516	145.760000
227.500198	146.860000
227.592865	146.560000
227.685532	146.220000
227.778214	145.620000
227.870880	145.620000
227.963562	145.500000
228.056229	146.220000
228.148926	145.960000
228.241592	146.740000
228.334274	146.120000
228.426956	145.720000
228.519638	145.620000
228.612305	145.480000
228.704987	145.560000
228.797668	146.040000
228.890350	145.740000
228.983032	144.960000
229.075714	145.720000
229.168396	145.220000
229.261108	144.760000
229.353790	144.640000
229.446472	145.360000
229.539169	145.460000
229.631851	145.200000
229.724533	145.480000
229.817230	145.800000
229.909912	146.520000
230.002609	146.300000
230.095306	146.360000
230.187988	146.500000
230.280685	146.560000
230.373383	145.560000
230.466095	145.520000
230.558792	145.700000
230.651474	145.560000
230.744171	145.320000
230.836868	145.220000
230.929581	145.240000
231.022278	145.180000
231.114975	145.080000
231.207672	144.900000
231.300369	145.380000
231.393082	145.620000
231.485779	145.380000
231.578506	145.260000
231.671204	145.600000
231.763916	145.440000
231.856613	144.980000
231.949326	145.580000
232.042023	145.620000
232.134735	145.580000
232.227448	145.340000
232.320160	145.920000
232.412872	145.640000
232.505585	146.500000
232.598297	147.020000
232.691010	147.080000
232.783722	146.560000
232.876450	147.240000
232.969162	146.320000
233.061874	145.500000
233.154587	145.120000
233.247314	145.360000
233.340027	144.420000
233.432739	145.160000
233.525467	145.220000
233.618179	145.700000
233.710907	145.380000
233.803635	145.840000
233.896347	145.320000
233.989090	146.140000
234.081818	145.920000
234.174545	145.980000
234.267258	145.640000
234.359985	145.740000
234.452713	145.300000
234.545441	145.460000
234.638168	145.220000
234.730896	145.580000
234.823639	145.780000
234.916367	145.960000
235.009094	146.040000
235.101822	146.520000
235.194580	146.380000
235.287308	146.280000
235.380051	145.880000
235.472778	145.980000
235.565521	145.940000
235.658249	145.500000
235.750992	145.360000
235.843719	145.100000
235.936462	145.220000
236.029205	144.660000
236.121948	144.940000
236.214691	145.300000
236.307449	145.900000
236.400192	145.440000
236.492935	145.600000
236.585678	145.700000
236.678421	145.500000
236.771164	145.300000
236.863907	145.900000
236.956665	146.240000
237.049408	147.420000
237.142151	146.880000
237.234909	147.660000
237.327652	147.240000
237.420410	146.820000
237.513153	146.080000
237.605927	146.160000
237.698669	145.400000
237.791428	144.760000
237.884186	145.580000
237.976944	145.240000
238.069702	145.960000
238.162445	145.660000
238.255203	146.140000
238.347961	146.320000
238.440720	146.120000
238.533478	145.620000
238.626266	145.640000
238.719025	145.760000
238.811783	145.140000
238.904541	144.980000
238.997314	145.040000
239.090073	144.660000
239.182831	144.720000
239.275604	145.380000
239.368362	145.260000
239.461136	145.480000
239.553909	145.800000
239.646667	145.980000
239.739441	145.500000
239.832214	146.060000
239.925003	145.860000
240.017761	146.760000
240.110535	147.100000
240.203308	146.640000
240.296082	146.620000
240.388855	146.620000
240.481628	146.380000
240.574417	146.300000
240.667191	146.940000
240.759964	146.620000
240.852737	146.620000
240.945526	146.160000
241.038315	146.100000
241.131088	145.940000
241.223877	146.420000
241.316650	145.780000
241.409439	145.980000
241.502228	145.640000
241.595001	145.940000
241.687790	145.640000
241.780579	146.260000
241.873367	146.100000
241.966141	146.040000
242.058929	145.400000
242.151718	145.440000
242.244507	145.620000
242.337311	145.200000
242.430099	145.660000
242.522903	146.240000
242.615692	145.760000
242.708481	145.620000
242.801270	146.260000
242.894073	146.220000
242.986862	146.080000
243.079651	146.520000
243.172455	146.360000
243.265244	146.440000
243.358063	145.840000
243.450867	146.160000
243.543655	146.400000
243.636459	146.600000
243.729263	146.900000
243.822067	147.100000
243.914856	147.140000
244.007660	147.120000
244.100464	147.080000
244.193268	146.360000
244.286072	146.200000
244.378876	145.620000
244.471680	145.460000
244.564499	146.000000
244.657318	146.940000
244.750122	147.500000
244.842926	147.020000
244.935745	147.280000
245.028549	146.400000
245.121368	145.960000
245.214172	145.660000
245.306992	146.220000
245.399796	145.880000
245.492615	146.220000
245.585434	145.880000
245.678253	145.920000
245.771072	145.800000
245.863892	146.180000
245.956711	146.480000
246.049530	146.380000
246.142349	145.960000
246.235168	146.240000
246.327988	146.220000
246.420807	145.820000
246.513626	146.220000
246.606445	146.180000
246.699280	145.880000
246.792099	145.960000
246.884918	145.860000
246.977753	145.260000
247.070587	145.820000
247.163422	145.720000
247.256241	145.480000
247.349075	145.840000
247.441895	146.100000
247.534729	145.740000
247.627563	145.720000
247.720383	146.020000
247.813217	145.700000
247.906052	145.520000
247.998886	145.660000
248.091736	145.700000
248.184570	145.240000
248.277405	145.420000
248.370239	146.300000
248.463074	147.200000
248.555908	147.520000
248.648743	147.520000
248.741592	147.720000
248.834427	147.100000
248.927261	145.760000
249.020111	146.200000
249.112946	146.780000
249.205795	146.400000
249.298630	146.560000
249.391495	147.020000
249.484344	146.480000
249.577179	146.280000
249.670029	146.500000
249.762878	147.020000
249.855728	146.920000
249.948563	146.740000
250.041412	146.180000
250.134262	146.300000
250.227112	145.940000
250.319962	146.000000
250.412827	146.340000
250.505692	146.140000
250.598541	145.880000
250.691391	145.740000
250.784241	145.580000
250.877106	145.440000
250.969955	145.440000
251.062805	145.900000
251.155670	146.160000
251.248520	145.980000
251.341385	146.220000
251.434235	146.320000
251.527100	146.040000
251.619965	145.740000
251.712814	146.440000
251.805695	146.220000
251.898560	146.520000
251.991425	146.800000
252.084290	147.020000
252.177155	146.300000
252.270020	146.320000
252.362885	146.120000
252.455750	145.960000
252.548615	145.680000
252.641479	145.780000
252.734360	145.660000
252.827240	145.780000
252.920105	145.600000
253.012970	145.220000
253.105850	145.220000
253.198715	145.000000
253.291595	144.880000
253.384460	144.620000
253.477341	144.880000
253.570221	144.960000
253.663086	144.940000
253.755966	145.600000
253.848846	145.660000
253.941727	145.960000
254.034592	146.160000
254.127472	145.940000
254.220367	145.700000
254.313248	146.120000
254.406128	145.500000
254.499008	145.800000
254.591904	146.760000
254.684784	147.200000
254.777664	146.800000
254.870544	146.880000
254.963440	146.500000
255.056335	146.240000
255.149216	145.620000
255.242111	146.040000
255.334991	146.400000
255.427887	146.440000
255.520767	146.560000
255.613663	146.660000
255.706558	146.180000
255.799438	145.800000
255.892334	145.640000
255.985229	145.300000
256.078125	145.100000
256.171021	145.080000
256.263916	145.880000
256.356812	146.260000
256.449707	146.060000
256.542603	145.860000
256.635498	146.440000
256.728394	145.980000
256.821289	145.680000
256.914215	145.880000
257.007080	146.120000
257.100006	146.100000
257.192932	146.580000
257.285828	146.940000
257.378723	146.980000
257.471619	147.100000
257.564545	146.440000
257.657440	146.040000
257.750336	146.340000
257.843262	146.120000
257.936157	147.260000
258.029053	147.900000
258.121979	148.120000
258.214874	147.360000
258.307800	147.320000
258.400696	145.800000
258.493622	145.840000
258.586517	145.220000
258.679443	145.720000
258.772339	145.360000
258.865265	145.660000
258.958160	144.860000
259.051086	145.740000
259.144012	145.520000
259.236938	146.620000
259.329834	146.960000
259.422791	147.080000
259.515717	146.120000
259.608612	146.060000
259.701538	145.740000
259.794464	145.260000
259.887390	145.300000
259.980316	145.540000
260.073212	145.180000
260.166138	144.360000
260.259064	144.740000
260.351990	145.560000
260.444916	145.500000
260.537842	146.060000
260.630768	146.920000
260.723694	146.500000
260.816620	145.940000
260.909546	145.940000
261.002472	145.540000
261.095398	145.120000
261.188354	145.280000
261.281281	145.100000
261.374207	145.220000
261.467133	145.740000
261.560089	145.960000
261.653015	145.920000
261.745972	146.660000
261.838867	147.300000
261.931824	147.440000
262.024780	146.820000
262.117706	147.000000
262.210663	146.940000
262.303589	146.040000
262.396515	145.820000
262.489471	146.860000
262.582397	146.940000
262.675354	146.360000
262.768280	146.520000
262.861237	146.580000
262.954163	146.300000
263.047119	146.080000
263.140045	145.600000
263.233002	145.780000
263.325958	145.400000
263.418884	144.800000
263.511841	144.920000
263.604797	145.540000
263.697723	145.440000
263.790680	145.900000
263.883636	146.560000
263.976593	146.560000
264.069550	146.680000
264.162476	146.660000
264.255463	146.480000
264.348419	146.360000
264.441376	146.580000
264.534332	146.280000
264.627289	146.580000
264.720245	146.860000
264.813202	146.220000
264.906158	146.140000
264.999115	146.480000
265.092072	146.160000
265.185028	146.500000
265.277985	146.960000
265.370941	146.640000
265.463898	146.140000
265.556854	145.680000
265.649811	144.460000
265.742798	144.500000
265.835754	144.500000
265.928711	145.220000
266.021667	145.820000
266.114655	146.420000
266.207611	146.720000
266.300568	146.080000
266.393585	145.640000
266.486511	145.840000
266.579498	145.420000
266.672485	144.900000
266.765442	145.260000
266.858429	145.660000
266.951385	145.280000
267.044342	145.440000
267.137329	145.520000
267.230316	145.780000
267.323273	145.000000
267.416260	145.740000
267.509216	145.760000
267.602203	145.820000
267.695160	146.780000
267.788147	147.300000
267.881134	146.520000
267.974091	146.880000
268.067078	146.820000
268.160065	145.920000
268.253052	145.440000
268.346008	145.800000
268.438995	145.320000
268.531982	145.500000
268.624969	145.380000
268.717987	146.040000
268.810944	145.720000
268.903961	146.280000
268.996948	146.040000
269.089905	146.700000
269.182892	146.740000
269.275879	147.300000
269.368866	146.360000
269.461853	146.540000
269.554871	145.880000
269.647858	145.840000
269.740845	145.820000
269.833832	146.640000
269.926819	146.380000
270.019806	146.700000
270.112793	146.080000
270.205811	146.000000
270.298798	145.700000
270.391785	146.220000
270.484772	145.920000
270.577789	146.340000
270.670776	145.780000
270.763763	145.700000
270.856750	145.600000
270.949768	145.340000
271.042786	145.400000
271.135773	145.560000
271.228790	145.700000
271.321808	145.420000
271.414795	145.400000
271.507782	144.900000
271.600800	144.800000
271.693817	145.060000
271.786804	145.360000
271.879822	146.100000
271.972809	146.180000
272.065826	146.880000
272.158844	146.060000
272.251831	146.580000
272.344849	146.360000
272.437866	146.400000
272.530853	145.980000
272.623871	146.400000
272.716888	145.440000
272.809906	145.560000
272.902893	145.380000
272.995911	144.960000
273.088928	145.240000
273.181946	145.340000
273.274963	144.860000
273.367981	145.180000
273.460999	145.720000
273.554047	145.960000
273.647003	146.580000
273.740051	146.540000
273.833069	146.700000
273.926086	146.740000
274.019135	146.380000
274.112152	146.020000
274.205170	146.240000
274.298187	146.160000
274.391205	145.660000
274.484222	145.680000
274.577240	145.680000
274.670258	145.540000
274.763306	145.500000
274.856323	146.080000
274.949341	146.040000
275.042358	146.040000
275.135406	146.060000
275.228424	146.200000
275.321442	145.940000
275.414490	145.460000
275.507507	145.760000
275.600525	146.220000
275.693573	145.780000
275.786591	145.420000
275.879669	145.980000
275.972656	145.560000
276.065735	145.300000
276.158752	145.980000
276.251801	146.780000
276.344818	146.700000
276.437866	146.880000
276.530884	146.540000
276.623932	145.680000
276.716980	145.320000
276.809998	145.340000
276.903046	145.620000
276.996094	146.620000
277.089111	147.220000
277.182159	147.940000
277.275208	147.380000
277.368256	146.620000
277.461304	146.140000
277.554321	145.600000
277.647369	145.120000
277.740417	145.660000
277.833466	145.800000
277.926514	145.500000
278.019562	146.620000
278.112610	146.080000
278.205688	146.260000
278.298706	146.520000
278.391785	146.580000
278.484833	145.540000
278.577881	145.700000
278.670929	145.640000
278.763977	145.720000
278.857025	146.060000
278.950073	146.400000
279.043121	146.180000
279.136169	146.040000
279.229248	145.740000
279.322296	145.360000
279.415344	145.000000
279.508392	144.780000
279.601440	144.640000
279.694519	144.760000
279.787567	144.840000
279.880615	144.900000
279.973694	145.340000
280.066742	145.580000
280.159790	145.840000
280.252869	145.340000
280.345917	145.360000
280.438995	145.000000
280.532074	144.700000
280.625122	145.000000
280.718201	146.100000
280.811279	146.160000
280.904327	146.400000
280.997406	146.580000
281.090454	146.300000
281.183533	145.720000
281.276581	145.760000
281.369659	145.580000
281.462738	145.540000
281.555786	145.540000
281.648865	145.640000
281.741943	145.620000
281.835022	146.440000
281.928070	146.320000
282.021149	146.200000
282.114227	146.020000
282.207306	146.040000
282.300385	145.760000
282.393433	146.220000
282.486511	146.240000
282.579590	146.820000
282.672668	147.000000
282.765747	146.740000
282.858856	146.320000
282.951904	146.340000
283.045013	146.160000
283.138062	146.480000
283.231171	146.480000
283.324249	147.000000
283.417328	147.180000
283.510406	146.720000
283.603485	146.520000
283.696564	146.600000
283.789642	146.380000
283.882751	146.120000
283.975830	146.640000
284.068909	146.200000
284.161987	146.800000
284.255066	146.300000
284.348175	146.320000
284.441254	146.240000
284.534332	146.640000
284.627441	145.860000
284.720520	145.880000
284.813599	145.800000
284.906708	145.540000
284.999786	144.880000
285.092896	144.760000
285.185974	145.700000
285.279053	145.300000
285.372192	145.420000
285.465240	146.320000
285.558380	146.280000
285.651459	145.960000
285.744568	147.000000
285.837677	146.820000
285.930756	146.540000
286.023865	146.740000
286.116943	146.220000
286.210052	145.680000
286.303162	145.440000
286.396240	145.280000
286.489349	145.000000
286.582458	145.040000
286.675568	144.760000
286.768646	144.900000
286.861755	145.160000
286.954865	146.000000
287.047974	145.960000
287.141083	145.980000
287.234161	145.920000
287.327271	145.640000
287.420380	145.640000
287.513519	145.360000
287.606598	145.600000
287.699738	145.780000
287.792816	145.880000
287.885956	145.640000
287.979034	146.020000
288.072174	146.120000
288.165283	146.000000
288.258392	145.840000
288.351501	145.180000
288.444611	145.380000
288.537720	145.600000
288.630859	145.700000
288.723969	146.100000
288.817078	146.740000
288.910187	146.300000
289.003296	145.660000
289.096436	145.240000
289.189545	144.980000
289.282654	144.440000
289.375763	144.960000
289.468903	145.420000
289.562012	145.880000
289.655121	146.160000
289.748260	146.360000
289.841400	146.720000
289.934509	146.580000
290.027649	146.600000
290.120728	146.140000
290.213898	146.380000
290.306976	146.100000
290.400146	146.200000
290.493256	145.740000
290.586395	146.200000
290.679535	146.100000
290.772644	145.640000
290.865784	144.940000
290.958893	145.120000
291.052032	144.660000
291.145172	144.860000
291.238281	144.760000
291.331421	145.080000
291.424561	145.680000
291.517670	145.540000
291.610809	145.520000
291.703949	145.800000
291.797089	146.200000
291.890228	145.560000
291.983337	145.860000
292.076477	145.500000
292.169617	145.420000
292.262756	145.360000
292.355927	145.560000
292.449036	145.100000
292.542206	145.180000
292.635315	145.520000
292.728485	145.560000
292.821625	144.960000
292.914764	146.300000
293.007904	146.540000
293.101044	146.460000
293.194183	146.500000
293.287323	147.100000
293.380463	146.400000
293.473602	146.060000
293.566742	146.200000
293.659882	146.340000
293.753021	146.360000
293.846191	146.180000
293.939331	145.760000
294.032471	145.680000
294.125610	145.320000
294.218781	145.900000
294.311920	146.160000
294.405060	146.700000
294.498230	146.840000
294.591370	147.040000
294.684540	145.920000
294.777679	145.680000
294.870850	146.160000
294.963959	145.620000
295.057159	145.380000
295.150299	146.140000
295.243469	146.080000
295.336609	145.260000
295.429779	145.440000
295.522919	145.600000
295.616089	145.460000
295.709229	145.960000
295.802399	146.180000
295.895569	145.820000
295.988708	145.740000
296.081879	145.960000
296.175018	145.260000
296.268188	145.300000
296.361359	145.900000
296.454529	146.120000
296.547668	145.720000
296.640839	146.200000
296.734009	146.140000
296.827179	146.200000
296.920319	146.300000
297.013519	146.280000
297.106659	146.380000
297.199860	146.320000
297.292999	146.040000
297.386200	145.480000
297.479309	145.280000
297.572510	145.100000
297.665680	144.820000
297.758850	144.940000
297.852020	145.200000
297.945190	145.220000
298.038361	144.780000
298.131531	146.080000
298.224701	145.660000
298.317871	145.300000
298.411072	145.020000
298.504242	145.400000
298.597412	144.480000
298.690582	145.040000
298.783752	145.200000
298.876923	145.960000
298.970093	145.920000
299.063293	146.300000
299.156464	146.400000
299.249634	146.860000
299.342834	146.860000
299.436005	147.420000
299.529205	147.220000
299.622345	147.020000
299.715576	146.160000
299.808716	145.840000
299.901917	145.340000
299.995117	145.520000
300.088287	145.500000
300.181488	145.720000
300.274658	145.440000
300.367828	145.600000
300.461029	145.380000
300.554199	145.540000
300.647400	145.880000
300.740601	146.560000
300.833771	146.400000
300.926971	146.760000
301.020142	146.240000
301.113342	145.800000
301.206512	145.800000
301.299713	145.920000
301.392914	145.660000
301.486084	146.160000
301.579285	146.260000
301.672516	146.620000
301.765686	146.340000
301.858887	146.240000
301.952057	145.840000
302.045288	145.960000
302.138458	145.500000
302.231659	145.320000
302.324860	145.120000
302.418060	145.080000
302.511261	144.840000
302.604462	144.820000
302.697662	144.640000
302.790863	144.440000
302.884064	144.540000
302.977264	144.940000
303.070465	145.120000
303.163666	145.680000
303.256866	146.340000
303.350067	146.180000
303.443268	146.200000
303.536469	146.220000
303.629669	146.040000
303.722870	146.040000
303.816071	145.820000
303.909271	146.060000
304.002472	145.320000
304.095673	145.180000
304.188934	144.460000
304.282104	145.440000
304.375336	145.240000
304.468506	145.340000
304.561768	145.260000
304.654968	145.900000
304.748169	145.240000
304.841370	145.020000
304.934601	145.420000
305.027802	145.160000
305.121002	144.880000
305.214233	144.900000
305.307434	144.920000
305.400665	145.360000
305.493866	145.320000
305.587097	145.580000
305.680298	145.820000
305.773499	146.460000
305.866730	146.000000
305.959930	146.980000
306.053162	147.340000
306.146393	146.820000
306.239594	145.900000
306.332825	145.900000
306.426025	145.920000
306.519287	145.420000
306.612488	145.800000
306.705719	146.020000
306.798920	146.000000
306.892181	145.340000
306.985352	144.860000
307.078613	144.320000
307.171844	144.660000
307.265045	144.260000
307.358276	144.040000
307.451508	144.620000
307.544739	145.320000
307.637970	145.040000
307.731201	145.320000
307.824402	146.040000
307.917633	146.220000
308.010864	146.560000
308.104095	146.860000
308.197327	146.980000
308.290558	146.680000
308.383789	146.220000
308.477020	145.540000
308.570251	144.920000
308.663483	144.620000
308.756714	144.360000
308.849976	144.420000
308.943176	145.240000
309.036438	145.740000
309.129639	145.720000
309.222900	145.920000
309.316101	146.120000
309.409393	145.240000
309.502625	144.660000
309.595856	144.660000
309.689087	144.540000
309.782318	144.480000
309.875580	144.620000
309.968811	144.900000
310.062042	144.880000
310.155273	144.840000
310.248535	145.240000
310.341766	145.060000
310.434998	144.840000
310.528259	144.760000
310.621490	145.120000
310.714722	144.080000
310.807983	144.280000
310.901215	144.400000
310.994476	144.660000
311.087708	144.180000
311.181000	144.800000
311.274200	144.660000
311.367462	144.820000
311.460693	144.460000
311.553986	145.420000
311.647186	145.640000
311.740479	146.240000
311.833710	145.960000
311.926971	146.320000
312.020203	145.260000
312.113464	145.040000
312.206726	144.320000
312.299957	144.940000
312.393219	145.380000
312.486481	145.920000
312.579712	145.940000
312.672974	145.980000
312.766235	145.620000
312.859497	145.120000
312.952759	145.000000
313.045990	145.420000
313.139252	144.980000
313.232513	145.060000
313.325775	145.600000
313.419037	145.340000
313.512299	144.680000
313.605530	145.640000
313.698822	145.780000
313.792053	145.380000
313.885345	145.160000
313.978577	145.220000
314.071869	144.500000
314.165131	144.720000
314.258392	144.960000
314.351654	145.420000
314.444916	145.180000
314.538177	145.840000
314.631439	145.840000
314.724701	145.460000
314.817993	145.300000
314.911255	145.940000
315.004517	145.560000
315.097778	145.440000
315.191040	145.960000
315.284302	146.300000
315.377594	145.460000
315.470856	145.720000
315.564117	145.240000
315.657379	144.880000
315.750671	144.420000
315.843933	145.280000
315.937195	144.800000
316.030518	144.860000
316.123749	144.720000
316.217041	145.580000
316.310303	145.440000
316.403595	145.900000
316.496857	146.060000
316.590149	146.340000
316.683411	145.540000
316.776703	145.420000
316.869965	145.320000
316.963257	145.160000
317.056519	144.420000
317.149811	144.420000
317.243073	144.320000
317.336365	144.360000
317.429626	144.740000
317.522919	145.560000
317.616180	145.760000
317.709473	145.760000
317.802765	145.740000
317.896027	145.480000
317.989319	145.640000
318.082611	145.560000
318.175873	145.400000
318.269165	145.440000
318.362488	145.460000
318.455750	145.120000
318.549042	145.640000
318.642303	146.380000
318.735626	146.060000
318.828888	146.120000
318.922211	145.760000
319.015472	146.000000
319.108765	145.040000
319.202057	145.100000
319.295349	145.160000
319.388641	145.500000
319.481934	145.080000
319.575226	145.180000
319.668518	145.400000
319.761810	145.380000
319.855103	145.640000
319.948395	145.660000
320.041687	145.980000
320.134979	145.940000
320.228271	145.920000
320.321564	145.480000
320.414856	145.320000
320.508148	145.080000
320.601440	144.840000
320.694763	144.720000
320.788025	145.380000
320.881348	145.680000
320.974640	145.960000
321.067963	145.720000
321.161224	146.000000
321.254547	145.280000
321.347839	145.480000
321.441162	145.360000
321.534454	145.420000
321.627747	145.180000
321.721069	145.920000
321.814362	145.580000
321.907654	145.700000
322.000946	145.920000
322.094269	146.460000
322.187561	145.800000
322.280884	146.000000
322.374176	145.820000
322.467468	146.560000
322.560791	146.260000
322.654083	147.000000
322.747406	147.100000
322.840698	147.440000
322.934021	147.380000
323.027344	147.700000
323.120636	147.100000
323.213959	146.700000
323.307251	146.080000
323.400574	145.640000
323.493866	144.760000
323.587219	144.840000
323.680511	145.020000
323.773834	145.160000
323.867157	145.400000
323.960449	146.020000
324.053772	145.520000
324.147095	145.620000
324.240387	146.200000
324.333710	145.880000
324.427032	145.960000
324.520355	146.300000
324.613647	145.640000
324.706970	145.460000
324.800293	145.500000
324.893616	145.480000
324.986938	145.720000
325.080231	145.900000
325.173553	146.120000
325.266876	146.560000
325.360199	146.660000
325.453522	146.180000
325.546875	145.960000
325.640167	145.800000
325.733521	145.500000
325.826813	145.520000
325.920166	145.620000
326.013489	145.760000
326.106812	144.880000
326.200134	144.600000
326.293457	144.220000
326.386780	144.520000
326.480103	144.360000
326.573425	144.660000
326.666748	144.840000
326.760071	144.940000
326.853424	144.920000
326.946747	145.320000
327.040070	146.200000
327.133392	145.880000
327.226715	145.300000
327.320068	144.880000
327.413391	145.340000
327.506714	144.600000
327.600037	144.680000
327.693390	144.980000
327.786713	145.220000
327.880066	144.980000
327.973358	145.320000
328.066742	145.960000
328.160034	146.400000
328.253418	146.920000
328.346710	146.500000
328.440063	145.980000
328.533417	145.240000
328.626740	145.320000
328.720093	144.640000
328.813416	144.880000
328.906769	145.300000
329.000092	145.720000
329.093445	145.640000
329.186768	145.640000
329.280121	146.200000
329.373444	146.600000
329.466797	146.520000
329.560120	146.480000
329.653473	146.560000
329.746796	145.920000
329.840149	145.440000
329.933502	145.480000
330.026825	145.160000
330.120178	145.320000
330.213562	145.440000
330.306854	145.460000
330.400238	145.300000
330.493561	145.220000
330.586945	145.900000
330.680237	145.980000
330.773621	146.160000
330.866974	146.360000
330.960327	146.480000
331.053680	145.760000
331.147003	145.660000
331.240356	145.680000
331.333710	145.680000
331.427063	145.820000
331.520416	145.660000
331.613770	145.760000
331.707123	145.880000
331.800476	145.980000
331.893829	146.520000
331.987152	147.100000
332.080505	146.920000
332.173859	146.520000
332.267212	146.060000
332.360565	145.380000
332.453918	144.740000
332.547333	144.740000
332.640656	145.020000
332.734039	145.420000
332.827362	145.420000
332.920746	145.860000
333.014069	146.380000
333.107452	146.540000
333.200806	146.420000
333.294159	146.800000
333.387543	146.220000
333.480896	145.440000
333.574249	145.260000
333.667603	145.260000
333.760956	145.080000
333.854340	145.580000
333.947693	145.640000
334.041046	145.660000
334.134430	145.780000
334.227783	145.520000
334.321136	145.360000
334.414520	145.480000
334.507874	145.500000
334.601227	145.660000
334.694611	145.680000
334.787964	145.800000
334.881348	145.860000
334.974701	145.720000
335.068085	145.280000
335.161438	145.480000
335.254822	145.080000
335.348175	145.160000
335.441559	145.100000
335.534943	145.700000
335.628296	145.500000
335.721680	145.820000
335.815033	145.980000
335.908417	146.220000
336.001770	146.000000
336.095154	145.820000
336.188538	145.780000
336.281891	145.180000
336.375275	144.680000
336.468658	144.480000
336.562012	144.700000
336.655396	144.720000
336.748779	145.540000
336.842133	145.920000
336.935516	145.900000
337.028900	145.880000
337.122284	146.040000
337.215637	145.780000
337.309021	145.780000
337.402435	145.620000
337.495789	145.780000
337.589203	145.540000
337.682526	145.500000
337.775940	145.500000
337.869324	145.820000
337.962708	145.500000
338.056091	145.820000
338.149475	145.540000
338.242859	145.520000
338.336243	145.460000
338.429626	145.960000
338.523010	145.860000
338.616394	145.740000
338.709778	145.760000
338.803162	145.880000
338.896545	145.440000
338.989929	144.940000
339.083313	145.060000
339.176697	144.740000
339.270081	144.200000
339.363464	144.660000
339.456848	144.840000
339.550232	144.220000
339.643616	144.380000
339.737030	144.780000
339.830383	144.360000
339.923828	144.480000
340.017181	145.120000
340.110596	145.120000
340.203949	144.900000
340.297363	144.600000
340.390778	144.720000
340.484161	144.660000
340.577545	144.640000
340.670959	144.860000
340.764343	145.200000
340.857727	145.300000
340.951111	145.280000
341.044525	145.520000
341.137909	144.800000
341.231293	144.800000
341.324707	144.600000
341.418091	144.880000
341.511505	144.960000
341.604889	145.560000
341.698303	145.600000
341.791687	145.660000
341.885071	145.300000
341.978485	144.980000
342.071899	145.200000
342.165283	145.520000
342.258698	145.920000
342.352081	146.560000
342.445496	147.000000
342.538879	146.700000
342.632324	146.140000
342.725708	145.940000
342.819122	145.180000
342.912506	144.860000
343.005920	145.000000
343.099335	145.900000
343.192719	145.900000
343.286133	146.400000
343.379547	146.460000
343.472931	146.580000
343.566345	146.100000
343.659760	146.400000
343.753143	145.720000
343.846558	145.460000
343.939972	145.400000
344.033386	146.000000
344.126770	145.020000
344.220184	145.580000
344.313599	146.220000
344.407043	146.340000
344.500427	145.580000
344.593872	146.680000
344.687225	146.420000
344.780670	145.620000
344.874054	145.200000
344.967499	145.740000
345.060913	145.340000
345.154327	145.540000
345.247742	145.760000
345.341156	145.980000
345.434570	145.460000
345.527985	145.460000
345.621399	145.480000
345.714813	145.560000
345.808228	145.640000
345.901642	145.140000
345.995056	144.740000
346.088470	144.780000
346.181885	144.940000
346.275299	144.540000
346.368713	144.720000
346.462128	144.480000
346.555573	144.380000
346.648987	144.400000
346.742401	144.580000
346.835815	145.300000
346.929260	145.320000
347.022644	145.220000
347.116119	145.500000
347.209503	145.820000
347.302948	146.340000
347.396362	147.080000
347.489807	147.260000
347.583221	147.300000
347.676636	147.000000
347.770050	145.760000
347.863495	145.220000
347.956909	145.260000
348.050323	144.620000
348.143768	144.600000
348.237183	144.660000
348.330597	145.420000
348.424042	145.540000
348.517456	145.900000
348.610901	146.000000
348.704315	146.020000
348.797760	145.140000
348.891174	144.600000
348.984619	144.260000
349.078033	144.480000
349.171448	145.160000
349.264923	145.220000
349.358337	145.600000
349.451782	145.700000
349.545197	145.180000
349.638641	144.420000
349.732086	144.220000
349.825500	144.720000
349.918945	144.500000
350.012390	145.100000
350.105804	145.840000
350.199249	146.320000
350.292664	146.360000
350.386108	146.380000
350.479553	146.620000
350.572968	146.140000
350.666412	146.240000
350.759857	145.880000
350.853302	146.420000
350.946716	145.880000
351.040161	145.860000
351.133606	145.860000
351.227081	145.420000
351.320465	146.040000
351.413940	146.240000
351.507355	146.540000
351.600830	146.560000
351.694244	146.480000
351.787720	145.800000
351.881104	145.660000
351.974579	145.600000
352.067993	146.200000
352.161469	146.780000
352.254883	146.380000
352.348358	146.260000
352.441803	146.340000
352.535248	145.480000
352.628693	145.540000
352.722137	145.600000
352.815582	145.700000
352.909027	145.440000
353.002472	145.880000
353.095917	145.400000
353.189362	145.840000
353.282806	145.860000
353.376251	145.640000
353.469696	144.860000
353.563141	145.480000
353.656586	145.140000
353.750061	144.640000
353.843475	144.880000
353.936981	145.600000
354.030396	144.980000
354.123871	144.960000
354.217285	146.160000
354.310760	146.380000
354.404175	146.180000
354.497681	146.180000
354.591095	146.680000
354.684570	145.620000
354.777985	145.420000
354.871490	144.780000
354.964935	145.240000
355.058380	145.080000
355.151855	144.920000
355.245300	145.080000
355.338745	145.900000
355.432220	145.580000
355.525665	145.020000
355.619110	145.620000
355.712585	145.300000
355.806030	145.040000
355.899475	144.820000
355.992950	145.380000
356.086426	145.480000
356.179871	145.640000
356.273346	145.700000
356.366791	146.080000
356.460266	146.000000
356.553711	145.540000
356.647186	145.700000
356.740631	145.540000
356.834106	145.160000
356.927551	145.240000
357.021027	145.480000
357.114471	145.160000
357.207947	145.240000
357.301422	145.640000
357.394867	145.340000
357.488342	145.520000
357.581818	145.780000
357.675262	146.040000
357.768738	145.740000
357.862213	145.440000
357.955658	145.340000
358.049133	144.740000
358.142609	144.800000
358.236053	144.680000
358.329529	145.080000
358.423035	145.120000
358.516449	145.300000
358.609955	145.760000
358.703400	146.540000
358.796906	146.680000
358.890350	146.400000
358.983826	146.940000
359.077271	146.060000
359.170776	145.740000
359.264221	145.180000
359.357727	145.360000
359.451172	145.480000
359.544647	145.420000
359.638123	145.020000
359.731598	145.780000
359.825073	146.100000
359.918549	145.860000
360.012024	146.360000
360.105499	146.040000
360.198975	145.460000
360.292450	145.100000
360.385925	145.180000
360.479401	144.580000
360.572876	145.040000
360.666351	145.240000
360.759857	145.300000
360.853302	145.260000
360.946808	144.900000
361.040253	145.000000
361.133759	144.780000
361.227203	145.100000
361.320709	144.620000
361.414154	145.520000
361.507660	145.620000
361.601105	146.200000
361.694641	146.540000
361.788086	146.920000
361.881592	146.820000
361.975067	146.340000
362.068542	146.580000
362.162018	146.240000
362.255524	145.680000
362.348999	145.560000
362.442474	145.940000
362.535950	145.240000
362.629456	145.080000
362.722931	145.520000
362.816406	146.080000
362.909882	146.360000
363.003387	146.240000
363.096863	146.360000
363.190338	146.080000
363.283875	145.440000
363.377319	145.240000
363.470825	145.720000
363.564301	144.980000
363.657806	145.540000
363.751282	145.280000
363.844788	145.860000
363.938232	145.340000
364.031769	146.360000
364.125214	146.480000
364.218750	147.400000
364.312225	146.380000
364.405731	146.600000
364.499207	146.080000
364.592712	145.460000
364.686188	145.080000
364.779694	145.540000
364.873169	145.460000
364.966675	145.360000
365.060150	145.400000
365.153656	145.600000
365.247131	145.380000
365.340637	146.020000
365.434143	146.460000
365.527618	146.760000
365.621155	145.880000
365.714600	145.980000
365.808136	145.600000
365.901611	144.500000
365.995117	144.160000
366.088593	144.620000
366.182129	144.420000
366.275604	144.380000
366.369110	144.780000
366.462585	144.920000
366.556122	145.660000
366.649567	146.100000
366.743103	146.320000
366.836609	146.240000
366.930115	146.280000
367.023590	145.800000
367.117096	145.460000
367.210602	145.160000
367.304108	146.220000
367.397614	146.660000
367.491119	146.720000
367.584595	146.880000
367.678101	147.220000
367.771606	146.280000
367.865112	145.900000
367.958649	145.060000
368.052124	144.500000
368.145660	144.240000
368.239136	144.940000
368.332672	145.320000
368.426147	145.920000
368.519684	145.940000
368.613159	146.120000
368.706696	145.620000
368.800171	145.100000
368.893707	144.880000
368.987183	145.340000
369.080719	145.300000
369.174225	145.100000
369.267731	145.620000
369.361237	145.480000
369.454742	145.180000
369.548248	145.280000
369.641754	145.160000
369.735260	144.680000
369.828766	144.280000
369.922272	145.280000
370.015808	144.900000
370.109314	144.780000
370.202820	144.660000
370.296356	145.780000
370.389832	145.060000
370.483368	144.720000
370.576874	145.020000
370.670410	145.360000
370.763885	144.320000
370.857422	144.220000
370.950928	144.300000
371.044464	144.840000
371.137939	144.780000
371.231476	145.440000
371.324982	146.060000
371.418518	146.320000
371.512024	146.060000
371.605560	146.040000
371.699066	146.340000
371.792572	145.620000
371.886108	146.060000
371.979614	145.980000
372.073120	146.360000
372.166656	145.760000
372.260162	146.100000
372.353668	145.860000
372.447205	145.740000
372.540710	145.540000
372.634277	145.660000
372.727753	145.800000
372.821320	145.820000
372.914795	146.040000
373.008362	145.840000
373.101837	145.780000
373.195404	145.440000
373.288879	145.420000
373.382446	145.920000
373.475922	146.080000
373.569489	147.060000
373.662964	147.300000
373.756531	147.320000
373.850037	147.120000
373.943573	146.900000
374.037109	145.520000
374.130615	145.820000
374.224152	145.680000
374.317657	145.240000
374.411194	146.020000
374.504730	146.360000
374.598236	145.960000
374.691772	145.880000
374.785309	145.940000
374.878815	144.760000
374.972351	145.180000
375.065887	145.060000
375.159454	145.660000
375.252930	145.520000
375.346497	146.320000
375.440002	146.720000
375.533569	146.600000
375.627045	146.020000
375.720612	146.180000
375.814117	146.220000
375.907684	145.540000
376.001160	145.520000
376.094727	145.220000
376.188232	145.820000
376.281799	145.980000
376.375336	146.120000
376.468872	146.820000
376.562408	147.320000
376.655914	146.620000
376.749451	146.060000
376.842987	146.480000
376.936523	145.900000
377.030060	145.660000
377.123596	145.900000
377.217133	145.360000
377.310669	145.060000
377.404205	145.740000
377.497772	146.180000
377.591278	145.780000
377.684845	146.840000
377.778351	146.820000
377.871918	146.300000
377.965424	145.700000
378.058990	145.780000
378.152496	145.500000
378.246063	145.840000
378.339569	146.040000
378.433136	145.880000
378.526642	146.140000
378.620209	145.980000
378.713745	145.080000
378.807312	145.340000
378.900848	145.660000
378.994385	145.720000
379.087921	145.140000
379.181458	145.780000
379.274994	145.100000
379.368530	145.200000
379.462097	145.260000
379.555634	145.820000
379.649170	145.360000
379.742706	145.220000
379.836273	145.140000
379.929810	144.900000
380.023376	144.500000
380.116882	144.800000
380.210449	144.940000
380.303986	144.560000
380.397552	144.220000
380.491058	144.940000
380.584656	144.660000
380.678162	145.480000
380.771729	145.780000
380.865265	146.520000
380.958832	146.320000
381.052368	146.340000
381.145935	146.180000
381.239471	146.580000
381.333008	146.500000
381.426575	146.400000
381.520111	146.840000
381.613647	147.120000
381.707214	146.680000
381.800751	145.920000
381.894318	146.100000
381.987854	145.820000
382.081421	145.080000
382.174988	145.380000
382.268524	145.580000
382.362091	145.400000
382.455627	145.960000
382.549194	145.800000
382.642731	145.060000
382.736298	145.020000
382.829834	144.960000
382.923401	145.080000
383.016937	145.380000
383.110504	146.100000
383.204041	146.240000
383.297607	146.260000
383.391174	145.380000
383.484741	146.120000
383.578278	145.720000
383.671844	145.600000
383.765411	145.120000
383.858948	145.700000
383.952515	145.000000
384.046051	145.360000
384.139618	145.740000
384.233185	146.180000
384.326721	146.120000
384.420288	146.680000
384.513855	146.720000
384.607422	146.920000
384.700989	147.240000
384.794525	146.800000
384.888123	146.520000
384.981659	146.540000
385.075226	146.060000
385.168762	145.880000
385.262360	145.820000
385.355896	145.020000
385.449463	144.760000
385.542999	144.920000
385.636597	145.160000
385.730164	145.660000
385.823730	145.660000
385.917267	145.560000
386.010834	145.360000
386.104401	145.220000
386.197968	145.180000
386.291534	145.660000
386.385101	145.760000
386.478668	146.240000
386.572235	146.140000
386.665802	146.000000
386.759338	145.800000
386.852905	145.580000
386.946472	144.960000
387.040070	145.060000
387.133606	145.020000
387.227203	145.000000
387.320740	145.480000
387.414337	145.620000
387.507874	145.780000
387.601471	145.760000
387.695007	145.620000
387.788605	145.120000
387.882141	145.440000
387.975739	145.320000
388.069275	145.100000
388.162872	145.640000
388.256439	145.760000
388.350037	145.480000
388.443604	145.340000
388.537170	145.540000
388.630737	146.000000
388.724304	146.100000
388.817871	146.000000
388.911438	146.200000
389.005005	146.800000
389.098602	146.520000
389.192169	146.220000
389.285736	146.580000
389.379333	146.380000
389.472870	145.540000
389.566467	145.220000
389.660034	145.660000
389.753632	145.400000
389.847168	145.920000
389.940765	146.380000
390.034332	146.560000
390.127930	146.120000
390.221466	146.100000
390.315063	145.340000
390.408630	144.760000
390.502228	143.880000
390.595795	144.360000
390.689362	144.340000
390.782959	144.940000
390.876526	145.060000
390.970093	145.520000
391.063690	145.880000
391.157257	146.120000
391.250824	146.040000
391.344421	146.280000
391.437988	146.560000
391.531555	146.280000
391.625153	146.400000
391.718750	146.540000
391.812317	146.220000
391.905914	146.000000
391.999481	146.040000
392.093079	145.820000
392.186615	145.820000
392.280243	145.840000
392.373779	145.920000
392.467407	146.280000
392.560944	146.260000
392.654572	145.580000
392.748108	145.740000
392.841736	145.660000
392.935303	145.020000
393.028900	144.860000
393.122467	145.160000
393.216064	144.920000
393.309631	144.500000
393.403229	144.460000
393.496796	144.360000
393.590393	143.900000
393.683990	144.260000
393.777557	144.760000
393.871155	144.720000
393.964722	145.440000
394.058350	145.540000
394.151917	145.560000
394.245514	145.440000
394.339081	146.020000
394.432678	145.860000
394.526245	146.100000
394.619873	145.560000
394.713409	145.720000
394.807037	145.160000
394.900604	145.180000
394.994202	145.520000
395.087769	146.180000
395.181396	145.760000
395.274994	146.600000
395.368561	145.940000
395.462158	145.960000
395.555756	145.560000
395.649353	146.060000
395.742920	145.160000
395.836517	145.820000
395.930115	145.040000
396.023712	145.540000
396.117279	145.740000
396.210876	145.480000
396.304474	145.360000
396.398071	145.800000
396.491669	145.700000
396.585266	145.260000
396.678833	145.440000
396.772461	145.780000
396.866028	145.840000
396.959656	146.300000
397.053223	146.880000
397.146851	147.320000
397.240417	147.760000
397.334015	149.560000
397.427582	150.300000
397.521210	152.420000
397.614807	155.640000
397.708405	159.120000
397.802002	162.740000
397.895599	168.820000
397.989197	174.920000
398.082794	182.260000
398.176392	192.200000
398.269989	203.900000
398.363586	217.880000
398.457184	235.120000
398.550781	254.920000
398.644379	276.260000
398.737976	300.360000
398.831573	324.760000
398.925201	349.500000
399.018768	375.500000
399.112396	400.380000
399.205963	423.240000
399.299591	445.560000
399.393158	466.900000
399.486786	486.340000
399.580353	504.800000
399.673981	521.680000
399.767578	536.960000
399.861206	551.100000
399.954773	561.240000
400.048401	565.240000
400.141998	564.960000
400.235596	559.220000
400.329193	546.380000
400.422791	529.580000
400.516418	511.620000
400.610016	492.500000
400.703613	472.260000
400.797211	449.160000
400.890808	424.880000
400.984436	399.920000
401.078033	372.580000
401.171631	345.380000
401.265259	320.700000
401.358826	297.960000
401.452484	275.840000
401.546051	256.980000
401.639679	238.060000
401.733246	221.800000
401.826904	206.300000
401.920471	193.380000
402.014099	182.220000
402.107697	174.260000
402.201324	167.360000
402.294891	162.500000
402.388550	158.520000
402.482147	155.720000
402.575745	152.940000
402.669373	150.780000
402.762970	149.140000
402.856567	148.280000
402.950195	147.400000
403.043793	146.960000
403.137390	147.140000
403.231018	146.460000
403.324615	146.960000
403.418243	146.320000
403.511841	146.660000
403.605469	146.460000
403.699066	146.900000
403.792694	146.640000
403.886292	146.940000
403.979919	146.600000
404.073517	146.100000
404.167145	146.280000
404.260712	145.900000
404.354370	145.660000
404.447937	145.700000
404.541595	146.100000
404.635162	146.120000
404.728821	146.540000
404.822418	146.160000
404.916046	146.020000
405.009644	146.000000
405.103271	146.260000
405.196899	145.740000
405.290497	145.700000
405.384125	146.100000
405.477722	145.580000
405.571350	144.900000
405.664948	145.280000
405.758575	145.500000
405.852203	145.020000
405.945801	145.460000
406.039429	145.840000
406.133057	145.460000
406.226654	145.580000
406.320312	145.640000
406.413879	145.700000
406.507538	145.940000
406.601135	145.620000
406.694763	146.060000
406.788361	145.780000
406.882019	145.480000
406.975586	145.460000
407.069244	146.240000
407.162872	146.140000
407.256470	146.260000
407.350098	146.160000
407.443726	145.980000
407.537323	145.640000
407.630951	145.400000
407.724579	145.100000
407.818207	145.700000
407.911804	145.360000
408.005432	145.260000
408.099060	145.720000
408.192688	146.140000
408.286285	145.780000
408.379913	145.620000
408.473572	145.800000
408.567169	144.980000
408.660828	145.140000
408.754395	145.040000
408.848053	145.240000
408.941650	145.040000
409.035309	144.780000
409.128906	144.760000
409.222565	144.780000
409.316132	144.980000
409.409790	144.820000
409.503387	145.220000
409.597046	145.240000
409.690674	145.440000
409.784302	145.540000
409.877930	145.400000
409.971558	145.700000
410.065186	145.780000
410.158783	145.400000
410.252411	145.380000
410.346039	145.840000
410.439667	145.380000
410.533295	145.500000
410.626923	146.080000
410.720551	145.600000
410.814209	146.180000
410.907806	146.640000
411.001465	145.880000
411.095062	145.620000
411.188721	146.000000
411.282318	145.420000
411.375977	145.200000
411.469574	145.800000
411.563232	145.520000
411.656830	145.280000
411.750488	144.900000
411.844086	144.800000
411.937744	144.820000
412.031372	144.780000
412.125000	144.840000
412.218628	145.020000
412.312256	145.700000
412.405884	145.740000
412.499512	146.020000
412.593170	146.300000
412.686798	146.520000
412.780426	145.800000
412.874054	145.840000
412.967682	145.900000
413.061310	146.400000
413.154968	146.400000
413.248566	146.600000
413.342224	146.360000
413.435852	146.540000
413.529510	145.840000
413.623108	145.400000
413.716766	145.420000
413.810364	145.800000
413.904022	145.340000
413.997650	145.100000
414.091309	145.940000
414.184906	145.760000
414.278564	145.420000
414.372192	145.900000
414.465851	146.420000
414.559479	145.740000
414.653107	146.500000
414.746735	146.500000
414.840393	146.200000
414.934021	146.360000
415.027649	146.380000
415.121277	146.000000
415.214935	146.180000
415.308563	146.440000
415.402191	145.560000
415.495850	145.460000
415.589478	145.020000
415.683136	144.580000
415.776733	144.520000
415.870422	145.200000
415.964020	144.980000
416.057678	145.360000
416.151306	145.840000
416.244965	145.620000
416.338562	145.360000
416.432251	145.980000
416.525848	146.360000
416.619507	146.300000
416.713165	146.460000
416.806793	146.320000
416.900421	146.280000
416.994080	145.540000
417.087708	145.400000
417.181366	145.240000
417.274994	145.480000
417.368622	145.620000
417.462280	146.340000
417.555908	146.200000
417.649567	146.220000
417.743195	146.100000
417.836853	146.300000
417.930481	145.860000
418.024170	146.100000
418.117767	146.700000
418.211426	147.280000
418.305054	147.080000
418.398712	147.140000
418.492340	147.380000
418.585999	147.140000
418.679626	147.120000
418.773285	147.020000
418.866913	147.020000
418.960571	147.040000
419.054230	147.000000
419.147858	146.700000
419.241516	147.020000
419.335144	147.020000
419.428802	146.840000
419.522461	146.820000
419.616089	146.420000
419.709747	146.220000
419.803375	146.460000
419.897034	146.180000
419.990662	145.900000
420.084320	146.320000
420.177979	146.580000
420.271606	146.480000
420.365295	146.940000
420.458893	147.020000
420.552582	147.320000
420.646210	147.220000
420.739868	147.060000
420.833496	146.500000
420.927155	146.500000
421.020782	145.920000
421.114471	145.160000
421.208069	145.160000
421.301758	145.440000
421.395386	145.400000
421.489044	145.180000
421.582703	145.480000
421.676361	145.860000
421.769989	145.440000
421.863647	145.720000
421.957306	146.100000
422.050934	146.380000
422.144592	146.080000
422.238251	146.140000
422.331909	145.680000
422.425537	145.420000
422.519196	145.460000
422.612854	145.500000
422.706543	145.300000
422.800140	145.760000
422.893829	145.740000
422.987457	145.140000
423.081146	144.920000
423.174744	145.640000
423.268433	145.180000
423.362061	145.140000
423.455750	145.400000
423.549347	145.580000
423.643036	144.780000
423.736664	145.320000
423.830353	145.520000
423.924011	145.860000
424.017639	145.480000
424.111298	145.580000
424.204956	145.180000
424.298615	145.320000
424.392273	144.900000
424.485931	145.060000
424.579559	145.260000
424.673218	145.000000
424.766876	144.760000
424.860535	144.480000
424.954193	144.260000
425.047882	144.640000
425.141510	145.020000
425.235199	145.140000
425.328796	145.100000
425.422485	145.260000
425.516113	144.780000
425.609802	144.740000
425.703430	144.880000
425.797119	145.100000
425.890747	144.900000
425.984436	145.320000
426.078064	145.080000
426.171753	145.120000
426.265411	144.880000
426.359070	145.460000
426.452728	145.080000
426.546356	145.120000
426.640015	144.680000
426.733673	144.960000
426.827332	144.440000
426.920990	145.060000
427.014648	144.680000
427.108307	145.240000
427.201965	146.160000
427.295624	146.560000
427.389282	145.880000
427.482941	146.340000
427.576630	146.040000
427.670258	144.880000
427.763947	144.740000
427.857574	144.900000
427.951263	144.980000
428.044922	144.720000
428.138611	144.900000
428.232239	145.380000
428.325928	145.820000
428.419556	146.520000
428.513245	146.480000
428.606903	146.800000
428.700562	146.020000
428.794220	145.460000
428.887878	144.660000
428.981537	144.680000
429.075195	144.360000
429.168854	144.620000
429.262512	144.820000
429.356201	144.920000
429.449860	145.040000
429.543518	145.340000
429.637177	145.760000
429.730835	145.640000
429.824493	145.540000
429.918182	145.940000
430.011810	145.180000
430.105530	144.480000
430.199158	144.760000
430.292847	144.680000
430.386475	144.260000
430.480164	144.460000
430.573792	144.380000
430.667511	143.960000
430.761139	144.160000
430.854828	144.580000
430.948456	144.980000
431.042145	145.680000
431.135834	145.800000
431.229492	145.740000
431.323151	145.540000
431.416809	145.620000
431.510468	145.240000
431.604156	145.040000
431.697815	145.000000
431.791473	144.480000
431.885132	143.960000
431.978821	144.180000
432.072479	144.700000
432.166138	145.280000
432.259827	145.440000
432.353485	146.000000
432.447174	146.220000
432.540802	146.040000
432.634491	145.840000
432.728149	146.480000
432.821838	146.840000
432.915466	146.340000
433.009186	146.480000
433.102814	145.600000
433.196503	144.960000
433.290131	144.900000
433.383850	145.320000
433.477509	145.260000
433.571167	146.500000
433.664856	147.220000
433.758514	147.340000
433.852173	147.000000
433.945862	146.560000
434.039520	145.980000
434.133179	145.260000
434.226868	144.740000
434.320526	144.160000
434.414185	145.080000
434.507874	144.720000
434.601562	145.140000
434.695221	144.900000
434.788910	145.680000
434.882538	145.400000
434.976257	145.500000
435.069885	145.460000
435.163574	145.680000
435.257233	145.280000
435.350922	145.040000
435.444580	144.740000
435.538269	144.400000
435.631897	144.860000
435.725616	145.400000
435.819275	145.720000
435.912964	146.440000
436.006622	147.000000
436.100311	146.480000
436.193970	145.620000
436.287628	145.100000
436.381317	144.360000
436.474976	143.740000
436.568665	143.420000
436.662323	143.740000
436.756012	143.960000
436.849670	144.060000
436.943390	144.180000
437.037018	144.220000
437.130737	144.280000
437.224365	144.240000
437.318085	144.560000
437.411713	144.500000
437.505432	145.120000
437.599060	145.860000
437.692780	146.320000
437.786407	146.240000
437.880127	146.140000
437.973755	145.780000
438.067474	144.840000
438.161133	144.640000
438.254822	145.380000
438.348480	145.620000
438.442169	146.160000
438.535828	146.920000
438.629517	146.200000
438.723175	145.340000
438.816864	145.760000
438.910553	145.360000
439.004211	144.840000
439.097900	145.040000
439.191559	145.240000
439.285248	144.740000
439.378906	144.900000
439.472626	144.720000
439.566284	144.900000
439.659973	145.340000
439.753632	145.340000
439.847321	145.720000
439.940979	145.960000
440.034698	146.120000
440.128326	145.460000
440.222046	145.540000
440.315674	144.660000
440.409393	144.860000
440.503082	144.640000
440.596741	145.000000
440.690430	145.040000
440.784088	144.780000
440.877777	144.080000
440.971466	144.040000
441.065125	143.640000
441.158813	143.560000
441.252502	144.000000
441.346161	144.480000
441.439850	145.120000
441.533539	145.280000
441.627197	145.520000
441.720886	145.600000
441.814606	146.080000
441.908234	146.080000
442.001953	145.920000
442.095612	145.920000
442.189301	145.960000
442.282959	145.520000
442.376678	144.520000
442.470306	145.140000
442.564026	144.780000
442.657684	144.980000
442.751404	145.100000
442.845032	146.220000
442.938751	145.440000
443.032440	145.920000
443.126099	145.520000
443.219788	146.100000
443.313477	145.760000
443.407166	146.500000
443.500824	146.280000
443.594513	146.760000
443.688202	146.360000
443.781891	145.780000
443.875549	145.040000
443.969238	145.100000
444.062927	144.520000
444.156647	144.240000
444.250275	144.900000
444.343994	145.420000
444.437653	145.400000
444.531372	145.520000
444.625031	145.380000
444.718719	144.720000
444.812378	144.600000
444.906097	144.180000
444.999756	143.820000
445.093445	144.180000
445.187103	144.300000
445.280823	144.740000
445.374512	144.520000
445.468201	144.900000
445.561859	144.180000
445.655548	144.460000
445.749237	143.680000
445.842926	144.180000
445.936615	144.840000
446.030304	145.460000
446.123962	145.760000
446.217651	145.900000
446.311340	145.900000
446.405029	145.180000
446.498749	144.540000
446.592407	144.120000
446.686096	144.520000
446.779755	144.600000
446.873474	144.920000
446.967133	145.420000
447.060852	145.440000
447.154510	145.160000
447.248230	144.820000
447.341858	144.800000
447.435577	144.500000
447.529236	144.300000
447.622955	144.160000
447.716644	144.640000
447.810333	144.720000
447.904022	145.340000
447.997711	145.360000
448.091400	145.640000
448.185059	145.480000
448.278748	145.680000
448.372437	145.260000
448.466125	145.980000
448.559814	146.180000
448.653503	146.560000
448.747192	146.580000
448.840912	147.000000
448.934570	146.420000
449.028290	146.640000
449.121948	146.200000
449.215637	145.800000
449.309296	145.380000
449.403015	145.620000
449.496674	145.320000
449.590393	145.540000
449.684052	145.400000
449.777771	146.100000
449.871429	145.420000
449.965149	145.360000
450.058838	145.560000
450.152527	146.360000
450.246216	145.860000
450.339905	146.300000
450.433594	145.980000
450.527283	146.260000
450.620972	145.740000
450.714661	145.860000
450.808350	145.880000
450.902039	146.460000
450.995728	146.100000
451.089417	145.660000
451.183105	145.940000
451.276794	146.560000
451.370514	145.660000
451.464172	144.960000
451.557892	145.260000
451.651550	145.080000
451.745270	144.320000
451.838928	144.280000
451.932648	144.860000
452.026306	145.180000
452.120026	144.680000
452.213684	145.240000
452.307404	145.840000
452.401062	145.680000
452.494781	145.740000
452.588470	146.100000
452.682159	145.200000
452.775848	144.840000
452.869537	144.420000
452.963226	144.100000
453.056915	143.880000
453.150604	144.320000
453.244293	144.760000
453.337982	145.740000
453.431671	145.860000
453.525360	146.440000
453.619049	146.400000
453.712769	146.320000
453.806427	145.680000
453.900146	145.360000
453.993805	144.940000
454.087555	145.480000
454.181213	145.460000
454.274933	145.440000
454.368591	145.540000
454.462311	145.600000
454.555969	145.100000
454.649689	145.800000
454.743347	145.460000
454.837067	146.080000
454.930756	146.360000
455.024445	146.620000
455.118134	145.960000
455.211853	146.320000
455.305542	145.860000
455.399231	145.440000
455.492920	145.120000
455.586609	145.100000
455.680298	145.280000
455.773987	144.920000
455.867676	144.740000
455.961365	145.100000
456.055084	145.080000
456.148773	144.720000
456.242493	144.960000
456.336151	145.140000
456.429871	145.020000
456.523529	145.600000
456.617249	145.420000
456.710907	145.760000
456.804626	145.740000
456.898315	145.240000
456.992035	144.980000
457.085693	145.020000
457.179413	144.440000
457.273102	145.380000
457.366791	145.480000
457.460480	145.580000
457.554199	146.400000
457.647888	146.700000
457.741577	146.080000
457.835266	146.360000
457.928955	146.160000
458.022644	146.000000
458.116364	146.400000
458.210052	146.180000
458.303741	146.560000
458.397461	145.960000
458.491119	145.320000
458.584839	145.180000
458.678528	144.960000
458.772247	144.440000
458.865906	144.920000
458.959625	145.820000
459.053284	145.460000
459.147003	145.540000
459.240692	146.220000
459.334412	146.220000
459.428070	145.760000
459.521790	145.820000
459.615479	145.980000
459.709198	146.080000
459.802887	145.940000
459.896576	145.840000
459.990265	145.960000
460.083954	146.040000
460.177673	145.400000
460.271362	145.560000
460.365051	145.600000
460.458740	145.260000
460.552429	144.700000
460.646149	144.760000
460.739838	144.580000
460.833527	144.720000
460.927246	144.660000
461.020905	144.840000
461.114655	145.080000
461.208313	145.220000
461.302032	144.500000
461.395691	144.960000
461.489441	145.260000
461.583099	144.860000
461.676819	144.700000
461.770477	145.240000
461.864197	144.940000
461.957916	144.880000
462.051605	144.400000
462.145294	145.340000
462.238983	145.020000
462.332703	145.760000
462.426392	146.160000
462.520081	146.600000
462.613770	145.900000
462.707489	146.320000
462.801178	145.740000
462.894867	145.220000
462.988556	145.380000
463.082275	145.580000
463.175964	144.880000
463.269684	145.040000
463.363342	144.940000
463.457092	144.260000
463.550751	144.240000
463.644470	144.960000
463.738129	144.960000
463.831879	145.220000
463.925537	146.540000
464.019257	146.640000
464.112946	146.480000
464.206665	146.440000
464.300323	146.240000
464.394043	145.560000
464.487762	145.300000
464.581451	145.780000
464.675140	145.720000
464.768829	146.040000
464.862549	145.940000
464.956238	145.940000
465.049927	145.480000
465.143646	145.240000
465.237335	145.020000
465.331024	145.720000
465.424713	146.020000
465.518433	146.220000
465.612152	146.440000
465.705811	146.520000
465.799561	146.060000
465.893219	145.640000
465.986938	145.220000
466.080597	144.660000
466.174347	144.860000
466.268005	144.860000
466.361725	144.500000
466.455414	144.940000
466.549133	145.120000
466.642792	145.180000
466.736542	144.780000
466.830231	145.220000
466.923920	144.980000
467.017609	145.040000
467.111328	144.560000
467.205017	144.760000
467.298706	144.540000
467.392426	144.740000
467.486115	144.980000
467.579803	144.880000
467.673523	145.040000
467.767212	145.200000
467.860901	144.960000
467.954651	145.000000
468.048309	145.640000
468.142029	145.320000
468.235718	145.200000
468.329437	144.980000
468.423096	145.160000
468.516846	144.700000
468.610504	144.420000
468.704224	144.320000
468.797913	144.460000
468.891632	144.260000
468.985291	144.520000
469.079010	145.020000
469.172729	144.700000
469.266418	145.080000
469.360107	145.260000
469.453827	144.800000
469.547516	144.620000
469.641205	145.120000
469.734924	145.120000
469.828613	145.360000
469.922302	145.780000
470.016022	145.960000
470.109711	145.640000
470.203430	145.040000
470.297150	144.040000
470.390808	144.400000
470.484558	144.200000
470.578217	145.200000
470.671936	146.280000
470.765625	147.200000
470.859344	146.540000
470.953003	147.100000
471.046753	146.220000
471.140411	145.200000
471.234131	145.300000
471.327820	145.700000
471.421539	145.420000
471.515228	145.320000
471.608948	145.520000
471.702637	144.920000
471.796326	144.620000
471.890045	144.820000
471.983734	145.240000
472.077423	144.800000
472.171143	145.240000
472.264832	145.220000
472.358521	145.120000
472.452240	144.780000
472.545929	145.660000
472.639648	145.560000
472.733337	146.040000
472.827057	145.960000
472.920746	145.900000
473.014465	146.060000
473.108124	145.900000
473.201874	145.680000
473.295532	145.460000
473.389252	146.160000
473.482941	145.780000
473.576660	145.540000
473.670319	145.220000
473.764069	145.660000
473.857727	145.320000
473.951477	145.820000
474.045166	146.440000
474.138855	146.600000
474.232574	146.180000
474.326263	146.540000
474.419952	146.520000
474.513672	146.020000
474.607361	146.000000
474.701050	146.240000
474.794769	146.100000
474.888458	145.920000
474.982178	146.220000
475.075867	146.260000
475.169586	146.420000
475.263275	146.100000
475.356995	145.960000
475.450653	145.580000
475.544403	145.440000
475.638062	145.820000
475.731812	145.520000
475.825470	145.520000
475.919189	145.620000
476.012878	145.740000
476.106598	144.980000
476.200256	145.280000
476.294006	145.140000
476.387695	145.460000
476.481384	145.360000
476.575104	145.620000
476.668793	145.500000
476.762512	145.060000
476.856201	145.560000
476.949890	145.420000
477.043610	144.940000
477.137299	144.980000
477.230988	145.600000
477.324707	144.760000
477.418396	145.380000
477.512146	145.680000
477.605804	145.420000
477.699524	145.500000
477.793213	145.400000
477.886932	144.840000
477.980591	144.620000
478.074341	144.780000
478.167999	144.280000
478.261749	144.540000
478.355408	144.420000
478.449127	144.920000
478.542816	145.860000
478.636536	146.360000
478.730225	146.520000
478.823944	147.220000
478.917633	147.220000
479.011322	147.000000
479.105042	146.820000
479.198730	146.980000
479.292450	146.620000
479.386139	146.440000
479.479828	146.140000
479.573547	146.540000
479.667267	146.280000
479.760925	146.160000
479.854675	146.340000
479.948334	146.580000
480.042084	145.960000
480.135742	146.100000
480.229462	146.040000
480.323151	145.900000
480.416870	145.100000
480.510529	145.540000
480.604279	144.880000
480.697937	145.200000
480.791656	145.000000
480.885345	145.300000
480.979065	145.000000
481.072754	146.020000
481.166473	146.360000
481.260132	146.440000
481.353882	146.440000
481.447540	146.280000
481.541260	145.980000
481.635010	145.360000
481.728668	145.160000
481.822388	145.220000
481.916077	145.240000
482.009796	145.020000
482.103485	145.300000
482.197205	145.400000
482.290863	145.300000
482.384613	144.900000
482.478271	144.680000
482.571991	144.420000
482.665680	144.320000
482.759399	145.300000
482.853058	146.020000
482.946808	146.120000
483.040466	146.280000
483.134216	146.240000
483.227875	145.540000
483.321594	145.680000
483.415283	145.680000
483.509003	145.260000
483.602661	145.340000
483.696411	145.380000
483.790070	145.160000
483.883789	145.100000
483.977478	145.620000
484.071198	145.700000
484.164917	145.280000
484.258606	144.600000
484.352325	144.900000
484.445984	144.940000
484.539734	144.920000
484.633392	144.620000
484.727142	145.260000
484.820801	145.140000
484.914520	144.960000
485.008209	145.160000
485.101929	145.960000
485.195587	145.860000
485.289337	145.920000
485.382996	145.980000
485.476715	145.820000
485.570404	146.000000
485.664124	145.900000
485.757782	146.160000
485.851532	145.780000
485.945190	145.840000
486.038910	145.620000
486.132599	146.400000
486.226318	145.780000
486.319977	145.920000
486.413727	146.540000
486.507446	146.020000
486.601105	145.020000
486.694855	145.040000
486.788513	145.120000
486.882233	144.860000
486.975922	145.240000
487.069641	145.460000
487.163300	145.300000
487.257050	146.120000
487.350708	145.500000
487.444427	145.360000
487.538116	145.480000
487.631836	145.780000
487.725494	145.200000
487.819214	145.500000
487.912903	145.300000
488.006622	145.620000
488.100281	146.120000
488.194031	146.160000
488.287689	146.360000
488.381409	147.120000
488.475098	146.880000
488.568817	146.560000
488.662476	146.240000
488.756226	145.680000
488.849945	144.640000
488.943604	144.800000
489.037354	144.880000
489.131012	144.760000
489.224731	144.820000
489.318390	144.860000
489.412140	144.680000
489.505798	144.580000
489.599518	144.320000
489.693207	144.760000
489.786926	145.000000
489.880585	144.960000
489.974335	145.060000
490.067993	146.620000
490.161713	146.640000
490.255371	147.320000
490.349121	147.680000
490.442780	147.380000
490.536499	146.060000
490.630188	145.800000
490.723907	145.040000
490.817566	144.700000
490.911285	144.780000
491.004974	144.760000
491.098694	144.700000
491.192413	145.600000
491.286102	145.560000
491.379822	145.720000
491.473480	145.940000
491.567200	145.900000
491.660889	145.180000
491.754608	145.180000
491.848267	145.140000
491.941986	145.300000
492.035675	145.560000
492.129395	145.920000
492.223053	145.620000
492.316772	145.740000
492.410461	145.660000
492.504181	145.320000
492.597839	145.040000
492.691559	145.420000
492.785248	145.180000
492.878967	145.320000
492.972626	145.200000
493.066345	145.280000
493.160034	144.920000
493.253754	144.840000
493.347412	144.300000
493.441132	144.600000
493.534882	145.120000
493.628540	145.760000
493.722260	146.260000
493.815918	146.780000
493.909668	147.160000
494.003326	147.040000
494.097046	146.400000
494.190704	146.060000
494.284454	145.960000
494.378113	145.920000
494.471832	145.580000
494.565491	145.780000
494.659210	146.060000
494.752899	146.000000
494.846619	145.680000
494.940277	146.080000
495.033997	145.880000
495.127686	145.560000
495.221405	145.540000
495.315063	145.580000
495.408783	145.300000
495.502441	145.720000
495.596191	145.780000
495.689850	145.660000
495.783569	146.180000
495.877228	146.060000
495.970947	145.740000
496.064697	145.540000
496.158356	146.380000
496.252075	146.280000
496.345734	146.060000
496.439453	147.000000
496.533142	147.540000
496.626862	147.320000
496.720520	147.100000
496.814240	147.480000
496.907898	146.840000
497.001617	146.680000
497.095306	146.040000
497.189026	145.960000
497.282684	146.400000
497.376404	146.580000
497.470062	145.920000
497.563782	145.940000
497.657471	146.020000
497.751190	145.440000
497.844849	145.320000
497.938568	145.940000
498.032227	146.240000
498.125946	146.040000
498.219635	145.880000
498.313354	145.940000
498.407074	145.860000
498.500732	145.960000
498.594452	146.200000
498.688110	145.880000
498.781830	145.300000
498.875519	145.200000
498.969238	144.820000
499.062897	144.780000
499.156616	145.300000
499.250275	145.680000
499.343994	145.260000
499.437653	145.740000
499.531372	145.540000
499.625061	146.160000
499.718781	146.280000
499.812439	146.920000
499.906158	146.680000
499.999817	146.640000
500.093536	145.840000
500.187195	145.920000
500.280914	145.800000
500.374573	145.920000
500.468323	145.800000
500.561981	146.060000
500.655701	145.480000
500.749420	145.500000
500.843079	145.680000
500.936798	145.940000
501.030457	146.380000
501.124176	147.080000
501.217834	146.840000
501.311554	146.600000
501.405212	146.140000
501.498962	145.500000
501.592621	145.100000
501.686340	145.240000
501.779999	145.200000
501.873718	145.860000
501.967377	146.000000
502.061096	146.260000
502.154755	145.780000
502.248474	145.620000
502.342133	145.280000
502.435852	145.140000
502.529510	145.600000
502.623230	146.400000
502.716888	146.220000
502.810608	146.360000
502.904266	147.060000
502.997986	146.420000
503.091705	145.860000
503.185364	146.000000
503.279083	146.140000
503.372772	145.680000
503.466492	145.300000
503.560150	145.480000
503.653870	145.820000
503.747528	145.840000
503.841248	145.840000
503.934906	146.220000
504.028625	145.940000
504.122284	145.940000
504.216003	146.400000
504.309662	145.940000
504.403381	146.060000
504.497040	146.060000
504.590759	145.740000
504.684418	145.660000
504.778137	146.380000
504.871796	146.720000
504.965515	146.620000
505.059174	146.620000
505.152893	145.880000
505.246521	145.180000
505.340240	144.440000
505.433899	144.760000
505.527618	145.080000
505.621338	145.280000
505.714996	145.280000
505.808716	145.640000
505.902374	145.980000
505.996094	146.020000
506.089752	146.040000
506.183472	146.140000
506.277130	146.060000
506.370850	145.980000
506.464508	145.680000
506.558228	145.680000
506.651886	145.660000
506.745605	145.920000
506.839264	145.900000
506.932983	146.180000
507.026611	146.220000
507.120331	146.800000
507.213989	146.440000
507.307709	146.380000
507.401367	146.340000
507.495087	146.880000
507.588745	146.100000
507.682465	146.680000
507.776123	146.500000
507.869843	146.440000
507.963531	146.120000
508.057190	146.940000
508.150909	146.100000
508.244568	146.380000
508.338287	146.060000
508.431946	145.960000
508.525665	145.540000
508.619324	145.740000
508.713013	145.780000
508.806671	146.160000
508.900391	146.860000
508.994049	147.260000
509.087769	147.160000
509.181427	147.040000
509.275146	146.440000
509.368774	145.260000
509.462494	144.740000
509.556152	144.900000
509.649872	145.180000
509.743530	145.680000
509.837250	146.140000
509.930878	145.960000
510.024597	145.760000
510.118256	145.540000
510.211975	145.080000
510.305695	144.900000
510.399353	145.580000
510.493042	146.060000
510.586700	146.280000
510.680420	147.140000
510.774078	146.880000
510.867798	146.800000
510.961426	146.120000
511.055145	145.820000
511.148804	145.380000
511.242523	146.120000
511.336151	146.080000
511.429871	146.860000
511.523529	146.620000
511.617249	146.380000
511.710876	145.900000
511.804596	145.460000
511.898254	145.080000
511.991974	145.460000
512.085632	145.320000
512.179321	145.380000
512.272949	145.840000
512.366699	146.140000
512.460327	145.940000
512.554077	147.060000
512.647766	147.180000
512.741394	146.900000
512.835144	147.380000
512.928772	147.140000
513.022461	146.840000
513.116150	146.360000
513.209839	146.700000
513.303467	145.900000
513.397217	145.840000
513.490845	145.140000
513.584595	145.300000
513.678223	144.860000
513.771912	144.340000
513.865601	144.720000
513.959290	144.520000
514.052917	144.580000
514.146667	145.260000
514.240295	145.940000
514.333984	145.900000
514.427673	146.320000
514.521362	146.860000
514.614990	145.760000
514.708740	145.840000
514.802368	145.880000
514.896057	145.700000
514.989746	146.180000
515.083435	146.820000
515.177124	146.860000
515.270752	146.600000
515.364502	146.620000
515.458130	146.020000
515.551819	145.760000
515.645508	145.280000
515.739197	145.260000
515.832825	145.220000
515.926575	144.940000
516.020203	145.060000
516.113892	145.840000
516.207520	146.100000
516.301270	146.240000
516.394897	146.400000
516.488586	146.740000
516.582275	146.300000
516.675964	145.620000
516.769592	145.660000
516.863281	146.180000
516.956970	146.060000
517.050659	145.840000
517.144287	146.080000
517.238037	146.020000
517.331665	145.100000
517.425354	144.860000
517.519043	144.980000
517.612732	145.340000
517.706421	145.100000
517.800049	145.060000
517.893738	144.820000
517.987427	144.800000
518.081116	144.660000
518.174744	144.580000
518.268433	144.800000
518.362122	145.700000
518.455811	145.680000
518.549438	146.360000
518.643127	147.200000
518.736816	147.240000
518.830505	146.260000
518.924133	146.280000
519.017822	146.240000
519.111511	145.740000
519.205200	146.040000
519.298828	146.280000
519.392517	146.060000
519.486206	146.040000
519.579895	146.200000
519.673523	146.140000
519.767212	146.040000
519.860901	146.660000
519.954590	146.080000
520.048279	145.680000
520.141907	145.280000
520.235596	146.160000
520.329224	146.160000
520.422974	146.540000
520.516602	146.660000
520.610291	146.600000
520.703918	146.320000
520.797607	145.960000
520.891296	145.560000
520.984985	145.940000
521.078613	146.560000
521.172302	145.920000
521.265930	146.620000
521.359680	147.300000
521.453308	146.760000
521.546997	146.680000
521.640625	146.840000
521.734314	145.920000
521.827942	145.440000
521.921692	145.860000
522.015320	145.720000
522.109009	145.660000
522.202698	145.960000
522.296326	145.880000
522.390015	146.220000
522.483704	146.140000
522.577393	146.080000
522.671021	145.820000
522.764709	145.860000
522.858337	145.940000
522.952026	146.140000
523.045654	146.960000
523.139404	147.600000
523.233032	147.600000
523.326721	147.020000
523.420349	146.880000
523.514038	146.220000
523.607666	146.540000
523.701355	146.100000
523.795044	146.160000
523.888733	145.780000
523.982361	145.800000
524.076050	144.900000
524.169678	145.460000
524.263367	145.280000
524.356995	145.280000
524.450684	145.140000
524.544373	145.100000
524.638062	145.220000
524.731750	145.500000
524.825378	145.660000
524.919067	145.600000
525.012695	145.880000
525.106384	145.360000
525.200012	145.200000
525.293701	144.860000
525.387329	145.180000
525.481018	145.360000
525.574646	145.740000
525.668396	145.700000
525.762024	146.580000
525.855713	146.560000
525.949341	145.840000
526.043030	145.940000
526.136658	145.640000
526.230347	144.900000
526.323975	144.840000
526.417664	144.940000
526.511292	145.020000
526.604980	145.440000
526.698608	145.420000
526.792297	145.260000
526.885925	145.740000
526.979614	145.620000
527.073303	145.740000
527.166931	145.860000
527.260620	146.160000
527.354309	146.600000
527.447998	146.520000
527.541626	146.040000
527.635315	145.940000
527.728943	146.480000
527.822632	146.280000
527.916260	146.420000
528.009949	146.860000
528.103577	146.880000
528.197266	145.840000
528.290894	145.800000
528.384583	145.700000
528.478210	145.340000
528.571899	145.760000
528.665527	146.300000
528.759216	146.300000
528.852844	146.600000
528.946533	146.940000
529.040161	146.860000
529.133850	146.660000
529.227478	146.800000
529.321167	146.660000
529.414856	146.920000
529.508484	147.400000
529.602173	147.360000
529.695801	146.980000
529.789490	146.940000
529.883057	146.520000
529.976746	146.180000
530.070374	146.480000
530.164062	146.260000
530.257690	146.420000
530.351379	146.540000
530.445007	146.500000
530.538696	145.840000
530.632324	146.260000
530.726013	145.900000
530.819641	145.920000
530.913330	145.920000
531.006958	146.160000
531.100647	146.020000
531.194275	146.160000
531.287964	145.960000
531.381592	145.720000
531.475220	145.920000
531.568848	146.040000
531.662537	145.880000
531.756226	146.240000
531.849854	146.280000
531.943542	146.340000
532.037170	145.560000
532.130859	145.940000
532.224487	145.760000
532.318176	145.560000
532.411804	145.960000
532.505432	146.820000
532.599060	146.200000
532.692749	145.900000
532.786377	146.380000
532.880066	145.420000
532.973694	144.740000
533.067383	145.140000
533.161011	145.440000
533.254639	145.260000
533.348267	145.540000
533.441956	146.000000
533.535583	145.620000
533.629272	145.580000
533.722900	145.140000
533.816589	144.940000
533.910156	145.080000
534.003845	144.920000
534.097534	145.320000
534.191162	146.120000
534.284851	146.560000
534.378479	146.280000
534.472107	146.840000
534.565735	146.440000
534.659424	146.420000
534.753052	146.540000
534.846741	146.340000
534.940369	146.480000
535.033997	146.540000
535.127625	146.120000
535.221313	146.500000
535.314941	146.580000
535.408630	145.940000
535.502197	146.100000
535.595886	145.940000
535.689514	145.560000
535.783203	146.020000
535.876831	146.700000
535.970459	146.860000
536.064087	146.840000
536.157776	146.880000
536.251404	146.840000
536.345093	146.400000
536.438721	145.980000
536.532349	146.100000
536.626038	145.640000
536.719666	145.960000
536.813293	145.680000
536.906921	146.000000
537.000610	146.560000
537.094238	146.800000
537.187866	146.320000
537.281494	146.320000
537.375183	146.320000
537.468811	145.960000
537.562439	145.900000
537.656067	145.800000
537.749756	145.900000
537.843384	146.040000
537.937012	146.200000
538.030640	146.120000
538.124329	146.140000
538.217896	146.660000
538.311584	146.620000
538.405212	146.440000
538.498901	146.620000
538.592468	147.280000
538.686157	146.740000
538.779785	146.060000
538.873413	145.820000
538.967102	145.820000
539.060730	145.020000
539.154358	145.340000
539.247986	145.820000
539.341675	145.920000
539.435242	146.020000
539.528931	146.600000
539.622559	146.140000
539.716187	146.460000
539.809814	146.700000
539.903503	146.600000
539.997070	146.080000
540.090759	146.500000
540.184387	146.100000
540.278015	146.360000
540.371643	146.380000
540.465332	146.680000
540.558899	146.580000
540.652588	146.540000
540.746216	145.960000
540.839844	146.120000
540.933472	146.180000
541.027100	146.320000
541.120728	146.460000
541.214417	146.660000
541.308044	146.720000
541.401672	146.320000
541.495300	145.800000
541.588928	145.660000
541.682617	145.340000
541.776184	144.960000
541.869873	145.580000
541.963440	145.880000
542.057129	146.060000
542.150757	146.320000
542.244385	146.020000
542.338013	145.120000
542.431641	145.000000
542.525269	144.600000
542.618958	144.940000
542.712524	145.220000
542.806213	145.280000
542.899780	145.520000
542.993469	145.540000
543.087036	144.860000
543.180725	144.560000
543.274292	145.200000
543.367981	145.460000
543.461548	146.200000
543.555237	146.280000
543.648926	146.680000
543.742493	147.020000
543.836182	146.520000
543.929749	146.120000
544.023437	146.460000
544.117004	146.440000
544.210693	146.060000
544.304260	146.260000
544.397949	145.940000
544.491516	146.220000
544.585205	146.260000
544.678772	145.880000
544.772461	146.300000
544.866028	146.040000
544.959717	145.900000
545.053284	145.620000
545.146973	146.000000
545.240540	145.900000
545.334229	146.620000
545.427795	146.920000
545.521423	147.160000
545.615051	147.040000
545.708679	147.320000
545.802307	147.220000
545.895935	147.100000
545.989624	147.920000
546.083191	147.580000
546.176880	147.140000
546.270447	146.800000
546.364136	146.940000
546.457703	146.140000
546.551331	146.540000
546.644958	146.840000
546.738586	147.120000
546.832214	146.620000
546.925842	146.600000
547.019409	146.600000
547.113098	146.380000
547.206665	145.880000
547.300354	146.020000
547.393921	146.300000
547.487549	146.360000
547.581177	145.700000
547.674805	146.360000
547.768433	146.000000
547.862061	146.020000
547.955627	145.400000
548.049316	146.160000
548.142883	146.060000
548.236572	146.560000
548.330139	146.520000
548.423767	146.480000
548.517456	146.360000
548.611023	146.620000
548.704651	145.940000
548.798279	145.800000
548.891907	146.320000
548.985474	146.040000
549.079163	145.720000
549.172729	145.640000
549.266357	145.100000
549.359985	144.880000
549.453613	144.520000
549.547180	144.200000
549.640869	144.960000
549.734436	145.260000
549.828064	145.640000
549.921631	145.780000
550.015320	145.580000
550.108887	145.580000
550.202515	145.540000
550.296143	145.220000
550.389771	145.240000
550.483337	145.460000
550.576965	145.040000
550.670593	145.560000
550.764221	145.420000
550.857849	145.200000
550.951477	144.940000
551.045105	144.920000
551.138672	144.340000
551.232300	144.300000
551.325928	145.160000
551.419556	145.680000
551.513123	145.820000
551.606750	146.060000
551.700378	146.400000
551.794006	146.180000
551.887573	145.740000
551.981201	145.960000
552.074768	145.840000
552.168457	145.400000
552.262024	146.060000
552.355652	146.220000
552.449219	146.520000
552.542847	146.780000
552.636475	146.780000
552.730103	145.720000
552.823669	145.840000
552.917297	145.180000
553.010864	145.140000
553.104553	145.660000
553.198181	145.560000
553.291748	146.020000
553.385376	146.380000
553.478943	146.020000
553.572571	145.960000
553.666199	146.400000
553.759827	145.800000
553.853394	145.480000
553.947021	145.820000
554.040588	145.860000
554.134216	145.940000
554.227783	146.520000
554.321411	146.960000
554.415039	146.600000
554.508667	146.420000
554.602234	146.300000
554.695862	145.780000
554.789429	145.700000
554.883057	145.560000
554.976624	145.520000
555.070251	145.560000
555.163818	145.360000
555.257507	145.380000
555.351074	145.600000
555.444702	146.600000
555.538330	146.500000
555.631897	146.980000
555.725525	146.600000
555.819092	146.540000
555.912720	145.660000
556.006287	145.980000
556.099915	145.600000
556.193481	145.840000
556.287109	145.900000
556.380676	145.740000
556.474304	145.600000
556.567871	145.920000
556.661499	145.520000
556.755066	145.800000
556.848694	145.960000
556.942261	145.720000
557.035889	145.540000
557.129517	145.520000
557.223145	145.660000
557.316711	145.520000
557.410339	145.620000
557.503906	145.600000
557.597473	145.960000
557.691040	145.600000
557.784668	145.580000
557.878296	145.500000
557.971863	145.680000
558.065491	145.500000
558.159058	145.520000
558.252686	146.340000
558.346252	147.240000
558.439880	146.640000
558.533447	146.460000
558.627075	146.200000
558.720642	145.400000
558.814270	144.700000
558.907837	145.260000
559.001465	145.180000
559.095032	145.720000
559.188660	145.780000
559.282227	145.720000
559.375854	145.980000
559.469360	145.920000
559.562988	145.700000
559.656555	145.760000
559.750183	145.620000
559.843750	145.720000
559.937378	146.080000
560.030945	146.240000
560.124573	0.000000
560.218140	0.000000
560.311707	0.000000
560.405334	0.000000
560.498901	0.000000
560.592529	0.000000
560.686096	0.000000
560.779724	0.000000
560.873291	0.000000
560.966858	0.000000
561.060425	0.000000
561.154053	0.000000
561.247620	0.000000
561.341248	0.000000
561.434814	0.000000
561.528381	0.000000
561.621948	0.000000
561.715576	0.000000
561.809143	0.000000
561.902771	0.000000
561.996277	0.000000
562.089905	0.000000
562.183472	0.000000
562.277100	0.000000
