Model Number: SPM-002-B   
Serial Number: 70087108
Firmware Version: 004.15.4
Exposure Time: 100000.000000us
Data Taken on: 11-12-2020 19:37:25.529
Wavelength	Amplitude
221.570786	0.000000
221.663406	0.000000
221.756027	0.000000
221.848648	0.000000
221.941269	0.000000
222.033905	0.000000
222.126526	0.000000
222.219162	0.000000
222.311798	0.000000
222.404419	0.000000
222.497055	0.000000
222.589676	0.000000
222.682312	0.000000
222.774933	0.000000
222.867569	0.000000
222.960205	0.000000
223.052841	0.000000
223.145462	0.000000
223.238098	0.000000
223.330734	0.000000
223.423386	0.000000
223.516022	0.000000
223.608658	0.000000
223.701309	0.000000
223.793945	0.000000
223.886581	0.000000
223.979218	0.000000
224.071869	0.000000
224.164505	0.000000
224.257156	0.000000
224.349792	0.000000
224.442444	0.000000
224.535095	0.000000
224.627747	0.000000
224.720398	0.000000
224.813034	0.000000
224.905685	0.000000
224.998337	146.020000
225.090988	145.580000
225.183640	145.700000
225.276291	145.420000
225.368942	145.740000
225.461594	146.100000
225.554245	146.280000
225.646912	146.420000
225.739578	146.840000
225.832230	146.880000
225.924896	146.060000
226.017548	146.140000
226.110199	146.340000
226.202866	145.680000
226.295532	145.720000
226.388184	146.060000
226.480850	145.580000
226.573517	145.060000
226.666168	145.320000
226.758835	146.020000
226.851501	146.420000
226.944183	146.820000
227.036850	146.520000
227.129517	146.860000
227.222183	146.280000
227.314850	146.160000
227.407516	146.380000
227.500198	147.560000
227.592865	147.060000
227.685532	146.580000
227.778214	146.140000
227.870880	146.560000
227.963562	146.660000
228.056229	146.940000
228.148926	147.320000
228.241592	148.320000
228.334274	147.820000
228.426956	147.140000
228.519638	147.420000
228.612305	147.000000
228.704987	146.640000
228.797668	146.720000
228.890350	146.800000
228.983032	145.860000
229.075714	146.560000
229.168396	146.380000
229.261108	145.800000
229.353790	145.700000
229.446472	146.480000
229.539169	146.140000
229.631851	145.780000
229.724533	146.140000
229.817230	146.160000
229.909912	146.820000
230.002609	146.900000
230.095306	147.120000
230.187988	147.100000
230.280685	146.940000
230.373383	145.720000
230.466095	145.380000
230.558792	145.560000
230.651474	145.580000
230.744171	145.620000
230.836868	145.720000
230.929581	146.040000
231.022278	146.020000
231.114975	146.240000
231.207672	146.200000
231.300369	146.700000
231.393082	146.620000
231.485779	146.400000
231.578506	146.100000
231.671204	146.300000
231.763916	146.080000
231.856613	146.080000
231.949326	146.180000
232.042023	146.340000
232.134735	146.100000
232.227448	145.840000
232.320160	146.040000
232.412872	145.940000
232.505585	146.520000
232.598297	147.000000
232.691010	147.180000
232.783722	146.600000
232.876450	147.300000
232.969162	146.500000
233.061874	145.900000
233.154587	145.600000
233.247314	146.240000
233.340027	145.520000
233.432739	146.400000
233.525467	146.580000
233.618179	147.040000
233.710907	146.520000
233.803635	147.120000
233.896347	146.440000
233.989090	146.820000
234.081818	146.700000
234.174545	147.320000
234.267258	146.660000
234.359985	146.920000
234.452713	147.040000
234.545441	146.920000
234.638168	146.200000
234.730896	146.820000
234.823639	146.760000
234.916367	147.140000
235.009094	147.240000
235.101822	147.740000
235.194580	147.640000
235.287308	147.460000
235.380051	146.720000
235.472778	147.120000
235.565521	147.020000
235.658249	146.500000
235.750992	146.680000
235.843719	146.840000
235.936462	146.680000
236.029205	146.480000
236.121948	146.380000
236.214691	146.780000
236.307449	147.120000
236.400192	146.980000
236.492935	147.000000
236.585678	147.460000
236.678421	147.180000
236.771164	147.140000
236.863907	147.500000
236.956665	147.660000
237.049408	148.900000
237.142151	148.640000
237.234909	148.940000
237.327652	148.820000
237.420410	148.500000
237.513153	147.520000
237.605927	147.480000
237.698669	146.780000
237.791428	146.000000
237.884186	146.480000
237.976944	145.780000
238.069702	145.940000
238.162445	145.660000
238.255203	145.880000
238.347961	146.340000
238.440720	146.540000
238.533478	146.420000
238.626266	146.200000
238.719025	146.700000
238.811783	146.260000
238.904541	146.020000
238.997314	146.040000
239.090073	146.080000
239.182831	146.140000
239.275604	146.880000
239.368362	146.960000
239.461136	146.960000
239.553909	147.120000
239.646667	146.860000
239.739441	146.240000
239.832214	146.600000
239.925003	146.720000
240.017761	147.440000
240.110535	147.660000
240.203308	147.240000
240.296082	147.320000
240.388855	147.220000
240.481628	147.060000
240.574417	147.180000
240.667191	147.280000
240.759964	146.820000
240.852737	146.680000
240.945526	146.180000
241.038315	146.020000
241.131088	146.260000
241.223877	146.640000
241.316650	146.380000
241.409439	146.960000
241.502228	146.520000
241.595001	146.660000
241.687790	146.380000
241.780579	146.880000
241.873367	146.560000
241.966141	146.920000
242.058929	146.560000
242.151718	146.900000
242.244507	147.060000
242.337311	146.480000
242.430099	146.700000
242.522903	146.960000
242.615692	146.440000
242.708481	146.260000
242.801270	147.180000
242.894073	147.180000
242.986862	147.200000
243.079651	148.020000
243.172455	147.760000
243.265244	147.560000
243.358063	146.780000
243.450867	146.860000
243.543655	146.700000
243.636459	146.780000
243.729263	146.980000
243.822067	147.500000
243.914856	147.600000
244.007660	147.560000
244.100464	147.520000
244.193268	147.280000
244.286072	147.160000
244.378876	146.740000
244.471680	146.200000
244.564499	146.580000
244.657318	147.080000
244.750122	147.320000
244.842926	146.860000
244.935745	147.480000
245.028549	146.900000
245.121368	146.260000
245.214172	146.300000
245.306992	146.880000
245.399796	146.500000
245.492615	146.820000
245.585434	146.540000
245.678253	146.240000
245.771072	145.880000
245.863892	146.560000
245.956711	146.800000
246.049530	146.840000
246.142349	146.720000
246.235168	147.220000
246.327988	147.280000
246.420807	147.020000
246.513626	147.360000
246.606445	147.320000
246.699280	147.040000
246.792099	146.700000
246.884918	146.360000
246.977753	146.120000
247.070587	146.200000
247.163422	146.320000
247.256241	145.880000
247.349075	146.420000
247.441895	146.580000
247.534729	146.660000
247.627563	146.540000
247.720383	147.460000
247.813217	147.160000
247.906052	146.680000
247.998886	146.620000
248.091736	146.500000
248.184570	146.040000
248.277405	146.160000
248.370239	147.440000
248.463074	148.260000
248.555908	148.580000
248.648743	148.380000
248.741592	148.540000
248.834427	147.520000
248.927261	146.560000
249.020111	147.040000
249.112946	147.660000
249.205795	147.320000
249.298630	147.780000
249.391495	147.620000
249.484344	146.820000
249.577179	146.420000
249.670029	146.700000
249.762878	147.400000
249.855728	148.040000
249.948563	148.000000
250.041412	147.320000
250.134262	147.580000
250.227112	147.100000
250.319962	147.000000
250.412827	147.320000
250.505692	147.460000
250.598541	147.060000
250.691391	146.580000
250.784241	146.400000
250.877106	146.320000
250.969955	146.100000
251.062805	146.460000
251.155670	147.120000
251.248520	147.040000
251.341385	147.440000
251.434235	147.540000
251.527100	147.240000
251.619965	146.300000
251.712814	146.960000
251.805695	146.780000
251.898560	147.300000
251.991425	147.460000
252.084290	148.000000
252.177155	147.240000
252.270020	147.000000
252.362885	146.760000
252.455750	146.660000
252.548615	146.360000
252.641479	146.420000
252.734360	146.300000
252.827240	146.280000
252.920105	146.460000
253.012970	146.320000
253.105850	146.360000
253.198715	146.380000
253.291595	146.220000
253.384460	145.880000
253.477341	145.940000
253.570221	146.140000
253.663086	145.960000
253.755966	146.800000
253.848846	146.780000
253.941727	147.040000
254.034592	147.040000
254.127472	146.680000
254.220367	146.360000
254.313248	146.760000
254.406128	146.380000
254.499008	146.480000
254.591904	147.560000
254.684784	147.660000
254.777664	147.500000
254.870544	147.320000
254.963440	147.140000
255.056335	146.820000
255.149216	146.580000
255.242111	147.060000
255.334991	147.520000
255.427887	147.740000
255.520767	147.500000
255.613663	147.580000
255.706558	146.540000
255.799438	146.320000
255.892334	145.940000
255.985229	146.200000
256.078125	145.920000
256.171021	146.440000
256.263916	147.060000
256.356812	147.400000
256.449707	147.580000
256.542603	147.360000
256.635498	147.700000
256.728394	147.420000
256.821289	147.000000
256.914215	146.980000
257.007080	147.560000
257.100006	147.380000
257.192932	147.940000
257.285828	148.420000
257.378723	148.120000
257.471619	147.820000
257.564545	147.440000
257.657440	146.980000
257.750336	147.300000
257.843262	147.020000
257.936157	148.060000
258.029053	148.440000
258.121979	148.360000
258.214874	147.960000
258.307800	147.860000
258.400696	146.720000
258.493622	146.440000
258.586517	145.860000
258.679443	146.140000
258.772339	145.900000
258.865265	145.820000
258.958160	145.600000
259.051086	146.680000
259.144012	146.400000
259.236938	147.480000
259.329834	147.720000
259.422791	147.620000
259.515717	146.700000
259.608612	146.520000
259.701538	146.160000
259.794464	145.940000
259.887390	146.380000
259.980316	146.320000
260.073212	146.040000
260.166138	145.280000
260.259064	145.600000
260.351990	145.740000
260.444916	145.660000
260.537842	146.460000
260.630768	147.220000
260.723694	146.960000
260.816620	146.620000
260.909546	146.680000
261.002472	145.880000
261.095398	145.440000
261.188354	145.640000
261.281281	145.160000
261.374207	145.400000
261.467133	146.260000
261.560089	146.400000
261.653015	146.320000
261.745972	147.280000
261.838867	147.540000
261.931824	147.600000
262.024780	147.000000
262.117706	147.120000
262.210663	146.940000
262.303589	146.340000
262.396515	146.160000
262.489471	147.480000
262.582397	147.180000
262.675354	146.840000
262.768280	147.340000
262.861237	146.960000
262.954163	146.480000
263.047119	146.880000
263.140045	146.680000
263.233002	146.600000
263.325958	146.700000
263.418884	145.940000
263.511841	145.500000
263.604797	145.920000
263.697723	146.060000
263.790680	145.820000
263.883636	146.640000
263.976593	146.660000
264.069550	146.360000
264.162476	146.020000
264.255463	146.580000
264.348419	146.260000
264.441376	146.500000
264.534332	146.200000
264.627289	146.300000
264.720245	146.360000
264.813202	146.060000
264.906158	146.460000
264.999115	147.100000
265.092072	147.180000
265.185028	147.360000
265.277985	147.820000
265.370941	147.400000
265.463898	147.120000
265.556854	146.780000
265.649811	145.720000
265.742798	145.640000
265.835754	145.800000
265.928711	146.320000
266.021667	146.740000
266.114655	147.200000
266.207611	147.400000
266.300568	146.640000
266.393585	146.020000
266.486511	146.180000
266.579498	145.620000
266.672485	145.500000
266.765442	145.680000
266.858429	146.260000
266.951385	145.640000
267.044342	146.080000
267.137329	146.100000
267.230316	146.600000
267.323273	146.280000
267.416260	147.120000
267.509216	146.940000
267.602203	146.680000
267.695160	146.860000
267.788147	146.800000
267.881134	145.880000
267.974091	146.260000
268.067078	146.180000
268.160065	145.980000
268.253052	145.860000
268.346008	146.440000
268.438995	146.240000
268.531982	146.660000
268.624969	146.240000
268.717987	146.780000
268.810944	146.400000
268.903961	146.520000
268.996948	146.280000
269.089905	147.080000
269.182892	146.700000
269.275879	147.400000
269.368866	146.880000
269.461853	147.140000
269.554871	146.780000
269.647858	146.920000
269.740845	146.860000
269.833832	147.520000
269.926819	147.160000
270.019806	147.120000
270.112793	147.000000
270.205811	146.900000
270.298798	146.560000
270.391785	147.200000
270.484772	146.800000
270.577789	146.800000
270.670776	146.520000
270.763763	146.680000
270.856750	146.420000
270.949768	146.580000
271.042786	146.780000
271.135773	146.820000
271.228790	146.960000
271.321808	146.460000
271.414795	146.300000
271.507782	145.700000
271.600800	145.480000
271.693817	145.440000
271.786804	145.880000
271.879822	146.080000
271.972809	146.240000
272.065826	146.620000
272.158844	146.180000
272.251831	146.560000
272.344849	146.500000
272.437866	146.220000
272.530853	146.260000
272.623871	146.620000
272.716888	145.880000
272.809906	146.400000
272.902893	146.780000
272.995911	146.300000
273.088928	146.540000
273.181946	146.700000
273.274963	146.200000
273.367981	146.160000
273.460999	146.320000
273.554047	146.260000
273.647003	146.560000
273.740051	146.580000
273.833069	146.900000
273.926086	147.260000
274.019135	146.860000
274.112152	146.660000
274.205170	146.660000
274.298187	146.720000
274.391205	145.980000
274.484222	146.000000
274.577240	146.340000
274.670258	146.440000
274.763306	146.180000
274.856323	146.900000
274.949341	147.160000
275.042358	147.240000
275.135406	147.380000
275.228424	147.260000
275.321442	147.000000
275.414490	146.800000
275.507507	146.960000
275.600525	147.100000
275.693573	147.140000
275.786591	147.120000
275.879669	147.100000
275.972656	146.480000
276.065735	146.480000
276.158752	146.780000
276.251801	147.200000
276.344818	147.380000
276.437866	147.440000
276.530884	146.780000
276.623932	146.180000
276.716980	146.340000
276.809998	146.640000
276.903046	146.660000
276.996094	147.820000
277.089111	148.320000
277.182159	148.760000
277.275208	148.120000
277.368256	148.260000
277.461304	147.480000
277.554321	146.960000
277.647369	146.140000
277.740417	146.020000
277.833466	145.900000
277.926514	145.800000
278.019562	146.500000
278.112610	146.040000
278.205688	146.500000
278.298706	146.520000
278.391785	146.240000
278.484833	145.780000
278.577881	146.020000
278.670929	146.220000
278.763977	146.320000
278.857025	147.260000
278.950073	147.240000
279.043121	146.880000
279.136169	146.660000
279.229248	146.020000
279.322296	145.520000
279.415344	145.220000
279.508392	145.580000
279.601440	145.540000
279.694519	145.660000
279.787567	145.700000
279.880615	146.000000
279.973694	145.960000
280.066742	145.880000
280.159790	146.380000
280.252869	145.980000
280.345917	146.040000
280.438995	145.940000
280.532074	145.680000
280.625122	145.960000
280.718201	147.300000
280.811279	147.500000
280.904327	147.360000
280.997406	147.860000
281.090454	147.480000
281.183533	146.340000
281.276581	145.900000
281.369659	146.060000
281.462738	145.960000
281.555786	146.360000
281.648865	146.460000
281.741943	146.480000
281.835022	146.820000
281.928070	146.580000
282.021149	146.140000
282.114227	146.200000
282.207306	146.800000
282.300385	147.140000
282.393433	147.360000
282.486511	147.520000
282.579590	147.940000
282.672668	147.860000
282.765747	147.180000
282.858856	147.120000
282.951904	147.180000
283.045013	146.840000
283.138062	146.880000
283.231171	147.040000
283.324249	147.080000
283.417328	147.100000
283.510406	146.780000
283.603485	146.560000
283.696564	146.400000
283.789642	146.340000
283.882751	146.040000
283.975830	146.800000
284.068909	146.680000
284.161987	147.240000
284.255066	147.060000
284.348175	147.160000
284.441254	146.760000
284.534332	146.960000
284.627441	146.700000
284.720520	146.780000
284.813599	146.680000
284.906708	146.740000
284.999786	146.080000
285.092896	145.580000
285.185974	146.240000
285.279053	145.820000
285.372192	145.880000
285.465240	146.960000
285.558380	147.220000
285.651459	146.760000
285.744568	147.740000
285.837677	147.180000
285.930756	146.760000
286.023865	146.920000
286.116943	146.880000
286.210052	146.640000
286.303162	147.000000
286.396240	146.880000
286.489349	146.500000
286.582458	146.460000
286.675568	146.320000
286.768646	146.160000
286.861755	146.500000
286.954865	147.260000
287.047974	146.800000
287.141083	146.320000
287.234161	146.260000
287.327271	145.880000
287.420380	146.280000
287.513519	146.420000
287.606598	146.680000
287.699738	147.020000
287.792816	146.800000
287.885956	146.160000
287.979034	146.300000
288.072174	146.720000
288.165283	146.440000
288.258392	146.800000
288.351501	145.940000
288.444611	146.360000
288.537720	146.320000
288.630859	146.160000
288.723969	146.220000
288.817078	147.040000
288.910187	146.780000
289.003296	146.300000
289.096436	146.340000
289.189545	146.080000
289.282654	145.640000
289.375763	146.140000
289.468903	146.500000
289.562012	146.840000
289.655121	147.080000
289.748260	147.200000
289.841400	147.280000
289.934509	147.360000
290.027649	147.340000
290.120728	147.140000
290.213898	147.280000
290.306976	146.860000
290.400146	146.520000
290.493256	146.200000
290.586395	146.320000
290.679535	146.660000
290.772644	146.620000
290.865784	146.380000
290.958893	146.440000
291.052032	146.300000
291.145172	146.140000
291.238281	145.480000
291.331421	145.840000
291.424561	146.360000
291.517670	146.180000
291.610809	146.280000
291.703949	146.600000
291.797089	146.740000
291.890228	146.120000
291.983337	146.420000
292.076477	146.180000
292.169617	146.620000
292.262756	146.420000
292.355927	146.580000
292.449036	146.520000
292.542206	146.720000
292.635315	146.680000
292.728485	146.980000
292.821625	146.900000
292.914764	147.820000
293.007904	147.780000
293.101044	148.000000
293.194183	147.840000
293.287323	147.860000
293.380463	146.940000
293.473602	146.600000
293.566742	146.660000
293.659882	146.880000
293.753021	147.120000
293.846191	147.240000
293.939331	147.040000
294.032471	146.560000
294.125610	146.260000
294.218781	146.640000
294.311920	146.880000
294.405060	147.060000
294.498230	147.220000
294.591370	147.320000
294.684540	146.440000
294.777679	145.740000
294.870850	146.320000
294.963959	146.360000
295.057159	146.080000
295.150299	146.480000
295.243469	146.860000
295.336609	146.120000
295.429779	145.940000
295.522919	146.420000
295.616089	146.620000
295.709229	146.800000
295.802399	147.040000
295.895569	146.720000
295.988708	146.220000
296.081879	146.100000
296.175018	145.880000
296.268188	145.960000
296.361359	146.600000
296.454529	146.820000
296.547668	146.600000
296.640839	146.940000
296.734009	146.700000
296.827179	146.540000
296.920319	147.040000
297.013519	147.080000
297.106659	146.980000
297.199860	147.000000
297.292999	147.100000
297.386200	146.340000
297.479309	146.180000
297.572510	146.080000
297.665680	146.240000
297.758850	146.100000
297.852020	146.220000
297.945190	146.260000
298.038361	145.960000
298.131531	146.600000
298.224701	146.320000
298.317871	146.260000
298.411072	145.960000
298.504242	145.860000
298.597412	145.100000
298.690582	145.420000
298.783752	145.420000
298.876923	145.980000
298.970093	146.500000
299.063293	146.800000
299.156464	147.020000
299.249634	147.220000
299.342834	147.180000
299.436005	147.380000
299.529205	147.200000
299.622345	146.980000
299.715576	146.440000
299.808716	146.400000
299.901917	145.960000
299.995117	146.180000
300.088287	146.340000
300.181488	146.340000
300.274658	146.160000
300.367828	146.280000
300.461029	146.220000
300.554199	146.180000
300.647400	146.460000
300.740601	146.940000
300.833771	146.620000
300.926971	146.980000
301.020142	146.260000
301.113342	146.320000
301.206512	146.420000
301.299713	146.660000
301.392914	146.640000
301.486084	147.420000
301.579285	147.440000
301.672516	147.560000
301.765686	147.520000
301.858887	147.280000
301.952057	147.180000
302.045288	147.200000
302.138458	146.560000
302.231659	146.100000
302.324860	146.000000
302.418060	145.680000
302.511261	145.420000
302.604462	145.880000
302.697662	146.260000
302.790863	146.180000
302.884064	146.080000
302.977264	146.380000
303.070465	146.660000
303.163666	147.200000
303.256866	147.420000
303.350067	147.580000
303.443268	147.760000
303.536469	147.560000
303.629669	147.160000
303.722870	147.300000
303.816071	147.080000
303.909271	146.720000
304.002472	145.740000
304.095673	145.440000
304.188934	144.640000
304.282104	145.880000
304.375336	145.860000
304.468506	146.300000
304.561768	146.280000
304.654968	147.160000
304.748169	146.200000
304.841370	146.340000
304.934601	146.920000
305.027802	146.980000
305.121002	146.180000
305.214233	146.300000
305.307434	146.480000
305.400665	146.700000
305.493866	146.440000
305.587097	147.220000
305.680298	147.220000
305.773499	147.560000
305.866730	147.120000
305.959930	148.100000
306.053162	147.920000
306.146393	147.460000
306.239594	146.480000
306.332825	146.180000
306.426025	145.960000
306.519287	145.460000
306.612488	145.860000
306.705719	146.260000
306.798920	146.540000
306.892181	146.080000
306.985352	145.960000
307.078613	145.420000
307.171844	145.720000
307.265045	145.280000
307.358276	145.300000
307.451508	146.060000
307.544739	146.780000
307.637970	146.660000
307.731201	146.760000
307.824402	147.260000
307.917633	147.380000
308.010864	147.600000
308.104095	147.740000
308.197327	147.900000
308.290558	147.680000
308.383789	147.020000
308.477020	146.540000
308.570251	145.860000
308.663483	145.500000
308.756714	145.060000
308.849976	145.180000
308.943176	145.780000
309.036438	145.820000
309.129639	145.760000
309.222900	146.040000
309.316101	145.980000
309.409393	145.280000
309.502625	145.400000
309.595856	145.620000
309.689087	145.680000
309.782318	145.780000
309.875580	145.880000
309.968811	145.980000
310.062042	145.940000
310.155273	145.680000
310.248535	145.840000
310.341766	145.840000
310.434998	145.860000
310.528259	145.800000
310.621490	146.420000
310.714722	145.920000
310.807983	145.640000
310.901215	145.780000
310.994476	146.260000
311.087708	145.780000
311.181000	146.260000
311.274200	146.020000
311.367462	145.660000
311.460693	145.160000
311.553986	145.820000
311.647186	145.860000
311.740479	146.840000
311.833710	147.100000
311.926971	146.820000
312.020203	145.900000
312.113464	145.660000
312.206726	145.120000
312.299957	145.180000
312.393219	146.100000
312.486481	146.440000
312.579712	146.460000
312.672974	146.500000
312.766235	146.500000
312.859497	146.020000
312.952759	145.900000
313.045990	146.620000
313.139252	146.100000
313.232513	146.320000
313.325775	146.420000
313.419037	146.380000
313.512299	145.480000
313.605530	146.180000
313.698822	146.000000
313.792053	145.960000
313.885345	145.620000
313.978577	146.140000
314.071869	145.600000
314.165131	145.760000
314.258392	146.300000
314.351654	146.540000
314.444916	145.640000
314.538177	146.340000
314.631439	146.620000
314.724701	146.240000
314.817993	146.160000
314.911255	146.740000
315.004517	146.200000
315.097778	145.960000
315.191040	146.420000
315.284302	146.860000
315.377594	146.840000
315.470856	147.000000
315.564117	146.340000
315.657379	145.400000
315.750671	144.900000
315.843933	145.240000
315.937195	144.640000
316.030518	144.680000
316.123749	144.740000
316.217041	145.360000
316.310303	145.020000
316.403595	145.760000
316.496857	146.300000
316.590149	146.740000
316.683411	146.240000
316.776703	146.260000
316.869965	146.020000
316.963257	145.620000
317.056519	145.120000
317.149811	144.980000
317.243073	144.960000
317.336365	144.760000
317.429626	144.980000
317.522919	145.340000
317.616180	145.400000
317.709473	145.340000
317.802765	145.440000
317.896027	145.340000
317.989319	146.020000
318.082611	146.300000
318.175873	146.240000
318.269165	146.480000
318.362488	146.260000
318.455750	145.400000
318.549042	145.840000
318.642303	146.100000
318.735626	145.800000
318.828888	146.160000
318.922211	145.960000
319.015472	146.060000
319.108765	145.380000
319.202057	145.080000
319.295349	145.160000
319.388641	145.320000
319.481934	145.060000
319.575226	145.200000
319.668518	145.620000
319.761810	145.660000
319.855103	145.920000
319.948395	145.660000
320.041687	145.840000
320.134979	146.140000
320.228271	146.060000
320.321564	145.780000
320.414856	145.860000
320.508148	145.760000
320.601440	145.500000
320.694763	145.360000
320.788025	146.060000
320.881348	146.160000
320.974640	146.380000
321.067963	146.020000
321.161224	145.980000
321.254547	145.040000
321.347839	145.720000
321.441162	145.240000
321.534454	145.500000
321.627747	145.680000
321.721069	146.540000
321.814362	146.380000
321.907654	146.880000
322.000946	147.040000
322.094269	147.620000
322.187561	147.360000
322.280884	146.940000
322.374176	147.040000
322.467468	147.280000
322.560791	146.860000
322.654083	147.040000
322.747406	147.260000
322.840698	147.240000
322.934021	147.440000
323.027344	147.620000
323.120636	147.300000
323.213959	147.100000
323.307251	146.720000
323.400574	146.140000
323.493866	145.580000
323.587219	145.740000
323.680511	146.000000
323.773834	146.340000
323.867157	146.500000
323.960449	146.940000
324.053772	146.900000
324.147095	146.620000
324.240387	146.960000
324.333710	147.120000
324.427032	147.140000
324.520355	146.860000
324.613647	146.620000
324.706970	146.380000
324.800293	146.260000
324.893616	146.320000
324.986938	146.840000
325.080231	146.660000
325.173553	146.880000
325.266876	147.500000
325.360199	147.420000
325.453522	147.020000
325.546875	147.020000
325.640167	146.780000
325.733521	146.400000
325.826813	146.380000
325.920166	146.160000
326.013489	146.100000
326.106812	145.500000
326.200134	145.000000
326.293457	144.620000
326.386780	144.800000
326.480103	144.940000
326.573425	145.300000
326.666748	145.560000
326.760071	146.120000
326.853424	146.320000
326.946747	146.280000
327.040070	146.900000
327.133392	146.460000
327.226715	145.640000
327.320068	145.040000
327.413391	145.620000
327.506714	144.780000
327.600037	145.160000
327.693390	145.240000
327.786713	145.560000
327.880066	145.180000
327.973358	145.680000
328.066742	145.980000
328.160034	146.340000
328.253418	146.780000
328.346710	146.820000
328.440063	146.180000
328.533417	145.920000
328.626740	146.440000
328.720093	146.000000
328.813416	145.800000
328.906769	146.040000
329.000092	146.300000
329.093445	145.760000
329.186768	145.600000
329.280121	146.020000
329.373444	146.380000
329.466797	146.100000
329.560120	146.100000
329.653473	146.540000
329.746796	146.020000
329.840149	145.760000
329.933502	145.920000
330.026825	145.840000
330.120178	145.400000
330.213562	145.500000
330.306854	145.740000
330.400238	145.660000
330.493561	145.540000
330.586945	146.560000
330.680237	146.920000
330.773621	146.620000
330.866974	146.700000
330.960327	147.160000
331.053680	146.480000
331.147003	146.640000
331.240356	147.200000
331.333710	147.260000
331.427063	146.740000
331.520416	146.640000
331.613770	146.140000
331.707123	145.780000
331.800476	145.640000
331.893829	146.900000
331.987152	146.840000
332.080505	146.760000
332.173859	146.780000
332.267212	146.400000
332.360565	145.440000
332.453918	145.360000
332.547333	145.380000
332.640656	145.460000
332.734039	145.560000
332.827362	145.420000
332.920746	145.560000
333.014069	146.100000
333.107452	146.600000
333.200806	146.900000
333.294159	147.100000
333.387543	146.920000
333.480896	146.280000
333.574249	145.560000
333.667603	145.240000
333.760956	145.420000
333.854340	145.700000
333.947693	145.760000
334.041046	146.000000
334.134430	146.360000
334.227783	145.640000
334.321136	145.660000
334.414520	145.380000
334.507874	145.320000
334.601227	145.340000
334.694611	145.400000
334.787964	145.480000
334.881348	146.140000
334.974701	146.080000
335.068085	145.600000
335.161438	145.920000
335.254822	145.620000
335.348175	145.600000
335.441559	145.320000
335.534943	146.240000
335.628296	146.480000
335.721680	146.340000
335.815033	146.560000
335.908417	146.960000
336.001770	146.260000
336.095154	146.280000
336.188538	146.120000
336.281891	145.500000
336.375275	145.240000
336.468658	145.240000
336.562012	145.060000
336.655396	145.660000
336.748779	146.380000
336.842133	146.400000
336.935516	146.680000
337.028900	146.560000
337.122284	146.000000
337.215637	145.620000
337.309021	145.560000
337.402435	145.180000
337.495789	145.220000
337.589203	145.500000
337.682526	145.160000
337.775940	145.500000
337.869324	145.840000
337.962708	145.440000
338.056091	145.960000
338.149475	146.020000
338.242859	145.960000
338.336243	145.800000
338.429626	146.120000
338.523010	145.860000
338.616394	145.880000
338.709778	146.100000
338.803162	146.220000
338.896545	146.320000
338.989929	145.960000
339.083313	146.300000
339.176697	145.820000
339.270081	145.840000
339.363464	146.140000
339.456848	146.600000
339.550232	145.980000
339.643616	145.800000
339.737030	145.500000
339.830383	145.240000
339.923828	145.260000
340.017181	145.600000
340.110596	145.860000
340.203949	146.060000
340.297363	145.660000
340.390778	145.540000
340.484161	145.720000
340.577545	145.620000
340.670959	145.760000
340.764343	146.000000
340.857727	145.940000
340.951111	145.340000
341.044525	145.660000
341.137909	145.100000
341.231293	145.080000
341.324707	144.280000
341.418091	144.940000
341.511505	145.180000
341.604889	145.720000
341.698303	145.840000
341.791687	146.360000
341.885071	145.760000
341.978485	145.540000
342.071899	145.440000
342.165283	145.740000
342.258698	146.020000
342.352081	146.900000
342.445496	147.020000
342.538879	147.120000
342.632324	146.560000
342.725708	146.400000
342.819122	145.600000
342.912506	145.440000
343.005920	145.060000
343.099335	146.200000
343.192719	146.200000
343.286133	146.280000
343.379547	146.480000
343.472931	146.760000
343.566345	145.820000
343.659760	145.980000
343.753143	145.780000
343.846558	145.280000
343.939972	145.300000
344.033386	146.060000
344.126770	145.720000
344.220184	146.100000
344.313599	146.760000
344.407043	146.820000
344.500427	145.860000
344.593872	146.500000
344.687225	145.980000
344.780670	145.320000
344.874054	145.060000
344.967499	145.680000
345.060913	145.600000
345.154327	146.000000
345.247742	145.840000
345.341156	145.840000
345.434570	145.340000
345.527985	145.200000
345.621399	145.300000
345.714813	145.580000
345.808228	145.740000
345.901642	145.700000
345.995056	145.260000
346.088470	145.360000
346.181885	145.660000
346.275299	145.460000
346.368713	145.620000
346.462128	145.500000
346.555573	145.660000
346.648987	145.600000
346.742401	145.760000
346.835815	146.160000
346.929260	146.400000
347.022644	146.320000
347.116119	146.160000
347.209503	146.300000
347.302948	146.720000
347.396362	147.140000
347.489807	147.020000
347.583221	147.560000
347.676636	147.240000
347.770050	146.120000
347.863495	145.580000
347.956909	145.560000
348.050323	144.960000
348.143768	144.960000
348.237183	145.220000
348.330597	145.720000
348.424042	146.000000
348.517456	146.420000
348.610901	146.940000
348.704315	147.000000
348.797760	146.480000
348.891174	145.800000
348.984619	145.220000
349.078033	145.440000
349.171448	146.100000
349.264923	146.320000
349.358337	146.460000
349.451782	146.700000
349.545197	145.840000
349.638641	145.120000
349.732086	144.720000
349.825500	145.200000
349.918945	144.760000
350.012390	145.420000
350.105804	145.940000
350.199249	146.340000
350.292664	146.660000
350.386108	147.100000
350.479553	147.220000
350.572968	146.600000
350.666412	146.720000
350.759857	146.340000
350.853302	146.700000
350.946716	146.180000
351.040161	146.660000
351.133606	146.420000
351.227081	146.320000
351.320465	146.780000
351.413940	146.780000
351.507355	146.720000
351.600830	146.720000
351.694244	146.340000
351.787720	145.920000
351.881104	145.940000
351.974579	145.540000
352.067993	146.620000
352.161469	146.980000
352.254883	146.440000
352.348358	146.440000
352.441803	146.920000
352.535248	146.140000
352.628693	146.440000
352.722137	146.300000
352.815582	146.760000
352.909027	146.620000
353.002472	146.340000
353.095917	146.180000
353.189362	146.740000
353.282806	146.360000
353.376251	146.320000
353.469696	146.360000
353.563141	146.760000
353.656586	146.480000
353.750061	146.400000
353.843475	146.200000
353.936981	146.380000
354.030396	145.540000
354.123871	145.300000
354.217285	145.980000
354.310760	146.360000
354.404175	146.700000
354.497681	146.780000
354.591095	147.040000
354.684570	145.960000
354.777985	145.620000
354.871490	145.160000
354.964935	145.480000
355.058380	145.780000
355.151855	145.800000
355.245300	146.080000
355.338745	146.340000
355.432220	146.120000
355.525665	145.520000
355.619110	146.060000
355.712585	145.780000
355.806030	145.340000
355.899475	145.160000
355.992950	145.680000
356.086426	145.620000
356.179871	145.720000
356.273346	145.980000
356.366791	146.140000
356.460266	145.860000
356.553711	145.700000
356.647186	145.760000
356.740631	145.600000
356.834106	145.620000
356.927551	145.920000
357.021027	146.000000
357.114471	146.160000
357.207947	146.440000
357.301422	146.700000
357.394867	146.500000
357.488342	146.860000
357.581818	146.760000
357.675262	147.100000
357.768738	146.960000
357.862213	146.380000
357.955658	146.360000
358.049133	146.160000
358.142609	146.040000
358.236053	145.740000
358.329529	146.300000
358.423035	146.300000
358.516449	145.980000
358.609955	146.180000
358.703400	146.920000
358.796906	147.160000
358.890350	146.700000
358.983826	147.340000
359.077271	146.620000
359.170776	146.340000
359.264221	145.800000
359.357727	145.960000
359.451172	146.100000
359.544647	146.180000
359.638123	145.880000
359.731598	146.640000
359.825073	146.920000
359.918549	146.660000
360.012024	146.840000
360.105499	146.560000
360.198975	146.400000
360.292450	146.300000
360.385925	146.260000
360.479401	145.920000
360.572876	146.360000
360.666351	146.020000
360.759857	145.780000
360.853302	145.780000
360.946808	145.720000
361.040253	145.640000
361.133759	145.740000
361.227203	146.380000
361.320709	146.200000
361.414154	146.600000
361.507660	146.900000
361.601105	147.240000
361.694641	147.240000
361.788086	147.080000
361.881592	147.580000
361.975067	147.120000
362.068542	147.260000
362.162018	146.880000
362.255524	146.940000
362.348999	146.500000
362.442474	146.680000
362.535950	146.200000
362.629456	145.980000
362.722931	146.180000
362.816406	146.720000
362.909882	147.240000
363.003387	146.860000
363.096863	147.380000
363.190338	147.060000
363.283875	146.380000
363.377319	146.040000
363.470825	146.800000
363.564301	146.020000
363.657806	146.540000
363.751282	146.680000
363.844788	147.400000
363.938232	146.700000
364.031769	147.700000
364.125214	147.480000
364.218750	147.600000
364.312225	146.180000
364.405731	146.600000
364.499207	146.120000
364.592712	145.840000
364.686188	145.400000
364.779694	146.000000
364.873169	145.800000
364.966675	145.380000
365.060150	145.720000
365.153656	146.460000
365.247131	146.360000
365.340637	146.600000
365.434143	147.420000
365.527618	147.540000
365.621155	146.780000
365.714600	146.800000
365.808136	146.860000
365.901611	145.820000
365.995117	145.280000
366.088593	145.440000
366.182129	145.340000
366.275604	145.160000
366.369110	145.460000
366.462585	145.860000
366.556122	146.440000
366.649567	146.500000
366.743103	146.620000
366.836609	146.620000
366.930115	146.780000
367.023590	146.560000
367.117096	146.440000
367.210602	146.480000
367.304108	147.020000
367.397614	147.180000
367.491119	147.120000
367.584595	147.280000
367.678101	147.140000
367.771606	146.680000
367.865112	146.440000
367.958649	145.840000
368.052124	145.700000
368.145660	145.380000
368.239136	145.780000
368.332672	145.640000
368.426147	146.020000
368.519684	145.980000
368.613159	146.800000
368.706696	146.600000
368.800171	146.660000
368.893707	146.600000
368.987183	146.860000
369.080719	146.480000
369.174225	146.220000
369.267731	146.380000
369.361237	146.020000
369.454742	145.880000
369.548248	146.100000
369.641754	145.900000
369.735260	145.560000
369.828766	145.420000
369.922272	145.820000
370.015808	145.420000
370.109314	145.540000
370.202820	145.660000
370.296356	146.780000
370.389832	146.260000
370.483368	145.800000
370.576874	145.620000
370.670410	145.980000
370.763885	144.780000
370.857422	144.920000
370.950928	144.980000
371.044464	145.760000
371.137939	145.680000
371.231476	146.400000
371.324982	146.940000
371.418518	147.560000
371.512024	147.380000
371.605560	147.020000
371.699066	147.100000
371.792572	146.500000
371.886108	146.660000
371.979614	146.260000
372.073120	147.000000
372.166656	146.700000
372.260162	147.140000
372.353668	146.760000
372.447205	146.660000
372.540710	146.120000
372.634277	146.260000
372.727753	146.140000
372.821320	146.380000
372.914795	147.060000
373.008362	146.920000
373.101837	147.060000
373.195404	146.900000
373.288879	146.620000
373.382446	146.800000
373.475922	146.700000
373.569489	147.140000
373.662964	147.280000
373.756531	147.420000
373.850037	147.220000
373.943573	147.140000
374.037109	146.080000
374.130615	146.440000
374.224152	146.460000
374.317657	146.200000
374.411194	147.360000
374.504730	147.540000
374.598236	147.040000
374.691772	146.820000
374.785309	146.980000
374.878815	146.120000
374.972351	146.560000
375.065887	146.780000
375.159454	147.520000
375.252930	147.060000
375.346497	147.060000
375.440002	147.320000
375.533569	147.060000
375.627045	146.220000
375.720612	146.240000
375.814117	146.200000
375.907684	145.840000
376.001160	145.380000
376.094727	145.020000
376.188232	145.900000
376.281799	146.400000
376.375336	146.480000
376.468872	147.760000
376.562408	148.440000
376.655914	147.800000
376.749451	147.800000
376.842987	147.980000
376.936523	147.300000
377.030060	147.260000
377.123596	147.340000
377.217133	146.700000
377.310669	146.420000
377.404205	146.700000
377.497772	147.100000
377.591278	147.040000
377.684845	147.640000
377.778351	147.900000
377.871918	147.480000
377.965424	146.740000
378.058990	146.540000
378.152496	146.060000
378.246063	146.060000
378.339569	146.260000
378.433136	146.320000
378.526642	146.440000
378.620209	146.580000
378.713745	146.340000
378.807312	146.820000
378.900848	146.740000
378.994385	147.040000
379.087921	146.340000
379.181458	146.500000
379.274994	145.560000
379.368530	145.400000
379.462097	145.280000
379.555634	146.080000
379.649170	145.540000
379.742706	145.600000
379.836273	145.780000
379.929810	145.580000
380.023376	145.020000
380.116882	145.280000
380.210449	145.340000
380.303986	145.040000
380.397552	144.820000
380.491058	145.300000
380.584656	145.100000
380.678162	145.500000
380.771729	145.780000
380.865265	146.700000
380.958832	146.820000
381.052368	147.100000
381.145935	147.400000
381.239471	147.980000
381.333008	147.440000
381.426575	147.000000
381.520111	147.240000
381.613647	147.380000
381.707214	146.720000
381.800751	146.400000
381.894318	146.940000
381.987854	146.320000
382.081421	145.880000
382.174988	146.120000
382.268524	145.740000
382.362091	145.480000
382.455627	146.640000
382.549194	146.220000
382.642731	145.620000
382.736298	145.880000
382.829834	145.640000
382.923401	145.600000
383.016937	145.940000
383.110504	146.820000
383.204041	147.040000
383.297607	147.160000
383.391174	146.340000
383.484741	146.880000
383.578278	146.420000
383.671844	146.200000
383.765411	145.620000
383.858948	145.960000
383.952515	145.540000
384.046051	146.000000
384.139618	146.260000
384.233185	146.760000
384.326721	146.780000
384.420288	147.420000
384.513855	147.080000
384.607422	147.200000
384.700989	147.580000
384.794525	146.980000
384.888123	146.640000
384.981659	146.800000
385.075226	146.740000
385.168762	146.240000
385.262360	146.460000
385.355896	145.540000
385.449463	145.460000
385.542999	145.140000
385.636597	145.720000
385.730164	146.000000
385.823730	146.280000
385.917267	145.920000
386.010834	146.420000
386.104401	146.460000
386.197968	146.760000
386.291534	147.120000
386.385101	147.500000
386.478668	147.420000
386.572235	147.020000
386.665802	146.380000
386.759338	145.760000
386.852905	145.360000
386.946472	145.000000
387.040070	145.380000
387.133606	145.580000
387.227203	145.520000
387.320740	146.000000
387.414337	145.760000
387.507874	145.440000
387.601471	145.580000
387.695007	145.920000
387.788605	145.800000
387.882141	146.440000
387.975739	146.600000
388.069275	146.260000
388.162872	146.500000
388.256439	146.600000
388.350037	146.300000
388.443604	146.040000
388.537170	146.040000
388.630737	146.340000
388.724304	146.360000
388.817871	146.340000
388.911438	146.900000
389.005005	147.220000
389.098602	147.360000
389.192169	147.040000
389.285736	147.460000
389.379333	146.800000
389.472870	146.600000
389.566467	146.320000
389.660034	146.560000
389.753632	145.760000
389.847168	146.120000
389.940765	146.520000
390.034332	146.740000
390.127930	146.360000
390.221466	146.660000
390.315063	146.160000
390.408630	145.160000
390.502228	144.320000
390.595795	144.940000
390.689362	145.080000
390.782959	145.620000
390.876526	146.480000
390.970093	146.560000
391.063690	146.720000
391.157257	146.820000
391.250824	146.880000
391.344421	146.460000
391.437988	146.780000
391.531555	146.500000
391.625153	146.620000
391.718750	146.760000
391.812317	147.000000
391.905914	146.800000
391.999481	146.900000
392.093079	146.580000
392.186615	146.480000
392.280243	146.140000
392.373779	146.220000
392.467407	146.560000
392.560944	146.720000
392.654572	146.440000
392.748108	146.720000
392.841736	146.820000
392.935303	146.160000
393.028900	146.380000
393.122467	146.500000
393.216064	146.060000
393.309631	145.420000
393.403229	145.120000
393.496796	144.780000
393.590393	144.240000
393.683990	144.660000
393.777557	145.480000
393.871155	145.940000
393.964722	146.380000
394.058350	146.780000
394.151917	146.960000
394.245514	146.780000
394.339081	146.940000
394.432678	147.020000
394.526245	147.020000
394.619873	146.800000
394.713409	146.860000
394.807037	146.760000
394.900604	146.460000
394.994202	146.380000
395.087769	146.540000
395.181396	145.960000
395.274994	146.760000
395.368561	146.460000
395.462158	146.840000
395.555756	146.640000
395.649353	147.600000
395.742920	146.800000
395.836517	147.320000
395.930115	146.580000
396.023712	146.840000
396.117279	146.720000
396.210876	146.280000
396.304474	146.060000
396.398071	146.620000
396.491669	146.660000
396.585266	146.020000
396.678833	146.180000
396.772461	146.380000
396.866028	146.180000
396.959656	146.580000
397.053223	147.260000
397.146851	147.420000
397.240417	148.200000
397.334015	149.920000
397.427582	150.720000
397.521210	152.920000
397.614807	156.220000
397.708405	159.220000
397.802002	162.860000
397.895599	168.420000
397.989197	174.060000
398.082794	180.620000
398.176392	189.920000
398.269989	199.920000
398.363586	212.260000
398.457184	227.520000
398.550781	244.900000
398.644379	262.740000
398.737976	282.700000
398.831573	303.180000
398.925201	322.800000
399.018768	343.120000
399.112396	362.920000
399.205963	382.180000
399.299591	400.220000
399.393158	417.480000
399.486786	432.520000
399.580353	445.740000
399.673981	455.740000
399.767578	465.020000
399.861206	472.560000
399.954773	478.320000
400.048401	480.260000
400.141998	478.780000
400.235596	472.580000
400.329193	462.880000
400.422791	450.360000
400.516418	435.280000
400.610016	421.560000
400.703613	406.780000
400.797211	388.240000
400.890808	368.200000
400.984436	348.540000
401.078033	325.880000
401.171631	303.200000
401.265259	282.940000
401.358826	264.720000
401.452484	247.360000
401.546051	232.660000
401.639679	218.040000
401.733246	206.020000
401.826904	193.760000
401.920471	183.540000
402.014099	175.140000
402.107697	169.160000
402.201324	164.320000
402.294891	160.560000
402.388550	157.780000
402.482147	155.300000
402.575745	152.940000
402.669373	150.480000
402.762970	149.240000
402.856567	148.200000
402.950195	147.660000
403.043793	147.360000
403.137390	148.100000
403.231018	147.540000
403.324615	148.060000
403.418243	147.620000
403.511841	147.680000
403.605469	147.100000
403.699066	147.520000
403.792694	147.100000
403.886292	146.980000
403.979919	146.840000
404.073517	146.200000
404.167145	146.180000
404.260712	146.300000
404.354370	146.280000
404.447937	146.640000
404.541595	147.040000
404.635162	147.400000
404.728821	147.640000
404.822418	147.180000
404.916046	146.780000
405.009644	147.080000
405.103271	146.940000
405.196899	146.680000
405.290497	146.880000
405.384125	147.080000
405.477722	146.420000
405.571350	145.800000
405.664948	145.840000
405.758575	146.020000
405.852203	145.500000
405.945801	145.800000
406.039429	146.020000
406.133057	145.880000
406.226654	145.700000
406.320312	146.020000
406.413879	146.200000
406.507538	146.600000
406.601135	146.460000
406.694763	147.180000
406.788361	146.960000
406.882019	146.620000
406.975586	146.860000
407.069244	147.520000
407.162872	147.260000
407.256470	147.220000
407.350098	147.240000
407.443726	146.480000
407.537323	145.680000
407.630951	145.680000
407.724579	145.380000
407.818207	145.720000
407.911804	145.840000
408.005432	145.940000
408.099060	146.180000
408.192688	146.760000
408.286285	146.640000
408.379913	146.380000
408.473572	146.480000
408.567169	145.680000
408.660828	145.340000
408.754395	144.940000
408.848053	145.020000
408.941650	145.000000
409.035309	145.160000
409.128906	145.160000
409.222565	145.460000
409.316132	145.600000
409.409790	145.360000
409.503387	145.180000
409.597046	145.540000
409.690674	145.600000
409.784302	145.860000
409.877930	145.740000
409.971558	146.240000
410.065186	146.000000
410.158783	145.940000
410.252411	145.820000
410.346039	146.420000
410.439667	146.460000
410.533295	146.840000
410.626923	147.180000
410.720551	147.000000
410.814209	147.340000
410.907806	147.120000
411.001465	146.460000
411.095062	146.200000
411.188721	146.320000
411.282318	145.700000
411.375977	145.420000
411.469574	145.820000
411.563232	145.680000
411.656830	145.440000
411.750488	145.600000
411.844086	145.520000
411.937744	145.840000
412.031372	145.640000
412.125000	146.060000
412.218628	145.840000
412.312256	146.660000
412.405884	146.860000
412.499512	147.160000
412.593170	146.960000
412.686798	147.320000
412.780426	146.580000
412.874054	146.520000
412.967682	146.420000
413.061310	147.060000
413.154968	147.140000
413.248566	147.440000
413.342224	147.120000
413.435852	147.180000
413.529510	146.700000
413.623108	145.920000
413.716766	145.980000
413.810364	146.200000
413.904022	146.000000
413.997650	145.540000
414.091309	146.320000
414.184906	146.060000
414.278564	145.600000
414.372192	145.980000
414.465851	146.400000
414.559479	145.940000
414.653107	146.840000
414.746735	146.680000
414.840393	146.580000
414.934021	146.840000
415.027649	146.620000
415.121277	146.120000
415.214935	146.500000
415.308563	146.320000
415.402191	145.640000
415.495850	145.880000
415.589478	145.340000
415.683136	145.180000
415.776733	145.540000
415.870422	146.100000
415.964020	145.440000
416.057678	145.980000
416.151306	146.320000
416.244965	145.880000
416.338562	145.800000
416.432251	146.860000
416.525848	147.040000
416.619507	146.920000
416.713165	147.460000
416.806793	147.080000
416.900421	147.040000
416.994080	146.600000
417.087708	146.240000
417.181366	145.440000
417.274994	145.740000
417.368622	145.700000
417.462280	146.120000
417.555908	146.140000
417.649567	146.320000
417.743195	146.320000
417.836853	146.100000
417.930481	146.040000
418.024170	146.320000
418.117767	147.140000
418.211426	147.460000
418.305054	147.720000
418.398712	147.260000
418.492340	147.320000
418.585999	147.160000
418.679626	147.040000
418.773285	146.860000
418.866913	147.400000
418.960571	147.680000
419.054230	147.520000
419.147858	147.640000
419.241516	147.800000
419.335144	147.220000
419.428802	146.840000
419.522461	146.940000
419.616089	146.580000
419.709747	146.280000
419.803375	146.720000
419.897034	146.620000
419.990662	146.340000
420.084320	146.680000
420.177979	147.300000
420.271606	147.060000
420.365295	147.460000
420.458893	147.740000
420.552582	147.540000
420.646210	147.180000
420.739868	147.060000
420.833496	146.740000
420.927155	146.020000
421.020782	146.140000
421.114471	145.720000
421.208069	146.240000
421.301758	146.380000
421.395386	146.640000
421.489044	146.260000
421.582703	146.360000
421.676361	146.400000
421.769989	146.240000
421.863647	146.860000
421.957306	146.760000
422.050934	147.160000
422.144592	146.840000
422.238251	146.700000
422.331909	146.020000
422.425537	146.400000
422.519196	146.260000
422.612854	145.840000
422.706543	145.580000
422.800140	145.840000
422.893829	145.500000
422.987457	145.260000
423.081146	145.500000
423.174744	146.260000
423.268433	145.900000
423.362061	145.920000
423.455750	145.800000
423.549347	145.980000
423.643036	145.000000
423.736664	145.840000
423.830353	145.880000
423.924011	146.620000
424.017639	146.140000
424.111298	146.360000
424.204956	146.140000
424.298615	146.200000
424.392273	145.680000
424.485931	146.000000
424.579559	146.280000
424.673218	145.900000
424.766876	146.060000
424.860535	145.540000
424.954193	145.360000
425.047882	145.900000
425.141510	146.180000
425.235199	145.900000
425.328796	146.040000
425.422485	145.800000
425.516113	145.120000
425.609802	144.760000
425.703430	145.120000
425.797119	144.980000
425.890747	145.380000
425.984436	145.620000
426.078064	145.540000
426.171753	145.500000
426.265411	145.620000
426.359070	145.760000
426.452728	145.380000
426.546356	145.600000
426.640015	145.000000
426.733673	145.240000
426.827332	144.680000
426.920990	145.560000
427.014648	145.380000
427.108307	145.820000
427.201965	146.180000
427.295624	146.620000
427.389282	146.020000
427.482941	146.200000
427.576630	146.360000
427.670258	145.820000
427.763947	145.680000
427.857574	145.780000
427.951263	145.900000
428.044922	145.400000
428.138611	145.740000
428.232239	146.240000
428.325928	146.300000
428.419556	146.580000
428.513245	146.380000
428.606903	146.500000
428.700562	146.000000
428.794220	145.420000
428.887878	144.520000
428.981537	145.360000
429.075195	145.280000
429.168854	145.660000
429.262512	146.060000
429.356201	146.760000
429.449860	146.340000
429.543518	146.380000
429.637177	146.500000
429.730835	146.160000
429.824493	145.960000
429.918182	146.160000
430.011810	145.860000
430.105530	145.160000
430.199158	145.800000
430.292847	145.640000
430.386475	145.500000
430.480164	145.460000
430.573792	145.420000
430.667511	144.940000
430.761139	144.900000
430.854828	145.080000
430.948456	145.180000
431.042145	145.900000
431.135834	145.840000
431.229492	146.120000
431.323151	146.200000
431.416809	146.080000
431.510468	145.700000
431.604156	145.820000
431.697815	145.760000
431.791473	144.900000
431.885132	144.700000
431.978821	145.100000
432.072479	145.320000
432.166138	145.640000
432.259827	145.840000
432.353485	146.400000
432.447174	146.200000
432.540802	145.700000
432.634491	145.640000
432.728149	146.140000
432.821838	146.500000
432.915466	146.080000
433.009186	146.400000
433.102814	145.800000
433.196503	145.620000
433.290131	145.220000
433.383850	145.560000
433.477509	145.660000
433.571167	146.740000
433.664856	146.980000
433.758514	147.420000
433.852173	147.500000
433.945862	147.520000
434.039520	147.180000
434.133179	146.760000
434.226868	146.240000
434.320526	145.580000
434.414185	146.420000
434.507874	145.780000
434.601562	146.480000
434.695221	146.460000
434.788910	146.900000
434.882538	146.380000
434.976257	146.540000
435.069885	146.060000
435.163574	146.100000
435.257233	145.880000
435.350922	145.880000
435.444580	145.440000
435.538269	145.180000
435.631897	145.420000
435.725616	146.300000
435.819275	146.600000
435.912964	147.520000
436.006622	148.220000
436.100311	148.340000
436.193970	147.220000
436.287628	146.540000
436.381317	146.020000
436.474976	145.340000
436.568665	144.720000
436.662323	145.200000
436.756012	145.280000
436.849670	145.100000
436.943390	145.280000
437.037018	145.140000
437.130737	145.300000
437.224365	145.260000
437.318085	145.660000
437.411713	145.920000
437.505432	146.380000
437.599060	146.560000
437.692780	147.220000
437.786407	147.320000
437.880127	147.280000
437.973755	147.180000
438.067474	146.800000
438.161133	146.400000
438.254822	146.640000
438.348480	146.420000
438.442169	147.000000
438.535828	147.120000
438.629517	146.920000
438.723175	146.260000
438.816864	146.840000
438.910553	145.960000
439.004211	145.760000
439.097900	145.440000
439.191559	145.300000
439.285248	144.540000
439.378906	145.080000
439.472626	145.180000
439.566284	145.220000
439.659973	145.820000
439.753632	146.040000
439.847321	146.100000
439.940979	145.980000
440.034698	146.320000
440.128326	145.780000
440.222046	145.560000
440.315674	145.140000
440.409393	145.400000
440.503082	145.040000
440.596741	145.300000
440.690430	145.500000
440.784088	145.420000
440.877777	144.820000
440.971466	145.120000
441.065125	145.100000
441.158813	144.980000
441.252502	145.040000
441.346161	145.560000
441.439850	145.960000
441.533539	145.740000
441.627197	146.100000
441.720886	146.320000
441.814606	146.640000
441.908234	146.780000
442.001953	146.920000
442.095612	146.640000
442.189301	146.940000
442.282959	146.960000
442.376678	146.220000
442.470306	146.840000
442.564026	146.720000
442.657684	146.560000
442.751404	146.580000
442.845032	147.420000
442.938751	146.660000
443.032440	147.020000
443.126099	146.560000
443.219788	146.720000
443.313477	146.320000
443.407166	146.700000
443.500824	146.600000
443.594513	147.080000
443.688202	146.780000
443.781891	146.520000
443.875549	146.020000
443.969238	145.920000
444.062927	145.740000
444.156647	145.500000
444.250275	146.060000
444.343994	146.300000
444.437653	146.480000
444.531372	146.320000
444.625031	146.460000
444.718719	145.960000
444.812378	146.180000
444.906097	145.980000
444.999756	145.460000
445.093445	145.080000
445.187103	145.020000
445.280823	145.160000
445.374512	144.760000
445.468201	145.300000
445.561859	145.500000
445.655548	145.520000
445.749237	145.080000
445.842926	145.640000
445.936615	146.060000
446.030304	146.180000
446.123962	146.420000
446.217651	146.600000
446.311340	146.520000
446.405029	146.000000
446.498749	145.900000
446.592407	145.500000
446.686096	145.580000
446.779755	145.660000
446.873474	145.900000
446.967133	146.080000
447.060852	145.980000
447.154510	145.780000
447.248230	145.640000
447.341858	145.520000
447.435577	144.900000
447.529236	144.560000
447.622955	144.760000
447.716644	144.800000
447.810333	145.180000
447.904022	146.000000
447.997711	146.420000
448.091400	146.480000
448.185059	146.720000
448.278748	146.760000
448.372437	146.260000
448.466125	146.640000
448.559814	146.280000
448.653503	146.640000
448.747192	146.520000
448.840912	147.080000
448.934570	147.120000
449.028290	147.560000
449.121948	146.980000
449.215637	146.820000
449.309296	146.400000
449.403015	146.400000
449.496674	146.260000
449.590393	146.440000
449.684052	146.180000
449.777771	147.080000
449.871429	146.360000
449.965149	146.220000
450.058838	146.340000
450.152527	146.900000
450.246216	146.080000
450.339905	146.540000
450.433594	146.600000
450.527283	146.980000
450.620972	146.600000
450.714661	146.620000
450.808350	146.620000
450.902039	146.840000
450.995728	146.560000
451.089417	146.460000
451.183105	146.680000
451.276794	147.120000
451.370514	146.540000
451.464172	145.520000
451.557892	145.540000
451.651550	145.540000
451.745270	145.180000
451.838928	145.060000
451.932648	145.880000
452.026306	146.320000
452.120026	146.000000
452.213684	146.060000
452.307404	146.380000
452.401062	146.320000
452.494781	146.480000
452.588470	146.820000
452.682159	146.340000
452.775848	146.760000
452.869537	146.320000
452.963226	145.520000
453.056915	145.160000
453.150604	145.540000
453.244293	145.420000
453.337982	146.080000
453.431671	146.480000
453.525360	147.100000
453.619049	147.040000
453.712769	146.980000
453.806427	146.420000
453.900146	146.060000
453.993805	145.680000
454.087555	146.120000
454.181213	146.160000
454.274933	146.340000
454.368591	146.440000
454.462311	146.260000
454.555969	145.880000
454.649689	146.360000
454.743347	146.040000
454.837067	146.480000
454.930756	146.960000
455.024445	146.820000
455.118134	146.420000
455.211853	146.840000
455.305542	146.600000
455.399231	146.360000
455.492920	146.660000
455.586609	146.700000
455.680298	146.620000
455.773987	146.220000
455.867676	146.040000
455.961365	146.240000
456.055084	146.000000
456.148773	145.680000
456.242493	146.000000
456.336151	145.920000
456.429871	145.820000
456.523529	146.260000
456.617249	146.540000
456.710907	147.120000
456.804626	147.280000
456.898315	146.880000
456.992035	146.360000
457.085693	146.160000
457.179413	145.280000
457.273102	146.180000
457.366791	146.380000
457.460480	146.900000
457.554199	147.740000
457.647888	147.940000
457.741577	147.160000
457.835266	147.160000
457.928955	147.020000
458.022644	146.840000
458.116364	147.360000
458.210052	147.000000
458.303741	147.060000
458.397461	146.140000
458.491119	145.320000
458.584839	145.080000
458.678528	145.060000
458.772247	144.780000
458.865906	145.480000
458.959625	146.560000
459.053284	146.500000
459.147003	146.620000
459.240692	147.340000
459.334412	147.320000
459.428070	146.500000
459.521790	146.240000
459.615479	146.280000
459.709198	146.220000
459.802887	145.880000
459.896576	145.800000
459.990265	146.080000
460.083954	145.900000
460.177673	145.320000
460.271362	145.460000
460.365051	145.780000
460.458740	145.640000
460.552429	145.540000
460.646149	145.540000
460.739838	145.480000
460.833527	145.320000
460.927246	145.020000
461.020905	145.300000
461.114655	145.420000
461.208313	145.580000
461.302032	145.180000
461.395691	145.520000
461.489441	145.280000
461.583099	145.320000
461.676819	145.300000
461.770477	146.080000
461.864197	145.900000
461.957916	145.840000
462.051605	145.120000
462.145294	145.580000
462.238983	145.260000
462.332703	145.620000
462.426392	146.380000
462.520081	146.640000
462.613770	146.200000
462.707489	146.140000
462.801178	145.980000
462.894867	145.460000
462.988556	145.660000
463.082275	145.620000
463.175964	145.380000
463.269684	145.300000
463.363342	145.280000
463.457092	144.720000
463.550751	144.960000
463.644470	145.260000
463.738129	145.300000
463.831879	145.700000
463.925537	146.780000
464.019257	146.820000
464.112946	146.820000
464.206665	146.700000
464.300323	146.360000
464.394043	146.000000
464.487762	146.060000
464.581451	146.480000
464.675140	146.620000
464.768829	146.960000
464.862549	146.960000
464.956238	146.920000
465.049927	146.600000
465.143646	146.740000
465.237335	146.400000
465.331024	146.600000
465.424713	146.600000
465.518433	146.820000
465.612152	146.460000
465.705811	146.300000
465.799561	146.240000
465.893219	146.300000
465.986938	145.860000
466.080597	146.060000
466.174347	146.520000
466.268005	146.260000
466.361725	146.060000
466.455414	146.100000
466.549133	145.840000
466.642792	145.640000
466.736542	145.620000
466.830231	145.820000
466.923920	145.840000
467.017609	145.840000
467.111328	145.580000
467.205017	145.580000
467.298706	145.200000
467.392426	145.400000
467.486115	145.740000
467.579803	145.720000
467.673523	146.240000
467.767212	146.480000
467.860901	146.280000
467.954651	146.380000
468.048309	146.620000
468.142029	146.400000
468.235718	146.340000
468.329437	146.080000
468.423096	146.100000
468.516846	145.900000
468.610504	145.440000
468.704224	145.040000
468.797913	145.200000
468.891632	145.220000
468.985291	145.320000
469.079010	145.600000
469.172729	145.560000
469.266418	146.140000
469.360107	146.020000
469.453827	145.860000
469.547516	145.840000
469.641205	146.140000
469.734924	146.080000
469.828613	146.280000
469.922302	146.540000
470.016022	146.680000
470.109711	146.720000
470.203430	146.080000
470.297150	145.420000
470.390808	145.460000
470.484558	144.920000
470.578217	145.140000
470.671936	145.980000
470.765625	146.820000
470.859344	146.480000
470.953003	147.120000
471.046753	147.000000
471.140411	146.320000
471.234131	146.160000
471.327820	146.600000
471.421539	146.500000
471.515228	146.060000
471.608948	146.160000
471.702637	145.560000
471.796326	145.540000
471.890045	145.740000
471.983734	145.900000
472.077423	145.720000
472.171143	145.980000
472.264832	145.480000
472.358521	145.060000
472.452240	145.000000
472.545929	145.700000
472.639648	145.780000
472.733337	146.280000
472.827057	146.400000
472.920746	146.680000
473.014465	146.820000
473.108124	146.860000
473.201874	147.020000
473.295532	147.040000
473.389252	147.440000
473.482941	146.960000
473.576660	146.620000
473.670319	146.280000
473.764069	146.480000
473.857727	146.220000
473.951477	146.500000
474.045166	147.360000
474.138855	147.280000
474.232574	147.160000
474.326263	147.320000
474.419952	147.160000
474.513672	146.780000
474.607361	146.820000
474.701050	146.920000
474.794769	147.120000
474.888458	147.400000
474.982178	147.200000
475.075867	147.480000
475.169586	147.260000
475.263275	146.960000
475.356995	146.600000
475.450653	146.420000
475.544403	146.040000
475.638062	146.680000
475.731812	145.920000
475.825470	145.740000
475.919189	145.940000
476.012878	146.020000
476.106598	145.240000
476.200256	146.020000
476.294006	145.920000
476.387695	145.920000
476.481384	145.900000
476.575104	146.260000
476.668793	145.680000
476.762512	145.400000
476.856201	145.580000
476.949890	145.460000
477.043610	144.860000
477.137299	145.140000
477.230988	145.720000
477.324707	145.580000
477.418396	146.120000
477.512146	146.460000
477.605804	146.580000
477.699524	146.640000
477.793213	146.600000
477.886932	146.380000
477.980591	146.200000
478.074341	145.740000
478.167999	145.300000
478.261749	145.380000
478.355408	145.180000
478.449127	145.540000
478.542816	146.760000
478.636536	147.580000
478.730225	147.760000
478.823944	148.160000
478.917633	148.120000
479.011322	147.840000
479.105042	147.500000
479.198730	147.420000
479.292450	146.980000
479.386139	147.220000
479.479828	147.060000
479.573547	147.160000
479.667267	147.180000
479.760925	147.360000
479.854675	147.160000
479.948334	147.160000
480.042084	146.520000
480.135742	146.660000
480.229462	146.020000
480.323151	146.280000
480.416870	145.520000
480.510529	146.000000
480.604279	145.160000
480.697937	146.100000
480.791656	145.420000
480.885345	145.580000
480.979065	145.480000
481.072754	146.400000
481.166473	146.640000
481.260132	146.960000
481.353882	147.180000
481.447540	147.000000
481.541260	146.940000
481.635010	146.320000
481.728668	146.100000
481.822388	145.960000
481.916077	146.120000
482.009796	145.700000
482.103485	146.000000
482.197205	145.980000
482.290863	146.200000
482.384613	145.940000
482.478271	145.720000
482.571991	145.500000
482.665680	145.920000
482.759399	146.420000
482.853058	146.860000
482.946808	146.940000
483.040466	146.760000
483.134216	146.320000
483.227875	145.480000
483.321594	146.180000
483.415283	146.240000
483.509003	146.300000
483.602661	146.220000
483.696411	146.920000
483.790070	146.140000
483.883789	146.100000
483.977478	146.440000
484.071198	146.700000
484.164917	146.080000
484.258606	145.580000
484.352325	145.900000
484.445984	145.900000
484.539734	145.820000
484.633392	145.420000
484.727142	146.060000
484.820801	146.040000
484.914520	145.860000
485.008209	146.060000
485.101929	146.780000
485.195587	146.460000
485.289337	146.260000
485.382996	146.240000
485.476715	146.300000
485.570404	146.720000
485.664124	146.600000
485.757782	147.140000
485.851532	146.720000
485.945190	146.360000
486.038910	146.060000
486.132599	146.640000
486.226318	145.700000
486.319977	146.020000
486.413727	146.680000
486.507446	146.260000
486.601105	145.680000
486.694855	145.900000
486.788513	145.660000
486.882233	145.420000
486.975922	145.600000
487.069641	145.520000
487.163300	145.740000
487.257050	146.940000
487.350708	146.460000
487.444427	146.380000
487.538116	146.540000
487.631836	146.280000
487.725494	145.480000
487.819214	145.960000
487.912903	146.080000
488.006622	146.420000
488.100281	146.960000
488.194031	146.840000
488.287689	147.080000
488.381409	147.680000
488.475098	147.300000
488.568817	147.140000
488.662476	147.120000
488.756226	146.140000
488.849945	145.060000
488.943604	145.120000
489.037354	145.260000
489.131012	145.220000
489.224731	145.440000
489.318390	145.660000
489.412140	145.980000
489.505798	145.900000
489.599518	145.460000
489.693207	146.060000
489.786926	145.900000
489.880585	145.520000
489.974335	145.620000
490.067993	146.840000
490.161713	146.820000
490.255371	147.700000
490.349121	147.980000
490.442780	147.640000
490.536499	146.600000
490.630188	146.600000
490.723907	145.920000
490.817566	146.080000
490.911285	146.340000
491.004974	146.500000
491.098694	146.060000
491.192413	146.860000
491.286102	146.520000
491.379822	146.460000
491.473480	146.920000
491.567200	147.100000
491.660889	146.200000
491.754608	146.220000
491.848267	145.980000
491.941986	145.460000
492.035675	145.380000
492.129395	145.860000
492.223053	145.760000
492.316772	146.240000
492.410461	146.280000
492.504181	146.220000
492.597839	145.840000
492.691559	146.120000
492.785248	146.140000
492.878967	146.560000
492.972626	146.140000
493.066345	146.300000
493.160034	145.700000
493.253754	145.440000
493.347412	144.880000
493.441132	145.680000
493.534882	146.020000
493.628540	146.540000
493.722260	147.000000
493.815918	147.520000
493.909668	147.720000
494.003326	148.000000
494.097046	147.900000
494.190704	147.160000
494.284454	146.960000
494.378113	146.700000
494.471832	146.120000
494.565491	145.780000
494.659210	145.820000
494.752899	145.640000
494.846619	145.400000
494.940277	145.640000
495.033997	145.860000
495.127686	145.700000
495.221405	145.760000
495.315063	145.860000
495.408783	145.640000
495.502441	145.780000
495.596191	146.180000
495.689850	146.100000
495.783569	146.400000
495.877228	146.620000
495.970947	146.520000
496.064697	146.280000
496.158356	147.040000
496.252075	146.680000
496.345734	146.260000
496.439453	146.700000
496.533142	146.800000
496.626862	146.760000
496.720520	146.820000
496.814240	146.980000
496.907898	146.540000
497.001617	146.680000
497.095306	145.920000
497.189026	145.860000
497.282684	146.100000
497.376404	146.620000
497.470062	146.180000
497.563782	146.460000
497.657471	146.740000
497.751190	146.500000
497.844849	145.980000
497.938568	146.600000
498.032227	146.580000
498.125946	146.580000
498.219635	146.360000
498.313354	146.520000
498.407074	146.180000
498.500732	146.480000
498.594452	146.360000
498.688110	146.140000
498.781830	145.600000
498.875519	145.780000
498.969238	145.400000
499.062897	145.340000
499.156616	146.220000
499.250275	146.640000
499.343994	145.920000
499.437653	145.980000
499.531372	146.280000
499.625061	146.960000
499.718781	147.000000
499.812439	147.620000
499.906158	147.420000
499.999817	146.920000
500.093536	145.760000
500.187195	145.900000
500.280914	145.580000
500.374573	145.960000
500.468323	146.000000
500.561981	146.500000
500.655701	146.380000
500.749420	146.660000
500.843079	146.920000
500.936798	147.320000
501.030457	147.320000
501.124176	147.520000
501.217834	147.380000
501.311554	146.960000
501.405212	146.440000
501.498962	145.800000
501.592621	145.580000
501.686340	146.520000
501.779999	146.940000
501.873718	147.400000
501.967377	147.720000
502.061096	147.740000
502.154755	146.580000
502.248474	146.220000
502.342133	146.020000
502.435852	145.940000
502.529510	146.380000
502.623230	147.160000
502.716888	146.740000
502.810608	146.640000
502.904266	146.980000
502.997986	146.440000
503.091705	145.880000
503.185364	146.080000
503.279083	146.240000
503.372772	146.140000
503.466492	146.020000
503.560150	146.000000
503.653870	146.220000
503.747528	146.180000
503.841248	146.200000
503.934906	146.680000
504.028625	146.620000
504.122284	146.740000
504.216003	147.480000
504.309662	147.080000
504.403381	147.080000
504.497040	147.140000
504.590759	146.700000
504.684418	146.560000
504.778137	147.300000
504.871796	147.480000
504.965515	147.460000
505.059174	147.760000
505.152893	146.940000
505.246521	146.040000
505.340240	145.660000
505.433899	145.880000
505.527618	146.140000
505.621338	146.580000
505.714996	146.460000
505.808716	146.300000
505.902374	146.560000
505.996094	146.580000
506.089752	146.280000
506.183472	146.760000
506.277130	147.100000
506.370850	147.020000
506.464508	146.640000
506.558228	146.920000
506.651886	146.620000
506.745605	146.580000
506.839264	146.620000
506.932983	146.760000
507.026611	146.340000
507.120331	147.120000
507.213989	146.420000
507.307709	146.360000
507.401367	146.500000
507.495087	147.620000
507.588745	146.700000
507.682465	147.900000
507.776123	147.860000
507.869843	147.700000
507.963531	147.020000
508.057190	147.740000
508.150909	146.760000
508.244568	146.840000
508.338287	146.700000
508.431946	146.340000
508.525665	145.980000
508.619324	145.980000
508.713013	146.140000
508.806671	146.380000
508.900391	146.980000
508.994049	147.060000
509.087769	146.940000
509.181427	146.800000
509.275146	146.540000
509.368774	145.920000
509.462494	145.980000
509.556152	146.440000
509.649872	146.720000
509.743530	146.940000
509.837250	147.540000
509.930878	147.400000
510.024597	147.320000
510.118256	146.660000
510.211975	146.600000
510.305695	146.100000
510.399353	146.440000
510.493042	146.780000
510.586700	147.260000
510.680420	147.860000
510.774078	147.880000
510.867798	147.760000
510.961426	147.260000
511.055145	147.120000
511.148804	146.760000
511.242523	147.260000
511.336151	147.440000
511.429871	147.840000
511.523529	147.400000
511.617249	147.100000
511.710876	146.700000
511.804596	146.080000
511.898254	145.840000
511.991974	146.500000
512.085632	146.340000
512.179321	146.680000
512.272949	147.120000
512.366699	147.320000
512.460327	147.020000
512.554077	148.000000
512.647766	147.700000
512.741394	147.700000
512.835144	148.200000
512.928772	147.700000
513.022461	147.420000
513.116150	147.020000
513.209839	147.600000
513.303467	146.740000
513.397217	146.920000
513.490845	146.140000
513.584595	146.300000
513.678223	145.460000
513.771912	144.940000
513.865601	145.360000
513.959290	145.520000
514.052917	145.620000
514.146667	146.260000
514.240295	147.140000
514.333984	147.200000
514.427673	146.980000
514.521362	147.180000
514.614990	146.300000
514.708740	146.340000
514.802368	146.500000
514.896057	146.860000
514.989746	147.440000
515.083435	147.560000
515.177124	147.680000
515.270752	147.060000
515.364502	146.980000
515.458130	146.780000
515.551819	146.820000
515.645508	146.600000
515.739197	146.680000
515.832825	146.700000
515.926575	146.220000
516.020203	146.520000
516.113892	147.040000
516.207520	147.000000
516.301270	146.900000
516.394897	147.060000
516.488586	147.440000
516.582275	146.840000
516.675964	146.380000
516.769592	146.300000
516.863281	146.820000
516.956970	146.760000
517.050659	146.540000
517.144287	147.220000
517.238037	147.580000
517.331665	146.760000
517.425354	146.300000
517.519043	146.140000
517.612732	146.340000
517.706421	146.060000
517.800049	146.060000
517.893738	145.960000
517.987427	146.260000
518.081116	145.800000
518.174744	145.540000
518.268433	145.960000
518.362122	146.680000
518.455811	146.900000
518.549438	147.540000
518.643127	148.600000
518.736816	148.200000
518.830505	147.280000
518.924133	147.340000
519.017822	147.340000
519.111511	146.460000
519.205200	147.160000
519.298828	147.480000
519.392517	146.960000
519.486206	146.880000
519.579895	147.280000
519.673523	146.740000
519.767212	146.600000
519.860901	147.000000
519.954590	146.580000
520.048279	146.120000
520.141907	145.900000
520.235596	146.600000
520.329224	146.740000
520.422974	147.100000
520.516602	147.260000
520.610291	146.800000
520.703918	146.720000
520.797607	146.220000
520.891296	145.820000
520.984985	146.060000
521.078613	147.240000
521.172302	146.620000
521.265930	147.580000
521.359680	148.120000
521.453308	147.740000
521.546997	147.480000
521.640625	147.720000
521.734314	146.680000
521.827942	146.260000
521.921692	146.780000
522.015320	146.800000
522.109009	146.660000
522.202698	146.720000
522.296326	146.880000
522.390015	146.740000
522.483704	146.700000
522.577393	146.420000
522.671021	146.660000
522.764709	145.860000
522.858337	146.040000
522.952026	145.980000
523.045654	146.720000
523.139404	147.280000
523.233032	148.000000
523.326721	147.780000
523.420349	147.460000
523.514038	147.080000
523.607666	147.020000
523.701355	146.920000
523.795044	146.860000
523.888733	147.060000
523.982361	147.300000
524.076050	147.040000
524.169678	147.160000
524.263367	146.820000
524.356995	146.600000
524.450684	146.200000
524.544373	145.840000
524.638062	145.900000
524.731750	146.480000
524.825378	146.560000
524.919067	146.160000
525.012695	146.280000
525.106384	146.140000
525.200012	146.200000
525.293701	146.000000
525.387329	146.700000
525.481018	147.100000
525.574646	147.220000
525.668396	146.740000
525.762024	147.100000
525.855713	147.120000
525.949341	146.520000
526.043030	146.760000
526.136658	146.940000
526.230347	146.660000
526.323975	146.420000
526.417664	146.440000
526.511292	146.340000
526.604980	146.580000
526.698608	146.580000
526.792297	146.640000
526.885925	147.060000
526.979614	146.940000
527.073303	146.460000
527.166931	146.520000
527.260620	146.780000
527.354309	146.780000
527.447998	146.640000
527.541626	146.640000
527.635315	146.960000
527.728943	147.340000
527.822632	147.640000
527.916260	147.700000
528.009949	148.280000
528.103577	147.860000
528.197266	147.020000
528.290894	146.880000
528.384583	146.820000
528.478210	146.440000
528.571899	146.880000
528.665527	147.380000
528.759216	147.420000
528.852844	147.780000
528.946533	147.820000
529.040161	147.520000
529.133850	147.080000
529.227478	146.780000
529.321167	146.920000
529.414856	147.560000
529.508484	147.880000
529.602173	147.860000
529.695801	147.740000
529.789490	147.420000
529.883057	146.760000
529.976746	146.960000
530.070374	147.300000
530.164062	147.160000
530.257690	147.420000
530.351379	147.820000
530.445007	147.520000
530.538696	147.180000
530.632324	147.300000
530.726013	147.060000
530.819641	146.800000
530.913330	146.800000
531.006958	146.800000
531.100647	147.040000
531.194275	146.760000
531.287964	146.800000
531.381592	146.760000
531.475220	146.980000
531.568848	147.080000
531.662537	147.100000
531.756226	147.160000
531.849854	147.200000
531.943542	146.880000
532.037170	145.920000
532.130859	146.680000
532.224487	146.080000
532.318176	145.480000
532.411804	146.460000
532.505432	147.360000
532.599060	146.840000
532.692749	147.100000
532.786377	147.560000
532.880066	146.560000
532.973694	146.080000
533.067383	145.960000
533.161011	146.000000
533.254639	146.060000
533.348267	146.160000
533.441956	146.540000
533.535583	146.360000
533.629272	146.340000
533.722900	145.920000
533.816589	145.960000
533.910156	146.320000
534.003845	145.960000
534.097534	146.320000
534.191162	147.300000
534.284851	147.400000
534.378479	147.020000
534.472107	147.400000
534.565735	146.840000
534.659424	146.600000
534.753052	146.920000
534.846741	146.440000
534.940369	147.180000
535.033997	147.540000
535.127625	147.340000
535.221313	147.540000
535.314941	147.580000
535.408630	146.880000
535.502197	147.100000
535.595886	146.800000
535.689514	146.400000
535.783203	146.860000
535.876831	147.200000
535.970459	147.060000
536.064087	147.000000
536.157776	147.040000
536.251404	147.020000
536.345093	146.820000
536.438721	146.680000
536.532349	146.940000
536.626038	146.700000
536.719666	147.080000
536.813293	146.420000
536.906921	146.300000
537.000610	146.320000
537.094238	146.540000
537.187866	146.160000
537.281494	146.720000
537.375183	147.080000
537.468811	146.960000
537.562439	146.980000
537.656067	146.920000
537.749756	147.280000
537.843384	147.680000
537.937012	148.000000
538.030640	147.440000
538.124329	147.520000
538.217896	147.700000
538.311584	147.340000
538.405212	146.960000
538.498901	147.800000
538.592468	148.160000
538.686157	147.480000
538.779785	147.000000
538.873413	147.200000
538.967102	146.580000
539.060730	145.960000
539.154358	146.620000
539.247986	147.020000
539.341675	146.960000
539.435242	146.900000
539.528931	147.220000
539.622559	146.400000
539.716187	146.720000
539.809814	146.760000
539.903503	146.880000
539.997070	146.460000
540.090759	146.860000
540.184387	146.540000
540.278015	146.900000
540.371643	147.240000
540.465332	147.620000
540.558899	147.340000
540.652588	147.320000
540.746216	146.900000
540.839844	147.060000
540.933472	146.940000
541.027100	146.880000
541.120728	146.980000
541.214417	147.180000
541.308044	147.080000
541.401672	147.000000
541.495300	146.860000
541.588928	146.540000
541.682617	146.100000
541.776184	145.840000
541.869873	146.380000
541.963440	146.920000
542.057129	147.000000
542.150757	147.580000
542.244385	147.340000
542.338013	146.680000
542.431641	146.600000
542.525269	146.540000
542.618958	146.660000
542.712524	147.060000
542.806213	146.760000
542.899780	146.820000
542.993469	146.500000
543.087036	145.780000
543.180725	145.180000
543.274292	145.880000
543.367981	145.940000
543.461548	146.580000
543.555237	146.620000
543.648926	147.300000
543.742493	147.920000
543.836182	147.740000
543.929749	147.420000
544.023437	147.620000
544.117004	147.620000
544.210693	147.280000
544.304260	147.460000
544.397949	147.180000
544.491516	147.580000
544.585205	147.500000
544.678772	146.740000
544.772461	146.680000
544.866028	146.820000
544.959717	146.540000
545.053284	146.080000
545.146973	146.660000
545.240540	146.980000
545.334229	147.660000
545.427795	148.100000
545.521423	148.400000
545.615051	148.300000
545.708679	148.620000
545.802307	148.580000
545.895935	148.480000
545.989624	149.180000
546.083191	149.020000
546.176880	148.680000
546.270447	147.980000
546.364136	148.060000
546.457703	147.520000
546.551331	147.660000
546.644958	147.640000
546.738586	148.120000
546.832214	147.740000
546.925842	147.600000
547.019409	147.760000
547.113098	147.080000
547.206665	146.620000
547.300354	146.660000
547.393921	146.960000
547.487549	146.920000
547.581177	147.140000
547.674805	146.960000
547.768433	146.620000
547.862061	146.560000
547.955627	145.880000
548.049316	146.260000
548.142883	146.980000
548.236572	147.580000
548.330139	147.820000
548.423767	148.040000
548.517456	147.820000
548.611023	147.840000
548.704651	146.760000
548.798279	145.900000
548.891907	146.240000
548.985474	146.000000
549.079163	146.120000
549.172729	146.500000
549.266357	146.600000
549.359985	146.580000
549.453613	146.360000
549.547180	146.060000
549.640869	146.480000
549.734436	146.620000
549.828064	147.000000
549.921631	147.140000
550.015320	146.800000
550.108887	146.940000
550.202515	146.980000
550.296143	146.120000
550.389771	145.920000
550.483337	146.060000
550.576965	145.820000
550.670593	146.060000
550.764221	146.540000
550.857849	146.820000
550.951477	146.480000
551.045105	146.060000
551.138672	146.100000
551.232300	145.880000
551.325928	146.140000
551.419556	146.520000
551.513123	146.720000
551.606750	146.340000
551.700378	146.280000
551.794006	146.060000
551.887573	146.040000
551.981201	146.440000
552.074768	146.480000
552.168457	146.280000
552.262024	147.120000
552.355652	146.960000
552.449219	147.220000
552.542847	147.220000
552.636475	147.140000
552.730103	145.760000
552.823669	145.680000
552.917297	145.060000
553.010864	145.240000
553.104553	145.520000
553.198181	145.800000
553.291748	146.360000
553.385376	146.620000
553.478943	146.420000
553.572571	146.680000
553.666199	147.080000
553.759827	146.460000
553.853394	146.120000
553.947021	146.200000
554.040588	145.900000
554.134216	145.940000
554.227783	146.700000
554.321411	147.320000
554.415039	147.000000
554.508667	147.080000
554.602234	147.100000
554.695862	146.440000
554.789429	146.200000
554.883057	146.460000
554.976624	146.380000
555.070251	146.100000
555.163818	146.000000
555.257507	145.940000
555.351074	145.900000
555.444702	147.180000
555.538330	147.240000
555.631897	147.860000
555.725525	147.540000
555.819092	147.400000
555.912720	146.060000
556.006287	146.540000
556.099915	145.920000
556.193481	146.080000
556.287109	146.440000
556.380676	146.500000
556.474304	146.420000
556.567871	146.780000
556.661499	146.560000
556.755066	146.320000
556.848694	146.400000
556.942261	146.080000
557.035889	146.240000
557.129517	146.660000
557.223145	147.060000
557.316711	147.160000
557.410339	147.120000
557.503906	146.640000
557.597473	146.740000
557.691040	146.220000
557.784668	146.280000
557.878296	146.300000
557.971863	146.800000
558.065491	146.580000
558.159058	146.540000
558.252686	147.200000
558.346252	147.780000
558.439880	147.460000
558.533447	147.280000
558.627075	147.060000
558.720642	146.260000
558.814270	145.960000
558.907837	146.000000
559.001465	145.520000
559.095032	146.820000
559.188660	146.780000
559.282227	146.520000
559.375854	146.960000
559.469360	147.240000
559.562988	146.860000
559.656555	147.080000
559.750183	147.100000
559.843750	146.760000
559.937378	146.980000
560.030945	146.460000
560.124573	0.000000
560.218140	0.000000
560.311707	0.000000
560.405334	0.000000
560.498901	0.000000
560.592529	0.000000
560.686096	0.000000
560.779724	0.000000
560.873291	0.000000
560.966858	0.000000
561.060425	0.000000
561.154053	0.000000
561.247620	0.000000
561.341248	0.000000
561.434814	0.000000
561.528381	0.000000
561.621948	0.000000
561.715576	0.000000
561.809143	0.000000
561.902771	0.000000
561.996277	0.000000
562.089905	0.000000
562.183472	0.000000
562.277100	0.000000
