Model Number: SPM-002-B   
Serial Number: 70087108
Firmware Version: 004.15.4
Exposure Time: 100000.000000us
Data Taken on: 11-12-2020 19:37:20.049
Wavelength	Amplitude
221.570786	0.000000
221.663406	0.000000
221.756027	0.000000
221.848648	0.000000
221.941269	0.000000
222.033905	0.000000
222.126526	0.000000
222.219162	0.000000
222.311798	0.000000
222.404419	0.000000
222.497055	0.000000
222.589676	0.000000
222.682312	0.000000
222.774933	0.000000
222.867569	0.000000
222.960205	0.000000
223.052841	0.000000
223.145462	0.000000
223.238098	0.000000
223.330734	0.000000
223.423386	0.000000
223.516022	0.000000
223.608658	0.000000
223.701309	0.000000
223.793945	0.000000
223.886581	0.000000
223.979218	0.000000
224.071869	0.000000
224.164505	0.000000
224.257156	0.000000
224.349792	0.000000
224.442444	0.000000
224.535095	0.000000
224.627747	0.000000
224.720398	0.000000
224.813034	0.000000
224.905685	0.000000
224.998337	145.580000
225.090988	145.320000
225.183640	145.080000
225.276291	145.040000
225.368942	145.720000
225.461594	146.420000
225.554245	146.600000
225.646912	146.800000
225.739578	147.420000
225.832230	147.500000
225.924896	146.280000
226.017548	146.480000
226.110199	146.900000
226.202866	146.020000
226.295532	145.820000
226.388184	146.120000
226.480850	145.220000
226.573517	144.900000
226.666168	145.520000
226.758835	145.900000
226.851501	146.840000
226.944183	147.520000
227.036850	146.940000
227.129517	147.020000
227.222183	146.940000
227.314850	146.480000
227.407516	146.840000
227.500198	147.520000
227.592865	146.760000
227.685532	146.140000
227.778214	145.920000
227.870880	146.040000
227.963562	146.380000
228.056229	147.080000
228.148926	147.400000
228.241592	148.060000
228.334274	147.320000
228.426956	146.720000
228.519638	146.660000
228.612305	146.520000
228.704987	146.120000
228.797668	146.520000
228.890350	146.320000
228.983032	145.560000
229.075714	146.040000
229.168396	145.560000
229.261108	144.820000
229.353790	145.020000
229.446472	145.420000
229.539169	145.120000
229.631851	145.360000
229.724533	145.780000
229.817230	146.080000
229.909912	147.000000
230.002609	146.980000
230.095306	146.920000
230.187988	146.900000
230.280685	146.680000
230.373383	145.760000
230.466095	145.760000
230.558792	146.100000
230.651474	145.920000
230.744171	145.760000
230.836868	145.760000
230.929581	145.800000
231.022278	145.700000
231.114975	146.200000
231.207672	145.980000
231.300369	146.720000
231.393082	146.700000
231.485779	146.520000
231.578506	146.360000
231.671204	146.620000
231.763916	146.280000
231.856613	146.280000
231.949326	146.240000
232.042023	145.900000
232.134735	145.840000
232.227448	145.360000
232.320160	145.620000
232.412872	145.700000
232.505585	146.760000
232.598297	147.340000
232.691010	147.580000
232.783722	146.980000
232.876450	147.720000
232.969162	146.840000
233.061874	146.140000
233.154587	145.640000
233.247314	146.280000
233.340027	145.320000
233.432739	145.920000
233.525467	145.860000
233.618179	146.360000
233.710907	145.800000
233.803635	146.620000
233.896347	146.040000
233.989090	146.760000
234.081818	146.560000
234.174545	146.920000
234.267258	146.320000
234.359985	146.660000
234.452713	146.440000
234.545441	146.340000
234.638168	146.100000
234.730896	146.380000
234.823639	146.120000
234.916367	146.620000
235.009094	146.880000
235.101822	147.120000
235.194580	147.060000
235.287308	147.040000
235.380051	146.140000
235.472778	146.580000
235.565521	146.900000
235.658249	146.500000
235.750992	146.580000
235.843719	146.880000
235.936462	146.640000
236.029205	145.980000
236.121948	145.780000
236.214691	146.100000
236.307449	146.540000
236.400192	146.160000
236.492935	146.100000
236.585678	146.740000
236.678421	146.660000
236.771164	146.380000
236.863907	146.980000
236.956665	147.360000
237.049408	148.580000
237.142151	148.040000
237.234909	148.520000
237.327652	148.300000
237.420410	148.000000
237.513153	146.820000
237.605927	146.620000
237.698669	146.100000
237.791428	145.480000
237.884186	146.080000
237.976944	145.780000
238.069702	146.440000
238.162445	145.840000
238.255203	146.240000
238.347961	146.340000
238.440720	146.220000
238.533478	146.160000
238.626266	146.200000
238.719025	146.080000
238.811783	145.960000
238.904541	146.060000
238.997314	145.960000
239.090073	145.780000
239.182831	146.280000
239.275604	146.600000
239.368362	146.520000
239.461136	146.420000
239.553909	146.720000
239.646667	146.520000
239.739441	146.140000
239.832214	146.500000
239.925003	146.940000
240.017761	147.580000
240.110535	148.180000
240.203308	147.740000
240.296082	147.560000
240.388855	147.140000
240.481628	147.120000
240.574417	146.780000
240.667191	146.960000
240.759964	147.040000
240.852737	147.160000
240.945526	146.600000
241.038315	146.240000
241.131088	146.420000
241.223877	146.300000
241.316650	146.020000
241.409439	146.680000
241.502228	146.380000
241.595001	146.640000
241.687790	146.280000
241.780579	146.320000
241.873367	146.260000
241.966141	146.820000
242.058929	146.240000
242.151718	146.700000
242.244507	147.360000
242.337311	146.540000
242.430099	146.540000
242.522903	146.780000
242.615692	146.620000
242.708481	146.580000
242.801270	147.180000
242.894073	147.060000
242.986862	147.180000
243.079651	147.480000
243.172455	146.980000
243.265244	147.020000
243.358063	146.560000
243.450867	146.780000
243.543655	146.760000
243.636459	146.960000
243.729263	147.120000
243.822067	147.560000
243.914856	147.520000
244.007660	147.400000
244.100464	147.620000
244.193268	146.920000
244.286072	146.900000
244.378876	146.520000
244.471680	146.140000
244.564499	146.080000
244.657318	147.040000
244.750122	147.160000
244.842926	146.540000
244.935745	147.160000
245.028549	146.600000
245.121368	145.920000
245.214172	145.720000
245.306992	146.340000
245.399796	145.940000
245.492615	146.080000
245.585434	146.260000
245.678253	146.300000
245.771072	146.320000
245.863892	146.620000
245.956711	146.900000
246.049530	146.680000
246.142349	146.220000
246.235168	146.420000
246.327988	146.860000
246.420807	146.740000
246.513626	146.720000
246.606445	146.860000
246.699280	146.540000
246.792099	146.120000
246.884918	145.600000
246.977753	145.220000
247.070587	145.460000
247.163422	145.480000
247.256241	145.480000
247.349075	146.020000
247.441895	146.520000
247.534729	146.440000
247.627563	146.380000
247.720383	146.800000
247.813217	146.780000
247.906052	146.580000
247.998886	146.780000
248.091736	147.080000
248.184570	146.600000
248.277405	146.400000
248.370239	147.460000
248.463074	148.240000
248.555908	148.360000
248.648743	148.160000
248.741592	148.120000
248.834427	147.380000
248.927261	146.260000
249.020111	146.400000
249.112946	147.440000
249.205795	147.200000
249.298630	147.040000
249.391495	147.180000
249.484344	146.680000
249.577179	146.100000
249.670029	146.320000
249.762878	146.980000
249.855728	146.900000
249.948563	147.060000
250.041412	146.400000
250.134262	146.880000
250.227112	146.700000
250.319962	146.880000
250.412827	146.860000
250.505692	146.900000
250.598541	146.520000
250.691391	145.740000
250.784241	145.680000
250.877106	145.640000
250.969955	145.640000
251.062805	146.340000
251.155670	147.260000
251.248520	146.820000
251.341385	147.060000
251.434235	147.080000
251.527100	146.440000
251.619965	145.760000
251.712814	146.880000
251.805695	146.780000
251.898560	147.120000
251.991425	147.500000
252.084290	147.780000
252.177155	146.920000
252.270020	146.680000
252.362885	146.640000
252.455750	146.320000
252.548615	145.880000
252.641479	146.020000
252.734360	145.960000
252.827240	145.660000
252.920105	145.940000
253.012970	146.140000
253.105850	145.840000
253.198715	145.840000
253.291595	146.020000
253.384460	145.560000
253.477341	145.460000
253.570221	145.960000
253.663086	145.840000
253.755966	146.260000
253.848846	146.220000
253.941727	146.540000
254.034592	146.320000
254.127472	146.120000
254.220367	146.080000
254.313248	146.580000
254.406128	146.340000
254.499008	146.840000
254.591904	147.640000
254.684784	148.080000
254.777664	147.940000
254.870544	147.740000
254.963440	147.360000
255.056335	147.020000
255.149216	146.420000
255.242111	146.940000
255.334991	147.320000
255.427887	147.300000
255.520767	147.520000
255.613663	147.700000
255.706558	146.960000
255.799438	146.660000
255.892334	146.420000
255.985229	146.440000
256.078125	146.360000
256.171021	146.140000
256.263916	146.740000
256.356812	147.360000
256.449707	147.100000
256.542603	146.800000
256.635498	147.480000
256.728394	147.220000
256.821289	146.640000
256.914215	146.860000
257.007080	147.200000
257.100006	147.240000
257.192932	147.680000
257.285828	148.000000
257.378723	147.560000
257.471619	147.480000
257.564545	146.820000
257.657440	146.720000
257.750336	147.200000
257.843262	147.440000
257.936157	148.340000
258.029053	148.880000
258.121979	148.660000
258.214874	147.860000
258.307800	147.660000
258.400696	146.700000
258.493622	146.840000
258.586517	146.200000
258.679443	146.500000
258.772339	146.140000
258.865265	146.060000
258.958160	145.400000
259.051086	146.280000
259.144012	146.300000
259.236938	147.300000
259.329834	147.540000
259.422791	147.520000
259.515717	146.840000
259.608612	146.720000
259.701538	146.660000
259.794464	146.060000
259.887390	146.360000
259.980316	146.240000
260.073212	146.180000
260.166138	145.400000
260.259064	145.960000
260.351990	146.440000
260.444916	146.700000
260.537842	146.800000
260.630768	147.460000
260.723694	147.120000
260.816620	146.960000
260.909546	146.960000
261.002472	146.740000
261.095398	146.380000
261.188354	146.580000
261.281281	145.820000
261.374207	145.900000
261.467133	146.640000
261.560089	146.720000
261.653015	146.620000
261.745972	147.540000
261.838867	147.540000
261.931824	147.520000
262.024780	146.940000
262.117706	146.680000
262.210663	146.380000
262.303589	146.440000
262.396515	146.460000
262.489471	147.680000
262.582397	147.920000
262.675354	147.360000
262.768280	147.580000
262.861237	147.320000
262.954163	146.600000
263.047119	146.700000
263.140045	146.940000
263.233002	146.700000
263.325958	146.560000
263.418884	146.180000
263.511841	146.080000
263.604797	146.280000
263.697723	146.240000
263.790680	146.160000
263.883636	147.060000
263.976593	146.940000
264.069550	146.960000
264.162476	146.920000
264.255463	147.180000
264.348419	146.600000
264.441376	147.140000
264.534332	146.760000
264.627289	146.560000
264.720245	147.080000
264.813202	146.640000
264.906158	146.360000
264.999115	146.880000
265.092072	146.820000
265.185028	146.980000
265.277985	147.520000
265.370941	147.640000
265.463898	147.420000
265.556854	147.600000
265.649811	146.480000
265.742798	146.480000
265.835754	146.660000
265.928711	146.740000
266.021667	146.360000
266.114655	146.680000
266.207611	146.900000
266.300568	146.060000
266.393585	145.780000
266.486511	146.640000
266.579498	145.960000
266.672485	145.720000
266.765442	145.600000
266.858429	146.140000
266.951385	145.560000
267.044342	146.120000
267.137329	146.100000
267.230316	146.880000
267.323273	146.500000
267.416260	147.340000
267.509216	147.360000
267.602203	147.460000
267.695160	147.840000
267.788147	147.780000
267.881134	146.960000
267.974091	146.960000
268.067078	146.840000
268.160065	146.200000
268.253052	146.040000
268.346008	146.180000
268.438995	146.040000
268.531982	146.060000
268.624969	146.000000
268.717987	146.640000
268.810944	146.360000
268.903961	146.760000
268.996948	146.320000
269.089905	146.740000
269.182892	146.640000
269.275879	147.180000
269.368866	146.400000
269.461853	147.040000
269.554871	147.000000
269.647858	146.860000
269.740845	147.180000
269.833832	147.920000
269.926819	147.300000
270.019806	147.000000
270.112793	146.220000
270.205811	146.260000
270.298798	145.660000
270.391785	146.400000
270.484772	146.160000
270.577789	146.500000
270.670776	145.860000
270.763763	146.120000
270.856750	146.080000
270.949768	146.100000
271.042786	146.140000
271.135773	146.260000
271.228790	146.460000
271.321808	146.000000
271.414795	145.980000
271.507782	146.040000
271.600800	145.360000
271.693817	145.300000
271.786804	145.760000
271.879822	145.880000
271.972809	145.760000
272.065826	146.620000
272.158844	145.920000
272.251831	146.480000
272.344849	146.340000
272.437866	146.100000
272.530853	145.920000
272.623871	146.520000
272.716888	145.160000
272.809906	145.920000
272.902893	146.180000
272.995911	145.780000
273.088928	146.080000
273.181946	146.580000
273.274963	145.640000
273.367981	145.580000
273.460999	145.840000
273.554047	145.920000
273.647003	146.480000
273.740051	146.780000
273.833069	147.100000
273.926086	147.420000
274.019135	146.860000
274.112152	146.240000
274.205170	146.560000
274.298187	146.700000
274.391205	146.100000
274.484222	146.340000
274.577240	146.820000
274.670258	146.440000
274.763306	146.580000
274.856323	146.980000
274.949341	147.280000
275.042358	147.400000
275.135406	147.500000
275.228424	147.280000
275.321442	147.380000
275.414490	146.640000
275.507507	146.580000
275.600525	146.980000
275.693573	146.660000
275.786591	146.260000
275.879669	146.760000
275.972656	146.460000
276.065735	146.180000
276.158752	146.740000
276.251801	147.360000
276.344818	147.240000
276.437866	147.300000
276.530884	147.080000
276.623932	146.200000
276.716980	146.080000
276.809998	146.200000
276.903046	146.060000
276.996094	146.860000
277.089111	147.640000
277.182159	147.820000
277.275208	147.580000
277.368256	147.620000
277.461304	147.080000
277.554321	146.320000
277.647369	146.000000
277.740417	146.000000
277.833466	146.260000
277.926514	146.140000
278.019562	146.840000
278.112610	146.420000
278.205688	146.680000
278.298706	146.280000
278.391785	146.160000
278.484833	145.740000
278.577881	145.820000
278.670929	145.760000
278.763977	145.900000
278.857025	146.360000
278.950073	146.540000
279.043121	146.680000
279.136169	146.560000
279.229248	146.520000
279.322296	146.300000
279.415344	146.140000
279.508392	146.180000
279.601440	146.360000
279.694519	146.100000
279.787567	145.840000
279.880615	145.760000
279.973694	145.300000
280.066742	145.280000
280.159790	145.660000
280.252869	145.660000
280.345917	145.860000
280.438995	146.440000
280.532074	146.120000
280.625122	146.320000
280.718201	147.060000
280.811279	147.220000
280.904327	147.120000
280.997406	147.500000
281.090454	147.340000
281.183533	146.580000
281.276581	146.260000
281.369659	145.820000
281.462738	145.800000
281.555786	145.800000
281.648865	146.040000
281.741943	146.040000
281.835022	146.640000
281.928070	146.300000
282.021149	146.080000
282.114227	145.980000
282.207306	146.280000
282.300385	146.500000
282.393433	146.840000
282.486511	146.840000
282.579590	147.380000
282.672668	147.440000
282.765747	146.920000
282.858856	146.720000
282.951904	146.900000
283.045013	146.660000
283.138062	146.840000
283.231171	147.260000
283.324249	147.460000
283.417328	147.800000
283.510406	147.540000
283.603485	147.220000
283.696564	146.880000
283.789642	146.880000
283.882751	146.120000
283.975830	146.800000
284.068909	146.500000
284.161987	147.220000
284.255066	146.820000
284.348175	147.120000
284.441254	146.580000
284.534332	147.040000
284.627441	146.160000
284.720520	146.180000
284.813599	146.440000
284.906708	146.540000
284.999786	145.620000
285.092896	145.820000
285.185974	146.940000
285.279053	146.360000
285.372192	146.500000
285.465240	147.560000
285.558380	147.640000
285.651459	146.960000
285.744568	147.920000
285.837677	147.360000
285.930756	147.220000
286.023865	147.040000
286.116943	146.500000
286.210052	146.340000
286.303162	146.600000
286.396240	146.500000
286.489349	146.240000
286.582458	146.700000
286.675568	146.180000
286.768646	146.380000
286.861755	146.660000
286.954865	147.340000
287.047974	146.880000
287.141083	146.920000
287.234161	146.500000
287.327271	146.160000
287.420380	146.360000
287.513519	146.280000
287.606598	146.120000
287.699738	146.600000
287.792816	146.400000
287.885956	146.300000
287.979034	146.380000
288.072174	146.520000
288.165283	146.300000
288.258392	146.680000
288.351501	145.920000
288.444611	146.540000
288.537720	147.200000
288.630859	146.820000
288.723969	146.840000
288.817078	147.200000
288.910187	146.700000
289.003296	146.080000
289.096436	146.260000
289.189545	146.080000
289.282654	145.820000
289.375763	146.300000
289.468903	146.580000
289.562012	146.940000
289.655121	147.160000
289.748260	147.200000
289.841400	147.620000
289.934509	147.240000
290.027649	147.200000
290.120728	146.900000
290.213898	147.100000
290.306976	146.040000
290.400146	146.420000
290.493256	146.120000
290.586395	146.300000
290.679535	146.600000
290.772644	146.860000
290.865784	146.080000
290.958893	146.020000
291.052032	145.720000
291.145172	145.600000
291.238281	145.300000
291.331421	145.500000
291.424561	145.940000
291.517670	145.800000
291.610809	145.940000
291.703949	146.420000
291.797089	146.780000
291.890228	146.240000
291.983337	146.320000
292.076477	145.880000
292.169617	146.140000
292.262756	146.140000
292.355927	146.180000
292.449036	146.200000
292.542206	146.180000
292.635315	145.980000
292.728485	146.220000
292.821625	145.980000
292.914764	146.980000
293.007904	147.200000
293.101044	147.020000
293.194183	146.820000
293.287323	147.380000
293.380463	146.800000
293.473602	146.740000
293.566742	147.100000
293.659882	147.100000
293.753021	147.120000
293.846191	146.940000
293.939331	146.480000
294.032471	146.240000
294.125610	146.160000
294.218781	146.420000
294.311920	146.700000
294.405060	147.080000
294.498230	146.760000
294.591370	146.600000
294.684540	145.860000
294.777679	145.380000
294.870850	145.800000
294.963959	145.680000
295.057159	145.520000
295.150299	146.100000
295.243469	146.000000
295.336609	144.980000
295.429779	145.240000
295.522919	145.940000
295.616089	145.720000
295.709229	146.320000
295.802399	146.740000
295.895569	146.640000
295.988708	146.280000
296.081879	146.300000
296.175018	145.720000
296.268188	145.640000
296.361359	146.060000
296.454529	146.220000
296.547668	145.960000
296.640839	146.320000
296.734009	146.180000
296.827179	146.260000
296.920319	146.340000
297.013519	146.200000
297.106659	146.360000
297.199860	146.640000
297.292999	146.420000
297.386200	146.080000
297.479309	146.160000
297.572510	145.920000
297.665680	145.680000
297.758850	145.520000
297.852020	145.480000
297.945190	145.520000
298.038361	145.460000
298.131531	146.560000
298.224701	146.460000
298.317871	146.120000
298.411072	145.700000
298.504242	145.480000
298.597412	144.760000
298.690582	145.180000
298.783752	145.720000
298.876923	146.460000
298.970093	146.800000
299.063293	147.020000
299.156464	147.140000
299.249634	147.080000
299.342834	147.140000
299.436005	147.600000
299.529205	147.580000
299.622345	147.520000
299.715576	147.140000
299.808716	146.540000
299.901917	146.180000
299.995117	146.280000
300.088287	146.160000
300.181488	146.180000
300.274658	146.320000
300.367828	146.020000
300.461029	145.980000
300.554199	146.140000
300.647400	146.160000
300.740601	146.640000
300.833771	146.560000
300.926971	146.520000
301.020142	145.920000
301.113342	145.820000
301.206512	145.360000
301.299713	145.900000
301.392914	145.840000
301.486084	146.260000
301.579285	146.460000
301.672516	147.100000
301.765686	146.840000
301.858887	146.900000
301.952057	146.680000
302.045288	146.720000
302.138458	146.380000
302.231659	146.000000
302.324860	145.880000
302.418060	145.820000
302.511261	145.920000
302.604462	146.000000
302.697662	146.280000
302.790863	146.120000
302.884064	145.820000
302.977264	145.940000
303.070465	146.180000
303.163666	146.620000
303.256866	147.100000
303.350067	147.380000
303.443268	147.180000
303.536469	147.200000
303.629669	146.500000
303.722870	146.100000
303.816071	145.860000
303.909271	145.800000
304.002472	144.840000
304.095673	145.100000
304.188934	144.460000
304.282104	145.640000
304.375336	145.660000
304.468506	145.920000
304.561768	145.440000
304.654968	146.360000
304.748169	145.600000
304.841370	145.560000
304.934601	146.100000
305.027802	146.260000
305.121002	145.960000
305.214233	146.040000
305.307434	146.040000
305.400665	146.320000
305.493866	146.460000
305.587097	146.820000
305.680298	146.300000
305.773499	147.020000
305.866730	146.540000
305.959930	146.800000
306.053162	146.860000
306.146393	146.880000
306.239594	146.100000
306.332825	146.120000
306.426025	146.180000
306.519287	145.660000
306.612488	146.160000
306.705719	146.240000
306.798920	146.280000
306.892181	145.880000
306.985352	145.660000
307.078613	144.900000
307.171844	145.420000
307.265045	145.020000
307.358276	144.900000
307.451508	145.640000
307.544739	146.440000
307.637970	145.900000
307.731201	146.080000
307.824402	146.760000
307.917633	146.960000
308.010864	147.640000
308.104095	147.620000
308.197327	147.920000
308.290558	147.620000
308.383789	146.840000
308.477020	146.060000
308.570251	145.720000
308.663483	145.080000
308.756714	144.740000
308.849976	145.000000
308.943176	145.560000
309.036438	145.800000
309.129639	146.020000
309.222900	146.380000
309.316101	146.260000
309.409393	145.480000
309.502625	145.380000
309.595856	145.460000
309.689087	145.500000
309.782318	145.640000
309.875580	145.740000
309.968811	145.960000
310.062042	146.160000
310.155273	146.360000
310.248535	146.620000
310.341766	146.680000
310.434998	146.280000
310.528259	146.100000
310.621490	146.340000
310.714722	145.940000
310.807983	146.000000
310.901215	146.300000
310.994476	146.340000
311.087708	145.440000
311.181000	145.780000
311.274200	145.260000
311.367462	145.440000
311.460693	145.220000
311.553986	146.040000
311.647186	146.300000
311.740479	147.020000
311.833710	146.660000
311.926971	146.780000
312.020203	146.200000
312.113464	145.840000
312.206726	145.500000
312.299957	146.040000
312.393219	146.680000
312.486481	147.000000
312.579712	146.880000
312.672974	146.860000
312.766235	146.540000
312.859497	146.040000
312.952759	145.840000
313.045990	146.560000
313.139252	146.220000
313.232513	146.760000
313.325775	146.900000
313.419037	146.740000
313.512299	145.780000
313.605530	146.480000
313.698822	145.960000
313.792053	146.080000
313.885345	145.840000
313.978577	146.160000
314.071869	145.720000
314.165131	146.320000
314.258392	146.540000
314.351654	146.800000
314.444916	146.180000
314.538177	146.720000
314.631439	146.560000
314.724701	146.040000
314.817993	145.820000
314.911255	146.280000
315.004517	145.960000
315.097778	145.760000
315.191040	146.260000
315.284302	146.760000
315.377594	146.760000
315.470856	146.380000
315.564117	145.860000
315.657379	145.400000
315.750671	144.820000
315.843933	144.980000
315.937195	144.700000
316.030518	144.620000
316.123749	144.600000
316.217041	145.420000
316.310303	145.220000
316.403595	146.020000
316.496857	146.440000
316.590149	146.680000
316.683411	146.080000
316.776703	145.840000
316.869965	145.540000
316.963257	145.480000
317.056519	144.880000
317.149811	144.800000
317.243073	145.200000
317.336365	145.260000
317.429626	145.640000
317.522919	146.340000
317.616180	146.160000
317.709473	145.680000
317.802765	145.560000
317.896027	145.140000
317.989319	144.940000
318.082611	145.420000
318.175873	145.500000
318.269165	145.560000
318.362488	145.620000
318.455750	145.360000
318.549042	145.420000
318.642303	146.120000
318.735626	145.800000
318.828888	145.980000
318.922211	145.760000
319.015472	146.260000
319.108765	145.420000
319.202057	145.860000
319.295349	145.840000
319.388641	146.200000
319.481934	145.760000
319.575226	146.040000
319.668518	146.060000
319.761810	146.320000
319.855103	146.300000
319.948395	146.400000
320.041687	146.360000
320.134979	146.160000
320.228271	145.620000
320.321564	145.500000
320.414856	145.180000
320.508148	144.940000
320.601440	145.000000
320.694763	145.160000
320.788025	145.920000
320.881348	145.980000
320.974640	146.080000
321.067963	145.500000
321.161224	145.480000
321.254547	144.520000
321.347839	145.280000
321.441162	145.200000
321.534454	145.700000
321.627747	145.740000
321.721069	146.920000
321.814362	146.420000
321.907654	146.520000
322.000946	146.540000
322.094269	147.140000
322.187561	146.060000
322.280884	146.340000
322.374176	146.580000
322.467468	147.120000
322.560791	146.740000
322.654083	147.380000
322.747406	147.260000
322.840698	147.500000
322.934021	147.540000
323.027344	147.700000
323.120636	147.320000
323.213959	147.220000
323.307251	146.440000
323.400574	145.940000
323.493866	145.440000
323.587219	145.340000
323.680511	145.600000
323.773834	146.040000
323.867157	145.980000
323.960449	146.060000
324.053772	146.420000
324.147095	146.100000
324.240387	146.440000
324.333710	146.720000
324.427032	147.180000
324.520355	147.080000
324.613647	146.820000
324.706970	146.380000
324.800293	146.320000
324.893616	146.140000
324.986938	146.260000
325.080231	146.360000
325.173553	146.800000
325.266876	146.800000
325.360199	146.900000
325.453522	146.440000
325.546875	145.960000
325.640167	146.080000
325.733521	146.460000
325.826813	146.700000
325.920166	146.600000
326.013489	146.780000
326.106812	145.880000
326.200134	145.460000
326.293457	144.600000
326.386780	145.020000
326.480103	145.500000
326.573425	145.920000
326.666748	145.900000
326.760071	146.800000
326.853424	147.020000
326.946747	146.880000
327.040070	147.280000
327.133392	146.980000
327.226715	146.180000
327.320068	145.380000
327.413391	145.820000
327.506714	145.180000
327.600037	145.280000
327.693390	145.440000
327.786713	145.640000
327.880066	145.300000
327.973358	145.920000
328.066742	146.260000
328.160034	146.240000
328.253418	146.720000
328.346710	146.520000
328.440063	146.140000
328.533417	146.100000
328.626740	146.640000
328.720093	146.320000
328.813416	146.420000
328.906769	146.620000
329.000092	146.540000
329.093445	146.100000
329.186768	145.800000
329.280121	146.300000
329.373444	146.440000
329.466797	146.320000
329.560120	146.260000
329.653473	146.600000
329.746796	146.000000
329.840149	145.620000
329.933502	145.920000
330.026825	145.780000
330.120178	145.700000
330.213562	145.760000
330.306854	146.100000
330.400238	145.880000
330.493561	145.900000
330.586945	146.740000
330.680237	146.900000
330.773621	146.780000
330.866974	146.860000
330.960327	147.220000
331.053680	146.460000
331.147003	146.220000
331.240356	146.340000
331.333710	146.140000
331.427063	145.780000
331.520416	145.880000
331.613770	145.900000
331.707123	145.900000
331.800476	146.160000
331.893829	147.260000
331.987152	147.200000
332.080505	147.480000
332.173859	147.220000
332.267212	146.620000
332.360565	145.820000
332.453918	145.900000
332.547333	145.860000
332.640656	146.100000
332.734039	146.600000
332.827362	146.360000
332.920746	146.600000
333.014069	146.760000
333.107452	146.940000
333.200806	147.040000
333.294159	147.120000
333.387543	146.520000
333.480896	146.120000
333.574249	145.820000
333.667603	145.300000
333.760956	145.720000
333.854340	145.900000
333.947693	146.040000
334.041046	146.200000
334.134430	146.720000
334.227783	146.120000
334.321136	146.200000
334.414520	146.060000
334.507874	145.960000
334.601227	146.180000
334.694611	146.220000
334.787964	145.880000
334.881348	146.440000
334.974701	146.340000
335.068085	145.760000
335.161438	146.280000
335.254822	146.540000
335.348175	146.100000
335.441559	145.920000
335.534943	146.400000
335.628296	146.140000
335.721680	146.380000
335.815033	146.400000
335.908417	146.760000
336.001770	146.820000
336.095154	146.580000
336.188538	146.340000
336.281891	145.980000
336.375275	145.220000
336.468658	144.860000
336.562012	145.220000
336.655396	145.320000
336.748779	145.580000
336.842133	146.220000
336.935516	146.460000
337.028900	145.840000
337.122284	145.820000
337.215637	146.120000
337.309021	145.820000
337.402435	145.180000
337.495789	145.580000
337.589203	145.300000
337.682526	145.160000
337.775940	145.580000
337.869324	146.100000
337.962708	146.200000
338.056091	147.020000
338.149475	146.580000
338.242859	146.360000
338.336243	146.200000
338.429626	145.920000
338.523010	145.500000
338.616394	145.500000
338.709778	145.580000
338.803162	145.880000
338.896545	146.180000
338.989929	145.660000
339.083313	146.120000
339.176697	146.100000
339.270081	145.620000
339.363464	145.880000
339.456848	146.480000
339.550232	145.580000
339.643616	145.360000
339.737030	145.380000
339.830383	144.720000
339.923828	144.860000
340.017181	145.420000
340.110596	145.440000
340.203949	145.460000
340.297363	145.480000
340.390778	145.220000
340.484161	145.560000
340.577545	145.620000
340.670959	145.740000
340.764343	145.860000
340.857727	145.940000
340.951111	145.060000
341.044525	145.340000
341.137909	144.920000
341.231293	144.620000
341.324707	144.040000
341.418091	145.100000
341.511505	144.860000
341.604889	145.420000
341.698303	145.780000
341.791687	146.160000
341.885071	145.540000
341.978485	145.360000
342.071899	145.540000
342.165283	145.840000
342.258698	146.100000
342.352081	146.740000
342.445496	147.280000
342.538879	146.900000
342.632324	146.460000
342.725708	146.260000
342.819122	145.560000
342.912506	145.100000
343.005920	145.280000
343.099335	146.240000
343.192719	145.960000
343.286133	145.920000
343.379547	146.400000
343.472931	146.400000
343.566345	145.640000
343.659760	145.840000
343.753143	145.880000
343.846558	145.680000
343.939972	145.580000
344.033386	146.060000
344.126770	145.920000
344.220184	146.120000
344.313599	146.440000
344.407043	146.740000
344.500427	145.840000
344.593872	146.560000
344.687225	146.140000
344.780670	145.480000
344.874054	145.060000
344.967499	146.160000
345.060913	145.840000
345.154327	146.160000
345.247742	146.300000
345.341156	146.140000
345.434570	145.400000
345.527985	145.180000
345.621399	145.500000
345.714813	145.520000
345.808228	145.840000
345.901642	145.620000
345.995056	145.520000
346.088470	145.580000
346.181885	145.920000
346.275299	145.740000
346.368713	146.020000
346.462128	145.640000
346.555573	145.440000
346.648987	145.460000
346.742401	145.700000
346.835815	146.100000
346.929260	146.480000
347.022644	146.400000
347.116119	146.420000
347.209503	146.580000
347.302948	147.020000
347.396362	147.620000
347.489807	147.920000
347.583221	148.300000
347.676636	147.920000
347.770050	146.960000
347.863495	146.000000
347.956909	145.660000
348.050323	145.220000
348.143768	145.360000
348.237183	145.080000
348.330597	145.700000
348.424042	146.200000
348.517456	146.400000
348.610901	146.460000
348.704315	146.940000
348.797760	146.260000
348.891174	145.540000
348.984619	144.920000
349.078033	145.200000
349.171448	145.640000
349.264923	145.980000
349.358337	146.180000
349.451782	146.300000
349.545197	145.600000
349.638641	145.040000
349.732086	144.720000
349.825500	144.760000
349.918945	144.660000
350.012390	145.280000
350.105804	145.640000
350.199249	145.760000
350.292664	146.220000
350.386108	146.160000
350.479553	146.340000
350.572968	146.040000
350.666412	146.320000
350.759857	146.060000
350.853302	146.680000
350.946716	145.980000
351.040161	146.000000
351.133606	146.220000
351.227081	145.900000
351.320465	146.360000
351.413940	146.860000
351.507355	147.100000
351.600830	147.100000
351.694244	147.200000
351.787720	146.780000
351.881104	146.820000
351.974579	146.820000
352.067993	147.320000
352.161469	147.360000
352.254883	146.680000
352.348358	146.400000
352.441803	146.000000
352.535248	145.900000
352.628693	146.320000
352.722137	146.380000
352.815582	146.640000
352.909027	147.140000
353.002472	146.380000
353.095917	146.000000
353.189362	146.580000
353.282806	146.100000
353.376251	145.740000
353.469696	145.620000
353.563141	146.200000
353.656586	145.720000
353.750061	145.800000
353.843475	145.940000
353.936981	146.800000
354.030396	146.060000
354.123871	146.120000
354.217285	147.100000
354.310760	147.300000
354.404175	146.820000
354.497681	146.540000
354.591095	146.680000
354.684570	145.360000
354.777985	145.120000
354.871490	145.120000
354.964935	145.720000
355.058380	145.760000
355.151855	145.940000
355.245300	146.260000
355.338745	146.360000
355.432220	146.440000
355.525665	145.740000
355.619110	146.440000
355.712585	146.040000
355.806030	145.620000
355.899475	145.200000
355.992950	145.940000
356.086426	145.540000
356.179871	145.640000
356.273346	145.920000
356.366791	146.140000
356.460266	146.220000
356.553711	146.020000
356.647186	146.080000
356.740631	145.800000
356.834106	145.660000
356.927551	145.580000
357.021027	145.840000
357.114471	146.080000
357.207947	146.440000
357.301422	146.660000
357.394867	146.600000
357.488342	146.800000
357.581818	146.700000
357.675262	146.820000
357.768738	146.660000
357.862213	146.260000
357.955658	145.980000
358.049133	145.900000
358.142609	146.240000
358.236053	146.060000
358.329529	146.340000
358.423035	146.660000
358.516449	146.280000
358.609955	146.300000
358.703400	147.320000
358.796906	147.680000
358.890350	147.440000
358.983826	147.900000
359.077271	147.220000
359.170776	146.140000
359.264221	145.600000
359.357727	145.560000
359.451172	145.680000
359.544647	145.820000
359.638123	146.100000
359.731598	146.300000
359.825073	146.880000
359.918549	146.640000
360.012024	146.740000
360.105499	146.460000
360.198975	146.520000
360.292450	146.220000
360.385925	146.140000
360.479401	145.500000
360.572876	145.740000
360.666351	146.140000
360.759857	145.900000
360.853302	145.940000
360.946808	146.080000
361.040253	146.160000
361.133759	145.260000
361.227203	145.380000
361.320709	145.040000
361.414154	145.580000
361.507660	146.100000
361.601105	147.120000
361.694641	147.680000
361.788086	147.740000
361.881592	148.020000
361.975067	147.360000
362.068542	147.300000
362.162018	146.720000
362.255524	146.680000
362.348999	146.460000
362.442474	146.800000
362.535950	146.200000
362.629456	146.000000
362.722931	146.000000
362.816406	146.340000
362.909882	146.660000
363.003387	146.520000
363.096863	147.060000
363.190338	147.220000
363.283875	146.900000
363.377319	146.420000
363.470825	147.080000
363.564301	146.340000
363.657806	146.380000
363.751282	146.180000
363.844788	146.980000
363.938232	146.300000
364.031769	147.140000
364.125214	147.480000
364.218750	147.860000
364.312225	146.780000
364.405731	147.080000
364.499207	146.300000
364.592712	145.720000
364.686188	145.160000
364.779694	145.400000
364.873169	145.280000
364.966675	145.160000
365.060150	145.460000
365.153656	146.340000
365.247131	146.440000
365.340637	146.740000
365.434143	147.880000
365.527618	147.840000
365.621155	146.700000
365.714600	146.560000
365.808136	146.640000
365.901611	145.240000
365.995117	145.140000
366.088593	145.660000
366.182129	145.740000
366.275604	145.480000
366.369110	145.900000
366.462585	145.880000
366.556122	146.380000
366.649567	146.320000
366.743103	146.400000
366.836609	146.100000
366.930115	146.420000
367.023590	146.060000
367.117096	146.200000
367.210602	146.000000
367.304108	146.900000
367.397614	147.320000
367.491119	147.560000
367.584595	147.260000
367.678101	147.720000
367.771606	147.240000
367.865112	146.280000
367.958649	145.660000
368.052124	145.820000
368.145660	145.480000
368.239136	146.100000
368.332672	146.620000
368.426147	146.540000
368.519684	146.320000
368.613159	146.340000
368.706696	145.660000
368.800171	145.400000
368.893707	145.800000
368.987183	146.020000
369.080719	146.360000
369.174225	146.240000
369.267731	146.540000
369.361237	146.620000
369.454742	146.540000
369.548248	146.680000
369.641754	146.620000
369.735260	146.400000
369.828766	145.540000
369.922272	146.320000
370.015808	145.860000
370.109314	145.800000
370.202820	145.560000
370.296356	146.800000
370.389832	145.820000
370.483368	145.500000
370.576874	145.380000
370.670410	145.940000
370.763885	145.040000
370.857422	145.340000
370.950928	145.440000
371.044464	146.520000
371.137939	146.280000
371.231476	146.780000
371.324982	147.420000
371.418518	147.940000
371.512024	147.320000
371.605560	147.100000
371.699066	146.840000
371.792572	146.180000
371.886108	146.160000
371.979614	146.180000
372.073120	146.580000
372.166656	146.680000
372.260162	147.040000
372.353668	146.620000
372.447205	146.720000
372.540710	146.540000
372.634277	146.260000
372.727753	146.160000
372.821320	146.320000
372.914795	146.060000
373.008362	146.140000
373.101837	146.500000
373.195404	146.180000
373.288879	146.180000
373.382446	147.020000
373.475922	147.060000
373.569489	147.620000
373.662964	148.100000
373.756531	148.080000
373.850037	147.780000
373.943573	147.680000
374.037109	146.540000
374.130615	146.540000
374.224152	146.680000
374.317657	146.360000
374.411194	146.900000
374.504730	146.940000
374.598236	146.520000
374.691772	146.280000
374.785309	146.200000
374.878815	145.220000
374.972351	146.220000
375.065887	146.100000
375.159454	146.980000
375.252930	147.040000
375.346497	147.360000
375.440002	147.480000
375.533569	147.580000
375.627045	146.580000
375.720612	146.380000
375.814117	146.760000
375.907684	146.000000
376.001160	145.540000
376.094727	145.340000
376.188232	146.080000
376.281799	145.760000
376.375336	146.080000
376.468872	147.060000
376.562408	147.160000
376.655914	146.740000
376.749451	147.060000
376.842987	146.740000
376.936523	146.360000
377.030060	146.520000
377.123596	146.460000
377.217133	145.780000
377.310669	145.820000
377.404205	146.020000
377.497772	146.600000
377.591278	146.420000
377.684845	147.340000
377.778351	147.680000
377.871918	147.280000
377.965424	146.540000
378.058990	146.440000
378.152496	145.600000
378.246063	145.700000
378.339569	146.200000
378.433136	146.380000
378.526642	146.440000
378.620209	146.960000
378.713745	146.440000
378.807312	146.540000
378.900848	146.460000
378.994385	146.780000
379.087921	145.700000
379.181458	145.920000
379.274994	145.060000
379.368530	144.820000
379.462097	144.720000
379.555634	145.760000
379.649170	145.280000
379.742706	145.760000
379.836273	146.040000
379.929810	145.760000
380.023376	145.440000
380.116882	145.640000
380.210449	145.320000
380.303986	145.160000
380.397552	144.960000
380.491058	144.920000
380.584656	144.960000
380.678162	145.320000
380.771729	145.560000
380.865265	146.460000
380.958832	146.580000
381.052368	146.780000
381.145935	146.940000
381.239471	147.280000
381.333008	146.800000
381.426575	146.880000
381.520111	147.140000
381.613647	147.220000
381.707214	146.840000
381.800751	146.300000
381.894318	146.380000
381.987854	145.840000
382.081421	145.460000
382.174988	145.520000
382.268524	145.700000
382.362091	145.640000
382.455627	146.180000
382.549194	146.020000
382.642731	145.240000
382.736298	145.180000
382.829834	144.540000
382.923401	144.880000
383.016937	145.100000
383.110504	145.820000
383.204041	146.280000
383.297607	147.220000
383.391174	146.500000
383.484741	146.820000
383.578278	146.580000
383.671844	146.080000
383.765411	145.460000
383.858948	145.820000
383.952515	145.520000
384.046051	146.040000
384.139618	146.620000
384.233185	146.880000
384.326721	146.840000
384.420288	147.700000
384.513855	147.720000
384.607422	147.880000
384.700989	147.820000
384.794525	147.340000
384.888123	146.940000
384.981659	146.780000
385.075226	146.200000
385.168762	146.080000
385.262360	145.800000
385.355896	145.080000
385.449463	144.980000
385.542999	144.860000
385.636597	145.600000
385.730164	146.480000
385.823730	146.060000
385.917267	145.800000
386.010834	146.200000
386.104401	145.940000
386.197968	146.140000
386.291534	147.160000
386.385101	147.420000
386.478668	147.780000
386.572235	147.360000
386.665802	146.440000
386.759338	145.820000
386.852905	145.640000
386.946472	144.880000
387.040070	145.460000
387.133606	145.760000
387.227203	145.780000
387.320740	146.280000
387.414337	146.560000
387.507874	146.000000
387.601471	146.080000
387.695007	146.080000
387.788605	145.540000
387.882141	145.660000
387.975739	145.660000
388.069275	145.260000
388.162872	145.640000
388.256439	145.580000
388.350037	145.540000
388.443604	145.620000
388.537170	145.580000
388.630737	145.800000
388.724304	146.180000
388.817871	146.000000
388.911438	145.960000
389.005005	146.640000
389.098602	146.660000
389.192169	146.280000
389.285736	146.880000
389.379333	146.960000
389.472870	146.140000
389.566467	146.260000
389.660034	146.540000
389.753632	145.900000
389.847168	146.200000
389.940765	146.840000
390.034332	146.580000
390.127930	146.100000
390.221466	146.420000
390.315063	145.820000
390.408630	145.300000
390.502228	144.580000
390.595795	144.640000
390.689362	144.460000
390.782959	145.180000
390.876526	145.340000
390.970093	145.620000
391.063690	146.060000
391.157257	145.980000
391.250824	145.780000
391.344421	145.940000
391.437988	146.340000
391.531555	146.600000
391.625153	146.820000
391.718750	146.820000
391.812317	146.920000
391.905914	146.680000
391.999481	146.780000
392.093079	146.800000
392.186615	147.140000
392.280243	146.960000
392.373779	147.000000
392.467407	146.920000
392.560944	146.740000
392.654572	146.200000
392.748108	146.460000
392.841736	146.660000
392.935303	146.400000
393.028900	146.460000
393.122467	146.480000
393.216064	146.040000
393.309631	145.520000
393.403229	145.400000
393.496796	145.180000
393.590393	144.660000
393.683990	144.960000
393.777557	145.760000
393.871155	145.760000
393.964722	146.300000
394.058350	146.840000
394.151917	146.760000
394.245514	146.060000
394.339081	146.580000
394.432678	146.660000
394.526245	146.240000
394.619873	146.000000
394.713409	146.400000
394.807037	145.900000
394.900604	146.060000
394.994202	146.300000
395.087769	146.600000
395.181396	146.060000
395.274994	147.020000
395.368561	146.240000
395.462158	146.480000
395.555756	146.280000
395.649353	146.680000
395.742920	145.820000
395.836517	146.320000
395.930115	145.380000
396.023712	145.720000
396.117279	145.820000
396.210876	145.360000
396.304474	145.280000
396.398071	146.120000
396.491669	146.240000
396.585266	146.060000
396.678833	146.440000
396.772461	146.600000
396.866028	146.760000
396.959656	146.700000
397.053223	147.300000
397.146851	147.200000
397.240417	147.720000
397.334015	148.820000
397.427582	149.560000
397.521210	151.060000
397.614807	153.420000
397.708405	156.080000
397.802002	158.920000
397.895599	163.660000
397.989197	168.280000
398.082794	173.880000
398.176392	180.800000
398.269989	188.900000
398.363586	198.480000
398.457184	210.940000
398.550781	225.940000
398.644379	241.160000
398.737976	258.400000
398.831573	277.040000
398.925201	295.500000
399.018768	312.480000
399.112396	329.760000
399.205963	345.620000
399.299591	359.820000
399.393158	373.100000
399.486786	386.800000
399.580353	399.460000
399.673981	411.140000
399.767578	422.100000
399.861206	432.440000
399.954773	440.260000
400.048401	443.660000
400.141998	444.540000
400.235596	441.980000
400.329193	434.700000
400.422791	424.900000
400.516418	414.020000
400.610016	402.780000
400.703613	389.580000
400.797211	373.940000
400.890808	357.020000
400.984436	339.280000
401.078033	318.320000
401.171631	297.940000
401.265259	278.700000
401.358826	260.940000
401.452484	244.140000
401.546051	229.960000
401.639679	215.600000
401.733246	203.320000
401.826904	192.000000
401.920471	182.100000
402.014099	173.760000
402.107697	168.160000
402.201324	163.780000
402.294891	159.840000
402.388550	156.920000
402.482147	154.680000
402.575745	152.040000
402.669373	149.580000
402.762970	148.500000
402.856567	147.800000
402.950195	147.280000
403.043793	147.220000
403.137390	147.600000
403.231018	146.800000
403.324615	147.440000
403.418243	146.940000
403.511841	147.060000
403.605469	147.100000
403.699066	147.480000
403.792694	147.060000
403.886292	147.240000
403.979919	147.140000
404.073517	146.420000
404.167145	146.940000
404.260712	146.900000
404.354370	146.900000
404.447937	146.940000
404.541595	147.320000
404.635162	147.440000
404.728821	147.880000
404.822418	147.660000
404.916046	147.280000
405.009644	147.480000
405.103271	147.300000
405.196899	146.800000
405.290497	146.920000
405.384125	147.360000
405.477722	146.620000
405.571350	145.900000
405.664948	145.840000
405.758575	145.620000
405.852203	145.220000
405.945801	145.740000
406.039429	145.720000
406.133057	145.860000
406.226654	145.700000
406.320312	145.720000
406.413879	145.620000
406.507538	145.980000
406.601135	145.120000
406.694763	146.000000
406.788361	145.700000
406.882019	145.520000
406.975586	146.080000
407.069244	147.160000
407.162872	146.780000
407.256470	147.040000
407.350098	146.820000
407.443726	146.140000
407.537323	145.620000
407.630951	145.780000
407.724579	145.560000
407.818207	146.460000
407.911804	146.180000
408.005432	146.060000
408.099060	145.920000
408.192688	146.300000
408.286285	145.720000
408.379913	145.820000
408.473572	146.180000
408.567169	145.740000
408.660828	145.580000
408.754395	145.500000
408.848053	145.580000
408.941650	145.480000
409.035309	145.160000
409.128906	145.380000
409.222565	145.760000
409.316132	146.080000
409.409790	145.640000
409.503387	146.220000
409.597046	146.180000
409.690674	145.760000
409.784302	145.540000
409.877930	145.720000
409.971558	145.720000
410.065186	145.280000
410.158783	145.440000
410.252411	145.380000
410.346039	145.960000
410.439667	145.800000
410.533295	146.260000
410.626923	146.580000
410.720551	146.500000
410.814209	146.580000
410.907806	146.880000
411.001465	146.260000
411.095062	146.120000
411.188721	146.320000
411.282318	145.820000
411.375977	145.540000
411.469574	146.060000
411.563232	145.980000
411.656830	145.660000
411.750488	145.720000
411.844086	145.640000
411.937744	145.520000
412.031372	145.440000
412.125000	145.340000
412.218628	145.160000
412.312256	145.760000
412.405884	146.300000
412.499512	146.360000
412.593170	146.840000
412.686798	147.280000
412.780426	146.620000
412.874054	146.780000
412.967682	146.880000
413.061310	147.460000
413.154968	147.460000
413.248566	147.740000
413.342224	147.260000
413.435852	147.400000
413.529510	146.460000
413.623108	145.980000
413.716766	145.940000
413.810364	146.240000
413.904022	145.860000
413.997650	145.900000
414.091309	146.640000
414.184906	146.200000
414.278564	145.620000
414.372192	146.100000
414.465851	146.380000
414.559479	145.700000
414.653107	146.760000
414.746735	146.720000
414.840393	146.640000
414.934021	146.760000
415.027649	146.540000
415.121277	146.380000
415.214935	146.880000
415.308563	146.820000
415.402191	146.200000
415.495850	146.480000
415.589478	146.060000
415.683136	145.720000
415.776733	145.780000
415.870422	146.300000
415.964020	145.960000
416.057678	145.980000
416.151306	146.100000
416.244965	145.980000
416.338562	145.980000
416.432251	146.660000
416.525848	147.220000
416.619507	147.740000
416.713165	148.080000
416.806793	147.900000
416.900421	148.060000
416.994080	147.180000
417.087708	146.640000
417.181366	145.880000
417.274994	146.000000
417.368622	145.860000
417.462280	146.420000
417.555908	146.200000
417.649567	146.180000
417.743195	146.180000
417.836853	146.180000
417.930481	145.960000
418.024170	146.340000
418.117767	147.000000
418.211426	147.060000
418.305054	147.120000
418.398712	147.020000
418.492340	146.860000
418.585999	146.880000
418.679626	146.860000
418.773285	146.820000
418.866913	147.300000
418.960571	147.640000
419.054230	147.260000
419.147858	147.420000
419.241516	147.360000
419.335144	146.700000
419.428802	146.200000
419.522461	146.140000
419.616089	145.700000
419.709747	145.900000
419.803375	146.060000
419.897034	146.060000
419.990662	145.840000
420.084320	146.160000
420.177979	146.180000
420.271606	146.480000
420.365295	147.020000
420.458893	147.400000
420.552582	147.640000
420.646210	147.400000
420.739868	147.140000
420.833496	146.780000
420.927155	146.120000
421.020782	145.660000
421.114471	145.060000
421.208069	144.920000
421.301758	145.240000
421.395386	145.820000
421.489044	145.540000
421.582703	145.600000
421.676361	146.400000
421.769989	145.940000
421.863647	146.300000
421.957306	146.580000
422.050934	146.980000
422.144592	146.320000
422.238251	146.020000
422.331909	145.460000
422.425537	145.600000
422.519196	145.560000
422.612854	145.320000
422.706543	145.500000
422.800140	145.880000
422.893829	145.500000
422.987457	145.420000
423.081146	145.760000
423.174744	146.500000
423.268433	145.960000
423.362061	145.800000
423.455750	145.680000
423.549347	145.500000
423.643036	144.560000
423.736664	145.480000
423.830353	145.660000
423.924011	146.000000
424.017639	145.600000
424.111298	145.620000
424.204956	145.300000
424.298615	145.600000
424.392273	145.640000
424.485931	146.100000
424.579559	146.440000
424.673218	146.260000
424.766876	146.400000
424.860535	145.980000
424.954193	145.820000
425.047882	146.100000
425.141510	145.780000
425.235199	145.540000
425.328796	145.300000
425.422485	145.080000
425.516113	144.540000
425.609802	144.880000
425.703430	145.200000
425.797119	145.520000
425.890747	145.780000
425.984436	145.800000
426.078064	145.840000
426.171753	145.580000
426.265411	145.300000
426.359070	145.420000
426.452728	145.480000
426.546356	145.320000
426.640015	145.200000
426.733673	145.580000
426.827332	145.300000
426.920990	146.060000
427.014648	145.680000
427.108307	145.940000
427.201965	146.260000
427.295624	146.600000
427.389282	145.660000
427.482941	145.940000
427.576630	145.720000
427.670258	144.980000
427.763947	145.020000
427.857574	145.420000
427.951263	145.260000
428.044922	144.960000
428.138611	145.260000
428.232239	145.760000
428.325928	145.900000
428.419556	146.800000
428.513245	146.940000
428.606903	146.920000
428.700562	146.120000
428.794220	145.640000
428.887878	144.920000
428.981537	145.100000
429.075195	145.260000
429.168854	145.980000
429.262512	146.160000
429.356201	146.120000
429.449860	145.980000
429.543518	145.900000
429.637177	145.800000
429.730835	145.840000
429.824493	145.800000
429.918182	146.000000
430.011810	145.640000
430.105530	144.720000
430.199158	145.140000
430.292847	145.060000
430.386475	144.780000
430.480164	144.780000
430.573792	144.900000
430.667511	144.480000
430.761139	144.700000
430.854828	145.260000
430.948456	145.420000
431.042145	145.840000
431.135834	145.440000
431.229492	145.600000
431.323151	145.480000
431.416809	145.720000
431.510468	145.840000
431.604156	146.280000
431.697815	145.940000
431.791473	145.600000
431.885132	144.800000
431.978821	144.780000
432.072479	145.020000
432.166138	145.500000
432.259827	145.280000
432.353485	145.980000
432.447174	146.100000
432.540802	145.740000
432.634491	145.780000
432.728149	146.360000
432.821838	147.180000
432.915466	146.640000
433.009186	146.380000
433.102814	145.760000
433.196503	145.260000
433.290131	144.520000
433.383850	145.140000
433.477509	145.520000
433.571167	146.220000
433.664856	146.760000
433.758514	147.360000
433.852173	146.980000
433.945862	147.080000
434.039520	146.880000
434.133179	146.300000
434.226868	145.660000
434.320526	145.080000
434.414185	145.520000
434.507874	145.220000
434.601562	145.680000
434.695221	145.560000
434.788910	146.480000
434.882538	146.040000
434.976257	145.580000
435.069885	145.520000
435.163574	145.660000
435.257233	144.840000
435.350922	144.920000
435.444580	145.200000
435.538269	144.500000
435.631897	144.900000
435.725616	145.600000
435.819275	145.700000
435.912964	146.260000
436.006622	147.100000
436.100311	146.820000
436.193970	145.940000
436.287628	145.680000
436.381317	145.300000
436.474976	144.760000
436.568665	144.380000
436.662323	144.660000
436.756012	144.800000
436.849670	144.620000
436.943390	144.620000
437.037018	144.800000
437.130737	145.140000
437.224365	144.940000
437.318085	145.220000
437.411713	145.740000
437.505432	145.680000
437.599060	145.960000
437.692780	146.560000
437.786407	146.380000
437.880127	146.080000
437.973755	146.000000
438.067474	145.540000
438.161133	145.300000
438.254822	145.800000
438.348480	145.680000
438.442169	146.400000
438.535828	146.920000
438.629517	146.680000
438.723175	146.260000
438.816864	146.860000
438.910553	146.000000
439.004211	145.500000
439.097900	145.240000
439.191559	145.340000
439.285248	144.840000
439.378906	145.480000
439.472626	145.660000
439.566284	145.720000
439.659973	145.900000
439.753632	145.700000
439.847321	145.740000
439.940979	145.660000
440.034698	145.440000
440.128326	144.960000
440.222046	145.160000
440.315674	144.480000
440.409393	144.780000
440.503082	144.900000
440.596741	145.240000
440.690430	145.580000
440.784088	145.520000
440.877777	144.800000
440.971466	144.980000
441.065125	144.580000
441.158813	143.920000
441.252502	144.600000
441.346161	145.020000
441.439850	145.120000
441.533539	145.200000
441.627197	145.820000
441.720886	145.380000
441.814606	145.560000
441.908234	145.880000
442.001953	145.900000
442.095612	145.620000
442.189301	145.800000
442.282959	145.840000
442.376678	145.180000
442.470306	145.800000
442.564026	145.780000
442.657684	145.940000
442.751404	145.700000
442.845032	146.400000
442.938751	145.760000
443.032440	145.940000
443.126099	145.320000
443.219788	145.760000
443.313477	145.240000
443.407166	145.640000
443.500824	145.560000
443.594513	146.040000
443.688202	145.700000
443.781891	145.420000
443.875549	145.000000
443.969238	144.960000
444.062927	145.120000
444.156647	144.820000
444.250275	145.600000
444.343994	146.020000
444.437653	146.200000
444.531372	145.980000
444.625031	146.220000
444.718719	145.560000
444.812378	145.280000
444.906097	145.060000
444.999756	144.680000
445.093445	144.700000
445.187103	144.920000
445.280823	145.480000
445.374512	145.120000
445.468201	145.380000
445.561859	145.420000
445.655548	145.480000
445.749237	145.040000
445.842926	145.380000
445.936615	145.780000
446.030304	145.700000
446.123962	145.960000
446.217651	145.820000
446.311340	146.180000
446.405029	145.680000
446.498749	145.440000
446.592407	144.980000
446.686096	145.140000
446.779755	144.840000
446.873474	145.040000
446.967133	145.160000
447.060852	145.080000
447.154510	145.000000
447.248230	144.940000
447.341858	144.900000
447.435577	144.760000
447.529236	144.680000
447.622955	144.340000
447.716644	144.520000
447.810333	145.000000
447.904022	145.460000
447.997711	145.500000
448.091400	146.140000
448.185059	146.100000
448.278748	145.860000
448.372437	145.480000
448.466125	145.580000
448.559814	145.520000
448.653503	145.600000
448.747192	145.760000
448.840912	146.640000
448.934570	146.720000
449.028290	146.740000
449.121948	146.640000
449.215637	146.160000
449.309296	145.140000
449.403015	145.420000
449.496674	145.240000
449.590393	145.360000
449.684052	145.500000
449.777771	146.780000
449.871429	146.120000
449.965149	146.060000
450.058838	146.340000
450.152527	146.460000
450.246216	145.560000
450.339905	145.920000
450.433594	145.420000
450.527283	145.580000
450.620972	145.620000
450.714661	145.580000
450.808350	145.760000
450.902039	146.400000
450.995728	146.040000
451.089417	145.880000
451.183105	145.920000
451.276794	146.160000
451.370514	145.500000
451.464172	144.640000
451.557892	144.540000
451.651550	144.780000
451.745270	144.220000
451.838928	144.200000
451.932648	145.040000
452.026306	145.380000
452.120026	145.200000
452.213684	145.780000
452.307404	146.120000
452.401062	146.020000
452.494781	146.080000
452.588470	146.100000
452.682159	145.400000
452.775848	145.440000
452.869537	145.040000
452.963226	144.360000
453.056915	144.280000
453.150604	144.500000
453.244293	144.760000
453.337982	145.320000
453.431671	145.860000
453.525360	146.400000
453.619049	146.640000
453.712769	146.540000
453.806427	146.000000
453.900146	145.760000
453.993805	145.140000
454.087555	145.380000
454.181213	145.720000
454.274933	145.580000
454.368591	145.580000
454.462311	145.580000
454.555969	144.780000
454.649689	145.060000
454.743347	145.360000
454.837067	146.080000
454.930756	146.660000
455.024445	147.360000
455.118134	146.740000
455.211853	146.940000
455.305542	146.340000
455.399231	145.820000
455.492920	145.520000
455.586609	145.760000
455.680298	145.460000
455.773987	145.260000
455.867676	145.480000
455.961365	145.600000
456.055084	145.220000
456.148773	145.380000
456.242493	145.500000
456.336151	145.200000
456.429871	145.420000
456.523529	145.700000
456.617249	145.240000
456.710907	145.880000
456.804626	146.180000
456.898315	145.580000
456.992035	145.540000
457.085693	145.700000
457.179413	144.840000
457.273102	145.600000
457.366791	145.820000
457.460480	145.940000
457.554199	146.600000
457.647888	146.720000
457.741577	145.980000
457.835266	146.140000
457.928955	146.260000
458.022644	146.180000
458.116364	146.480000
458.210052	146.300000
458.303741	146.340000
458.397461	145.680000
458.491119	145.100000
458.584839	144.880000
458.678528	144.560000
458.772247	144.040000
458.865906	144.220000
458.959625	145.240000
459.053284	145.380000
459.147003	145.500000
459.240692	146.420000
459.334412	146.920000
459.428070	146.320000
459.521790	146.160000
459.615479	146.200000
459.709198	146.380000
459.802887	146.020000
459.896576	145.800000
459.990265	145.960000
460.083954	145.940000
460.177673	145.160000
460.271362	145.080000
460.365051	145.420000
460.458740	145.000000
460.552429	144.940000
460.646149	145.120000
460.739838	144.900000
460.833527	144.640000
460.927246	144.760000
461.020905	144.660000
461.114655	144.640000
461.208313	145.180000
461.302032	144.880000
461.395691	145.040000
461.489441	145.500000
461.583099	145.280000
461.676819	144.740000
461.770477	145.320000
461.864197	145.380000
461.957916	145.200000
462.051605	145.100000
462.145294	146.040000
462.238983	145.640000
462.332703	146.080000
462.426392	146.600000
462.520081	146.540000
462.613770	145.860000
462.707489	146.240000
462.801178	145.860000
462.894867	145.380000
462.988556	145.700000
463.082275	145.980000
463.175964	145.500000
463.269684	145.540000
463.363342	145.440000
463.457092	144.880000
463.550751	144.880000
463.644470	145.120000
463.738129	145.080000
463.831879	145.420000
463.925537	146.140000
464.019257	146.040000
464.112946	145.960000
464.206665	145.880000
464.300323	145.520000
464.394043	145.400000
464.487762	145.340000
464.581451	145.620000
464.675140	145.640000
464.768829	145.780000
464.862549	146.020000
464.956238	146.560000
465.049927	146.800000
465.143646	147.040000
465.237335	147.040000
465.331024	147.360000
465.424713	146.900000
465.518433	146.560000
465.612152	146.020000
465.705811	146.160000
465.799561	145.720000
465.893219	145.600000
465.986938	145.620000
466.080597	145.740000
466.174347	145.740000
466.268005	145.960000
466.361725	146.080000
466.455414	145.820000
466.549133	145.880000
466.642792	145.920000
466.736542	145.280000
466.830231	145.300000
466.923920	145.580000
467.017609	145.760000
467.111328	145.620000
467.205017	145.940000
467.298706	146.020000
467.392426	146.040000
467.486115	146.240000
467.579803	145.720000
467.673523	146.020000
467.767212	146.160000
467.860901	146.020000
467.954651	145.820000
468.048309	146.420000
468.142029	145.980000
468.235718	145.780000
468.329437	145.480000
468.423096	145.560000
468.516846	145.600000
468.610504	145.340000
468.704224	145.040000
468.797913	145.140000
468.891632	145.280000
468.985291	145.100000
469.079010	145.620000
469.172729	145.100000
469.266418	145.480000
469.360107	145.800000
469.453827	145.640000
469.547516	145.300000
469.641205	146.380000
469.734924	146.720000
469.828613	146.320000
469.922302	146.420000
470.016022	146.560000
470.109711	146.220000
470.203430	145.420000
470.297150	144.780000
470.390808	145.060000
470.484558	144.960000
470.578217	145.160000
470.671936	145.840000
470.765625	146.800000
470.859344	146.640000
470.953003	146.880000
471.046753	146.900000
471.140411	146.120000
471.234131	146.000000
471.327820	146.280000
471.421539	146.460000
471.515228	145.800000
471.608948	146.300000
471.702637	145.980000
471.796326	145.380000
471.890045	145.700000
471.983734	145.920000
472.077423	145.540000
472.171143	145.440000
472.264832	145.720000
472.358521	144.680000
472.452240	144.520000
472.545929	145.180000
472.639648	145.500000
472.733337	145.820000
472.827057	146.160000
472.920746	146.500000
473.014465	146.760000
473.108124	146.580000
473.201874	146.240000
473.295532	146.300000
473.389252	146.380000
473.482941	146.060000
473.576660	145.620000
473.670319	145.700000
473.764069	146.000000
473.857727	146.260000
473.951477	146.500000
474.045166	147.160000
474.138855	146.920000
474.232574	146.800000
474.326263	146.400000
474.419952	146.700000
474.513672	146.500000
474.607361	146.700000
474.701050	146.920000
474.794769	147.520000
474.888458	146.940000
474.982178	147.240000
475.075867	147.420000
475.169586	147.280000
475.263275	146.800000
475.356995	146.600000
475.450653	146.100000
475.544403	145.520000
475.638062	146.180000
475.731812	145.740000
475.825470	145.740000
475.919189	146.060000
476.012878	146.480000
476.106598	145.640000
476.200256	146.480000
476.294006	146.360000
476.387695	146.220000
476.481384	146.080000
476.575104	146.000000
476.668793	145.700000
476.762512	145.640000
476.856201	146.020000
476.949890	145.880000
477.043610	145.420000
477.137299	145.240000
477.230988	145.640000
477.324707	144.900000
477.418396	145.280000
477.512146	145.620000
477.605804	145.560000
477.699524	145.540000
477.793213	145.880000
477.886932	145.920000
477.980591	145.500000
478.074341	145.340000
478.167999	144.800000
478.261749	144.780000
478.355408	144.660000
478.449127	145.340000
478.542816	146.400000
478.636536	147.300000
478.730225	147.480000
478.823944	147.760000
478.917633	147.920000
479.011322	147.440000
479.105042	147.140000
479.198730	147.080000
479.292450	146.540000
479.386139	146.560000
479.479828	146.480000
479.573547	146.680000
479.667267	146.520000
479.760925	146.760000
479.854675	146.740000
479.948334	146.720000
480.042084	146.280000
480.135742	146.680000
480.229462	146.160000
480.323151	145.760000
480.416870	145.300000
480.510529	145.240000
480.604279	144.780000
480.697937	145.340000
480.791656	145.360000
480.885345	145.400000
480.979065	145.260000
481.072754	145.620000
481.166473	146.020000
481.260132	146.080000
481.353882	146.120000
481.447540	146.480000
481.541260	146.420000
481.635010	145.640000
481.728668	145.680000
481.822388	145.440000
481.916077	145.260000
482.009796	145.060000
482.103485	145.480000
482.197205	145.380000
482.290863	145.800000
482.384613	145.660000
482.478271	145.460000
482.571991	145.360000
482.665680	145.660000
482.759399	146.180000
482.853058	146.780000
482.946808	146.980000
483.040466	146.700000
483.134216	146.720000
483.227875	146.100000
483.321594	146.100000
483.415283	146.240000
483.509003	146.360000
483.602661	146.040000
483.696411	146.440000
483.790070	146.440000
483.883789	146.400000
483.977478	146.820000
484.071198	146.760000
484.164917	146.320000
484.258606	145.640000
484.352325	145.820000
484.445984	145.880000
484.539734	145.820000
484.633392	145.460000
484.727142	145.980000
484.820801	145.680000
484.914520	145.360000
485.008209	145.780000
485.101929	146.660000
485.195587	146.500000
485.289337	146.680000
485.382996	146.840000
485.476715	146.720000
485.570404	146.780000
485.664124	146.780000
485.757782	147.220000
485.851532	146.800000
485.945190	146.660000
486.038910	146.460000
486.132599	146.640000
486.226318	145.900000
486.319977	146.160000
486.413727	146.680000
486.507446	146.240000
486.601105	145.680000
486.694855	145.700000
486.788513	145.720000
486.882233	145.280000
486.975922	145.360000
487.069641	145.220000
487.163300	145.020000
487.257050	145.900000
487.350708	145.800000
487.444427	145.800000
487.538116	146.140000
487.631836	146.340000
487.725494	145.640000
487.819214	145.620000
487.912903	145.640000
488.006622	145.880000
488.100281	146.040000
488.194031	146.380000
488.287689	146.900000
488.381409	147.460000
488.475098	147.240000
488.568817	147.340000
488.662476	146.800000
488.756226	146.060000
488.849945	145.200000
488.943604	145.400000
489.037354	145.520000
489.131012	145.620000
489.224731	145.640000
489.318390	145.840000
489.412140	145.940000
489.505798	145.560000
489.599518	145.140000
489.693207	145.540000
489.786926	145.400000
489.880585	145.120000
489.974335	145.500000
490.067993	146.600000
490.161713	147.000000
490.255371	148.000000
490.349121	148.040000
490.442780	147.960000
490.536499	146.860000
490.630188	146.340000
490.723907	145.360000
490.817566	145.520000
490.911285	145.100000
491.004974	145.220000
491.098694	144.780000
491.192413	145.380000
491.286102	145.300000
491.379822	145.840000
491.473480	146.080000
491.567200	146.540000
491.660889	145.940000
491.754608	145.560000
491.848267	145.180000
491.941986	144.800000
492.035675	144.780000
492.129395	145.260000
492.223053	145.420000
492.316772	145.620000
492.410461	145.780000
492.504181	145.980000
492.597839	145.360000
492.691559	145.500000
492.785248	145.520000
492.878967	145.760000
492.972626	145.400000
493.066345	145.680000
493.160034	145.320000
493.253754	145.180000
493.347412	144.580000
493.441132	144.640000
493.534882	145.140000
493.628540	145.580000
493.722260	145.920000
493.815918	146.700000
493.909668	147.320000
494.003326	147.200000
494.097046	147.000000
494.190704	146.460000
494.284454	146.220000
494.378113	146.000000
494.471832	145.840000
494.565491	145.600000
494.659210	145.980000
494.752899	145.900000
494.846619	145.520000
494.940277	145.560000
495.033997	145.700000
495.127686	145.300000
495.221405	145.180000
495.315063	145.260000
495.408783	145.520000
495.502441	145.900000
495.596191	146.500000
495.689850	146.080000
495.783569	146.520000
495.877228	146.320000
495.970947	145.840000
496.064697	145.880000
496.158356	146.960000
496.252075	146.780000
496.345734	146.740000
496.439453	147.560000
496.533142	147.220000
496.626862	147.540000
496.720520	147.240000
496.814240	147.460000
496.907898	147.000000
497.001617	147.240000
497.095306	146.300000
497.189026	146.540000
497.282684	146.520000
497.376404	146.680000
497.470062	146.380000
497.563782	146.360000
497.657471	146.240000
497.751190	146.020000
497.844849	145.500000
497.938568	145.760000
498.032227	145.820000
498.125946	145.700000
498.219635	145.400000
498.313354	146.020000
498.407074	145.720000
498.500732	145.980000
498.594452	146.360000
498.688110	146.280000
498.781830	145.640000
498.875519	145.540000
498.969238	145.120000
499.062897	144.760000
499.156616	145.520000
499.250275	146.040000
499.343994	145.760000
499.437653	146.080000
499.531372	146.200000
499.625061	146.140000
499.718781	146.020000
499.812439	146.580000
499.906158	146.280000
499.999817	146.140000
500.093536	145.600000
500.187195	145.700000
500.280914	145.540000
500.374573	145.800000
500.468323	145.380000
500.561981	145.740000
500.655701	145.320000
500.749420	145.120000
500.843079	145.340000
500.936798	145.920000
501.030457	146.100000
501.124176	146.360000
501.217834	146.320000
501.311554	145.820000
501.405212	145.240000
501.498962	144.400000
501.592621	144.440000
501.686340	145.040000
501.779999	145.320000
501.873718	145.820000
501.967377	146.280000
502.061096	146.320000
502.154755	145.600000
502.248474	145.820000
502.342133	145.900000
502.435852	145.700000
502.529510	146.220000
502.623230	146.820000
502.716888	146.300000
502.810608	146.400000
502.904266	147.100000
502.997986	146.380000
503.091705	145.780000
503.185364	145.780000
503.279083	145.800000
503.372772	145.540000
503.466492	145.280000
503.560150	145.720000
503.653870	146.280000
503.747528	146.020000
503.841248	145.820000
503.934906	146.300000
504.028625	145.720000
504.122284	145.740000
504.216003	146.200000
504.309662	145.900000
504.403381	145.980000
504.497040	146.340000
504.590759	145.980000
504.684418	146.040000
504.778137	146.780000
504.871796	147.060000
504.965515	147.020000
505.059174	147.120000
505.152893	146.400000
505.246521	145.740000
505.340240	145.080000
505.433899	145.280000
505.527618	145.440000
505.621338	145.980000
505.714996	145.940000
505.808716	146.100000
505.902374	146.660000
505.996094	146.720000
506.089752	146.160000
506.183472	146.320000
506.277130	146.320000
506.370850	145.640000
506.464508	145.460000
506.558228	145.980000
506.651886	145.900000
506.745605	146.160000
506.839264	146.500000
506.932983	146.540000
507.026611	146.360000
507.120331	146.800000
507.213989	146.320000
507.307709	146.120000
507.401367	146.400000
507.495087	147.060000
507.588745	146.800000
507.682465	147.640000
507.776123	147.780000
507.869843	147.540000
507.963531	147.260000
508.057190	147.560000
508.150909	146.800000
508.244568	146.860000
508.338287	146.600000
508.431946	146.280000
508.525665	145.680000
508.619324	145.600000
508.713013	145.680000
508.806671	145.880000
508.900391	146.320000
508.994049	146.820000
509.087769	146.840000
509.181427	146.600000
509.275146	146.540000
509.368774	145.680000
509.462494	145.360000
509.556152	145.340000
509.649872	145.520000
509.743530	145.520000
509.837250	146.020000
509.930878	146.020000
510.024597	145.980000
510.118256	145.860000
510.211975	145.560000
510.305695	145.220000
510.399353	145.660000
510.493042	146.060000
510.586700	146.060000
510.680420	146.880000
510.774078	146.960000
510.867798	146.800000
510.961426	146.200000
511.055145	146.060000
511.148804	145.700000
511.242523	146.060000
511.336151	146.020000
511.429871	146.520000
511.523529	146.440000
511.617249	145.980000
511.710876	145.780000
511.804596	145.400000
511.898254	145.300000
511.991974	145.280000
512.085632	145.240000
512.179321	145.220000
512.272949	145.640000
512.366699	146.300000
512.460327	146.460000
512.554077	147.620000
512.647766	147.600000
512.741394	147.480000
512.835144	147.320000
512.928772	147.340000
513.022461	146.860000
513.116150	146.520000
513.209839	147.140000
513.303467	146.740000
513.397217	146.140000
513.490845	145.680000
513.584595	145.440000
513.678223	144.400000
513.771912	143.760000
513.865601	144.200000
513.959290	143.860000
514.052917	144.480000
514.146667	145.300000
514.240295	145.960000
514.333984	146.280000
514.427673	146.520000
514.521362	146.580000
514.614990	145.920000
514.708740	146.160000
514.802368	146.280000
514.896057	146.580000
514.989746	147.140000
515.083435	147.360000
515.177124	147.340000
515.270752	147.060000
515.364502	146.780000
515.458130	146.720000
515.551819	146.240000
515.645508	145.800000
515.739197	145.600000
515.832825	145.880000
515.926575	145.080000
516.020203	145.720000
516.113892	146.080000
516.207520	146.240000
516.301270	146.480000
516.394897	146.940000
516.488586	147.320000
516.582275	147.340000
516.675964	146.600000
516.769592	146.020000
516.863281	146.780000
516.956970	146.800000
517.050659	146.380000
517.144287	146.940000
517.238037	147.340000
517.331665	145.960000
517.425354	145.420000
517.519043	145.500000
517.612732	145.700000
517.706421	145.460000
517.800049	145.500000
517.893738	145.180000
517.987427	145.400000
518.081116	145.380000
518.174744	145.120000
518.268433	145.760000
518.362122	146.320000
518.455811	146.160000
518.549438	146.920000
518.643127	147.860000
518.736816	147.300000
518.830505	146.860000
518.924133	146.720000
519.017822	146.380000
519.111511	146.040000
519.205200	146.800000
519.298828	146.840000
519.392517	146.820000
519.486206	146.680000
519.579895	146.640000
519.673523	146.380000
519.767212	146.420000
519.860901	146.860000
519.954590	146.560000
520.048279	146.120000
520.141907	145.620000
520.235596	146.980000
520.329224	147.260000
520.422974	147.220000
520.516602	147.240000
520.610291	147.120000
520.703918	146.060000
520.797607	145.540000
520.891296	145.660000
520.984985	146.060000
521.078613	147.000000
521.172302	146.520000
521.265930	147.040000
521.359680	147.580000
521.453308	147.220000
521.546997	146.440000
521.640625	146.960000
521.734314	146.460000
521.827942	146.020000
521.921692	146.520000
522.015320	146.420000
522.109009	146.080000
522.202698	145.960000
522.296326	146.020000
522.390015	145.900000
522.483704	146.340000
522.577393	146.340000
522.671021	146.420000
522.764709	145.800000
522.858337	145.980000
522.952026	146.180000
523.045654	146.760000
523.139404	147.180000
523.233032	147.860000
523.326721	147.500000
523.420349	147.080000
523.514038	146.380000
523.607666	146.780000
523.701355	146.420000
523.795044	146.700000
523.888733	147.280000
523.982361	147.660000
524.076050	146.820000
524.169678	147.300000
524.263367	146.740000
524.356995	146.120000
524.450684	146.020000
524.544373	145.880000
524.638062	145.940000
524.731750	146.160000
524.825378	146.240000
524.919067	145.740000
525.012695	145.780000
525.106384	144.840000
525.200012	144.960000
525.293701	144.960000
525.387329	145.800000
525.481018	146.020000
525.574646	146.680000
525.668396	146.600000
525.762024	147.020000
525.855713	146.800000
525.949341	146.660000
526.043030	146.620000
526.136658	146.400000
526.230347	145.840000
526.323975	145.380000
526.417664	145.560000
526.511292	145.420000
526.604980	145.700000
526.698608	145.920000
526.792297	146.240000
526.885925	146.180000
526.979614	146.360000
527.073303	146.340000
527.166931	146.360000
527.260620	146.480000
527.354309	147.000000
527.447998	147.140000
527.541626	146.900000
527.635315	146.980000
527.728943	147.460000
527.822632	147.200000
527.916260	147.000000
528.009949	147.480000
528.103577	147.340000
528.197266	146.400000
528.290894	146.260000
528.384583	146.100000
528.478210	145.980000
528.571899	146.120000
528.665527	146.820000
528.759216	146.940000
528.852844	147.380000
528.946533	147.260000
529.040161	147.320000
529.133850	146.880000
529.227478	147.080000
529.321167	146.840000
529.414856	147.140000
529.508484	147.360000
529.602173	146.960000
529.695801	146.580000
529.789490	146.800000
529.883057	146.680000
529.976746	146.820000
530.070374	147.520000
530.164062	147.760000
530.257690	147.520000
530.351379	147.680000
530.445007	147.260000
530.538696	146.660000
530.632324	146.760000
530.726013	146.680000
530.819641	146.380000
530.913330	146.420000
531.006958	146.560000
531.100647	146.020000
531.194275	146.080000
531.287964	146.260000
531.381592	145.840000
531.475220	146.180000
531.568848	146.580000
531.662537	146.560000
531.756226	146.700000
531.849854	147.000000
531.943542	147.020000
532.037170	146.520000
532.130859	146.940000
532.224487	146.500000
532.318176	146.180000
532.411804	146.440000
532.505432	146.740000
532.599060	146.100000
532.692749	146.300000
532.786377	147.000000
532.880066	146.260000
532.973694	146.060000
533.067383	146.180000
533.161011	145.980000
533.254639	145.620000
533.348267	145.640000
533.441956	145.940000
533.535583	145.960000
533.629272	145.880000
533.722900	145.500000
533.816589	145.640000
533.910156	145.720000
534.003845	145.540000
534.097534	145.980000
534.191162	146.840000
534.284851	146.980000
534.378479	146.880000
534.472107	147.180000
534.565735	146.960000
534.659424	147.040000
534.753052	147.160000
534.846741	146.980000
534.940369	147.460000
535.033997	147.540000
535.127625	147.280000
535.221313	147.620000
535.314941	147.640000
535.408630	146.780000
535.502197	147.000000
535.595886	146.580000
535.689514	146.060000
535.783203	146.580000
535.876831	147.180000
535.970459	147.020000
536.064087	147.060000
536.157776	147.100000
536.251404	146.880000
536.345093	146.520000
536.438721	146.220000
536.532349	146.500000
536.626038	146.220000
536.719666	146.220000
536.813293	146.240000
536.906921	146.460000
537.000610	146.540000
537.094238	146.940000
537.187866	146.740000
537.281494	146.640000
537.375183	146.640000
537.468811	146.520000
537.562439	146.540000
537.656067	146.600000
537.749756	146.640000
537.843384	147.040000
537.937012	146.900000
538.030640	146.640000
538.124329	146.760000
538.217896	147.180000
538.311584	146.880000
538.405212	146.640000
538.498901	147.160000
538.592468	147.640000
538.686157	146.840000
538.779785	146.400000
538.873413	146.600000
538.967102	145.860000
539.060730	144.980000
539.154358	145.500000
539.247986	146.040000
539.341675	146.200000
539.435242	146.440000
539.528931	146.700000
539.622559	146.400000
539.716187	146.700000
539.809814	146.460000
539.903503	146.680000
539.997070	146.500000
540.090759	146.420000
540.184387	146.060000
540.278015	146.560000
540.371643	146.400000
540.465332	146.620000
540.558899	146.660000
540.652588	146.260000
540.746216	145.860000
540.839844	145.680000
540.933472	145.640000
541.027100	145.740000
541.120728	146.260000
541.214417	146.540000
541.308044	147.140000
541.401672	146.880000
541.495300	146.560000
541.588928	146.060000
541.682617	145.520000
541.776184	144.760000
541.869873	144.860000
541.963440	145.220000
542.057129	145.380000
542.150757	145.920000
542.244385	146.140000
542.338013	145.980000
542.431641	145.900000
542.525269	145.680000
542.618958	145.860000
542.712524	146.240000
542.806213	146.100000
542.899780	146.380000
542.993469	146.340000
543.087036	145.840000
543.180725	145.060000
543.274292	145.640000
543.367981	145.620000
543.461548	146.160000
543.555237	146.040000
543.648926	146.940000
543.742493	147.380000
543.836182	147.520000
543.929749	147.180000
544.023437	147.340000
544.117004	147.300000
544.210693	147.060000
544.304260	146.600000
544.397949	146.560000
544.491516	146.920000
544.585205	146.400000
544.678772	145.860000
544.772461	146.380000
544.866028	146.420000
544.959717	146.400000
545.053284	146.280000
545.146973	146.520000
545.240540	146.400000
545.334229	147.120000
545.427795	147.060000
545.521423	147.460000
545.615051	147.680000
545.708679	148.080000
545.802307	147.380000
545.895935	147.720000
545.989624	148.360000
546.083191	148.140000
546.176880	147.940000
546.270447	147.840000
546.364136	147.920000
546.457703	147.320000
546.551331	147.220000
546.644958	147.240000
546.738586	147.480000
546.832214	146.800000
546.925842	146.520000
547.019409	146.740000
547.113098	146.040000
547.206665	146.060000
547.300354	146.340000
547.393921	146.720000
547.487549	147.020000
547.581177	147.220000
547.674805	146.880000
547.768433	146.220000
547.862061	146.020000
547.955627	145.080000
548.049316	145.660000
548.142883	146.020000
548.236572	146.480000
548.330139	146.740000
548.423767	146.960000
548.517456	146.680000
548.611023	146.980000
548.704651	146.420000
548.798279	146.320000
548.891907	146.660000
548.985474	146.400000
549.079163	146.220000
549.172729	146.500000
549.266357	146.240000
549.359985	146.200000
549.453613	145.960000
549.547180	145.560000
549.640869	146.060000
549.734436	146.040000
549.828064	146.300000
549.921631	146.300000
550.015320	146.320000
550.108887	146.360000
550.202515	146.080000
550.296143	145.760000
550.389771	146.120000
550.483337	146.060000
550.576965	145.880000
550.670593	146.520000
550.764221	146.640000
550.857849	146.640000
550.951477	146.520000
551.045105	146.140000
551.138672	146.220000
551.232300	145.940000
551.325928	146.180000
551.419556	146.720000
551.513123	147.020000
551.606750	146.620000
551.700378	146.820000
551.794006	146.300000
551.887573	146.060000
551.981201	146.460000
552.074768	146.320000
552.168457	145.960000
552.262024	147.060000
552.355652	146.700000
552.449219	146.580000
552.542847	146.800000
552.636475	146.400000
552.730103	145.360000
552.823669	145.460000
552.917297	144.800000
553.010864	144.620000
553.104553	145.400000
553.198181	145.340000
553.291748	145.700000
553.385376	146.300000
553.478943	145.960000
553.572571	146.000000
553.666199	146.600000
553.759827	146.340000
553.853394	145.540000
553.947021	146.100000
554.040588	146.020000
554.134216	145.860000
554.227783	146.640000
554.321411	147.760000
554.415039	147.320000
554.508667	147.300000
554.602234	147.160000
554.695862	146.400000
554.789429	145.820000
554.883057	146.120000
554.976624	146.020000
555.070251	145.980000
555.163818	146.040000
555.257507	146.000000
555.351074	146.200000
555.444702	147.120000
555.538330	146.600000
555.631897	147.240000
555.725525	147.500000
555.819092	147.040000
555.912720	145.860000
556.006287	146.960000
556.099915	146.240000
556.193481	146.160000
556.287109	146.640000
556.380676	146.580000
556.474304	146.140000
556.567871	146.320000
556.661499	145.900000
556.755066	145.840000
556.848694	146.380000
556.942261	146.160000
557.035889	146.300000
557.129517	146.600000
557.223145	146.760000
557.316711	146.480000
557.410339	146.700000
557.503906	146.260000
557.597473	146.500000
557.691040	146.460000
557.784668	146.580000
557.878296	146.560000
557.971863	146.980000
558.065491	146.800000
558.159058	146.320000
558.252686	146.720000
558.346252	147.100000
558.439880	146.480000
558.533447	146.340000
558.627075	146.220000
558.720642	145.660000
558.814270	145.080000
558.907837	145.520000
559.001465	145.320000
559.095032	146.240000
559.188660	146.640000
559.282227	146.160000
559.375854	146.620000
559.469360	146.480000
559.562988	146.560000
559.656555	146.500000
559.750183	147.120000
559.843750	146.980000
559.937378	147.100000
560.030945	146.520000
560.124573	0.000000
560.218140	0.000000
560.311707	0.000000
560.405334	0.000000
560.498901	0.000000
560.592529	0.000000
560.686096	0.000000
560.779724	0.000000
560.873291	0.000000
560.966858	0.000000
561.060425	0.000000
561.154053	0.000000
561.247620	0.000000
561.341248	0.000000
561.434814	0.000000
561.528381	0.000000
561.621948	0.000000
561.715576	0.000000
561.809143	0.000000
561.902771	0.000000
561.996277	0.000000
562.089905	0.000000
562.183472	0.000000
562.277100	0.000000
