Model Number: SPM-002-B   
Serial Number: 70087108
Firmware Version: 004.15.4
Exposure Time: 100000.000000us
Data Taken on: 11-12-2020 19:37:46.966
Wavelength	Amplitude
221.570786	0.000000
221.663406	0.000000
221.756027	0.000000
221.848648	0.000000
221.941269	0.000000
222.033905	0.000000
222.126526	0.000000
222.219162	0.000000
222.311798	0.000000
222.404419	0.000000
222.497055	0.000000
222.589676	0.000000
222.682312	0.000000
222.774933	0.000000
222.867569	0.000000
222.960205	0.000000
223.052841	0.000000
223.145462	0.000000
223.238098	0.000000
223.330734	0.000000
223.423386	0.000000
223.516022	0.000000
223.608658	0.000000
223.701309	0.000000
223.793945	0.000000
223.886581	0.000000
223.979218	0.000000
224.071869	0.000000
224.164505	0.000000
224.257156	0.000000
224.349792	0.000000
224.442444	0.000000
224.535095	0.000000
224.627747	0.000000
224.720398	0.000000
224.813034	0.000000
224.905685	0.000000
224.998337	145.220000
225.090988	145.020000
225.183640	144.840000
225.276291	144.540000
225.368942	144.620000
225.461594	144.960000
225.554245	145.060000
225.646912	145.180000
225.739578	145.660000
225.832230	146.020000
225.924896	145.420000
226.017548	146.040000
226.110199	146.500000
226.202866	145.720000
226.295532	145.480000
226.388184	145.380000
226.480850	144.340000
226.573517	143.900000
226.666168	144.500000
226.758835	144.980000
226.851501	145.540000
226.944183	145.960000
227.036850	145.620000
227.129517	145.320000
227.222183	145.380000
227.314850	145.400000
227.407516	145.580000
227.500198	146.240000
227.592865	146.200000
227.685532	145.680000
227.778214	145.500000
227.870880	145.580000
227.963562	145.920000
228.056229	146.160000
228.148926	146.440000
228.241592	147.220000
228.334274	147.000000
228.426956	146.580000
228.519638	146.300000
228.612305	145.580000
228.704987	145.360000
228.797668	145.260000
228.890350	144.980000
228.983032	144.680000
229.075714	145.660000
229.168396	145.100000
229.261108	145.000000
229.353790	144.900000
229.446472	145.160000
229.539169	144.880000
229.631851	144.620000
229.724533	145.040000
229.817230	145.240000
229.909912	146.220000
230.002609	146.140000
230.095306	146.380000
230.187988	145.900000
230.280685	145.840000
230.373383	144.740000
230.466095	144.380000
230.558792	144.580000
230.651474	144.840000
230.744171	144.920000
230.836868	144.800000
230.929581	145.200000
231.022278	144.920000
231.114975	144.880000
231.207672	144.880000
231.300369	145.620000
231.393082	145.780000
231.485779	146.020000
231.578506	146.080000
231.671204	146.000000
231.763916	145.560000
231.856613	145.420000
231.949326	145.560000
232.042023	145.640000
232.134735	145.400000
232.227448	145.080000
232.320160	145.140000
232.412872	145.100000
232.505585	145.360000
232.598297	146.000000
232.691010	146.140000
232.783722	145.800000
232.876450	146.100000
232.969162	145.880000
233.061874	145.400000
233.154587	145.120000
233.247314	145.540000
233.340027	144.720000
233.432739	145.040000
233.525467	144.680000
233.618179	145.180000
233.710907	144.580000
233.803635	145.240000
233.896347	144.920000
233.989090	145.940000
234.081818	145.700000
234.174545	145.860000
234.267258	145.480000
234.359985	145.680000
234.452713	145.020000
234.545441	145.120000
234.638168	145.420000
234.730896	145.740000
234.823639	145.580000
234.916367	146.060000
235.009094	146.160000
235.101822	146.000000
235.194580	145.820000
235.287308	145.720000
235.380051	145.240000
235.472778	145.320000
235.565521	145.440000
235.658249	145.240000
235.750992	145.260000
235.843719	145.440000
235.936462	145.820000
236.029205	145.620000
236.121948	145.240000
236.214691	145.660000
236.307449	146.040000
236.400192	145.180000
236.492935	145.060000
236.585678	145.500000
236.678421	145.040000
236.771164	144.960000
236.863907	145.600000
236.956665	145.840000
237.049408	147.520000
237.142151	147.240000
237.234909	147.860000
237.327652	148.000000
237.420410	147.620000
237.513153	146.400000
237.605927	146.720000
237.698669	145.860000
237.791428	145.240000
237.884186	146.320000
237.976944	145.900000
238.069702	145.980000
238.162445	145.560000
238.255203	145.780000
238.347961	145.620000
238.440720	145.740000
238.533478	145.580000
238.626266	145.840000
238.719025	146.000000
238.811783	145.720000
238.904541	145.580000
238.997314	145.420000
239.090073	145.260000
239.182831	145.400000
239.275604	145.980000
239.368362	145.660000
239.461136	145.880000
239.553909	145.960000
239.646667	145.600000
239.739441	145.020000
239.832214	145.480000
239.925003	145.640000
240.017761	146.060000
240.110535	146.540000
240.203308	146.220000
240.296082	146.240000
240.388855	146.100000
240.481628	145.900000
240.574417	145.920000
240.667191	146.060000
240.759964	145.640000
240.852737	145.600000
240.945526	145.360000
241.038315	145.340000
241.131088	145.580000
241.223877	146.260000
241.316650	146.020000
241.409439	146.420000
241.502228	145.820000
241.595001	146.060000
241.687790	145.560000
241.780579	145.600000
241.873367	145.640000
241.966141	146.080000
242.058929	145.300000
242.151718	145.560000
242.244507	146.240000
242.337311	145.340000
242.430099	145.660000
242.522903	146.020000
242.615692	145.800000
242.708481	145.100000
242.801270	145.940000
242.894073	145.540000
242.986862	145.820000
243.079651	146.380000
243.172455	146.440000
243.265244	146.280000
243.358063	145.860000
243.450867	146.020000
243.543655	145.880000
243.636459	145.900000
243.729263	146.200000
243.822067	146.400000
243.914856	146.400000
244.007660	146.340000
244.100464	146.300000
244.193268	145.760000
244.286072	146.080000
244.378876	145.380000
244.471680	144.980000
244.564499	145.320000
244.657318	146.100000
244.750122	146.340000
244.842926	146.240000
244.935745	146.540000
245.028549	146.000000
245.121368	145.640000
245.214172	145.240000
245.306992	145.640000
245.399796	145.400000
245.492615	145.600000
245.585434	145.220000
245.678253	145.400000
245.771072	145.180000
245.863892	145.320000
245.956711	145.720000
246.049530	145.640000
246.142349	145.160000
246.235168	145.400000
246.327988	145.900000
246.420807	145.600000
246.513626	145.640000
246.606445	145.620000
246.699280	145.540000
246.792099	145.120000
246.884918	144.720000
246.977753	144.560000
247.070587	145.040000
247.163422	144.660000
247.256241	144.840000
247.349075	145.200000
247.441895	145.700000
247.534729	145.360000
247.627563	145.440000
247.720383	145.760000
247.813217	145.920000
247.906052	145.400000
247.998886	145.480000
248.091736	145.780000
248.184570	145.220000
248.277405	145.720000
248.370239	146.940000
248.463074	147.900000
248.555908	147.940000
248.648743	147.800000
248.741592	147.420000
248.834427	146.740000
248.927261	145.440000
249.020111	145.980000
249.112946	146.560000
249.205795	145.940000
249.298630	146.060000
249.391495	146.420000
249.484344	145.660000
249.577179	145.600000
249.670029	145.920000
249.762878	146.440000
249.855728	146.460000
249.948563	146.540000
250.041412	145.920000
250.134262	146.520000
250.227112	146.140000
250.319962	146.160000
250.412827	146.120000
250.505692	145.840000
250.598541	145.200000
250.691391	144.800000
250.784241	144.660000
250.877106	144.860000
250.969955	145.100000
251.062805	145.840000
251.155670	146.380000
251.248520	146.380000
251.341385	146.300000
251.434235	146.380000
251.527100	145.640000
251.619965	145.040000
251.712814	145.740000
251.805695	146.200000
251.898560	146.060000
251.991425	146.480000
252.084290	147.000000
252.177155	146.120000
252.270020	145.400000
252.362885	145.580000
252.455750	145.440000
252.548615	144.900000
252.641479	145.180000
252.734360	145.360000
252.827240	145.240000
252.920105	145.260000
253.012970	145.000000
253.105850	144.860000
253.198715	144.820000
253.291595	145.060000
253.384460	144.820000
253.477341	145.160000
253.570221	145.580000
253.663086	145.420000
253.755966	145.940000
253.848846	145.800000
253.941727	145.880000
254.034592	145.600000
254.127472	145.280000
254.220367	144.760000
254.313248	144.900000
254.406128	144.240000
254.499008	144.200000
254.591904	145.120000
254.684784	145.680000
254.777664	145.840000
254.870544	146.220000
254.963440	146.300000
255.056335	145.600000
255.149216	145.240000
255.242111	145.520000
255.334991	145.920000
255.427887	146.160000
255.520767	146.840000
255.613663	146.880000
255.706558	146.360000
255.799438	146.020000
255.892334	145.600000
255.985229	145.460000
256.078125	145.180000
256.171021	145.520000
256.263916	146.100000
256.356812	146.520000
256.449707	146.200000
256.542603	145.880000
256.635498	146.180000
256.728394	145.780000
256.821289	145.380000
256.914215	146.000000
257.007080	146.700000
257.100006	147.000000
257.192932	147.320000
257.285828	147.540000
257.378723	147.300000
257.471619	146.880000
257.564545	146.060000
257.657440	146.120000
257.750336	146.800000
257.843262	146.280000
257.936157	147.660000
258.029053	148.040000
258.121979	147.660000
258.214874	147.120000
258.307800	147.140000
258.400696	145.640000
258.493622	145.500000
258.586517	145.000000
258.679443	145.000000
258.772339	144.620000
258.865265	144.600000
258.958160	143.940000
259.051086	144.800000
259.144012	144.700000
259.236938	145.920000
259.329834	146.200000
259.422791	146.500000
259.515717	145.940000
259.608612	145.620000
259.701538	145.380000
259.794464	145.360000
259.887390	145.300000
259.980316	145.060000
260.073212	145.260000
260.166138	144.140000
260.259064	144.380000
260.351990	145.100000
260.444916	145.400000
260.537842	145.900000
260.630768	146.860000
260.723694	146.500000
260.816620	146.160000
260.909546	145.980000
261.002472	145.100000
261.095398	144.380000
261.188354	144.460000
261.281281	144.060000
261.374207	144.360000
261.467133	145.000000
261.560089	145.520000
261.653015	145.180000
261.745972	146.000000
261.838867	146.400000
261.931824	146.360000
262.024780	145.940000
262.117706	146.460000
262.210663	146.260000
262.303589	146.000000
262.396515	146.040000
262.489471	147.020000
262.582397	146.720000
262.675354	146.080000
262.768280	145.840000
262.861237	145.860000
262.954163	145.480000
263.047119	145.800000
263.140045	145.800000
263.233002	145.980000
263.325958	145.780000
263.418884	145.140000
263.511841	145.020000
263.604797	145.260000
263.697723	145.200000
263.790680	145.540000
263.883636	146.420000
263.976593	146.100000
264.069550	146.380000
264.162476	145.980000
264.255463	145.680000
264.348419	145.260000
264.441376	145.700000
264.534332	145.260000
264.627289	145.620000
264.720245	146.080000
264.813202	145.660000
264.906158	145.700000
264.999115	146.220000
265.092072	146.120000
265.185028	146.640000
265.277985	147.100000
265.370941	146.880000
265.463898	146.480000
265.556854	146.120000
265.649811	144.720000
265.742798	144.660000
265.835754	144.760000
265.928711	145.280000
266.021667	145.620000
266.114655	146.080000
266.207611	146.360000
266.300568	145.860000
266.393585	145.120000
266.486511	145.640000
266.579498	145.060000
266.672485	144.760000
266.765442	145.120000
266.858429	145.980000
266.951385	145.160000
267.044342	145.600000
267.137329	145.560000
267.230316	145.480000
267.323273	144.920000
267.416260	145.800000
267.509216	145.520000
267.602203	145.360000
267.695160	145.700000
267.788147	145.460000
267.881134	144.780000
267.974091	145.000000
268.067078	144.920000
268.160065	144.900000
268.253052	144.900000
268.346008	145.260000
268.438995	145.180000
268.531982	145.600000
268.624969	145.200000
268.717987	145.980000
268.810944	145.740000
268.903961	145.980000
268.996948	145.580000
269.089905	146.060000
269.182892	145.840000
269.275879	146.260000
269.368866	145.760000
269.461853	145.960000
269.554871	146.020000
269.647858	145.920000
269.740845	146.120000
269.833832	146.740000
269.926819	146.720000
270.019806	146.660000
270.112793	146.120000
270.205811	145.820000
270.298798	145.400000
270.391785	145.960000
270.484772	145.620000
270.577789	146.040000
270.670776	145.780000
270.763763	145.900000
270.856750	145.720000
270.949768	145.520000
271.042786	145.320000
271.135773	145.400000
271.228790	145.880000
271.321808	145.460000
271.414795	145.420000
271.507782	145.540000
271.600800	145.340000
271.693817	145.160000
271.786804	145.700000
271.879822	146.020000
271.972809	145.840000
272.065826	146.220000
272.158844	145.940000
272.251831	146.160000
272.344849	146.160000
272.437866	145.980000
272.530853	145.780000
272.623871	145.880000
272.716888	144.900000
272.809906	145.120000
272.902893	145.300000
272.995911	144.960000
273.088928	145.020000
273.181946	145.440000
273.274963	144.980000
273.367981	144.960000
273.460999	145.340000
273.554047	145.800000
273.647003	146.400000
273.740051	146.500000
273.833069	147.020000
273.926086	147.340000
274.019135	146.880000
274.112152	146.600000
274.205170	146.960000
274.298187	146.900000
274.391205	146.100000
274.484222	145.980000
274.577240	145.600000
274.670258	145.220000
274.763306	144.880000
274.856323	145.560000
274.949341	145.900000
275.042358	146.560000
275.135406	146.460000
275.228424	146.740000
275.321442	146.620000
275.414490	146.040000
275.507507	145.900000
275.600525	146.300000
275.693573	146.000000
275.786591	145.580000
275.879669	145.940000
275.972656	145.460000
276.065735	145.300000
276.158752	145.620000
276.251801	146.460000
276.344818	146.540000
276.437866	146.620000
276.530884	146.280000
276.623932	145.660000
276.716980	145.100000
276.809998	145.200000
276.903046	145.140000
276.996094	146.080000
277.089111	146.660000
277.182159	147.280000
277.275208	146.840000
277.368256	146.760000
277.461304	146.380000
277.554321	145.540000
277.647369	145.200000
277.740417	145.500000
277.833466	145.500000
277.926514	145.380000
278.019562	146.340000
278.112610	145.760000
278.205688	145.540000
278.298706	145.760000
278.391785	145.260000
278.484833	144.800000
278.577881	144.900000
278.670929	145.380000
278.763977	145.200000
278.857025	145.820000
278.950073	145.700000
279.043121	145.580000
279.136169	145.060000
279.229248	144.920000
279.322296	144.840000
279.415344	144.660000
279.508392	144.660000
279.601440	144.800000
279.694519	144.780000
279.787567	144.520000
279.880615	144.520000
279.973694	144.460000
280.066742	144.440000
280.159790	144.760000
280.252869	144.480000
280.345917	144.860000
280.438995	144.880000
280.532074	144.940000
280.625122	145.020000
280.718201	146.240000
280.811279	146.060000
280.904327	146.120000
280.997406	146.120000
281.090454	146.120000
281.183533	145.240000
281.276581	145.540000
281.369659	145.380000
281.462738	145.460000
281.555786	145.440000
281.648865	145.540000
281.741943	145.200000
281.835022	145.800000
281.928070	145.680000
282.021149	145.500000
282.114227	145.300000
282.207306	145.420000
282.300385	145.680000
282.393433	145.780000
282.486511	145.940000
282.579590	146.680000
282.672668	146.980000
282.765747	146.440000
282.858856	146.200000
282.951904	146.180000
283.045013	145.840000
283.138062	145.900000
283.231171	146.260000
283.324249	146.820000
283.417328	146.780000
283.510406	146.680000
283.603485	146.700000
283.696564	146.380000
283.789642	146.280000
283.882751	146.220000
283.975830	146.520000
284.068909	146.040000
284.161987	146.520000
284.255066	145.980000
284.348175	145.680000
284.441254	145.460000
284.534332	145.820000
284.627441	145.440000
284.720520	145.200000
284.813599	145.520000
284.906708	145.600000
284.999786	144.940000
285.092896	144.520000
285.185974	145.840000
285.279053	145.640000
285.372192	145.720000
285.465240	146.960000
285.558380	147.180000
285.651459	146.180000
285.744568	146.860000
285.837677	146.280000
285.930756	145.660000
286.023865	145.980000
286.116943	146.000000
286.210052	146.000000
286.303162	146.160000
286.396240	146.200000
286.489349	145.700000
286.582458	146.220000
286.675568	145.560000
286.768646	145.660000
286.861755	145.880000
286.954865	146.660000
287.047974	145.860000
287.141083	145.960000
287.234161	146.020000
287.327271	145.700000
287.420380	145.800000
287.513519	146.140000
287.606598	146.240000
287.699738	146.300000
287.792816	146.220000
287.885956	145.960000
287.979034	145.680000
288.072174	145.580000
288.165283	145.280000
288.258392	145.300000
288.351501	144.780000
288.444611	145.060000
288.537720	145.560000
288.630859	145.620000
288.723969	145.760000
288.817078	146.040000
288.910187	145.900000
289.003296	145.200000
289.096436	144.880000
289.189545	144.860000
289.282654	144.420000
289.375763	145.020000
289.468903	145.420000
289.562012	145.940000
289.655121	145.940000
289.748260	146.140000
289.841400	146.080000
289.934509	146.000000
290.027649	146.200000
290.120728	145.760000
290.213898	145.960000
290.306976	145.540000
290.400146	145.540000
290.493256	145.120000
290.586395	145.620000
290.679535	145.920000
290.772644	145.980000
290.865784	145.440000
290.958893	145.420000
291.052032	145.040000
291.145172	144.480000
291.238281	144.040000
291.331421	144.500000
291.424561	145.100000
291.517670	145.180000
291.610809	145.400000
291.703949	145.980000
291.797089	146.160000
291.890228	145.480000
291.983337	145.560000
292.076477	145.500000
292.169617	145.580000
292.262756	145.540000
292.355927	145.620000
292.449036	145.360000
292.542206	145.540000
292.635315	145.540000
292.728485	145.760000
292.821625	145.600000
292.914764	146.660000
293.007904	146.660000
293.101044	146.520000
293.194183	146.120000
293.287323	146.280000
293.380463	145.820000
293.473602	145.700000
293.566742	145.880000
293.659882	146.300000
293.753021	146.440000
293.846191	145.980000
293.939331	145.900000
294.032471	145.660000
294.125610	145.200000
294.218781	145.600000
294.311920	146.080000
294.405060	146.360000
294.498230	146.440000
294.591370	146.460000
294.684540	145.760000
294.777679	145.260000
294.870850	145.520000
294.963959	145.520000
295.057159	145.380000
295.150299	145.560000
295.243469	145.500000
295.336609	144.460000
295.429779	144.380000
295.522919	144.840000
295.616089	144.920000
295.709229	145.540000
295.802399	146.080000
295.895569	145.840000
295.988708	145.720000
296.081879	145.840000
296.175018	145.460000
296.268188	145.600000
296.361359	146.160000
296.454529	146.060000
296.547668	145.900000
296.640839	145.960000
296.734009	145.580000
296.827179	145.440000
296.920319	145.660000
297.013519	145.600000
297.106659	145.860000
297.199860	146.000000
297.292999	145.800000
297.386200	145.500000
297.479309	145.580000
297.572510	145.440000
297.665680	145.160000
297.758850	145.140000
297.852020	145.020000
297.945190	144.500000
298.038361	144.160000
298.131531	145.260000
298.224701	145.400000
298.317871	145.360000
298.411072	145.420000
298.504242	145.320000
298.597412	144.720000
298.690582	144.800000
298.783752	144.860000
298.876923	145.500000
298.970093	145.700000
299.063293	145.880000
299.156464	146.040000
299.249634	146.160000
299.342834	146.180000
299.436005	146.340000
299.529205	146.400000
299.622345	146.380000
299.715576	145.980000
299.808716	145.500000
299.901917	145.520000
299.995117	145.480000
300.088287	145.440000
300.181488	145.300000
300.274658	145.460000
300.367828	145.500000
300.461029	145.260000
300.554199	145.660000
300.647400	146.180000
300.740601	146.740000
300.833771	146.440000
300.926971	146.840000
301.020142	145.900000
301.113342	145.840000
301.206512	145.420000
301.299713	145.680000
301.392914	145.440000
301.486084	146.240000
301.579285	146.300000
301.672516	146.440000
301.765686	146.500000
301.858887	146.480000
301.952057	146.100000
302.045288	146.100000
302.138458	145.940000
302.231659	145.440000
302.324860	145.320000
302.418060	144.980000
302.511261	144.920000
302.604462	145.080000
302.697662	144.800000
302.790863	144.680000
302.884064	144.620000
302.977264	144.480000
303.070465	144.700000
303.163666	145.840000
303.256866	146.160000
303.350067	146.240000
303.443268	146.420000
303.536469	146.180000
303.629669	145.680000
303.722870	145.560000
303.816071	145.660000
303.909271	145.800000
304.002472	145.000000
304.095673	144.660000
304.188934	144.060000
304.282104	144.780000
304.375336	144.400000
304.468506	145.040000
304.561768	145.180000
304.654968	145.880000
304.748169	144.940000
304.841370	145.040000
304.934601	145.200000
305.027802	145.140000
305.121002	144.600000
305.214233	145.000000
305.307434	145.240000
305.400665	145.500000
305.493866	145.020000
305.587097	145.580000
305.680298	145.120000
305.773499	145.720000
305.866730	145.400000
305.959930	146.580000
306.053162	146.660000
306.146393	146.580000
306.239594	145.560000
306.332825	145.560000
306.426025	145.400000
306.519287	145.060000
306.612488	145.380000
306.705719	145.480000
306.798920	145.780000
306.892181	145.340000
306.985352	145.120000
307.078613	144.620000
307.171844	145.100000
307.265045	144.400000
307.358276	144.240000
307.451508	144.880000
307.544739	145.640000
307.637970	145.200000
307.731201	145.380000
307.824402	146.180000
307.917633	146.100000
308.010864	146.460000
308.104095	146.680000
308.197327	146.980000
308.290558	146.440000
308.383789	146.060000
308.477020	145.760000
308.570251	145.320000
308.663483	144.660000
308.756714	144.600000
308.849976	144.680000
308.943176	144.880000
309.036438	144.760000
309.129639	145.020000
309.222900	145.240000
309.316101	145.140000
309.409393	144.520000
309.502625	144.700000
309.595856	144.680000
309.689087	144.620000
309.782318	144.760000
309.875580	145.060000
309.968811	145.140000
310.062042	145.160000
310.155273	145.080000
310.248535	145.200000
310.341766	145.020000
310.434998	145.080000
310.528259	145.100000
310.621490	145.440000
310.714722	145.060000
310.807983	145.180000
310.901215	145.060000
310.994476	145.060000
311.087708	144.460000
311.181000	144.620000
311.274200	144.140000
311.367462	144.040000
311.460693	143.860000
311.553986	144.680000
311.647186	144.900000
311.740479	145.860000
311.833710	145.960000
311.926971	146.180000
312.020203	145.120000
312.113464	144.880000
312.206726	144.060000
312.299957	144.340000
312.393219	144.880000
312.486481	145.300000
312.579712	145.520000
312.672974	145.740000
312.766235	145.320000
312.859497	144.580000
312.952759	144.600000
313.045990	145.100000
313.139252	144.460000
313.232513	144.920000
313.325775	145.340000
313.419037	145.060000
313.512299	143.980000
313.605530	144.880000
313.698822	144.860000
313.792053	145.000000
313.885345	144.880000
313.978577	145.160000
314.071869	144.380000
314.165131	144.660000
314.258392	144.860000
314.351654	145.260000
314.444916	144.820000
314.538177	145.840000
314.631439	145.880000
314.724701	145.120000
314.817993	145.220000
314.911255	145.780000
315.004517	144.860000
315.097778	144.520000
315.191040	145.400000
315.284302	145.640000
315.377594	145.400000
315.470856	145.680000
315.564117	145.300000
315.657379	144.440000
315.750671	143.540000
315.843933	143.820000
315.937195	143.420000
316.030518	143.480000
316.123749	143.620000
316.217041	144.880000
316.310303	144.920000
316.403595	145.460000
316.496857	145.620000
316.590149	145.980000
316.683411	144.960000
316.776703	145.040000
316.869965	144.800000
316.963257	144.600000
317.056519	143.940000
317.149811	144.120000
317.243073	143.860000
317.336365	144.240000
317.429626	144.800000
317.522919	145.220000
317.616180	145.280000
317.709473	144.900000
317.802765	144.580000
317.896027	144.500000
317.989319	144.900000
318.082611	144.720000
318.175873	145.120000
318.269165	145.620000
318.362488	145.300000
318.455750	144.960000
318.549042	145.220000
318.642303	145.480000
318.735626	144.860000
318.828888	145.120000
318.922211	144.800000
319.015472	145.360000
319.108765	144.640000
319.202057	144.420000
319.295349	144.280000
319.388641	144.700000
319.481934	144.160000
319.575226	144.560000
319.668518	145.320000
319.761810	145.520000
319.855103	145.240000
319.948395	145.540000
320.041687	145.740000
320.134979	145.520000
320.228271	145.220000
320.321564	145.220000
320.414856	145.080000
320.508148	144.720000
320.601440	144.300000
320.694763	144.180000
320.788025	144.960000
320.881348	144.820000
320.974640	144.740000
321.067963	144.840000
321.161224	145.140000
321.254547	144.120000
321.347839	144.840000
321.441162	144.780000
321.534454	145.080000
321.627747	144.960000
321.721069	145.720000
321.814362	145.420000
321.907654	145.660000
322.000946	145.480000
322.094269	146.360000
322.187561	146.000000
322.280884	146.300000
322.374176	146.180000
322.467468	146.840000
322.560791	146.160000
322.654083	146.420000
322.747406	146.040000
322.840698	146.620000
322.934021	146.560000
323.027344	146.920000
323.120636	146.820000
323.213959	146.760000
323.307251	146.160000
323.400574	145.440000
323.493866	144.800000
323.587219	144.800000
323.680511	144.880000
323.773834	144.880000
323.867157	145.420000
323.960449	145.600000
324.053772	145.580000
324.147095	145.480000
324.240387	146.000000
324.333710	145.660000
324.427032	145.940000
324.520355	145.600000
324.613647	145.340000
324.706970	145.340000
324.800293	145.300000
324.893616	145.480000
324.986938	145.920000
325.080231	145.840000
325.173553	145.940000
325.266876	146.460000
325.360199	146.200000
325.453522	145.820000
325.546875	145.560000
325.640167	145.340000
325.733521	145.360000
325.826813	145.440000
325.920166	145.220000
326.013489	145.460000
326.106812	144.680000
326.200134	144.280000
326.293457	143.540000
326.386780	144.020000
326.480103	143.740000
326.573425	144.120000
326.666748	144.080000
326.760071	144.440000
326.853424	144.460000
326.946747	144.740000
327.040070	145.400000
327.133392	145.200000
327.226715	144.860000
327.320068	144.520000
327.413391	144.980000
327.506714	144.340000
327.600037	144.440000
327.693390	144.940000
327.786713	145.080000
327.880066	144.800000
327.973358	145.000000
328.066742	145.360000
328.160034	145.620000
328.253418	145.940000
328.346710	145.600000
328.440063	145.380000
328.533417	145.100000
328.626740	145.200000
328.720093	144.840000
328.813416	145.040000
328.906769	145.000000
329.000092	145.260000
329.093445	144.680000
329.186768	144.440000
329.280121	145.000000
329.373444	145.380000
329.466797	145.280000
329.560120	145.200000
329.653473	145.660000
329.746796	145.260000
329.840149	145.000000
329.933502	144.640000
330.026825	144.840000
330.120178	144.560000
330.213562	144.200000
330.306854	144.300000
330.400238	144.460000
330.493561	144.400000
330.586945	145.120000
330.680237	145.680000
330.773621	145.840000
330.866974	145.880000
330.960327	146.240000
331.053680	145.660000
331.147003	145.660000
331.240356	145.700000
331.333710	145.980000
331.427063	145.720000
331.520416	145.740000
331.613770	145.240000
331.707123	145.260000
331.800476	145.080000
331.893829	145.780000
331.987152	146.020000
332.080505	146.060000
332.173859	145.820000
332.267212	145.320000
332.360565	144.760000
332.453918	144.280000
332.547333	144.420000
332.640656	144.540000
332.734039	145.000000
332.827362	144.920000
332.920746	145.520000
333.014069	145.640000
333.107452	146.180000
333.200806	146.200000
333.294159	146.280000
333.387543	145.620000
333.480896	145.180000
333.574249	144.640000
333.667603	144.420000
333.760956	144.380000
333.854340	144.820000
333.947693	145.080000
334.041046	145.060000
334.134430	145.100000
334.227783	144.860000
334.321136	144.580000
334.414520	144.340000
334.507874	144.640000
334.601227	144.720000
334.694611	144.720000
334.787964	144.760000
334.881348	145.420000
334.974701	145.160000
335.068085	145.160000
335.161438	145.360000
335.254822	145.400000
335.348175	144.880000
335.441559	144.660000
335.534943	145.380000
335.628296	145.200000
335.721680	145.140000
335.815033	145.520000
335.908417	145.980000
336.001770	145.660000
336.095154	145.600000
336.188538	145.160000
336.281891	144.620000
336.375275	144.020000
336.468658	143.540000
336.562012	143.820000
336.655396	144.580000
336.748779	145.340000
336.842133	145.600000
336.935516	145.900000
337.028900	145.460000
337.122284	145.360000
337.215637	145.340000
337.309021	145.560000
337.402435	145.440000
337.495789	145.520000
337.589203	145.260000
337.682526	144.740000
337.775940	144.820000
337.869324	144.820000
337.962708	144.500000
338.056091	144.840000
338.149475	144.600000
338.242859	144.520000
338.336243	144.560000
338.429626	145.020000
338.523010	144.820000
338.616394	145.000000
338.709778	145.280000
338.803162	145.320000
338.896545	145.400000
338.989929	145.180000
339.083313	145.520000
339.176697	144.880000
339.270081	144.980000
339.363464	145.160000
339.456848	145.460000
339.550232	145.040000
339.643616	145.060000
339.737030	144.680000
339.830383	144.360000
339.923828	144.280000
340.017181	144.240000
340.110596	144.440000
340.203949	144.660000
340.297363	144.660000
340.390778	144.800000
340.484161	144.660000
340.577545	144.680000
340.670959	144.880000
340.764343	145.140000
340.857727	145.200000
340.951111	145.000000
341.044525	145.200000
341.137909	144.620000
341.231293	144.280000
341.324707	143.840000
341.418091	144.940000
341.511505	144.960000
341.604889	145.300000
341.698303	145.500000
341.791687	146.000000
341.885071	145.320000
341.978485	144.940000
342.071899	144.920000
342.165283	145.000000
342.258698	144.960000
342.352081	145.640000
342.445496	146.220000
342.538879	146.040000
342.632324	145.880000
342.725708	145.620000
342.819122	144.880000
342.912506	144.320000
343.005920	144.560000
343.099335	145.420000
343.192719	145.520000
343.286133	145.500000
343.379547	145.880000
343.472931	145.880000
343.566345	145.020000
343.659760	145.260000
343.753143	145.360000
343.846558	144.920000
343.939972	144.900000
344.033386	145.520000
344.126770	145.240000
344.220184	145.200000
344.313599	145.900000
344.407043	145.900000
344.500427	145.180000
344.593872	145.760000
344.687225	145.620000
344.780670	144.940000
344.874054	144.460000
344.967499	144.840000
345.060913	144.400000
345.154327	144.580000
345.247742	144.560000
345.341156	144.780000
345.434570	144.520000
345.527985	144.260000
345.621399	144.340000
345.714813	144.200000
345.808228	144.640000
345.901642	144.480000
345.995056	144.520000
346.088470	144.600000
346.181885	144.780000
346.275299	144.260000
346.368713	144.440000
346.462128	144.180000
346.555573	144.260000
346.648987	144.760000
346.742401	144.860000
346.835815	145.340000
346.929260	145.040000
347.022644	145.060000
347.116119	144.860000
347.209503	145.380000
347.302948	145.680000
347.396362	146.840000
347.489807	146.960000
347.583221	147.280000
347.676636	146.640000
347.770050	145.480000
347.863495	144.760000
347.956909	144.520000
348.050323	143.940000
348.143768	144.220000
348.237183	144.520000
348.330597	145.120000
348.424042	145.340000
348.517456	145.760000
348.610901	145.920000
348.704315	145.820000
348.797760	145.100000
348.891174	144.420000
348.984619	144.040000
349.078033	144.440000
349.171448	145.420000
349.264923	145.420000
349.358337	145.540000
349.451782	145.680000
349.545197	145.040000
349.638641	144.180000
349.732086	143.840000
349.825500	144.540000
349.918945	144.300000
350.012390	144.600000
350.105804	144.940000
350.199249	145.600000
350.292664	145.600000
350.386108	145.600000
350.479553	145.900000
350.572968	145.700000
350.666412	145.820000
350.759857	145.740000
350.853302	145.960000
350.946716	145.460000
351.040161	145.660000
351.133606	145.440000
351.227081	145.260000
351.320465	146.060000
351.413940	146.320000
351.507355	146.400000
351.600830	146.600000
351.694244	146.320000
351.787720	145.960000
351.881104	145.640000
351.974579	145.380000
352.067993	145.740000
352.161469	145.900000
352.254883	145.160000
352.348358	145.240000
352.441803	145.220000
352.535248	145.000000
352.628693	145.460000
352.722137	145.520000
352.815582	145.680000
352.909027	145.780000
353.002472	145.820000
353.095917	145.520000
353.189362	146.060000
353.282806	145.920000
353.376251	145.700000
353.469696	144.900000
353.563141	145.400000
353.656586	144.960000
353.750061	144.640000
353.843475	144.900000
353.936981	145.720000
354.030396	144.900000
354.123871	145.140000
354.217285	146.040000
354.310760	146.060000
354.404175	145.980000
354.497681	145.840000
354.591095	145.840000
354.684570	144.840000
354.777985	144.620000
354.871490	144.260000
354.964935	144.860000
355.058380	144.740000
355.151855	144.780000
355.245300	145.200000
355.338745	145.460000
355.432220	145.380000
355.525665	145.000000
355.619110	145.660000
355.712585	145.300000
355.806030	145.100000
355.899475	144.720000
355.992950	145.020000
356.086426	145.100000
356.179871	145.020000
356.273346	145.100000
356.366791	145.480000
356.460266	145.980000
356.553711	145.680000
356.647186	145.940000
356.740631	145.840000
356.834106	145.420000
356.927551	145.360000
357.021027	145.300000
357.114471	145.460000
357.207947	145.400000
357.301422	145.840000
357.394867	145.580000
357.488342	146.020000
357.581818	145.740000
357.675262	145.960000
357.768738	145.520000
357.862213	144.820000
357.955658	144.580000
358.049133	144.420000
358.142609	144.840000
358.236053	144.860000
358.329529	145.380000
358.423035	145.520000
358.516449	145.660000
358.609955	145.860000
358.703400	146.460000
358.796906	146.600000
358.890350	145.980000
358.983826	146.060000
359.077271	145.420000
359.170776	145.060000
359.264221	144.800000
359.357727	145.100000
359.451172	145.600000
359.544647	145.480000
359.638123	145.340000
359.731598	146.080000
359.825073	146.400000
359.918549	146.080000
360.012024	146.180000
360.105499	146.000000
360.198975	145.680000
360.292450	145.540000
360.385925	145.420000
360.479401	145.080000
360.572876	145.360000
360.666351	145.320000
360.759857	145.280000
360.853302	145.380000
360.946808	145.180000
361.040253	145.260000
361.133759	144.860000
361.227203	145.060000
361.320709	144.580000
361.414154	145.140000
361.507660	144.940000
361.601105	145.740000
361.694641	146.120000
361.788086	146.220000
361.881592	146.500000
361.975067	146.720000
362.068542	146.700000
362.162018	146.460000
362.255524	146.080000
362.348999	145.920000
362.442474	145.880000
362.535950	145.220000
362.629456	144.840000
362.722931	145.040000
362.816406	145.200000
362.909882	145.600000
363.003387	145.280000
363.096863	145.700000
363.190338	145.880000
363.283875	145.640000
363.377319	145.040000
363.470825	145.540000
363.564301	144.920000
363.657806	145.000000
363.751282	144.860000
363.844788	145.780000
363.938232	145.520000
364.031769	146.460000
364.125214	146.700000
364.218750	146.900000
364.312225	145.720000
364.405731	146.020000
364.499207	145.180000
364.592712	144.900000
364.686188	144.840000
364.779694	145.420000
364.873169	145.200000
364.966675	144.960000
365.060150	145.100000
365.153656	145.360000
365.247131	145.380000
365.340637	145.720000
365.434143	146.520000
365.527618	146.360000
365.621155	145.620000
365.714600	145.580000
365.808136	145.720000
365.901611	144.560000
365.995117	144.220000
366.088593	144.480000
366.182129	144.140000
366.275604	144.000000
366.369110	144.520000
366.462585	144.460000
366.556122	145.400000
366.649567	145.640000
366.743103	145.760000
366.836609	145.300000
366.930115	145.900000
367.023590	145.520000
367.117096	145.480000
367.210602	145.300000
367.304108	146.500000
367.397614	146.980000
367.491119	147.000000
367.584595	147.120000
367.678101	147.120000
367.771606	146.560000
367.865112	145.940000
367.958649	145.420000
368.052124	145.120000
368.145660	145.020000
368.239136	145.460000
368.332672	145.720000
368.426147	145.780000
368.519684	145.900000
368.613159	146.480000
368.706696	145.960000
368.800171	145.860000
368.893707	145.760000
368.987183	145.860000
369.080719	145.860000
369.174225	145.820000
369.267731	145.800000
369.361237	145.920000
369.454742	145.800000
369.548248	145.740000
369.641754	145.660000
369.735260	145.720000
369.828766	145.080000
369.922272	145.840000
370.015808	145.200000
370.109314	145.240000
370.202820	144.860000
370.296356	146.120000
370.389832	145.300000
370.483368	145.260000
370.576874	144.980000
370.670410	145.380000
370.763885	144.220000
370.857422	144.260000
370.950928	144.200000
371.044464	144.960000
371.137939	145.080000
371.231476	145.840000
371.324982	146.520000
371.418518	146.940000
371.512024	146.780000
371.605560	146.180000
371.699066	146.200000
371.792572	145.660000
371.886108	146.060000
371.979614	145.860000
372.073120	146.500000
372.166656	146.240000
372.260162	146.460000
372.353668	145.900000
372.447205	145.660000
372.540710	145.400000
372.634277	145.160000
372.727753	145.180000
372.821320	145.220000
372.914795	145.480000
373.008362	145.280000
373.101837	145.620000
373.195404	145.540000
373.288879	145.460000
373.382446	145.900000
373.475922	146.060000
373.569489	146.640000
373.662964	146.700000
373.756531	146.640000
373.850037	146.220000
373.943573	146.040000
374.037109	144.880000
374.130615	144.840000
374.224152	145.040000
374.317657	144.820000
374.411194	145.640000
374.504730	145.760000
374.598236	145.820000
374.691772	145.620000
374.785309	145.940000
374.878815	145.020000
374.972351	145.540000
375.065887	145.160000
375.159454	145.780000
375.252930	145.620000
375.346497	145.900000
375.440002	146.400000
375.533569	146.340000
375.627045	145.640000
375.720612	145.640000
375.814117	145.480000
375.907684	144.820000
376.001160	144.640000
376.094727	144.360000
376.188232	145.020000
376.281799	145.040000
376.375336	145.120000
376.468872	146.240000
376.562408	146.820000
376.655914	146.200000
376.749451	146.600000
376.842987	146.660000
376.936523	145.720000
377.030060	145.480000
377.123596	145.420000
377.217133	144.740000
377.310669	144.580000
377.404205	145.340000
377.497772	145.720000
377.591278	145.820000
377.684845	146.720000
377.778351	146.860000
377.871918	146.320000
377.965424	145.480000
378.058990	145.080000
378.152496	144.520000
378.246063	144.920000
378.339569	145.000000
378.433136	145.440000
378.526642	145.800000
378.620209	145.860000
378.713745	145.340000
378.807312	146.000000
378.900848	145.840000
378.994385	146.300000
379.087921	145.520000
379.181458	145.640000
379.274994	144.480000
379.368530	144.420000
379.462097	144.000000
379.555634	144.840000
379.649170	144.240000
379.742706	144.320000
379.836273	144.780000
379.929810	144.700000
380.023376	144.240000
380.116882	144.420000
380.210449	144.540000
380.303986	144.220000
380.397552	143.820000
380.491058	144.420000
380.584656	144.220000
380.678162	144.580000
380.771729	144.540000
380.865265	145.620000
380.958832	145.560000
381.052368	146.140000
381.145935	146.460000
381.239471	146.660000
381.333008	146.040000
381.426575	145.960000
381.520111	146.300000
381.613647	146.380000
381.707214	146.320000
381.800751	145.760000
381.894318	145.980000
381.987854	145.140000
382.081421	144.780000
382.174988	144.800000
382.268524	144.940000
382.362091	144.840000
382.455627	146.020000
382.549194	145.640000
382.642731	145.180000
382.736298	145.140000
382.829834	144.720000
382.923401	144.720000
383.016937	144.860000
383.110504	145.340000
383.204041	145.480000
383.297607	146.040000
383.391174	145.280000
383.484741	146.040000
383.578278	145.560000
383.671844	145.360000
383.765411	144.440000
383.858948	145.020000
383.952515	144.720000
384.046051	145.520000
384.139618	146.200000
384.233185	146.780000
384.326721	146.360000
384.420288	146.680000
384.513855	146.500000
384.607422	146.220000
384.700989	146.520000
384.794525	146.220000
384.888123	146.000000
384.981659	146.000000
385.075226	145.680000
385.168762	145.300000
385.262360	145.500000
385.355896	144.680000
385.449463	144.200000
385.542999	144.340000
385.636597	144.780000
385.730164	144.920000
385.823730	145.000000
385.917267	144.900000
386.010834	144.960000
386.104401	144.780000
386.197968	144.880000
386.291534	145.140000
386.385101	145.680000
386.478668	146.080000
386.572235	145.820000
386.665802	145.460000
386.759338	145.380000
386.852905	145.000000
386.946472	144.820000
387.040070	145.120000
387.133606	144.980000
387.227203	144.840000
387.320740	144.920000
387.414337	144.580000
387.507874	144.220000
387.601471	144.360000
387.695007	144.100000
387.788605	144.000000
387.882141	144.320000
387.975739	144.460000
388.069275	144.460000
388.162872	144.800000
388.256439	144.880000
388.350037	144.400000
388.443604	144.300000
388.537170	144.380000
388.630737	144.680000
388.724304	144.660000
388.817871	144.860000
388.911438	145.040000
389.005005	145.220000
389.098602	145.600000
389.192169	145.400000
389.285736	145.580000
389.379333	145.420000
389.472870	144.880000
389.566467	144.640000
389.660034	144.880000
389.753632	144.680000
389.847168	144.940000
389.940765	145.360000
390.034332	145.320000
390.127930	144.780000
390.221466	144.900000
390.315063	144.480000
390.408630	143.680000
390.502228	143.160000
390.595795	143.700000
390.689362	143.800000
390.782959	144.520000
390.876526	145.560000
390.970093	145.720000
391.063690	146.400000
391.157257	146.660000
391.250824	146.760000
391.344421	146.300000
391.437988	146.560000
391.531555	146.180000
391.625153	146.000000
391.718750	145.880000
391.812317	145.980000
391.905914	145.500000
391.999481	145.520000
392.093079	145.800000
392.186615	145.960000
392.280243	145.880000
392.373779	146.120000
392.467407	146.380000
392.560944	146.180000
392.654572	145.820000
392.748108	145.960000
392.841736	146.220000
392.935303	145.660000
393.028900	145.440000
393.122467	145.560000
393.216064	145.120000
393.309631	144.380000
393.403229	144.360000
393.496796	144.180000
393.590393	143.460000
393.683990	144.140000
393.777557	144.940000
393.871155	145.000000
393.964722	145.680000
394.058350	146.360000
394.151917	146.100000
394.245514	145.760000
394.339081	146.480000
394.432678	146.580000
394.526245	146.140000
394.619873	145.700000
394.713409	146.040000
394.807037	145.260000
394.900604	144.920000
394.994202	144.900000
395.087769	145.280000
395.181396	144.640000
395.274994	145.660000
395.368561	145.420000
395.462158	145.660000
395.555756	145.540000
395.649353	146.100000
395.742920	145.300000
395.836517	145.720000
395.930115	145.000000
396.023712	145.380000
396.117279	145.420000
396.210876	145.120000
396.304474	145.000000
396.398071	145.780000
396.491669	145.500000
396.585266	145.260000
396.678833	145.320000
396.772461	145.480000
396.866028	145.420000
396.959656	145.940000
397.053223	146.620000
397.146851	146.920000
397.240417	147.420000
397.334015	148.560000
397.427582	149.320000
397.521210	150.720000
397.614807	153.120000
397.708405	155.640000
397.802002	159.020000
397.895599	163.900000
397.989197	169.400000
398.082794	175.520000
398.176392	183.640000
398.269989	192.640000
398.363586	204.060000
398.457184	218.100000
398.550781	235.100000
398.644379	252.920000
398.737976	274.020000
398.831573	295.640000
398.925201	317.040000
399.018768	338.520000
399.112396	360.180000
399.205963	380.400000
399.299591	399.300000
399.393158	418.480000
399.486786	437.640000
399.580353	455.540000
399.673981	471.680000
399.767578	487.960000
399.861206	501.780000
399.954773	511.760000
400.048401	517.920000
400.141998	518.640000
400.235596	514.400000
400.329193	504.960000
400.422791	492.480000
400.516418	477.760000
400.610016	463.780000
400.703613	448.140000
400.797211	428.840000
400.890808	408.360000
400.984436	387.040000
401.078033	362.660000
401.171631	337.700000
401.265259	315.420000
401.358826	293.960000
401.452484	272.860000
401.546051	254.560000
401.639679	236.540000
401.733246	221.000000
401.826904	206.080000
401.920471	193.280000
402.014099	182.400000
402.107697	174.240000
402.201324	167.560000
402.294891	162.700000
402.388550	158.920000
402.482147	155.680000
402.575745	152.820000
402.669373	150.160000
402.762970	148.640000
402.856567	147.460000
402.950195	147.060000
403.043793	146.660000
403.137390	147.380000
403.231018	146.700000
403.324615	147.200000
403.418243	146.560000
403.511841	146.960000
403.605469	146.600000
403.699066	146.940000
403.792694	146.460000
403.886292	146.740000
403.979919	146.680000
404.073517	146.040000
404.167145	146.240000
404.260712	146.220000
404.354370	146.000000
404.447937	145.900000
404.541595	146.020000
404.635162	146.140000
404.728821	146.820000
404.822418	146.520000
404.916046	146.120000
405.009644	146.560000
405.103271	146.400000
405.196899	145.680000
405.290497	145.760000
405.384125	146.340000
405.477722	145.780000
405.571350	145.440000
405.664948	145.720000
405.758575	145.520000
405.852203	144.900000
405.945801	145.000000
406.039429	144.920000
406.133057	144.620000
406.226654	144.900000
406.320312	145.240000
406.413879	145.380000
406.507538	145.620000
406.601135	145.280000
406.694763	145.680000
406.788361	145.160000
406.882019	145.020000
406.975586	145.260000
407.069244	145.860000
407.162872	145.740000
407.256470	145.740000
407.350098	145.440000
407.443726	144.900000
407.537323	144.400000
407.630951	144.600000
407.724579	144.680000
407.818207	145.220000
407.911804	145.260000
408.005432	145.320000
408.099060	145.240000
408.192688	145.780000
408.286285	145.580000
408.379913	145.360000
408.473572	145.500000
408.567169	145.020000
408.660828	144.660000
408.754395	144.460000
408.848053	144.420000
408.941650	144.760000
409.035309	144.460000
409.128906	144.640000
409.222565	144.900000
409.316132	145.440000
409.409790	145.080000
409.503387	145.160000
409.597046	145.120000
409.690674	145.200000
409.784302	144.900000
409.877930	144.640000
409.971558	145.060000
410.065186	144.880000
410.158783	144.680000
410.252411	144.680000
410.346039	145.060000
410.439667	145.200000
410.533295	145.500000
410.626923	145.960000
410.720551	145.840000
410.814209	146.080000
410.907806	145.720000
411.001465	145.040000
411.095062	144.840000
411.188721	144.940000
411.282318	144.720000
411.375977	144.660000
411.469574	145.200000
411.563232	144.960000
411.656830	145.000000
411.750488	144.600000
411.844086	144.340000
411.937744	144.380000
412.031372	144.240000
412.125000	144.040000
412.218628	144.460000
412.312256	145.580000
412.405884	145.940000
412.499512	146.180000
412.593170	146.960000
412.686798	147.060000
412.780426	146.260000
412.874054	146.080000
412.967682	146.000000
413.061310	146.160000
413.154968	145.640000
413.248566	146.060000
413.342224	145.720000
413.435852	145.780000
413.529510	145.160000
413.623108	145.300000
413.716766	144.920000
413.810364	145.460000
413.904022	145.400000
413.997650	145.060000
414.091309	145.720000
414.184906	146.100000
414.278564	145.260000
414.372192	145.560000
414.465851	145.940000
414.559479	145.400000
414.653107	145.840000
414.746735	145.960000
414.840393	145.780000
414.934021	146.160000
415.027649	146.100000
415.121277	145.500000
415.214935	146.140000
415.308563	146.340000
415.402191	145.580000
415.495850	145.360000
415.589478	145.040000
415.683136	144.680000
415.776733	144.660000
415.870422	145.280000
415.964020	144.940000
416.057678	145.160000
416.151306	145.200000
416.244965	144.860000
416.338562	144.660000
416.432251	145.520000
416.525848	146.160000
416.619507	146.180000
416.713165	146.660000
416.806793	146.640000
416.900421	146.820000
416.994080	146.080000
417.087708	145.920000
417.181366	145.160000
417.274994	145.120000
417.368622	144.880000
417.462280	145.380000
417.555908	145.500000
417.649567	145.620000
417.743195	145.640000
417.836853	145.620000
417.930481	145.440000
418.024170	145.740000
418.117767	146.500000
418.211426	146.520000
418.305054	146.460000
418.398712	146.200000
418.492340	145.820000
418.585999	145.600000
418.679626	145.660000
418.773285	145.580000
418.866913	145.600000
418.960571	145.960000
419.054230	145.980000
419.147858	145.960000
419.241516	146.100000
419.335144	145.780000
419.428802	145.720000
419.522461	145.320000
419.616089	144.920000
419.709747	145.120000
419.803375	145.540000
419.897034	145.120000
419.990662	145.160000
420.084320	145.700000
420.177979	145.900000
420.271606	146.000000
420.365295	146.580000
420.458893	146.740000
420.552582	146.760000
420.646210	146.480000
420.739868	146.020000
420.833496	145.640000
420.927155	145.340000
421.020782	144.820000
421.114471	144.280000
421.208069	144.640000
421.301758	144.660000
421.395386	144.780000
421.489044	144.720000
421.582703	145.100000
421.676361	145.780000
421.769989	145.300000
421.863647	145.840000
421.957306	146.320000
422.050934	146.320000
422.144592	145.720000
422.238251	145.820000
422.331909	145.480000
422.425537	145.040000
422.519196	145.060000
422.612854	144.620000
422.706543	144.540000
422.800140	144.420000
422.893829	144.380000
422.987457	143.920000
423.081146	144.300000
423.174744	145.080000
423.268433	144.960000
423.362061	144.960000
423.455750	144.900000
423.549347	145.080000
423.643036	144.340000
423.736664	144.820000
423.830353	144.980000
423.924011	145.740000
424.017639	144.980000
424.111298	145.200000
424.204956	145.060000
424.298615	145.200000
424.392273	144.820000
424.485931	145.120000
424.579559	145.300000
424.673218	145.120000
424.766876	144.900000
424.860535	144.400000
424.954193	144.420000
425.047882	144.880000
425.141510	144.840000
425.235199	145.140000
425.328796	145.100000
425.422485	145.200000
425.516113	144.260000
425.609802	144.360000
425.703430	144.180000
425.797119	144.600000
425.890747	144.440000
425.984436	144.840000
426.078064	144.680000
426.171753	144.780000
426.265411	144.700000
426.359070	144.920000
426.452728	144.960000
426.546356	144.820000
426.640015	144.720000
426.733673	144.660000
426.827332	144.260000
426.920990	145.020000
427.014648	145.000000
427.108307	145.060000
427.201965	145.620000
427.295624	145.940000
427.389282	144.920000
427.482941	145.120000
427.576630	145.080000
427.670258	144.280000
427.763947	144.260000
427.857574	144.560000
427.951263	144.420000
428.044922	144.180000
428.138611	144.580000
428.232239	145.060000
428.325928	145.100000
428.419556	145.760000
428.513245	145.760000
428.606903	145.780000
428.700562	145.060000
428.794220	144.720000
428.887878	143.860000
428.981537	144.000000
429.075195	144.180000
429.168854	144.640000
429.262512	144.940000
429.356201	145.420000
429.449860	145.600000
429.543518	145.320000
429.637177	145.600000
429.730835	145.520000
429.824493	145.280000
429.918182	145.400000
430.011810	145.020000
430.105530	144.100000
430.199158	144.200000
430.292847	144.280000
430.386475	143.780000
430.480164	143.900000
430.573792	143.860000
430.667511	143.800000
430.761139	143.980000
430.854828	144.460000
430.948456	144.720000
431.042145	145.460000
431.135834	145.380000
431.229492	145.280000
431.323151	145.520000
431.416809	145.580000
431.510468	145.320000
431.604156	145.180000
431.697815	145.100000
431.791473	144.620000
431.885132	144.380000
431.978821	144.720000
432.072479	145.060000
432.166138	145.560000
432.259827	145.500000
432.353485	145.840000
432.447174	145.980000
432.540802	145.700000
432.634491	145.540000
432.728149	146.020000
432.821838	146.640000
432.915466	146.260000
433.009186	146.260000
433.102814	145.760000
433.196503	145.580000
433.290131	144.780000
433.383850	144.900000
433.477509	145.100000
433.571167	145.880000
433.664856	146.160000
433.758514	146.660000
433.852173	146.660000
433.945862	146.360000
434.039520	146.000000
434.133179	145.280000
434.226868	144.660000
434.320526	144.120000
434.414185	144.860000
434.507874	144.460000
434.601562	144.860000
434.695221	144.840000
434.788910	145.220000
434.882538	144.840000
434.976257	144.560000
435.069885	144.220000
435.163574	144.360000
435.257233	143.820000
435.350922	144.000000
435.444580	144.160000
435.538269	144.280000
435.631897	144.780000
435.725616	145.840000
435.819275	145.940000
435.912964	146.700000
436.006622	147.280000
436.100311	147.120000
436.193970	146.200000
436.287628	145.840000
436.381317	145.260000
436.474976	144.540000
436.568665	144.040000
436.662323	144.300000
436.756012	144.640000
436.849670	144.520000
436.943390	144.540000
437.037018	144.820000
437.130737	145.140000
437.224365	144.340000
437.318085	144.340000
437.411713	144.580000
437.505432	144.760000
437.599060	144.900000
437.692780	146.020000
437.786407	146.180000
437.880127	146.140000
437.973755	145.680000
438.067474	145.160000
438.161133	144.560000
438.254822	145.160000
438.348480	145.000000
438.442169	146.000000
438.535828	146.560000
438.629517	146.340000
438.723175	145.380000
438.816864	145.980000
438.910553	145.220000
439.004211	144.760000
439.097900	144.860000
439.191559	145.440000
439.285248	144.740000
439.378906	144.980000
439.472626	144.980000
439.566284	144.940000
439.659973	144.940000
439.753632	145.080000
439.847321	145.480000
439.940979	145.800000
440.034698	145.980000
440.128326	145.480000
440.222046	145.320000
440.315674	144.420000
440.409393	144.200000
440.503082	143.980000
440.596741	144.440000
440.690430	144.660000
440.784088	144.740000
440.877777	144.320000
440.971466	144.440000
441.065125	144.160000
441.158813	144.080000
441.252502	144.340000
441.346161	144.760000
441.439850	145.100000
441.533539	145.060000
441.627197	145.380000
441.720886	145.080000
441.814606	145.380000
441.908234	145.440000
442.001953	145.540000
442.095612	145.420000
442.189301	145.840000
442.282959	145.840000
442.376678	144.960000
442.470306	145.820000
442.564026	145.720000
442.657684	145.800000
442.751404	145.540000
442.845032	146.700000
442.938751	145.500000
443.032440	145.540000
443.126099	145.160000
443.219788	145.740000
443.313477	145.220000
443.407166	145.960000
443.500824	145.920000
443.594513	146.480000
443.688202	145.940000
443.781891	145.580000
443.875549	145.200000
443.969238	145.320000
444.062927	145.120000
444.156647	145.100000
444.250275	145.360000
444.343994	145.600000
444.437653	145.980000
444.531372	145.680000
444.625031	145.640000
444.718719	145.320000
444.812378	145.120000
444.906097	144.480000
444.999756	144.360000
445.093445	144.520000
445.187103	144.740000
445.280823	145.100000
445.374512	145.040000
445.468201	145.180000
445.561859	144.980000
445.655548	145.100000
445.749237	144.460000
445.842926	144.600000
445.936615	145.080000
446.030304	144.720000
446.123962	144.960000
446.217651	144.900000
446.311340	144.740000
446.405029	144.100000
446.498749	144.540000
446.592407	144.080000
446.686096	144.640000
446.779755	145.120000
446.873474	145.460000
446.967133	145.520000
447.060852	145.240000
447.154510	145.100000
447.248230	144.840000
447.341858	144.760000
447.435577	143.980000
447.529236	143.940000
447.622955	143.840000
447.716644	144.020000
447.810333	144.140000
447.904022	144.920000
447.997711	145.280000
448.091400	145.440000
448.185059	145.420000
448.278748	145.520000
448.372437	145.600000
448.466125	145.960000
448.559814	145.800000
448.653503	146.040000
448.747192	146.340000
448.840912	146.540000
448.934570	146.360000
449.028290	146.680000
449.121948	146.440000
449.215637	145.720000
449.309296	145.300000
449.403015	145.480000
449.496674	145.540000
449.590393	145.660000
449.684052	145.600000
449.777771	146.200000
449.871429	145.540000
449.965149	145.380000
450.058838	145.300000
450.152527	146.000000
450.246216	145.680000
450.339905	146.120000
450.433594	145.640000
450.527283	145.860000
450.620972	145.440000
450.714661	145.200000
450.808350	144.960000
450.902039	145.400000
450.995728	145.340000
451.089417	144.940000
451.183105	145.080000
451.276794	145.720000
451.370514	145.160000
451.464172	144.240000
451.557892	144.500000
451.651550	144.280000
451.745270	143.600000
451.838928	143.580000
451.932648	144.220000
452.026306	144.820000
452.120026	144.900000
452.213684	145.220000
452.307404	145.500000
452.401062	145.820000
452.494781	145.480000
452.588470	146.000000
452.682159	145.540000
452.775848	145.480000
452.869537	144.640000
452.963226	144.400000
453.056915	143.560000
453.150604	143.960000
453.244293	144.340000
453.337982	145.300000
453.431671	145.620000
453.525360	146.300000
453.619049	146.040000
453.712769	145.980000
453.806427	145.400000
453.900146	145.080000
453.993805	144.780000
454.087555	145.360000
454.181213	145.360000
454.274933	145.600000
454.368591	145.560000
454.462311	145.260000
454.555969	144.480000
454.649689	145.100000
454.743347	144.620000
454.837067	145.260000
454.930756	145.800000
455.024445	146.400000
455.118134	145.780000
455.211853	146.080000
455.305542	145.460000
455.399231	145.360000
455.492920	145.180000
455.586609	145.260000
455.680298	145.480000
455.773987	145.380000
455.867676	145.080000
455.961365	145.180000
456.055084	144.980000
456.148773	144.580000
456.242493	144.860000
456.336151	144.940000
456.429871	145.100000
456.523529	145.600000
456.617249	145.780000
456.710907	146.300000
456.804626	146.380000
456.898315	145.920000
456.992035	145.520000
457.085693	145.240000
457.179413	144.360000
457.273102	145.180000
457.366791	145.300000
457.460480	145.580000
457.554199	146.200000
457.647888	146.360000
457.741577	145.740000
457.835266	145.580000
457.928955	145.780000
458.022644	146.000000
458.116364	146.500000
458.210052	146.340000
458.303741	147.080000
458.397461	146.300000
458.491119	145.420000
458.584839	145.120000
458.678528	145.020000
458.772247	144.440000
458.865906	144.820000
458.959625	145.920000
459.053284	145.920000
459.147003	145.660000
459.240692	146.300000
459.334412	146.220000
459.428070	145.360000
459.521790	145.240000
459.615479	145.480000
459.709198	145.640000
459.802887	145.580000
459.896576	145.540000
459.990265	145.840000
460.083954	146.140000
460.177673	145.420000
460.271362	145.380000
460.365051	145.420000
460.458740	144.960000
460.552429	144.500000
460.646149	144.540000
460.739838	144.300000
460.833527	144.480000
460.927246	144.300000
461.020905	144.180000
461.114655	144.220000
461.208313	144.500000
461.302032	144.300000
461.395691	144.920000
461.489441	145.160000
461.583099	144.860000
461.676819	144.720000
461.770477	144.920000
461.864197	144.580000
461.957916	144.660000
462.051605	144.480000
462.145294	145.120000
462.238983	144.560000
462.332703	145.260000
462.426392	145.600000
462.520081	145.900000
462.613770	145.300000
462.707489	145.860000
462.801178	145.320000
462.894867	144.940000
462.988556	145.080000
463.082275	145.200000
463.175964	144.760000
463.269684	145.140000
463.363342	145.160000
463.457092	144.540000
463.550751	145.060000
463.644470	145.480000
463.738129	144.940000
463.831879	144.960000
463.925537	145.900000
464.019257	145.540000
464.112946	145.600000
464.206665	145.560000
464.300323	145.720000
464.394043	145.360000
464.487762	145.140000
464.581451	145.100000
464.675140	145.220000
464.768829	145.200000
464.862549	145.420000
464.956238	145.560000
465.049927	145.800000
465.143646	145.960000
465.237335	145.680000
465.331024	145.820000
465.424713	146.020000
465.518433	145.880000
465.612152	145.800000
465.705811	145.840000
465.799561	145.720000
465.893219	145.440000
465.986938	145.180000
466.080597	144.920000
466.174347	145.280000
466.268005	145.140000
466.361725	145.240000
466.455414	145.360000
466.549133	145.200000
466.642792	145.120000
466.736542	144.560000
466.830231	144.480000
466.923920	144.460000
467.017609	144.640000
467.111328	144.100000
467.205017	144.420000
467.298706	144.500000
467.392426	144.420000
467.486115	144.700000
467.579803	144.920000
467.673523	145.220000
467.767212	145.300000
467.860901	145.540000
467.954651	145.820000
468.048309	146.080000
468.142029	145.880000
468.235718	145.760000
468.329437	145.420000
468.423096	145.100000
468.516846	144.700000
468.610504	144.540000
468.704224	144.480000
468.797913	144.460000
468.891632	144.380000
468.985291	144.620000
469.079010	144.660000
469.172729	144.400000
469.266418	145.040000
469.360107	145.140000
469.453827	144.980000
469.547516	145.160000
469.641205	145.660000
469.734924	145.840000
469.828613	146.080000
469.922302	146.360000
470.016022	146.540000
470.109711	146.320000
470.203430	145.400000
470.297150	144.900000
470.390808	145.020000
470.484558	144.620000
470.578217	145.060000
470.671936	145.640000
470.765625	146.260000
470.859344	145.740000
470.953003	146.100000
471.046753	145.580000
471.140411	144.900000
471.234131	144.680000
471.327820	145.400000
471.421539	145.460000
471.515228	145.340000
471.608948	145.860000
471.702637	145.520000
471.796326	145.280000
471.890045	145.360000
471.983734	145.700000
472.077423	145.260000
472.171143	145.360000
472.264832	145.140000
472.358521	144.940000
472.452240	144.100000
472.545929	144.860000
472.639648	145.200000
472.733337	145.620000
472.827057	145.960000
472.920746	146.780000
473.014465	146.840000
473.108124	146.680000
473.201874	146.480000
473.295532	145.920000
473.389252	146.120000
473.482941	145.860000
473.576660	145.640000
473.670319	145.480000
473.764069	145.800000
473.857727	145.700000
473.951477	145.980000
474.045166	146.680000
474.138855	146.620000
474.232574	146.440000
474.326263	146.400000
474.419952	146.180000
474.513672	145.780000
474.607361	145.560000
474.701050	145.880000
474.794769	146.280000
474.888458	146.420000
474.982178	146.520000
475.075867	146.980000
475.169586	147.000000
475.263275	146.660000
475.356995	146.580000
475.450653	146.220000
475.544403	145.660000
475.638062	146.080000
475.731812	145.700000
475.825470	145.560000
475.919189	145.600000
476.012878	145.940000
476.106598	145.060000
476.200256	145.300000
476.294006	145.420000
476.387695	145.780000
476.481384	145.880000
476.575104	146.240000
476.668793	145.880000
476.762512	145.320000
476.856201	145.460000
476.949890	145.200000
477.043610	144.600000
477.137299	144.660000
477.230988	145.080000
477.324707	144.520000
477.418396	144.820000
477.512146	145.020000
477.605804	145.240000
477.699524	145.540000
477.793213	145.320000
477.886932	145.300000
477.980591	145.360000
478.074341	145.300000
478.167999	144.720000
478.261749	144.980000
478.355408	144.540000
478.449127	144.780000
478.542816	145.520000
478.636536	146.300000
478.730225	146.680000
478.823944	147.200000
478.917633	147.020000
479.011322	146.700000
479.105042	146.480000
479.198730	146.400000
479.292450	146.020000
479.386139	146.120000
479.479828	146.100000
479.573547	146.340000
479.667267	146.100000
479.760925	146.280000
479.854675	146.480000
479.948334	146.320000
480.042084	145.640000
480.135742	145.920000
480.229462	145.400000
480.323151	145.260000
480.416870	144.820000
480.510529	144.980000
480.604279	144.300000
480.697937	145.000000
480.791656	144.680000
480.885345	144.540000
480.979065	144.280000
481.072754	145.120000
481.166473	145.280000
481.260132	145.380000
481.353882	145.440000
481.447540	145.440000
481.541260	145.100000
481.635010	144.760000
481.728668	144.580000
481.822388	144.240000
481.916077	144.360000
482.009796	144.160000
482.103485	144.440000
482.197205	144.800000
482.290863	145.320000
482.384613	145.120000
482.478271	144.900000
482.571991	144.680000
482.665680	144.520000
482.759399	145.240000
482.853058	145.740000
482.946808	145.740000
483.040466	145.640000
483.134216	145.340000
483.227875	144.640000
483.321594	144.920000
483.415283	145.080000
483.509003	145.200000
483.602661	145.200000
483.696411	145.480000
483.790070	145.260000
483.883789	145.520000
483.977478	145.820000
484.071198	146.000000
484.164917	145.680000
484.258606	144.980000
484.352325	145.000000
484.445984	144.800000
484.539734	144.920000
484.633392	144.640000
484.727142	145.420000
484.820801	145.420000
484.914520	145.260000
485.008209	145.700000
485.101929	146.320000
485.195587	145.780000
485.289337	145.740000
485.382996	145.760000
485.476715	145.500000
485.570404	145.800000
485.664124	145.940000
485.757782	146.540000
485.851532	146.460000
485.945190	146.200000
486.038910	146.120000
486.132599	146.480000
486.226318	145.220000
486.319977	145.140000
486.413727	145.720000
486.507446	145.180000
486.601105	144.320000
486.694855	144.700000
486.788513	144.600000
486.882233	144.560000
486.975922	144.520000
487.069641	144.940000
487.163300	144.960000
487.257050	146.040000
487.350708	145.420000
487.444427	145.540000
487.538116	145.360000
487.631836	145.340000
487.725494	144.760000
487.819214	144.900000
487.912903	144.720000
488.006622	145.460000
488.100281	145.720000
488.194031	145.780000
488.287689	146.080000
488.381409	146.620000
488.475098	146.120000
488.568817	146.320000
488.662476	145.880000
488.756226	145.320000
488.849945	144.720000
488.943604	144.940000
489.037354	144.760000
489.131012	144.640000
489.224731	144.720000
489.318390	144.460000
489.412140	144.460000
489.505798	144.460000
489.599518	144.400000
489.693207	144.720000
489.786926	144.980000
489.880585	144.600000
489.974335	144.660000
490.067993	145.660000
490.161713	145.780000
490.255371	146.500000
490.349121	146.800000
490.442780	146.640000
490.536499	145.620000
490.630188	145.800000
490.723907	145.220000
490.817566	145.240000
490.911285	145.160000
491.004974	145.140000
491.098694	144.600000
491.192413	145.140000
491.286102	144.720000
491.379822	144.920000
491.473480	145.340000
491.567200	145.320000
491.660889	144.760000
491.754608	145.160000
491.848267	144.880000
491.941986	144.600000
492.035675	144.460000
492.129395	144.380000
492.223053	144.220000
492.316772	144.540000
492.410461	144.600000
492.504181	144.640000
492.597839	144.560000
492.691559	144.760000
492.785248	144.940000
492.878967	145.160000
492.972626	145.100000
493.066345	145.340000
493.160034	144.800000
493.253754	144.500000
493.347412	143.900000
493.441132	144.220000
493.534882	144.680000
493.628540	145.240000
493.722260	145.260000
493.815918	145.900000
493.909668	146.280000
494.003326	146.140000
494.097046	145.860000
494.190704	145.720000
494.284454	145.820000
494.378113	145.800000
494.471832	145.340000
494.565491	145.100000
494.659210	145.440000
494.752899	145.100000
494.846619	144.640000
494.940277	145.260000
495.033997	145.220000
495.127686	144.800000
495.221405	144.740000
495.315063	144.900000
495.408783	144.760000
495.502441	145.240000
495.596191	145.440000
495.689850	145.300000
495.783569	145.460000
495.877228	145.500000
495.970947	145.000000
496.064697	144.960000
496.158356	145.920000
496.252075	145.840000
496.345734	145.560000
496.439453	146.500000
496.533142	146.620000
496.626862	146.480000
496.720520	146.320000
496.814240	146.520000
496.907898	145.880000
497.001617	145.840000
497.095306	145.080000
497.189026	145.040000
497.282684	144.920000
497.376404	145.380000
497.470062	144.940000
497.563782	145.460000
497.657471	145.520000
497.751190	145.300000
497.844849	144.960000
497.938568	145.400000
498.032227	145.100000
498.125946	145.060000
498.219635	144.900000
498.313354	145.020000
498.407074	144.900000
498.500732	145.140000
498.594452	145.280000
498.688110	145.160000
498.781830	144.980000
498.875519	144.840000
498.969238	144.260000
499.062897	144.060000
499.156616	144.680000
499.250275	144.620000
499.343994	144.260000
499.437653	144.640000
499.531372	145.160000
499.625061	145.660000
499.718781	145.780000
499.812439	146.520000
499.906158	146.360000
499.999817	145.820000
500.093536	145.200000
500.187195	145.000000
500.280914	144.720000
500.374573	145.020000
500.468323	145.080000
500.561981	145.200000
500.655701	145.200000
500.749420	145.300000
500.843079	145.380000
500.936798	145.400000
501.030457	145.560000
501.124176	146.160000
501.217834	146.060000
501.311554	145.580000
501.405212	145.460000
501.498962	144.800000
501.592621	144.380000
501.686340	144.680000
501.779999	145.120000
501.873718	145.740000
501.967377	146.100000
502.061096	146.060000
502.154755	145.440000
502.248474	145.260000
502.342133	144.980000
502.435852	144.960000
502.529510	145.580000
502.623230	146.360000
502.716888	146.000000
502.810608	145.640000
502.904266	145.880000
502.997986	144.880000
503.091705	144.200000
503.185364	144.340000
503.279083	144.620000
503.372772	144.480000
503.466492	144.660000
503.560150	144.820000
503.653870	144.920000
503.747528	144.800000
503.841248	144.800000
503.934906	145.040000
504.028625	144.920000
504.122284	145.220000
504.216003	145.860000
504.309662	145.460000
504.403381	145.680000
504.497040	145.760000
504.590759	145.260000
504.684418	145.100000
504.778137	145.340000
504.871796	145.640000
504.965515	145.500000
505.059174	146.120000
505.152893	145.560000
505.246521	145.400000
505.340240	145.040000
505.433899	145.360000
505.527618	145.280000
505.621338	145.620000
505.714996	145.500000
505.808716	145.240000
505.902374	145.560000
505.996094	145.680000
506.089752	145.300000
506.183472	145.620000
506.277130	145.700000
506.370850	145.480000
506.464508	145.200000
506.558228	145.400000
506.651886	145.180000
506.745605	145.220000
506.839264	145.320000
506.932983	145.460000
507.026611	145.660000
507.120331	146.080000
507.213989	145.640000
507.307709	145.440000
507.401367	145.660000
507.495087	146.340000
507.588745	145.780000
507.682465	147.100000
507.776123	147.220000
507.869843	146.840000
507.963531	146.340000
508.057190	147.100000
508.150909	145.880000
508.244568	146.020000
508.338287	145.900000
508.431946	145.440000
508.525665	144.860000
508.619324	144.680000
508.713013	144.620000
508.806671	145.060000
508.900391	145.840000
508.994049	146.280000
509.087769	146.440000
509.181427	146.460000
509.275146	146.060000
509.368774	145.220000
509.462494	144.900000
509.556152	144.940000
509.649872	145.360000
509.743530	145.360000
509.837250	145.500000
509.930878	145.540000
510.024597	145.680000
510.118256	144.960000
510.211975	144.980000
510.305695	144.620000
510.399353	144.700000
510.493042	145.200000
510.586700	145.600000
510.680420	146.420000
510.774078	146.560000
510.867798	146.780000
510.961426	146.000000
511.055145	145.820000
511.148804	144.980000
511.242523	145.780000
511.336151	145.540000
511.429871	145.980000
511.523529	145.660000
511.617249	145.700000
511.710876	145.360000
511.804596	145.020000
511.898254	144.920000
511.991974	145.340000
512.085632	145.060000
512.179321	145.020000
512.272949	145.760000
512.366699	146.120000
512.460327	145.780000
512.554077	146.820000
512.647766	146.560000
512.741394	146.320000
512.835144	146.400000
512.928772	146.300000
513.022461	145.820000
513.116150	145.400000
513.209839	145.520000
513.303467	145.360000
513.397217	145.480000
513.490845	145.160000
513.584595	145.440000
513.678223	144.780000
513.771912	143.660000
513.865601	143.860000
513.959290	143.780000
514.052917	143.860000
514.146667	144.940000
514.240295	145.880000
514.333984	145.800000
514.427673	145.680000
514.521362	146.080000
514.614990	145.040000
514.708740	145.160000
514.802368	145.460000
514.896057	145.940000
514.989746	146.660000
515.083435	147.040000
515.177124	147.020000
515.270752	146.460000
515.364502	146.260000
515.458130	145.760000
515.551819	145.640000
515.645508	145.480000
515.739197	145.400000
515.832825	145.400000
515.926575	145.220000
516.020203	145.440000
516.113892	145.860000
516.207520	146.120000
516.301270	145.840000
516.394897	145.980000
516.488586	146.400000
516.582275	146.340000
516.675964	145.780000
516.769592	146.180000
516.863281	146.520000
516.956970	146.360000
517.050659	146.040000
517.144287	146.680000
517.238037	146.720000
517.331665	145.700000
517.425354	145.260000
517.519043	145.300000
517.612732	145.220000
517.706421	144.680000
517.800049	144.800000
517.893738	144.640000
517.987427	144.540000
518.081116	144.420000
518.174744	144.380000
518.268433	144.580000
518.362122	145.300000
518.455811	145.280000
518.549438	145.900000
518.643127	147.100000
518.736816	146.760000
518.830505	146.060000
518.924133	146.060000
519.017822	145.820000
519.111511	145.240000
519.205200	146.060000
519.298828	146.200000
519.392517	145.960000
519.486206	146.460000
519.579895	146.420000
519.673523	145.780000
519.767212	145.640000
519.860901	146.380000
519.954590	145.880000
520.048279	145.440000
520.141907	145.340000
520.235596	146.300000
520.329224	146.020000
520.422974	146.000000
520.516602	146.080000
520.610291	146.100000
520.703918	145.640000
520.797607	145.040000
520.891296	144.960000
520.984985	145.280000
521.078613	145.960000
521.172302	145.440000
521.265930	146.940000
521.359680	147.400000
521.453308	147.080000
521.546997	146.920000
521.640625	147.200000
521.734314	146.340000
521.827942	145.600000
521.921692	146.060000
522.015320	145.960000
522.109009	145.780000
522.202698	145.440000
522.296326	145.800000
522.390015	146.060000
522.483704	145.920000
522.577393	145.940000
522.671021	146.060000
522.764709	145.580000
522.858337	145.660000
522.952026	145.800000
523.045654	146.320000
523.139404	146.840000
523.233032	147.480000
523.326721	146.860000
523.420349	146.600000
523.514038	146.060000
523.607666	145.980000
523.701355	145.240000
523.795044	145.300000
523.888733	145.740000
523.982361	146.200000
524.076050	145.880000
524.169678	146.580000
524.263367	146.500000
524.356995	146.120000
524.450684	145.820000
524.544373	145.800000
524.638062	145.480000
524.731750	145.480000
524.825378	145.240000
524.919067	144.660000
525.012695	144.480000
525.106384	144.380000
525.200012	144.420000
525.293701	144.280000
525.387329	145.000000
525.481018	145.520000
525.574646	145.780000
525.668396	145.900000
525.762024	146.420000
525.855713	146.440000
525.949341	145.560000
526.043030	145.720000
526.136658	145.400000
526.230347	145.260000
526.323975	144.880000
526.417664	145.020000
526.511292	144.820000
526.604980	144.980000
526.698608	144.660000
526.792297	144.700000
526.885925	145.280000
526.979614	145.340000
527.073303	145.200000
527.166931	145.400000
527.260620	145.720000
527.354309	146.120000
527.447998	146.220000
527.541626	146.200000
527.635315	146.300000
527.728943	146.520000
527.822632	146.420000
527.916260	146.280000
528.009949	146.520000
528.103577	146.280000
528.197266	145.540000
528.290894	145.560000
528.384583	145.420000
528.478210	145.340000
528.571899	145.760000
528.665527	146.500000
528.759216	146.360000
528.852844	146.860000
528.946533	146.920000
529.040161	146.640000
529.133850	146.020000
529.227478	146.100000
529.321167	145.960000
529.414856	146.460000
529.508484	146.780000
529.602173	146.740000
529.695801	146.380000
529.789490	146.220000
529.883057	145.600000
529.976746	145.760000
530.070374	146.160000
530.164062	145.920000
530.257690	146.240000
530.351379	146.740000
530.445007	146.520000
530.538696	145.660000
530.632324	146.200000
530.726013	146.040000
530.819641	146.040000
530.913330	145.960000
531.006958	146.380000
531.100647	146.260000
531.194275	146.140000
531.287964	145.520000
531.381592	145.160000
531.475220	145.420000
531.568848	145.160000
531.662537	144.900000
531.756226	145.560000
531.849854	145.820000
531.943542	146.140000
532.037170	145.800000
532.130859	146.420000
532.224487	145.780000
532.318176	145.720000
532.411804	145.620000
532.505432	145.960000
532.599060	145.560000
532.692749	145.580000
532.786377	145.700000
532.880066	144.980000
532.973694	144.520000
533.067383	144.340000
533.161011	144.460000
533.254639	144.420000
533.348267	144.380000
533.441956	144.860000
533.535583	144.840000
533.629272	144.940000
533.722900	144.240000
533.816589	144.520000
533.910156	144.860000
534.003845	144.360000
534.097534	144.760000
534.191162	145.900000
534.284851	146.200000
534.378479	145.740000
534.472107	146.400000
534.565735	145.880000
534.659424	145.860000
534.753052	145.920000
534.846741	145.660000
534.940369	146.100000
535.033997	146.080000
535.127625	145.900000
535.221313	146.360000
535.314941	146.600000
535.408630	145.920000
535.502197	146.520000
535.595886	146.160000
535.689514	145.520000
535.783203	145.840000
535.876831	146.300000
535.970459	145.840000
536.064087	145.760000
536.157776	145.780000
536.251404	145.820000
536.345093	145.640000
536.438721	145.680000
536.532349	146.060000
536.626038	145.820000
536.719666	145.960000
536.813293	145.680000
536.906921	145.800000
537.000610	145.860000
537.094238	146.240000
537.187866	146.080000
537.281494	146.040000
537.375183	145.940000
537.468811	145.860000
537.562439	145.680000
537.656067	145.560000
537.749756	145.600000
537.843384	146.060000
537.937012	146.000000
538.030640	145.700000
538.124329	145.640000
538.217896	146.040000
538.311584	145.880000
538.405212	145.660000
538.498901	146.340000
538.592468	146.960000
538.686157	146.380000
538.779785	145.660000
538.873413	145.940000
538.967102	145.400000
539.060730	144.760000
539.154358	145.380000
539.247986	145.940000
539.341675	146.080000
539.435242	146.060000
539.528931	146.320000
539.622559	145.840000
539.716187	146.220000
539.809814	146.060000
539.903503	146.180000
539.997070	145.880000
540.090759	145.880000
540.184387	145.280000
540.278015	145.740000
540.371643	146.040000
540.465332	145.980000
540.558899	145.980000
540.652588	146.140000
540.746216	145.320000
540.839844	145.460000
540.933472	145.640000
541.027100	145.800000
541.120728	145.900000
541.214417	146.480000
541.308044	146.700000
541.401672	146.640000
541.495300	146.400000
541.588928	146.380000
541.682617	145.920000
541.776184	145.200000
541.869873	145.400000
541.963440	145.580000
542.057129	145.340000
542.150757	145.560000
542.244385	145.600000
542.338013	145.160000
542.431641	144.840000
542.525269	145.180000
542.618958	145.520000
542.712524	145.920000
542.806213	145.800000
542.899780	146.380000
542.993469	145.880000
543.087036	145.540000
543.180725	144.920000
543.274292	145.400000
543.367981	145.560000
543.461548	146.040000
543.555237	145.940000
543.648926	146.880000
543.742493	147.320000
543.836182	147.020000
543.929749	147.020000
544.023437	146.900000
544.117004	146.780000
544.210693	146.820000
544.304260	147.160000
544.397949	146.880000
544.491516	147.300000
544.585205	146.860000
544.678772	146.060000
544.772461	145.980000
544.866028	145.940000
544.959717	145.780000
545.053284	145.420000
545.146973	146.140000
545.240540	145.960000
545.334229	146.480000
545.427795	146.560000
545.521423	146.960000
545.615051	146.760000
545.708679	147.100000
545.802307	146.640000
545.895935	146.980000
545.989624	147.800000
546.083191	147.480000
546.176880	147.400000
546.270447	147.280000
546.364136	147.280000
546.457703	146.580000
546.551331	146.720000
546.644958	146.700000
546.738586	147.020000
546.832214	146.560000
546.925842	146.120000
547.019409	146.380000
547.113098	146.060000
547.206665	145.640000
547.300354	145.840000
547.393921	146.500000
547.487549	146.400000
547.581177	146.120000
547.674805	146.180000
547.768433	145.340000
547.862061	145.100000
547.955627	144.380000
548.049316	144.940000
548.142883	145.080000
548.236572	146.040000
548.330139	146.240000
548.423767	146.720000
548.517456	146.300000
548.611023	146.600000
548.704651	146.160000
548.798279	145.920000
548.891907	146.100000
548.985474	146.060000
549.079163	146.000000
549.172729	145.700000
549.266357	145.100000
549.359985	145.000000
549.453613	144.600000
549.547180	144.080000
549.640869	144.640000
549.734436	144.800000
549.828064	145.040000
549.921631	145.440000
550.015320	145.260000
550.108887	145.320000
550.202515	145.540000
550.296143	144.940000
550.389771	145.120000
550.483337	145.540000
550.576965	145.220000
550.670593	145.560000
550.764221	145.520000
550.857849	145.580000
550.951477	145.200000
551.045105	145.120000
551.138672	145.060000
551.232300	144.900000
551.325928	144.980000
551.419556	145.280000
551.513123	145.320000
551.606750	145.060000
551.700378	145.320000
551.794006	145.100000
551.887573	144.860000
551.981201	145.440000
552.074768	145.120000
552.168457	145.040000
552.262024	145.780000
552.355652	145.800000
552.449219	146.040000
552.542847	146.440000
552.636475	146.340000
552.730103	145.160000
552.823669	145.320000
552.917297	144.660000
553.010864	144.600000
553.104553	144.980000
553.198181	145.020000
553.291748	145.360000
553.385376	145.320000
553.478943	145.120000
553.572571	145.060000
553.666199	145.440000
553.759827	144.860000
553.853394	144.520000
553.947021	144.640000
554.040588	144.800000
554.134216	145.020000
554.227783	145.820000
554.321411	146.520000
554.415039	145.860000
554.508667	145.480000
554.602234	145.620000
554.695862	144.960000
554.789429	144.520000
554.883057	145.300000
554.976624	145.580000
555.070251	145.160000
555.163818	144.980000
555.257507	145.320000
555.351074	145.100000
555.444702	146.080000
555.538330	146.100000
555.631897	146.520000
555.725525	146.460000
555.819092	146.360000
555.912720	144.840000
556.006287	145.160000
556.099915	145.000000
556.193481	144.820000
556.287109	145.340000
556.380676	145.700000
556.474304	145.780000
556.567871	145.960000
556.661499	145.520000
556.755066	145.200000
556.848694	145.460000
556.942261	145.220000
557.035889	145.340000
557.129517	145.820000
557.223145	146.280000
557.316711	146.160000
557.410339	146.060000
557.503906	145.940000
557.597473	145.920000
557.691040	145.760000
557.784668	145.480000
557.878296	145.620000
557.971863	145.720000
558.065491	146.000000
558.159058	145.440000
558.252686	146.120000
558.346252	146.680000
558.439880	145.780000
558.533447	145.260000
558.627075	145.380000
558.720642	144.960000
558.814270	144.340000
558.907837	144.780000
559.001465	144.820000
559.095032	145.300000
559.188660	145.280000
559.282227	144.820000
559.375854	145.480000
559.469360	145.140000
559.562988	145.380000
559.656555	145.480000
559.750183	146.060000
559.843750	145.980000
559.937378	146.340000
560.030945	146.000000
560.124573	0.000000
560.218140	0.000000
560.311707	0.000000
560.405334	0.000000
560.498901	0.000000
560.592529	0.000000
560.686096	0.000000
560.779724	0.000000
560.873291	0.000000
560.966858	0.000000
561.060425	0.000000
561.154053	0.000000
561.247620	0.000000
561.341248	0.000000
561.434814	0.000000
561.528381	0.000000
561.621948	0.000000
561.715576	0.000000
561.809143	0.000000
561.902771	0.000000
561.996277	0.000000
562.089905	0.000000
562.183472	0.000000
562.277100	0.000000
