Model Number: SPM-002-B   
Serial Number: 70087108
Firmware Version: 004.15.4
Exposure Time: 100000.000000us
Data Taken on: 11-12-2020 19:37:52.249
Wavelength	Amplitude
221.570786	0.000000
221.663406	0.000000
221.756027	0.000000
221.848648	0.000000
221.941269	0.000000
222.033905	0.000000
222.126526	0.000000
222.219162	0.000000
222.311798	0.000000
222.404419	0.000000
222.497055	0.000000
222.589676	0.000000
222.682312	0.000000
222.774933	0.000000
222.867569	0.000000
222.960205	0.000000
223.052841	0.000000
223.145462	0.000000
223.238098	0.000000
223.330734	0.000000
223.423386	0.000000
223.516022	0.000000
223.608658	0.000000
223.701309	0.000000
223.793945	0.000000
223.886581	0.000000
223.979218	0.000000
224.071869	0.000000
224.164505	0.000000
224.257156	0.000000
224.349792	0.000000
224.442444	0.000000
224.535095	0.000000
224.627747	0.000000
224.720398	0.000000
224.813034	0.000000
224.905685	0.000000
224.998337	145.360000
225.090988	145.020000
225.183640	145.020000
225.276291	144.780000
225.368942	145.420000
225.461594	145.840000
225.554245	146.020000
225.646912	145.940000
225.739578	146.480000
225.832230	146.820000
225.924896	146.180000
226.017548	146.260000
226.110199	147.000000
226.202866	146.340000
226.295532	145.720000
226.388184	145.600000
226.480850	145.380000
226.573517	144.980000
226.666168	145.260000
226.758835	145.580000
226.851501	146.240000
226.944183	146.460000
227.036850	145.920000
227.129517	145.860000
227.222183	145.920000
227.314850	145.520000
227.407516	145.700000
227.500198	146.520000
227.592865	146.040000
227.685532	145.680000
227.778214	145.860000
227.870880	145.900000
227.963562	146.220000
228.056229	146.780000
228.148926	146.900000
228.241592	147.220000
228.334274	146.940000
228.426956	146.360000
228.519638	146.400000
228.612305	145.840000
228.704987	146.000000
228.797668	146.320000
228.890350	146.260000
228.983032	145.720000
229.075714	146.980000
229.168396	146.540000
229.261108	146.120000
229.353790	146.020000
229.446472	146.140000
229.539169	145.540000
229.631851	145.180000
229.724533	145.280000
229.817230	145.720000
229.909912	146.800000
230.002609	146.820000
230.095306	146.980000
230.187988	146.960000
230.280685	146.780000
230.373383	145.580000
230.466095	145.280000
230.558792	145.640000
230.651474	145.680000
230.744171	145.400000
230.836868	145.500000
230.929581	146.140000
231.022278	146.020000
231.114975	146.040000
231.207672	145.980000
231.300369	146.620000
231.393082	146.300000
231.485779	146.020000
231.578506	146.080000
231.671204	146.240000
231.763916	145.960000
231.856613	145.720000
231.949326	145.940000
232.042023	145.520000
232.134735	145.520000
232.227448	145.380000
232.320160	145.740000
232.412872	145.660000
232.505585	146.600000
232.598297	146.760000
232.691010	146.540000
232.783722	146.120000
232.876450	146.380000
232.969162	145.640000
233.061874	145.400000
233.154587	145.300000
233.247314	145.720000
233.340027	145.400000
233.432739	145.980000
233.525467	145.720000
233.618179	146.280000
233.710907	145.900000
233.803635	146.540000
233.896347	146.220000
233.989090	147.340000
234.081818	147.200000
234.174545	147.280000
234.267258	146.560000
234.359985	146.680000
234.452713	145.980000
234.545441	145.740000
234.638168	145.660000
234.730896	146.080000
234.823639	145.860000
234.916367	146.280000
235.009094	146.200000
235.101822	146.340000
235.194580	146.340000
235.287308	146.400000
235.380051	145.780000
235.472778	146.160000
235.565521	146.460000
235.658249	146.020000
235.750992	146.260000
235.843719	146.460000
235.936462	146.620000
236.029205	146.200000
236.121948	146.420000
236.214691	146.660000
236.307449	147.140000
236.400192	146.620000
236.492935	146.380000
236.585678	146.060000
236.678421	145.880000
236.771164	145.660000
236.863907	146.120000
236.956665	146.520000
237.049408	148.400000
237.142151	147.780000
237.234909	148.240000
237.327652	148.200000
237.420410	147.680000
237.513153	146.520000
237.605927	146.400000
237.698669	145.680000
237.791428	145.080000
237.884186	145.740000
237.976944	145.120000
238.069702	145.660000
238.162445	145.180000
238.255203	145.340000
238.347961	145.340000
238.440720	145.380000
238.533478	145.220000
238.626266	145.400000
238.719025	145.680000
238.811783	145.220000
238.904541	144.920000
238.997314	144.860000
239.090073	144.620000
239.182831	144.840000
239.275604	146.000000
239.368362	146.200000
239.461136	146.540000
239.553909	146.820000
239.646667	146.300000
239.739441	145.760000
239.832214	146.300000
239.925003	146.160000
240.017761	146.740000
240.110535	147.520000
240.203308	146.800000
240.296082	146.800000
240.388855	146.660000
240.481628	146.420000
240.574417	146.420000
240.667191	146.960000
240.759964	146.380000
240.852737	146.320000
240.945526	146.200000
241.038315	145.880000
241.131088	145.940000
241.223877	146.400000
241.316650	146.120000
241.409439	146.360000
241.502228	145.820000
241.595001	145.960000
241.687790	146.120000
241.780579	146.620000
241.873367	146.740000
241.966141	147.160000
242.058929	146.700000
242.151718	146.340000
242.244507	146.200000
242.337311	145.560000
242.430099	146.160000
242.522903	146.600000
242.615692	146.360000
242.708481	146.540000
242.801270	147.080000
242.894073	146.700000
242.986862	146.500000
243.079651	147.280000
243.172455	146.860000
243.265244	146.440000
243.358063	146.020000
243.450867	146.640000
243.543655	146.180000
243.636459	146.440000
243.729263	146.860000
243.822067	147.020000
243.914856	146.940000
244.007660	147.220000
244.100464	147.320000
244.193268	147.120000
244.286072	147.000000
244.378876	146.460000
244.471680	146.080000
244.564499	146.100000
244.657318	146.620000
244.750122	147.160000
244.842926	146.720000
244.935745	147.260000
245.028549	146.820000
245.121368	146.460000
245.214172	146.000000
245.306992	146.540000
245.399796	146.020000
245.492615	146.240000
245.585434	145.960000
245.678253	145.860000
245.771072	145.480000
245.863892	146.040000
245.956711	146.360000
246.049530	146.300000
246.142349	146.320000
246.235168	146.640000
246.327988	146.680000
246.420807	146.360000
246.513626	146.540000
246.606445	146.700000
246.699280	146.520000
246.792099	145.920000
246.884918	145.720000
246.977753	145.040000
247.070587	144.900000
247.163422	144.920000
247.256241	145.060000
247.349075	145.440000
247.441895	145.840000
247.534729	145.880000
247.627563	145.660000
247.720383	146.420000
247.813217	145.860000
247.906052	145.660000
247.998886	145.480000
248.091736	145.640000
248.184570	145.100000
248.277405	145.560000
248.370239	146.660000
248.463074	147.860000
248.555908	148.380000
248.648743	148.100000
248.741592	148.140000
248.834427	147.400000
248.927261	146.040000
249.020111	146.100000
249.112946	146.580000
249.205795	146.120000
249.298630	146.240000
249.391495	146.500000
249.484344	146.040000
249.577179	146.080000
249.670029	146.760000
249.762878	147.380000
249.855728	147.780000
249.948563	147.700000
250.041412	146.780000
250.134262	146.840000
250.227112	146.380000
250.319962	146.260000
250.412827	146.380000
250.505692	146.520000
250.598541	146.460000
250.691391	146.160000
250.784241	145.860000
250.877106	146.000000
250.969955	145.960000
251.062805	146.260000
251.155670	146.580000
251.248520	146.420000
251.341385	146.460000
251.434235	146.580000
251.527100	145.860000
251.619965	145.700000
251.712814	146.860000
251.805695	146.620000
251.898560	146.660000
251.991425	146.900000
252.084290	147.320000
252.177155	146.140000
252.270020	146.020000
252.362885	146.380000
252.455750	146.840000
252.548615	146.280000
252.641479	146.400000
252.734360	146.360000
252.827240	145.920000
252.920105	145.520000
253.012970	145.280000
253.105850	145.300000
253.198715	145.080000
253.291595	145.140000
253.384460	144.740000
253.477341	145.020000
253.570221	145.100000
253.663086	144.940000
253.755966	145.320000
253.848846	145.460000
253.941727	145.580000
254.034592	145.680000
254.127472	145.660000
254.220367	145.780000
254.313248	146.120000
254.406128	145.580000
254.499008	145.760000
254.591904	146.620000
254.684784	146.560000
254.777664	146.520000
254.870544	146.600000
254.963440	146.300000
255.056335	145.780000
255.149216	145.580000
255.242111	145.880000
255.334991	146.180000
255.427887	146.400000
255.520767	146.760000
255.613663	146.980000
255.706558	146.340000
255.799438	146.120000
255.892334	145.960000
255.985229	145.760000
256.078125	145.340000
256.171021	145.400000
256.263916	145.860000
256.356812	145.900000
256.449707	146.160000
256.542603	146.060000
256.635498	146.680000
256.728394	146.660000
256.821289	146.620000
256.914215	146.740000
257.007080	146.920000
257.100006	146.740000
257.192932	146.780000
257.285828	146.820000
257.378723	146.580000
257.471619	146.820000
257.564545	146.140000
257.657440	146.300000
257.750336	146.780000
257.843262	146.400000
257.936157	147.160000
258.029053	147.760000
258.121979	147.940000
258.214874	147.420000
258.307800	147.500000
258.400696	146.280000
258.493622	146.000000
258.586517	144.940000
258.679443	145.320000
258.772339	145.120000
258.865265	145.740000
258.958160	145.420000
259.051086	146.240000
259.144012	145.940000
259.236938	146.840000
259.329834	146.420000
259.422791	146.580000
259.515717	145.780000
259.608612	145.520000
259.701538	145.220000
259.794464	145.100000
259.887390	145.000000
259.980316	145.260000
260.073212	145.060000
260.166138	144.280000
260.259064	144.620000
260.351990	145.160000
260.444916	145.000000
260.537842	145.600000
260.630768	146.460000
260.723694	146.360000
260.816620	146.300000
260.909546	146.480000
261.002472	145.960000
261.095398	145.340000
261.188354	145.460000
261.281281	144.940000
261.374207	145.220000
261.467133	145.980000
261.560089	146.280000
261.653015	145.860000
261.745972	146.600000
261.838867	146.800000
261.931824	146.880000
262.024780	146.020000
262.117706	146.240000
262.210663	146.140000
262.303589	145.620000
262.396515	145.600000
262.489471	147.040000
262.582397	147.080000
262.675354	146.760000
262.768280	147.000000
262.861237	146.620000
262.954163	146.320000
263.047119	146.380000
263.140045	146.100000
263.233002	146.300000
263.325958	146.260000
263.418884	145.720000
263.511841	145.540000
263.604797	145.620000
263.697723	145.400000
263.790680	145.280000
263.883636	146.060000
263.976593	146.140000
264.069550	146.440000
264.162476	146.220000
264.255463	146.560000
264.348419	145.860000
264.441376	145.860000
264.534332	145.320000
264.627289	145.420000
264.720245	145.600000
264.813202	145.220000
264.906158	145.440000
264.999115	146.080000
265.092072	146.140000
265.185028	146.540000
265.277985	146.940000
265.370941	146.640000
265.463898	146.180000
265.556854	146.080000
265.649811	144.980000
265.742798	145.140000
265.835754	145.320000
265.928711	146.000000
266.021667	146.140000
266.114655	146.640000
266.207611	146.680000
266.300568	146.060000
266.393585	145.340000
266.486511	145.740000
266.579498	145.140000
266.672485	145.040000
266.765442	145.420000
266.858429	146.000000
266.951385	145.200000
267.044342	145.660000
267.137329	145.660000
267.230316	145.740000
267.323273	145.160000
267.416260	146.180000
267.509216	145.860000
267.602203	145.820000
267.695160	146.500000
267.788147	146.840000
267.881134	145.920000
267.974091	146.320000
268.067078	146.180000
268.160065	145.780000
268.253052	145.720000
268.346008	145.920000
268.438995	145.500000
268.531982	145.740000
268.624969	145.540000
268.717987	145.540000
268.810944	145.520000
268.903961	145.940000
268.996948	145.460000
269.089905	145.740000
269.182892	146.000000
269.275879	146.460000
269.368866	145.700000
269.461853	146.100000
269.554871	145.900000
269.647858	145.920000
269.740845	145.940000
269.833832	146.880000
269.926819	146.540000
270.019806	146.720000
270.112793	145.820000
270.205811	145.860000
270.298798	145.380000
270.391785	146.200000
270.484772	145.720000
270.577789	146.400000
270.670776	145.860000
270.763763	145.980000
270.856750	145.960000
270.949768	145.940000
271.042786	145.880000
271.135773	146.120000
271.228790	146.180000
271.321808	145.380000
271.414795	145.140000
271.507782	145.000000
271.600800	144.460000
271.693817	144.540000
271.786804	145.060000
271.879822	145.620000
271.972809	145.500000
272.065826	146.180000
272.158844	145.540000
272.251831	146.040000
272.344849	145.900000
272.437866	145.680000
272.530853	145.620000
272.623871	146.200000
272.716888	145.080000
272.809906	145.420000
272.902893	145.820000
272.995911	145.280000
273.088928	145.360000
273.181946	145.940000
273.274963	145.400000
273.367981	145.260000
273.460999	145.920000
273.554047	145.960000
273.647003	146.360000
273.740051	146.520000
273.833069	146.800000
273.926086	146.540000
274.019135	146.360000
274.112152	146.060000
274.205170	146.360000
274.298187	146.500000
274.391205	146.100000
274.484222	146.260000
274.577240	146.180000
274.670258	145.800000
274.763306	145.620000
274.856323	146.120000
274.949341	145.880000
275.042358	146.040000
275.135406	146.000000
275.228424	146.100000
275.321442	145.880000
275.414490	145.540000
275.507507	145.960000
275.600525	146.580000
275.693573	146.200000
275.786591	146.060000
275.879669	146.680000
275.972656	146.020000
276.065735	145.680000
276.158752	146.320000
276.251801	146.940000
276.344818	146.940000
276.437866	146.860000
276.530884	146.740000
276.623932	145.680000
276.716980	145.740000
276.809998	145.580000
276.903046	145.520000
276.996094	146.040000
277.089111	147.000000
277.182159	147.320000
277.275208	147.240000
277.368256	147.400000
277.461304	147.060000
277.554321	146.320000
277.647369	145.940000
277.740417	145.800000
277.833466	145.620000
277.926514	145.360000
278.019562	146.140000
278.112610	145.400000
278.205688	145.540000
278.298706	145.820000
278.391785	145.620000
278.484833	145.140000
278.577881	145.320000
278.670929	145.620000
278.763977	145.540000
278.857025	146.060000
278.950073	146.060000
279.043121	146.040000
279.136169	145.880000
279.229248	145.500000
279.322296	145.640000
279.415344	145.460000
279.508392	145.540000
279.601440	145.320000
279.694519	145.660000
279.787567	145.100000
279.880615	145.020000
279.973694	145.040000
280.066742	145.200000
280.159790	145.240000
280.252869	145.140000
280.345917	145.480000
280.438995	145.540000
280.532074	145.360000
280.625122	145.280000
280.718201	146.400000
280.811279	146.460000
280.904327	146.320000
280.997406	146.480000
281.090454	146.700000
281.183533	145.680000
281.276581	145.640000
281.369659	145.500000
281.462738	145.640000
281.555786	145.700000
281.648865	146.000000
281.741943	145.820000
281.835022	146.660000
281.928070	146.520000
282.021149	146.160000
282.114227	145.860000
282.207306	145.980000
282.300385	145.940000
282.393433	145.960000
282.486511	146.260000
282.579590	146.760000
282.672668	147.140000
282.765747	146.560000
282.858856	146.320000
282.951904	146.040000
283.045013	146.040000
283.138062	146.120000
283.231171	146.260000
283.324249	146.900000
283.417328	147.160000
283.510406	146.800000
283.603485	146.400000
283.696564	146.600000
283.789642	146.320000
283.882751	146.260000
283.975830	147.040000
284.068909	146.720000
284.161987	147.280000
284.255066	146.580000
284.348175	146.520000
284.441254	145.700000
284.534332	146.160000
284.627441	145.400000
284.720520	145.640000
284.813599	145.340000
284.906708	145.720000
284.999786	145.260000
285.092896	144.880000
285.185974	145.840000
285.279053	145.560000
285.372192	145.660000
285.465240	146.500000
285.558380	146.840000
285.651459	146.240000
285.744568	147.580000
285.837677	147.140000
285.930756	146.940000
286.023865	146.940000
286.116943	146.360000
286.210052	145.820000
286.303162	145.880000
286.396240	145.600000
286.489349	145.320000
286.582458	145.800000
286.675568	145.460000
286.768646	145.300000
286.861755	145.540000
286.954865	146.560000
287.047974	146.080000
287.141083	146.280000
287.234161	146.300000
287.327271	145.860000
287.420380	145.620000
287.513519	145.480000
287.606598	145.300000
287.699738	145.720000
287.792816	145.860000
287.885956	145.400000
287.979034	145.880000
288.072174	146.220000
288.165283	145.920000
288.258392	146.240000
288.351501	145.840000
288.444611	145.980000
288.537720	146.120000
288.630859	146.360000
288.723969	146.420000
288.817078	146.960000
288.910187	147.100000
289.003296	146.340000
289.096436	145.520000
289.189545	145.320000
289.282654	144.780000
289.375763	145.020000
289.468903	145.480000
289.562012	146.180000
289.655121	145.980000
289.748260	146.420000
289.841400	146.440000
289.934509	146.780000
290.027649	147.140000
290.120728	146.720000
290.213898	146.680000
290.306976	146.400000
290.400146	146.300000
290.493256	145.700000
290.586395	146.080000
290.679535	146.320000
290.772644	145.920000
290.865784	145.100000
290.958893	144.980000
291.052032	144.860000
291.145172	144.700000
291.238281	144.940000
291.331421	145.300000
291.424561	145.980000
291.517670	146.020000
291.610809	145.960000
291.703949	145.620000
291.797089	145.660000
291.890228	144.960000
291.983337	144.920000
292.076477	144.740000
292.169617	145.100000
292.262756	145.180000
292.355927	145.320000
292.449036	145.080000
292.542206	145.380000
292.635315	145.500000
292.728485	145.660000
292.821625	145.460000
292.914764	146.800000
293.007904	146.840000
293.101044	146.700000
293.194183	146.640000
293.287323	147.000000
293.380463	145.980000
293.473602	145.540000
293.566742	145.920000
293.659882	146.260000
293.753021	146.260000
293.846191	146.500000
293.939331	146.360000
294.032471	145.900000
294.125610	145.580000
294.218781	146.040000
294.311920	146.260000
294.405060	146.660000
294.498230	146.800000
294.591370	146.880000
294.684540	146.080000
294.777679	145.700000
294.870850	145.840000
294.963959	145.620000
295.057159	145.620000
295.150299	145.980000
295.243469	145.740000
295.336609	145.140000
295.429779	145.320000
295.522919	145.580000
295.616089	145.780000
295.709229	146.340000
295.802399	146.840000
295.895569	146.680000
295.988708	146.340000
296.081879	146.420000
296.175018	145.900000
296.268188	145.780000
296.361359	146.040000
296.454529	145.960000
296.547668	145.620000
296.640839	146.120000
296.734009	145.900000
296.827179	146.080000
296.920319	146.620000
297.013519	146.560000
297.106659	146.740000
297.199860	146.620000
297.292999	146.600000
297.386200	145.800000
297.479309	145.780000
297.572510	145.480000
297.665680	145.500000
297.758850	145.400000
297.852020	145.760000
297.945190	145.620000
298.038361	145.540000
298.131531	146.560000
298.224701	146.420000
298.317871	145.980000
298.411072	145.820000
298.504242	145.440000
298.597412	144.640000
298.690582	144.920000
298.783752	145.300000
298.876923	145.800000
298.970093	146.020000
299.063293	146.340000
299.156464	146.420000
299.249634	146.800000
299.342834	146.600000
299.436005	146.840000
299.529205	146.660000
299.622345	146.380000
299.715576	145.340000
299.808716	145.300000
299.901917	145.040000
299.995117	145.340000
300.088287	145.600000
300.181488	145.900000
300.274658	145.660000
300.367828	146.000000
300.461029	145.780000
300.554199	145.760000
300.647400	146.020000
300.740601	146.780000
300.833771	146.700000
300.926971	146.900000
301.020142	146.320000
301.113342	146.160000
301.206512	145.920000
301.299713	145.980000
301.392914	146.120000
301.486084	146.840000
301.579285	146.940000
301.672516	147.360000
301.765686	146.760000
301.858887	146.340000
301.952057	145.960000
302.045288	146.160000
302.138458	145.680000
302.231659	145.840000
302.324860	145.800000
302.418060	145.740000
302.511261	145.620000
302.604462	145.920000
302.697662	145.920000
302.790863	145.920000
302.884064	145.520000
302.977264	145.520000
303.070465	145.520000
303.163666	146.420000
303.256866	146.400000
303.350067	146.700000
303.443268	146.620000
303.536469	146.740000
303.629669	146.000000
303.722870	146.640000
303.816071	146.340000
303.909271	146.380000
304.002472	145.340000
304.095673	145.200000
304.188934	144.060000
304.282104	145.200000
304.375336	145.260000
304.468506	145.660000
304.561768	145.340000
304.654968	146.280000
304.748169	145.280000
304.841370	144.820000
304.934601	145.100000
305.027802	145.240000
305.121002	144.680000
305.214233	144.800000
305.307434	145.060000
305.400665	145.720000
305.493866	145.680000
305.587097	145.900000
305.680298	145.900000
305.773499	146.500000
305.866730	145.980000
305.959930	146.640000
306.053162	146.760000
306.146393	146.420000
306.239594	145.640000
306.332825	145.560000
306.426025	145.780000
306.519287	145.560000
306.612488	146.100000
306.705719	146.320000
306.798920	146.300000
306.892181	145.360000
306.985352	145.160000
307.078613	144.880000
307.171844	145.200000
307.265045	145.000000
307.358276	145.040000
307.451508	145.400000
307.544739	145.720000
307.637970	145.380000
307.731201	145.320000
307.824402	146.060000
307.917633	146.400000
308.010864	146.500000
308.104095	146.700000
308.197327	146.800000
308.290558	146.520000
308.383789	145.900000
308.477020	145.660000
308.570251	144.900000
308.663483	144.360000
308.756714	144.240000
308.849976	144.300000
308.943176	144.960000
309.036438	145.420000
309.129639	145.620000
309.222900	145.500000
309.316101	145.500000
309.409393	144.500000
309.502625	144.480000
309.595856	144.760000
309.689087	144.980000
309.782318	145.040000
309.875580	145.400000
309.968811	145.520000
310.062042	145.120000
310.155273	145.060000
310.248535	145.480000
310.341766	145.660000
310.434998	145.320000
310.528259	145.740000
310.621490	145.980000
310.714722	145.460000
310.807983	145.220000
310.901215	145.540000
310.994476	145.620000
311.087708	145.160000
311.181000	145.380000
311.274200	145.160000
311.367462	145.060000
311.460693	144.780000
311.553986	145.620000
311.647186	145.860000
311.740479	146.480000
311.833710	146.040000
311.926971	146.100000
312.020203	145.080000
312.113464	144.860000
312.206726	144.060000
312.299957	144.960000
312.393219	145.400000
312.486481	145.900000
312.579712	145.580000
312.672974	145.800000
312.766235	145.320000
312.859497	144.900000
312.952759	144.820000
313.045990	145.800000
313.139252	145.620000
313.232513	146.040000
313.325775	146.260000
313.419037	145.940000
313.512299	145.180000
313.605530	145.920000
313.698822	145.720000
313.792053	145.400000
313.885345	145.480000
313.978577	145.620000
314.071869	144.900000
314.165131	145.080000
314.258392	145.440000
314.351654	145.960000
314.444916	145.200000
314.538177	145.920000
314.631439	145.960000
314.724701	145.720000
314.817993	145.460000
314.911255	146.280000
315.004517	145.420000
315.097778	145.260000
315.191040	145.940000
315.284302	145.940000
315.377594	145.640000
315.470856	146.180000
315.564117	145.700000
315.657379	145.120000
315.750671	144.920000
315.843933	145.260000
315.937195	144.800000
316.030518	144.720000
316.123749	144.700000
316.217041	145.340000
316.310303	145.280000
316.403595	145.760000
316.496857	146.180000
316.590149	146.460000
316.683411	145.660000
316.776703	145.320000
316.869965	145.040000
316.963257	144.880000
317.056519	144.400000
317.149811	144.700000
317.243073	144.740000
317.336365	145.160000
317.429626	145.700000
317.522919	146.220000
317.616180	146.020000
317.709473	145.640000
317.802765	145.440000
317.896027	145.000000
317.989319	145.180000
318.082611	145.220000
318.175873	145.380000
318.269165	145.620000
318.362488	145.600000
318.455750	145.220000
318.549042	145.520000
318.642303	146.160000
318.735626	145.640000
318.828888	145.640000
318.922211	145.160000
319.015472	145.780000
319.108765	145.000000
319.202057	144.940000
319.295349	145.220000
319.388641	145.480000
319.481934	144.860000
319.575226	145.120000
319.668518	145.400000
319.761810	145.400000
319.855103	145.520000
319.948395	145.480000
320.041687	145.880000
320.134979	146.120000
320.228271	145.820000
320.321564	145.620000
320.414856	145.660000
320.508148	145.040000
320.601440	144.880000
320.694763	144.780000
320.788025	145.480000
320.881348	145.600000
320.974640	146.020000
321.067963	145.580000
321.161224	145.920000
321.254547	145.200000
321.347839	145.720000
321.441162	145.340000
321.534454	145.820000
321.627747	145.700000
321.721069	146.300000
321.814362	146.020000
321.907654	146.400000
322.000946	146.100000
322.094269	146.700000
322.187561	146.160000
322.280884	146.240000
322.374176	146.120000
322.467468	146.780000
322.560791	146.340000
322.654083	146.800000
322.747406	146.700000
322.840698	146.880000
322.934021	146.920000
323.027344	147.220000
323.120636	147.000000
323.213959	146.940000
323.307251	146.460000
323.400574	145.860000
323.493866	145.100000
323.587219	145.200000
323.680511	145.280000
323.773834	145.640000
323.867157	145.940000
323.960449	146.320000
324.053772	145.940000
324.147095	145.860000
324.240387	146.200000
324.333710	146.220000
324.427032	146.380000
324.520355	146.760000
324.613647	146.580000
324.706970	146.380000
324.800293	146.200000
324.893616	146.460000
324.986938	146.520000
325.080231	146.160000
325.173553	146.520000
325.266876	146.840000
325.360199	146.500000
325.453522	146.180000
325.546875	146.420000
325.640167	146.220000
325.733521	146.220000
325.826813	146.540000
325.920166	146.680000
326.013489	146.540000
326.106812	145.700000
326.200134	145.480000
326.293457	144.780000
326.386780	144.860000
326.480103	144.980000
326.573425	145.180000
326.666748	145.060000
326.760071	145.520000
326.853424	145.300000
326.946747	145.260000
327.040070	146.500000
327.133392	146.360000
327.226715	145.720000
327.320068	145.400000
327.413391	145.800000
327.506714	144.680000
327.600037	144.640000
327.693390	145.000000
327.786713	145.220000
327.880066	144.760000
327.973358	145.140000
328.066742	145.800000
328.160034	146.220000
328.253418	146.700000
328.346710	146.580000
328.440063	146.060000
328.533417	145.280000
328.626740	145.340000
328.720093	144.860000
328.813416	145.120000
328.906769	145.260000
329.000092	145.820000
329.093445	145.500000
329.186768	145.660000
329.280121	146.020000
329.373444	146.560000
329.466797	146.260000
329.560120	146.340000
329.653473	146.380000
329.746796	145.800000
329.840149	145.360000
329.933502	145.280000
330.026825	144.980000
330.120178	144.820000
330.213562	144.840000
330.306854	145.220000
330.400238	145.640000
330.493561	145.500000
330.586945	145.960000
330.680237	146.420000
330.773621	146.400000
330.866974	146.180000
330.960327	146.400000
331.053680	146.160000
331.147003	146.040000
331.240356	146.080000
331.333710	146.080000
331.427063	145.920000
331.520416	145.840000
331.613770	145.620000
331.707123	145.400000
331.800476	145.340000
331.893829	146.260000
331.987152	146.420000
332.080505	146.600000
332.173859	146.500000
332.267212	146.200000
332.360565	145.160000
332.453918	144.840000
332.547333	144.460000
332.640656	144.360000
332.734039	144.780000
332.827362	145.080000
332.920746	145.440000
333.014069	146.080000
333.107452	146.740000
333.200806	147.100000
333.294159	147.360000
333.387543	146.720000
333.480896	145.880000
333.574249	145.300000
333.667603	144.840000
333.760956	144.920000
333.854340	145.520000
333.947693	145.760000
334.041046	145.820000
334.134430	146.100000
334.227783	145.440000
334.321136	145.100000
334.414520	145.060000
334.507874	145.280000
334.601227	145.240000
334.694611	145.360000
334.787964	145.360000
334.881348	145.500000
334.974701	145.460000
335.068085	145.020000
335.161438	145.360000
335.254822	145.380000
335.348175	145.740000
335.441559	145.260000
335.534943	146.060000
335.628296	145.900000
335.721680	145.820000
335.815033	145.920000
335.908417	146.480000
336.001770	146.020000
336.095154	145.940000
336.188538	145.860000
336.281891	145.500000
336.375275	144.900000
336.468658	144.700000
336.562012	144.940000
336.655396	145.380000
336.748779	145.580000
336.842133	145.780000
336.935516	146.120000
337.028900	145.760000
337.122284	145.580000
337.215637	145.420000
337.309021	145.380000
337.402435	144.920000
337.495789	145.040000
337.589203	144.780000
337.682526	144.820000
337.775940	145.320000
337.869324	145.620000
337.962708	145.140000
338.056091	145.760000
338.149475	145.300000
338.242859	145.120000
338.336243	145.000000
338.429626	145.720000
338.523010	145.620000
338.616394	145.920000
338.709778	146.260000
338.803162	146.640000
338.896545	146.380000
338.989929	145.880000
339.083313	146.120000
339.176697	145.620000
339.270081	145.280000
339.363464	145.920000
339.456848	146.300000
339.550232	145.720000
339.643616	145.700000
339.737030	145.480000
339.830383	145.240000
339.923828	145.260000
340.017181	145.360000
340.110596	145.440000
340.203949	145.620000
340.297363	145.000000
340.390778	145.000000
340.484161	145.280000
340.577545	145.140000
340.670959	145.320000
340.764343	145.480000
340.857727	145.360000
340.951111	144.980000
341.044525	145.220000
341.137909	144.600000
341.231293	144.640000
341.324707	144.360000
341.418091	145.280000
341.511505	145.440000
341.604889	146.000000
341.698303	146.340000
341.791687	146.580000
341.885071	145.880000
341.978485	145.540000
342.071899	145.360000
342.165283	145.460000
342.258698	145.540000
342.352081	146.220000
342.445496	146.680000
342.538879	146.680000
342.632324	146.100000
342.725708	146.180000
342.819122	145.480000
342.912506	144.900000
343.005920	144.820000
343.099335	145.760000
343.192719	145.680000
343.286133	145.700000
343.379547	145.980000
343.472931	146.300000
343.566345	145.500000
343.659760	145.760000
343.753143	145.500000
343.846558	145.180000
343.939972	144.880000
344.033386	145.380000
344.126770	144.920000
344.220184	145.220000
344.313599	145.800000
344.407043	146.040000
344.500427	145.440000
344.593872	146.040000
344.687225	145.660000
344.780670	145.180000
344.874054	144.980000
344.967499	145.660000
345.060913	145.500000
345.154327	145.560000
345.247742	145.220000
345.341156	144.900000
345.434570	144.320000
345.527985	144.100000
345.621399	144.840000
345.714813	145.280000
345.808228	145.840000
345.901642	145.980000
345.995056	145.700000
346.088470	145.240000
346.181885	145.120000
346.275299	144.580000
346.368713	144.240000
346.462128	144.180000
346.555573	144.300000
346.648987	144.560000
346.742401	144.880000
346.835815	145.680000
346.929260	145.480000
347.022644	145.520000
347.116119	145.580000
347.209503	145.740000
347.302948	146.180000
347.396362	146.860000
347.489807	147.080000
347.583221	147.460000
347.676636	147.220000
347.770050	146.240000
347.863495	145.620000
347.956909	145.200000
348.050323	144.720000
348.143768	144.720000
348.237183	144.460000
348.330597	145.300000
348.424042	145.760000
348.517456	146.060000
348.610901	146.160000
348.704315	146.320000
348.797760	145.740000
348.891174	144.940000
348.984619	144.640000
349.078033	144.920000
349.171448	145.460000
349.264923	145.320000
349.358337	145.560000
349.451782	145.560000
349.545197	145.060000
349.638641	144.500000
349.732086	144.060000
349.825500	144.680000
349.918945	144.280000
350.012390	144.640000
350.105804	145.240000
350.199249	145.780000
350.292664	145.820000
350.386108	146.100000
350.479553	146.500000
350.572968	146.080000
350.666412	146.300000
350.759857	146.160000
350.853302	146.540000
350.946716	145.900000
351.040161	146.200000
351.133606	145.880000
351.227081	145.580000
351.320465	146.440000
351.413940	146.680000
351.507355	146.740000
351.600830	147.040000
351.694244	146.960000
351.787720	146.140000
351.881104	145.940000
351.974579	145.480000
352.067993	146.100000
352.161469	146.160000
352.254883	145.400000
352.348358	145.480000
352.441803	145.700000
352.535248	145.340000
352.628693	145.840000
352.722137	146.060000
352.815582	146.180000
352.909027	146.040000
353.002472	145.680000
353.095917	145.220000
353.189362	145.600000
353.282806	145.520000
353.376251	145.580000
353.469696	145.360000
353.563141	145.860000
353.656586	145.520000
353.750061	144.900000
353.843475	144.700000
353.936981	145.340000
354.030396	144.500000
354.123871	144.540000
354.217285	145.480000
354.310760	145.900000
354.404175	145.500000
354.497681	145.400000
354.591095	145.600000
354.684570	144.940000
354.777985	144.520000
354.871490	144.700000
354.964935	145.480000
355.058380	145.480000
355.151855	145.500000
355.245300	145.980000
355.338745	146.040000
355.432220	145.540000
355.525665	145.300000
355.619110	145.800000
355.712585	145.580000
355.806030	145.600000
355.899475	145.640000
355.992950	146.080000
356.086426	146.400000
356.179871	146.400000
356.273346	146.240000
356.366791	146.440000
356.460266	146.460000
356.553711	145.820000
356.647186	146.040000
356.740631	145.820000
356.834106	145.920000
356.927551	145.980000
357.021027	146.040000
357.114471	146.060000
357.207947	146.380000
357.301422	146.340000
357.394867	146.260000
357.488342	146.740000
357.581818	146.720000
357.675262	146.760000
357.768738	146.540000
357.862213	145.780000
357.955658	145.300000
358.049133	144.940000
358.142609	145.240000
358.236053	145.160000
358.329529	145.680000
358.423035	145.780000
358.516449	145.720000
358.609955	145.760000
358.703400	146.240000
358.796906	146.320000
358.890350	146.220000
358.983826	146.600000
359.077271	145.820000
359.170776	145.340000
359.264221	144.960000
359.357727	145.240000
359.451172	145.260000
359.544647	145.760000
359.638123	145.900000
359.731598	146.600000
359.825073	146.740000
359.918549	146.560000
360.012024	146.540000
360.105499	146.340000
360.198975	146.300000
360.292450	146.020000
360.385925	145.840000
360.479401	145.320000
360.572876	145.860000
360.666351	145.800000
360.759857	145.660000
360.853302	145.920000
360.946808	145.680000
361.040253	145.600000
361.133759	145.100000
361.227203	145.480000
361.320709	145.180000
361.414154	145.760000
361.507660	145.900000
361.601105	146.380000
361.694641	146.640000
361.788086	146.480000
361.881592	146.840000
361.975067	146.380000
362.068542	146.560000
362.162018	146.180000
362.255524	146.200000
362.348999	145.880000
362.442474	145.880000
362.535950	145.160000
362.629456	144.820000
362.722931	144.700000
362.816406	144.920000
362.909882	145.640000
363.003387	145.400000
363.096863	145.880000
363.190338	146.120000
363.283875	146.160000
363.377319	145.900000
363.470825	146.720000
363.564301	146.040000
363.657806	146.380000
363.751282	145.720000
363.844788	146.320000
363.938232	145.660000
364.031769	146.460000
364.125214	146.400000
364.218750	147.020000
364.312225	145.620000
364.405731	145.840000
364.499207	144.820000
364.592712	144.400000
364.686188	144.220000
364.779694	144.880000
364.873169	144.940000
364.966675	145.340000
365.060150	145.820000
365.153656	146.120000
365.247131	145.940000
365.340637	146.060000
365.434143	147.100000
365.527618	146.940000
365.621155	146.020000
365.714600	146.040000
365.808136	146.020000
365.901611	144.760000
365.995117	144.520000
366.088593	144.780000
366.182129	144.640000
366.275604	144.560000
366.369110	144.660000
366.462585	144.800000
366.556122	145.720000
366.649567	145.820000
366.743103	146.040000
366.836609	145.960000
366.930115	146.220000
367.023590	145.900000
367.117096	145.680000
367.210602	145.780000
367.304108	146.940000
367.397614	147.120000
367.491119	147.140000
367.584595	147.480000
367.678101	147.620000
367.771606	146.700000
367.865112	146.300000
367.958649	145.820000
368.052124	145.720000
368.145660	145.400000
368.239136	145.940000
368.332672	146.020000
368.426147	146.220000
368.519684	145.980000
368.613159	146.160000
368.706696	145.660000
368.800171	145.700000
368.893707	145.420000
368.987183	145.780000
369.080719	145.780000
369.174225	145.760000
369.267731	145.820000
369.361237	146.000000
369.454742	145.840000
369.548248	146.000000
369.641754	145.840000
369.735260	145.580000
369.828766	144.840000
369.922272	145.520000
370.015808	145.200000
370.109314	145.180000
370.202820	145.320000
370.296356	146.640000
370.389832	145.640000
370.483368	145.000000
370.576874	145.020000
370.670410	144.880000
370.763885	143.700000
370.857422	144.160000
370.950928	144.480000
371.044464	145.060000
371.137939	145.260000
371.231476	146.060000
371.324982	146.440000
371.418518	146.660000
371.512024	146.360000
371.605560	146.200000
371.699066	146.300000
371.792572	145.580000
371.886108	146.060000
371.979614	146.060000
372.073120	146.420000
372.166656	146.320000
372.260162	146.700000
372.353668	146.020000
372.447205	145.760000
372.540710	145.460000
372.634277	145.080000
372.727753	145.180000
372.821320	145.320000
372.914795	145.360000
373.008362	145.220000
373.101837	145.460000
373.195404	145.180000
373.288879	145.360000
373.382446	145.940000
373.475922	146.340000
373.569489	146.880000
373.662964	147.480000
373.756531	147.320000
373.850037	147.480000
373.943573	147.100000
374.037109	146.160000
374.130615	145.880000
374.224152	145.880000
374.317657	145.300000
374.411194	146.140000
374.504730	146.360000
374.598236	146.020000
374.691772	146.100000
374.785309	146.300000
374.878815	145.340000
374.972351	145.640000
375.065887	145.700000
375.159454	146.320000
375.252930	145.880000
375.346497	146.220000
375.440002	146.400000
375.533569	146.160000
375.627045	145.300000
375.720612	145.600000
375.814117	145.720000
375.907684	145.240000
376.001160	145.000000
376.094727	144.500000
376.188232	145.020000
376.281799	145.220000
376.375336	145.400000
376.468872	146.280000
376.562408	147.000000
376.655914	146.360000
376.749451	146.120000
376.842987	146.280000
376.936523	145.900000
377.030060	145.880000
377.123596	146.380000
377.217133	145.760000
377.310669	145.680000
377.404205	145.980000
377.497772	146.240000
377.591278	145.920000
377.684845	147.120000
377.778351	147.040000
377.871918	146.420000
377.965424	145.740000
378.058990	145.560000
378.152496	144.720000
378.246063	144.940000
378.339569	145.140000
378.433136	145.240000
378.526642	145.300000
378.620209	145.460000
378.713745	144.920000
378.807312	145.280000
378.900848	145.340000
378.994385	145.640000
379.087921	145.380000
379.181458	145.760000
379.274994	144.980000
379.368530	145.020000
379.462097	145.000000
379.555634	145.140000
379.649170	144.580000
379.742706	145.000000
379.836273	145.580000
379.929810	145.260000
380.023376	144.960000
380.116882	145.100000
380.210449	145.140000
380.303986	144.200000
380.397552	143.800000
380.491058	144.080000
380.584656	144.240000
380.678162	144.500000
380.771729	144.680000
380.865265	145.640000
380.958832	145.720000
381.052368	145.980000
381.145935	145.980000
381.239471	146.480000
381.333008	146.140000
381.426575	146.300000
381.520111	146.500000
381.613647	146.660000
381.707214	146.380000
381.800751	145.800000
381.894318	145.840000
381.987854	145.160000
382.081421	144.700000
382.174988	144.700000
382.268524	144.740000
382.362091	144.600000
382.455627	145.980000
382.549194	145.980000
382.642731	145.560000
382.736298	145.500000
382.829834	145.140000
382.923401	145.000000
383.016937	145.320000
383.110504	145.760000
383.204041	146.320000
383.297607	146.700000
383.391174	145.440000
383.484741	145.960000
383.578278	145.700000
383.671844	145.220000
383.765411	144.680000
383.858948	145.160000
383.952515	144.640000
384.046051	145.160000
384.139618	145.640000
384.233185	146.100000
384.326721	146.040000
384.420288	146.420000
384.513855	146.160000
384.607422	146.480000
384.700989	146.740000
384.794525	146.680000
384.888123	146.240000
384.981659	146.700000
385.075226	146.000000
385.168762	145.800000
385.262360	145.820000
385.355896	145.140000
385.449463	144.760000
385.542999	144.940000
385.636597	145.660000
385.730164	145.980000
385.823730	146.140000
385.917267	145.820000
386.010834	146.020000
386.104401	145.740000
386.197968	145.460000
386.291534	145.880000
386.385101	146.080000
386.478668	146.500000
386.572235	145.760000
386.665802	145.540000
386.759338	145.300000
386.852905	145.260000
386.946472	144.640000
387.040070	145.260000
387.133606	145.280000
387.227203	145.000000
387.320740	145.040000
387.414337	144.560000
387.507874	144.220000
387.601471	144.200000
387.695007	144.200000
387.788605	144.040000
387.882141	144.900000
387.975739	145.020000
388.069275	145.100000
388.162872	145.640000
388.256439	145.800000
388.350037	145.240000
388.443604	144.860000
388.537170	145.040000
388.630737	145.420000
388.724304	145.740000
388.817871	145.860000
388.911438	146.200000
389.005005	146.480000
389.098602	146.360000
389.192169	145.880000
389.285736	145.980000
389.379333	145.920000
389.472870	145.160000
389.566467	144.800000
389.660034	145.060000
389.753632	144.720000
389.847168	144.820000
389.940765	145.200000
390.034332	145.500000
390.127930	145.020000
390.221466	145.160000
390.315063	144.860000
390.408630	144.180000
390.502228	143.620000
390.595795	144.140000
390.689362	144.180000
390.782959	144.540000
390.876526	145.240000
390.970093	145.360000
391.063690	145.680000
391.157257	145.980000
391.250824	146.220000
391.344421	145.860000
391.437988	146.260000
391.531555	146.160000
391.625153	146.060000
391.718750	146.100000
391.812317	146.040000
391.905914	145.680000
391.999481	145.840000
392.093079	145.760000
392.186615	145.680000
392.280243	145.980000
392.373779	146.120000
392.467407	146.080000
392.560944	145.920000
392.654572	145.500000
392.748108	145.600000
392.841736	145.600000
392.935303	145.280000
393.028900	145.380000
393.122467	145.640000
393.216064	145.140000
393.309631	144.780000
393.403229	144.200000
393.496796	144.020000
393.590393	143.100000
393.683990	143.560000
393.777557	144.300000
393.871155	145.000000
393.964722	145.540000
394.058350	146.560000
394.151917	146.680000
394.245514	146.060000
394.339081	146.100000
394.432678	146.040000
394.526245	145.600000
394.619873	145.180000
394.713409	145.660000
394.807037	145.360000
394.900604	145.520000
394.994202	145.520000
395.087769	145.840000
395.181396	145.320000
395.274994	146.200000
395.368561	145.620000
395.462158	146.140000
395.555756	145.820000
395.649353	146.440000
395.742920	145.840000
395.836517	146.320000
395.930115	145.500000
396.023712	145.740000
396.117279	145.920000
396.210876	145.480000
396.304474	145.560000
396.398071	145.800000
396.491669	146.080000
396.585266	145.540000
396.678833	145.680000
396.772461	145.760000
396.866028	146.060000
396.959656	146.220000
397.053223	146.800000
397.146851	147.060000
397.240417	147.560000
397.334015	149.020000
397.427582	149.960000
397.521210	151.260000
397.614807	153.720000
397.708405	156.140000
397.802002	158.820000
397.895599	163.580000
397.989197	169.160000
398.082794	175.440000
398.176392	183.580000
398.269989	193.380000
398.363586	205.260000
398.457184	219.620000
398.550781	236.880000
398.644379	254.780000
398.737976	274.980000
398.831573	295.500000
398.925201	316.000000
399.018768	336.420000
399.112396	357.020000
399.205963	376.700000
399.299591	395.980000
399.393158	414.840000
399.486786	432.880000
399.580353	451.140000
399.673981	466.760000
399.767578	482.540000
399.861206	495.760000
399.954773	506.040000
400.048401	510.420000
400.141998	510.620000
400.235596	505.340000
400.329193	495.960000
400.422791	482.540000
400.516418	467.700000
400.610016	453.160000
400.703613	437.020000
400.797211	417.060000
400.890808	395.980000
400.984436	374.740000
401.078033	350.680000
401.171631	325.940000
401.265259	304.100000
401.358826	284.280000
401.452484	264.500000
401.546051	247.880000
401.639679	231.120000
401.733246	216.480000
401.826904	202.320000
401.920471	190.280000
402.014099	179.440000
402.107697	171.980000
402.201324	165.860000
402.294891	161.420000
402.388550	157.640000
402.482147	154.960000
402.575745	152.220000
402.669373	149.920000
402.762970	148.320000
402.856567	147.700000
402.950195	147.260000
403.043793	147.120000
403.137390	147.640000
403.231018	147.240000
403.324615	147.660000
403.418243	147.100000
403.511841	147.340000
403.605469	146.980000
403.699066	147.160000
403.792694	146.720000
403.886292	146.880000
403.979919	146.780000
404.073517	146.320000
404.167145	146.380000
404.260712	146.140000
404.354370	146.060000
404.447937	145.960000
404.541595	145.800000
404.635162	146.240000
404.728821	146.440000
404.822418	145.860000
404.916046	145.800000
405.009644	146.280000
405.103271	145.920000
405.196899	145.980000
405.290497	146.440000
405.384125	146.480000
405.477722	146.000000
405.571350	145.360000
405.664948	145.280000
405.758575	145.180000
405.852203	144.760000
405.945801	145.280000
406.039429	145.840000
406.133057	145.320000
406.226654	145.240000
406.320312	145.400000
406.413879	145.260000
406.507538	145.180000
406.601135	145.240000
406.694763	145.880000
406.788361	145.660000
406.882019	145.360000
406.975586	145.400000
407.069244	146.120000
407.162872	145.920000
407.256470	145.780000
407.350098	145.760000
407.443726	145.540000
407.537323	144.920000
407.630951	144.980000
407.724579	144.960000
407.818207	145.580000
407.911804	145.480000
408.005432	145.520000
408.099060	145.660000
408.192688	146.080000
408.286285	145.720000
408.379913	145.540000
408.473572	145.620000
408.567169	144.680000
408.660828	144.780000
408.754395	144.720000
408.848053	144.760000
408.941650	144.960000
409.035309	145.100000
409.128906	145.080000
409.222565	145.120000
409.316132	145.660000
409.409790	145.340000
409.503387	145.640000
409.597046	145.600000
409.690674	145.540000
409.784302	145.400000
409.877930	145.400000
409.971558	145.440000
410.065186	145.200000
410.158783	145.160000
410.252411	144.920000
410.346039	145.360000
410.439667	145.380000
410.533295	145.720000
410.626923	146.100000
410.720551	146.120000
410.814209	146.120000
410.907806	146.080000
411.001465	145.460000
411.095062	145.520000
411.188721	145.620000
411.282318	145.260000
411.375977	144.800000
411.469574	145.320000
411.563232	144.900000
411.656830	144.620000
411.750488	144.460000
411.844086	144.400000
411.937744	144.440000
412.031372	144.300000
412.125000	144.500000
412.218628	144.640000
412.312256	145.640000
412.405884	145.800000
412.499512	145.920000
412.593170	146.200000
412.686798	146.700000
412.780426	146.120000
412.874054	146.160000
412.967682	146.380000
413.061310	147.160000
413.154968	146.800000
413.248566	146.680000
413.342224	146.320000
413.435852	146.320000
413.529510	145.460000
413.623108	145.080000
413.716766	145.120000
413.810364	145.380000
413.904022	145.000000
413.997650	144.380000
414.091309	145.220000
414.184906	145.360000
414.278564	145.220000
414.372192	145.960000
414.465851	146.760000
414.559479	146.240000
414.653107	146.820000
414.746735	146.720000
414.840393	146.520000
414.934021	147.020000
415.027649	146.780000
415.121277	146.400000
415.214935	146.860000
415.308563	146.500000
415.402191	145.220000
415.495850	145.440000
415.589478	145.260000
415.683136	144.660000
415.776733	144.820000
415.870422	145.840000
415.964020	145.420000
416.057678	145.500000
416.151306	145.640000
416.244965	145.440000
416.338562	144.960000
416.432251	145.560000
416.525848	146.020000
416.619507	146.340000
416.713165	146.760000
416.806793	146.720000
416.900421	146.920000
416.994080	146.240000
417.087708	146.240000
417.181366	145.920000
417.274994	145.960000
417.368622	145.920000
417.462280	146.440000
417.555908	145.980000
417.649567	145.740000
417.743195	145.760000
417.836853	145.600000
417.930481	145.600000
418.024170	146.020000
418.117767	146.580000
418.211426	146.780000
418.305054	147.100000
418.398712	146.620000
418.492340	146.240000
418.585999	146.440000
418.679626	146.520000
418.773285	146.400000
418.866913	147.140000
418.960571	147.680000
419.054230	147.500000
419.147858	147.380000
419.241516	147.440000
419.335144	146.880000
419.428802	146.800000
419.522461	146.320000
419.616089	145.840000
419.709747	145.580000
419.803375	145.900000
419.897034	145.420000
419.990662	145.620000
420.084320	146.200000
420.177979	146.480000
420.271606	146.340000
420.365295	146.960000
420.458893	146.840000
420.552582	146.720000
420.646210	146.540000
420.739868	146.200000
420.833496	145.720000
420.927155	145.700000
421.020782	145.440000
421.114471	144.960000
421.208069	145.080000
421.301758	145.300000
421.395386	145.560000
421.489044	145.560000
421.582703	145.740000
421.676361	146.440000
421.769989	146.200000
421.863647	146.340000
421.957306	146.720000
422.050934	147.040000
422.144592	146.360000
422.238251	146.080000
422.331909	145.500000
422.425537	144.980000
422.519196	144.820000
422.612854	144.420000
422.706543	144.100000
422.800140	144.800000
422.893829	144.840000
422.987457	144.500000
423.081146	144.880000
423.174744	145.840000
423.268433	145.400000
423.362061	145.320000
423.455750	145.440000
423.549347	145.580000
423.643036	144.940000
423.736664	145.500000
423.830353	145.620000
423.924011	145.980000
424.017639	145.660000
424.111298	145.860000
424.204956	145.220000
424.298615	145.060000
424.392273	144.700000
424.485931	144.960000
424.579559	144.980000
424.673218	144.960000
424.766876	145.340000
424.860535	145.080000
424.954193	144.880000
425.047882	145.280000
425.141510	145.360000
425.235199	145.100000
425.328796	145.320000
425.422485	145.380000
425.516113	144.860000
425.609802	144.920000
425.703430	145.180000
425.797119	144.820000
425.890747	144.740000
425.984436	144.840000
426.078064	144.740000
426.171753	144.900000
426.265411	145.060000
426.359070	145.560000
426.452728	145.280000
426.546356	145.200000
426.640015	144.640000
426.733673	144.860000
426.827332	144.300000
426.920990	145.140000
427.014648	145.000000
427.108307	145.760000
427.201965	146.260000
427.295624	146.420000
427.389282	145.740000
427.482941	146.140000
427.576630	145.600000
427.670258	144.900000
427.763947	144.640000
427.857574	144.700000
427.951263	144.800000
428.044922	144.700000
428.138611	144.920000
428.232239	145.540000
428.325928	146.140000
428.419556	146.500000
428.513245	146.240000
428.606903	146.160000
428.700562	145.700000
428.794220	144.800000
428.887878	144.180000
428.981537	144.800000
429.075195	145.020000
429.168854	145.400000
429.262512	145.800000
429.356201	145.900000
429.449860	145.600000
429.543518	145.480000
429.637177	145.540000
429.730835	145.480000
429.824493	145.240000
429.918182	145.540000
430.011810	144.740000
430.105530	144.040000
430.199158	144.320000
430.292847	144.240000
430.386475	144.060000
430.480164	144.600000
430.573792	144.540000
430.667511	144.320000
430.761139	144.460000
430.854828	144.580000
430.948456	144.700000
431.042145	145.460000
431.135834	145.360000
431.229492	145.480000
431.323151	145.780000
431.416809	145.680000
431.510468	145.100000
431.604156	145.100000
431.697815	145.460000
431.791473	144.920000
431.885132	144.560000
431.978821	145.060000
432.072479	145.360000
432.166138	145.580000
432.259827	145.440000
432.353485	146.280000
432.447174	146.520000
432.540802	146.160000
432.634491	145.960000
432.728149	146.280000
432.821838	146.500000
432.915466	145.900000
433.009186	145.920000
433.102814	145.120000
433.196503	144.840000
433.290131	144.660000
433.383850	144.860000
433.477509	144.920000
433.571167	146.100000
433.664856	146.860000
433.758514	146.980000
433.852173	147.000000
433.945862	147.000000
434.039520	146.440000
434.133179	145.880000
434.226868	145.480000
434.320526	144.720000
434.414185	145.300000
434.507874	145.180000
434.601562	145.340000
434.695221	145.300000
434.788910	146.020000
434.882538	145.900000
434.976257	145.860000
435.069885	145.700000
435.163574	145.860000
435.257233	145.600000
435.350922	145.220000
435.444580	145.060000
435.538269	144.820000
435.631897	145.000000
435.725616	145.580000
435.819275	146.260000
435.912964	146.800000
436.006622	147.260000
436.100311	147.060000
436.193970	145.920000
436.287628	145.220000
436.381317	144.720000
436.474976	144.220000
436.568665	143.800000
436.662323	144.500000
436.756012	144.540000
436.849670	144.400000
436.943390	144.540000
437.037018	144.760000
437.130737	144.780000
437.224365	144.860000
437.318085	145.000000
437.411713	145.200000
437.505432	145.620000
437.599060	145.960000
437.692780	146.540000
437.786407	146.540000
437.880127	146.560000
437.973755	146.040000
438.067474	145.720000
438.161133	145.220000
438.254822	145.640000
438.348480	145.300000
438.442169	145.800000
438.535828	145.960000
438.629517	145.740000
438.723175	145.080000
438.816864	145.640000
438.910553	145.220000
439.004211	144.740000
439.097900	144.340000
439.191559	144.760000
439.285248	143.940000
439.378906	144.500000
439.472626	144.580000
439.566284	144.820000
439.659973	144.940000
439.753632	145.140000
439.847321	145.100000
439.940979	145.180000
440.034698	145.500000
440.128326	145.120000
440.222046	145.100000
440.315674	144.540000
440.409393	144.880000
440.503082	144.680000
440.596741	144.840000
440.690430	145.280000
440.784088	145.400000
440.877777	144.640000
440.971466	144.760000
441.065125	144.560000
441.158813	144.500000
441.252502	144.760000
441.346161	145.300000
441.439850	145.480000
441.533539	145.460000
441.627197	145.500000
441.720886	145.140000
441.814606	145.300000
441.908234	145.340000
442.001953	145.460000
442.095612	145.400000
442.189301	145.520000
442.282959	145.600000
442.376678	144.980000
442.470306	145.880000
442.564026	145.700000
442.657684	146.060000
442.751404	145.940000
442.845032	147.120000
442.938751	146.120000
443.032440	146.520000
443.126099	145.900000
443.219788	146.220000
443.313477	145.680000
443.407166	146.100000
443.500824	145.700000
443.594513	146.240000
443.688202	145.900000
443.781891	145.280000
443.875549	144.720000
443.969238	144.740000
444.062927	144.560000
444.156647	144.420000
444.250275	145.100000
444.343994	145.440000
444.437653	145.700000
444.531372	145.680000
444.625031	145.840000
444.718719	145.420000
444.812378	145.640000
444.906097	145.440000
444.999756	145.080000
445.093445	145.140000
445.187103	145.080000
445.280823	145.460000
445.374512	144.920000
445.468201	145.040000
445.561859	144.680000
445.655548	144.980000
445.749237	144.200000
445.842926	144.740000
445.936615	145.420000
446.030304	145.500000
446.123962	145.840000
446.217651	145.800000
446.311340	146.020000
446.405029	145.240000
446.498749	145.320000
446.592407	144.760000
446.686096	144.880000
446.779755	144.980000
446.873474	145.120000
446.967133	145.360000
447.060852	144.900000
447.154510	144.880000
447.248230	144.600000
447.341858	144.640000
447.435577	144.180000
447.529236	144.540000
447.622955	144.440000
447.716644	144.700000
447.810333	144.920000
447.904022	145.440000
447.997711	145.580000
448.091400	146.360000
448.185059	146.100000
448.278748	146.100000
448.372437	145.740000
448.466125	145.760000
448.559814	145.260000
448.653503	145.580000
448.747192	145.760000
448.840912	146.100000
448.934570	146.280000
449.028290	146.460000
449.121948	145.860000
449.215637	145.600000
449.309296	145.340000
449.403015	145.420000
449.496674	145.180000
449.590393	145.500000
449.684052	145.460000
449.777771	146.240000
449.871429	145.760000
449.965149	145.640000
450.058838	146.060000
450.152527	146.380000
450.246216	145.460000
450.339905	145.840000
450.433594	145.700000
450.527283	146.100000
450.620972	145.680000
450.714661	146.000000
450.808350	145.720000
450.902039	146.360000
450.995728	145.620000
451.089417	145.320000
451.183105	145.100000
451.276794	145.520000
451.370514	144.700000
451.464172	144.020000
451.557892	144.420000
451.651550	144.820000
451.745270	144.340000
451.838928	144.160000
451.932648	144.540000
452.026306	144.860000
452.120026	144.460000
452.213684	145.060000
452.307404	145.600000
452.401062	146.100000
452.494781	145.980000
452.588470	146.000000
452.682159	145.240000
452.775848	145.260000
452.869537	144.500000
452.963226	144.340000
453.056915	144.220000
453.150604	144.560000
453.244293	144.640000
453.337982	145.300000
453.431671	145.880000
453.525360	146.660000
453.619049	146.720000
453.712769	146.640000
453.806427	146.600000
453.900146	145.980000
453.993805	145.380000
454.087555	145.840000
454.181213	145.880000
454.274933	145.700000
454.368591	145.540000
454.462311	145.600000
454.555969	144.880000
454.649689	145.560000
454.743347	145.160000
454.837067	145.820000
454.930756	146.400000
455.024445	146.740000
455.118134	146.200000
455.211853	146.620000
455.305542	146.160000
455.399231	145.640000
455.492920	145.680000
455.586609	145.500000
455.680298	145.620000
455.773987	145.520000
455.867676	145.600000
455.961365	145.740000
456.055084	145.820000
456.148773	145.360000
456.242493	145.460000
456.336151	145.560000
456.429871	145.280000
456.523529	145.320000
456.617249	145.380000
456.710907	145.740000
456.804626	145.340000
456.898315	145.120000
456.992035	144.940000
457.085693	144.760000
457.179413	144.120000
457.273102	145.040000
457.366791	144.960000
457.460480	145.460000
457.554199	146.340000
457.647888	146.580000
457.741577	146.040000
457.835266	146.320000
457.928955	146.260000
458.022644	145.940000
458.116364	146.280000
458.210052	146.240000
458.303741	146.500000
458.397461	145.780000
458.491119	145.520000
458.584839	145.360000
458.678528	145.220000
458.772247	144.940000
458.865906	145.340000
458.959625	146.080000
459.053284	146.240000
459.147003	145.720000
459.240692	146.080000
459.334412	146.100000
459.428070	145.840000
459.521790	145.500000
459.615479	145.940000
459.709198	146.280000
459.802887	145.980000
459.896576	145.760000
459.990265	146.040000
460.083954	146.180000
460.177673	145.180000
460.271362	145.200000
460.365051	144.860000
460.458740	144.460000
460.552429	143.960000
460.646149	144.140000
460.739838	144.020000
460.833527	144.340000
460.927246	144.060000
461.020905	144.180000
461.114655	144.260000
461.208313	144.700000
461.302032	144.000000
461.395691	144.400000
461.489441	144.480000
461.583099	144.440000
461.676819	144.120000
461.770477	144.960000
461.864197	144.460000
461.957916	144.260000
462.051605	143.860000
462.145294	144.880000
462.238983	144.340000
462.332703	145.200000
462.426392	145.960000
462.520081	146.340000
462.613770	145.680000
462.707489	145.880000
462.801178	145.640000
462.894867	145.320000
462.988556	145.320000
463.082275	145.260000
463.175964	145.100000
463.269684	145.120000
463.363342	145.000000
463.457092	144.460000
463.550751	144.620000
463.644470	144.900000
463.738129	145.040000
463.831879	145.120000
463.925537	146.120000
464.019257	146.060000
464.112946	145.720000
464.206665	145.400000
464.300323	145.120000
464.394043	144.660000
464.487762	144.580000
464.581451	145.140000
464.675140	145.160000
464.768829	145.780000
464.862549	146.000000
464.956238	146.020000
465.049927	145.960000
465.143646	146.140000
465.237335	145.700000
465.331024	146.340000
465.424713	146.380000
465.518433	146.260000
465.612152	145.780000
465.705811	145.660000
465.799561	144.960000
465.893219	144.880000
465.986938	144.900000
466.080597	144.840000
466.174347	145.320000
466.268005	145.440000
466.361725	145.380000
466.455414	145.380000
466.549133	145.460000
466.642792	145.260000
466.736542	144.580000
466.830231	144.680000
466.923920	144.600000
467.017609	144.640000
467.111328	144.400000
467.205017	144.920000
467.298706	144.800000
467.392426	144.700000
467.486115	145.160000
467.579803	145.080000
467.673523	145.340000
467.767212	145.620000
467.860901	145.740000
467.954651	145.800000
468.048309	146.040000
468.142029	145.720000
468.235718	145.600000
468.329437	145.340000
468.423096	145.000000
468.516846	145.000000
468.610504	144.460000
468.704224	144.180000
468.797913	144.460000
468.891632	144.460000
468.985291	144.300000
469.079010	144.640000
469.172729	144.300000
469.266418	144.480000
469.360107	144.640000
469.453827	144.200000
469.547516	144.660000
469.641205	145.440000
469.734924	145.720000
469.828613	146.020000
469.922302	146.540000
470.016022	146.340000
470.109711	145.940000
470.203430	145.060000
470.297150	144.100000
470.390808	144.480000
470.484558	143.960000
470.578217	144.640000
470.671936	145.180000
470.765625	146.320000
470.859344	145.560000
470.953003	146.160000
471.046753	145.660000
471.140411	145.160000
471.234131	144.780000
471.327820	145.600000
471.421539	145.480000
471.515228	145.320000
471.608948	145.620000
471.702637	145.280000
471.796326	144.860000
471.890045	145.120000
471.983734	145.220000
472.077423	144.900000
472.171143	145.200000
472.264832	145.260000
472.358521	144.880000
472.452240	144.580000
472.545929	145.320000
472.639648	145.520000
472.733337	145.920000
472.827057	146.120000
472.920746	146.220000
473.014465	146.360000
473.108124	146.280000
473.201874	145.740000
473.295532	145.380000
473.389252	145.560000
473.482941	145.400000
473.576660	145.020000
473.670319	145.020000
473.764069	145.540000
473.857727	145.900000
473.951477	145.780000
474.045166	146.440000
474.138855	146.300000
474.232574	145.940000
474.326263	145.900000
474.419952	145.680000
474.513672	145.500000
474.607361	145.400000
474.701050	145.780000
474.794769	145.600000
474.888458	145.900000
474.982178	145.800000
475.075867	146.160000
475.169586	146.000000
475.263275	145.840000
475.356995	145.660000
475.450653	145.220000
475.544403	144.780000
475.638062	145.480000
475.731812	145.200000
475.825470	144.840000
475.919189	145.160000
476.012878	145.420000
476.106598	144.560000
476.200256	145.100000
476.294006	145.400000
476.387695	145.460000
476.481384	145.700000
476.575104	145.620000
476.668793	145.000000
476.762512	144.540000
476.856201	144.860000
476.949890	144.400000
477.043610	144.140000
477.137299	144.420000
477.230988	144.940000
477.324707	144.640000
477.418396	145.140000
477.512146	145.420000
477.605804	145.320000
477.699524	145.480000
477.793213	145.280000
477.886932	144.860000
477.980591	144.860000
478.074341	144.720000
478.167999	144.040000
478.261749	144.020000
478.355408	144.020000
478.449127	144.480000
478.542816	145.560000
478.636536	146.380000
478.730225	146.780000
478.823944	147.380000
478.917633	146.860000
479.011322	146.760000
479.105042	146.600000
479.198730	146.640000
479.292450	146.100000
479.386139	146.480000
479.479828	146.060000
479.573547	146.240000
479.667267	145.840000
479.760925	146.240000
479.854675	146.340000
479.948334	146.420000
480.042084	145.860000
480.135742	146.100000
480.229462	145.440000
480.323151	145.280000
480.416870	144.560000
480.510529	144.720000
480.604279	144.120000
480.697937	144.820000
480.791656	144.460000
480.885345	144.380000
480.979065	144.400000
481.072754	145.080000
481.166473	145.140000
481.260132	145.060000
481.353882	145.300000
481.447540	145.240000
481.541260	144.840000
481.635010	144.100000
481.728668	144.240000
481.822388	144.220000
481.916077	144.280000
482.009796	144.420000
482.103485	145.060000
482.197205	145.320000
482.290863	145.500000
482.384613	145.260000
482.478271	145.020000
482.571991	144.840000
482.665680	144.740000
482.759399	145.420000
482.853058	145.780000
482.946808	145.880000
483.040466	145.760000
483.134216	145.460000
483.227875	144.760000
483.321594	145.320000
483.415283	145.360000
483.509003	145.100000
483.602661	145.060000
483.696411	145.600000
483.790070	144.920000
483.883789	144.960000
483.977478	145.540000
484.071198	145.620000
484.164917	144.960000
484.258606	144.540000
484.352325	144.820000
484.445984	144.900000
484.539734	144.600000
484.633392	144.280000
484.727142	144.900000
484.820801	144.680000
484.914520	144.500000
485.008209	145.180000
485.101929	145.980000
485.195587	145.800000
485.289337	145.300000
485.382996	144.920000
485.476715	144.780000
485.570404	145.120000
485.664124	144.860000
485.757782	145.740000
485.851532	145.800000
485.945190	145.600000
486.038910	145.340000
486.132599	145.760000
486.226318	144.940000
486.319977	145.040000
486.413727	145.640000
486.507446	145.280000
486.601105	144.940000
486.694855	145.320000
486.788513	145.180000
486.882233	144.760000
486.975922	144.600000
487.069641	144.560000
487.163300	144.520000
487.257050	145.520000
487.350708	145.460000
487.444427	145.540000
487.538116	145.540000
487.631836	145.300000
487.725494	144.600000
487.819214	144.560000
487.912903	144.340000
488.006622	144.720000
488.100281	145.080000
488.194031	144.900000
488.287689	145.520000
488.381409	146.500000
488.475098	146.280000
488.568817	146.360000
488.662476	146.500000
488.756226	145.760000
488.849945	144.700000
488.943604	144.680000
489.037354	144.520000
489.131012	144.420000
489.224731	144.380000
489.318390	144.420000
489.412140	144.460000
489.505798	144.280000
489.599518	144.040000
489.693207	144.260000
489.786926	144.200000
489.880585	143.860000
489.974335	144.500000
490.067993	145.720000
490.161713	146.100000
490.255371	147.140000
490.349121	147.700000
490.442780	147.220000
490.536499	146.260000
490.630188	146.060000
490.723907	145.220000
490.817566	145.040000
490.911285	145.140000
491.004974	145.020000
491.098694	144.880000
491.192413	145.440000
491.286102	145.200000
491.379822	145.280000
491.473480	145.760000
491.567200	145.720000
491.660889	145.200000
491.754608	145.440000
491.848267	145.300000
491.941986	144.880000
492.035675	144.980000
492.129395	145.260000
492.223053	145.180000
492.316772	145.800000
492.410461	145.960000
492.504181	145.880000
492.597839	145.660000
492.691559	145.620000
492.785248	145.120000
492.878967	145.160000
492.972626	144.920000
493.066345	145.200000
493.160034	144.780000
493.253754	144.780000
493.347412	144.100000
493.441132	144.560000
493.534882	144.960000
493.628540	145.620000
493.722260	145.800000
493.815918	146.520000
493.909668	146.880000
494.003326	146.860000
494.097046	146.540000
494.190704	146.080000
494.284454	146.240000
494.378113	146.060000
494.471832	145.800000
494.565491	145.480000
494.659210	145.820000
494.752899	145.600000
494.846619	145.120000
494.940277	144.860000
495.033997	145.020000
495.127686	144.620000
495.221405	144.240000
495.315063	144.440000
495.408783	144.760000
495.502441	145.160000
495.596191	145.380000
495.689850	145.380000
495.783569	145.640000
495.877228	145.580000
495.970947	145.160000
496.064697	145.040000
496.158356	145.840000
496.252075	145.600000
496.345734	145.440000
496.439453	146.460000
496.533142	146.760000
496.626862	146.860000
496.720520	147.220000
496.814240	147.200000
496.907898	146.740000
497.001617	146.800000
497.095306	145.880000
497.189026	145.360000
497.282684	145.300000
497.376404	145.160000
497.470062	144.820000
497.563782	145.220000
497.657471	145.460000
497.751190	145.280000
497.844849	145.200000
497.938568	145.420000
498.032227	145.240000
498.125946	145.140000
498.219635	145.040000
498.313354	145.200000
498.407074	145.000000
498.500732	145.440000
498.594452	145.560000
498.688110	145.560000
498.781830	145.140000
498.875519	145.120000
498.969238	144.620000
499.062897	144.120000
499.156616	144.820000
499.250275	145.080000
499.343994	144.760000
499.437653	145.060000
499.531372	145.540000
499.625061	145.940000
499.718781	145.920000
499.812439	146.400000
499.906158	146.380000
499.999817	146.160000
500.093536	145.460000
500.187195	145.560000
500.280914	145.480000
500.374573	145.660000
500.468323	145.600000
500.561981	145.820000
500.655701	145.560000
500.749420	145.800000
500.843079	145.680000
500.936798	145.720000
501.030457	146.100000
501.124176	146.500000
501.217834	146.260000
501.311554	146.000000
501.405212	145.820000
501.498962	144.800000
501.592621	144.600000
501.686340	144.800000
501.779999	145.200000
501.873718	145.560000
501.967377	146.140000
502.061096	146.340000
502.154755	146.040000
502.248474	145.800000
502.342133	145.980000
502.435852	145.880000
502.529510	146.360000
502.623230	147.000000
502.716888	146.700000
502.810608	146.620000
502.904266	146.860000
502.997986	146.420000
503.091705	145.680000
503.185364	145.620000
503.279083	145.380000
503.372772	144.920000
503.466492	144.280000
503.560150	144.280000
503.653870	144.620000
503.747528	144.780000
503.841248	144.900000
503.934906	145.440000
504.028625	145.340000
504.122284	145.580000
504.216003	146.060000
504.309662	145.580000
504.403381	145.780000
504.497040	145.940000
504.590759	145.460000
504.684418	145.240000
504.778137	146.160000
504.871796	146.460000
504.965515	146.420000
505.059174	146.980000
505.152893	146.380000
505.246521	145.680000
505.340240	144.920000
505.433899	145.140000
505.527618	145.060000
505.621338	145.540000
505.714996	145.460000
505.808716	145.440000
505.902374	146.060000
505.996094	146.240000
506.089752	146.220000
506.183472	146.300000
506.277130	146.580000
506.370850	146.160000
506.464508	145.760000
506.558228	145.760000
506.651886	145.740000
506.745605	145.660000
506.839264	145.560000
506.932983	145.880000
507.026611	145.600000
507.120331	146.400000
507.213989	145.760000
507.307709	145.920000
507.401367	146.180000
507.495087	146.960000
507.588745	146.180000
507.682465	147.480000
507.776123	147.020000
507.869843	146.320000
507.963531	145.880000
508.057190	146.400000
508.150909	145.480000
508.244568	145.840000
508.338287	145.720000
508.431946	145.440000
508.525665	145.280000
508.619324	145.520000
508.713013	145.680000
508.806671	146.140000
508.900391	147.040000
508.994049	147.020000
509.087769	146.640000
509.181427	146.420000
509.275146	145.900000
509.368774	145.040000
509.462494	144.840000
509.556152	144.860000
509.649872	145.120000
509.743530	145.480000
509.837250	145.560000
509.930878	145.440000
510.024597	145.440000
510.118256	144.860000
510.211975	144.740000
510.305695	144.500000
510.399353	145.200000
510.493042	146.000000
510.586700	146.380000
510.680420	146.960000
510.774078	147.100000
510.867798	147.140000
510.961426	146.300000
511.055145	146.100000
511.148804	145.540000
511.242523	145.960000
511.336151	145.800000
511.429871	146.380000
511.523529	146.260000
511.617249	146.160000
511.710876	145.780000
511.804596	145.100000
511.898254	145.040000
511.991974	145.740000
512.085632	145.780000
512.179321	145.820000
512.272949	146.500000
512.366699	146.560000
512.460327	146.100000
512.554077	147.000000
512.647766	146.800000
512.741394	146.720000
512.835144	147.220000
512.928772	146.660000
513.022461	146.320000
513.116150	146.240000
513.209839	146.320000
513.303467	145.500000
513.397217	145.780000
513.490845	145.160000
513.584595	145.180000
513.678223	144.880000
513.771912	144.400000
513.865601	144.760000
513.959290	144.620000
514.052917	144.820000
514.146667	145.240000
514.240295	146.220000
514.333984	146.240000
514.427673	146.360000
514.521362	146.780000
514.614990	146.280000
514.708740	146.040000
514.802368	146.100000
514.896057	146.280000
514.989746	146.420000
515.083435	146.240000
515.177124	146.260000
515.270752	145.900000
515.364502	145.800000
515.458130	145.780000
515.551819	145.700000
515.645508	145.500000
515.739197	145.560000
515.832825	145.800000
515.926575	145.360000
516.020203	145.940000
516.113892	146.500000
516.207520	146.540000
516.301270	146.580000
516.394897	146.640000
516.488586	146.780000
516.582275	146.340000
516.675964	145.700000
516.769592	145.200000
516.863281	145.660000
516.956970	145.720000
517.050659	145.620000
517.144287	145.840000
517.238037	146.200000
517.331665	145.560000
517.425354	145.000000
517.519043	145.020000
517.612732	145.640000
517.706421	145.360000
517.800049	145.260000
517.893738	145.120000
517.987427	144.940000
518.081116	144.380000
518.174744	144.120000
518.268433	144.540000
518.362122	145.320000
518.455811	145.340000
518.549438	146.300000
518.643127	147.660000
518.736816	147.440000
518.830505	146.840000
518.924133	146.900000
519.017822	146.560000
519.111511	145.640000
519.205200	146.120000
519.298828	146.340000
519.392517	146.180000
519.486206	146.460000
519.579895	146.540000
519.673523	146.120000
519.767212	146.020000
519.860901	146.540000
519.954590	145.920000
520.048279	145.660000
520.141907	145.340000
520.235596	146.140000
520.329224	146.260000
520.422974	146.500000
520.516602	146.360000
520.610291	146.260000
520.703918	145.880000
520.797607	145.360000
520.891296	145.300000
520.984985	145.940000
521.078613	146.720000
521.172302	146.180000
521.265930	147.080000
521.359680	147.380000
521.453308	146.920000
521.546997	146.800000
521.640625	146.940000
521.734314	146.000000
521.827942	145.820000
521.921692	146.100000
522.015320	145.800000
522.109009	145.660000
522.202698	145.480000
522.296326	145.340000
522.390015	145.440000
522.483704	145.320000
522.577393	145.260000
522.671021	145.380000
522.764709	145.200000
522.858337	145.460000
522.952026	145.580000
523.045654	146.040000
523.139404	146.840000
523.233032	147.080000
523.326721	146.700000
523.420349	146.620000
523.514038	146.260000
523.607666	146.280000
523.701355	145.980000
523.795044	146.200000
523.888733	146.500000
523.982361	146.920000
524.076050	146.260000
524.169678	146.900000
524.263367	146.320000
524.356995	145.940000
524.450684	145.180000
524.544373	145.220000
524.638062	144.640000
524.731750	144.920000
524.825378	144.820000
524.919067	144.920000
525.012695	144.900000
525.106384	144.720000
525.200012	144.780000
525.293701	144.940000
525.387329	145.380000
525.481018	145.580000
525.574646	146.060000
525.668396	146.180000
525.762024	146.540000
525.855713	146.700000
525.949341	146.000000
526.043030	146.180000
526.136658	145.860000
526.230347	145.220000
526.323975	144.660000
526.417664	145.120000
526.511292	144.820000
526.604980	145.160000
526.698608	145.680000
526.792297	145.940000
526.885925	146.040000
526.979614	146.220000
527.073303	145.960000
527.166931	146.020000
527.260620	146.120000
527.354309	146.200000
527.447998	146.380000
527.541626	146.160000
527.635315	146.220000
527.728943	146.700000
527.822632	147.100000
527.916260	146.940000
528.009949	147.240000
528.103577	146.860000
528.197266	146.040000
528.290894	145.620000
528.384583	145.340000
528.478210	145.460000
528.571899	145.520000
528.665527	146.200000
528.759216	146.520000
528.852844	146.960000
528.946533	146.960000
529.040161	147.260000
529.133850	147.080000
529.227478	147.120000
529.321167	147.320000
529.414856	147.620000
529.508484	147.940000
529.602173	147.680000
529.695801	147.400000
529.789490	147.080000
529.883057	146.920000
529.976746	147.080000
530.070374	147.380000
530.164062	147.480000
530.257690	147.660000
530.351379	147.640000
530.445007	147.160000
530.538696	146.360000
530.632324	146.540000
530.726013	146.360000
530.819641	146.280000
530.913330	146.440000
531.006958	146.800000
531.100647	146.660000
531.194275	146.400000
531.287964	145.940000
531.381592	145.340000
531.475220	145.480000
531.568848	145.340000
531.662537	145.140000
531.756226	145.740000
531.849854	145.860000
531.943542	145.800000
532.037170	145.140000
532.130859	145.840000
532.224487	145.300000
532.318176	144.900000
532.411804	145.240000
532.505432	146.280000
532.599060	145.620000
532.692749	145.920000
532.786377	147.020000
532.880066	146.220000
532.973694	145.560000
533.067383	145.700000
533.161011	145.640000
533.254639	145.160000
533.348267	145.380000
533.441956	145.560000
533.535583	145.600000
533.629272	145.700000
533.722900	145.080000
533.816589	145.400000
533.910156	145.760000
534.003845	145.320000
534.097534	145.540000
534.191162	146.640000
534.284851	146.760000
534.378479	146.260000
534.472107	146.880000
534.565735	146.600000
534.659424	146.340000
534.753052	146.500000
534.846741	146.280000
534.940369	146.880000
535.033997	146.780000
535.127625	146.600000
535.221313	146.620000
535.314941	146.860000
535.408630	145.900000
535.502197	146.360000
535.595886	146.380000
535.689514	145.760000
535.783203	146.080000
535.876831	146.460000
535.970459	146.280000
536.064087	146.060000
536.157776	146.320000
536.251404	145.920000
536.345093	145.560000
536.438721	145.480000
536.532349	145.740000
536.626038	145.580000
536.719666	146.160000
536.813293	146.020000
536.906921	146.100000
537.000610	146.300000
537.094238	146.420000
537.187866	146.120000
537.281494	146.220000
537.375183	146.120000
537.468811	145.840000
537.562439	146.020000
537.656067	145.840000
537.749756	146.120000
537.843384	146.700000
537.937012	146.680000
538.030640	146.360000
538.124329	146.420000
538.217896	146.700000
538.311584	146.440000
538.405212	146.260000
538.498901	146.660000
538.592468	147.160000
538.686157	146.480000
538.779785	145.680000
538.873413	145.540000
538.967102	145.120000
539.060730	144.520000
539.154358	145.220000
539.247986	145.700000
539.341675	146.180000
539.435242	146.260000
539.528931	146.520000
539.622559	145.800000
539.716187	146.160000
539.809814	145.640000
539.903503	145.560000
539.997070	145.680000
540.090759	145.820000
540.184387	145.660000
540.278015	146.020000
540.371643	146.160000
540.465332	145.860000
540.558899	145.900000
540.652588	145.560000
540.746216	145.400000
540.839844	145.840000
540.933472	146.020000
541.027100	145.980000
541.120728	146.520000
541.214417	146.920000
541.308044	146.640000
541.401672	146.400000
541.495300	146.280000
541.588928	145.680000
541.682617	145.220000
541.776184	145.060000
541.869873	145.140000
541.963440	145.760000
542.057129	146.140000
542.150757	146.100000
542.244385	145.680000
542.338013	145.420000
542.431641	145.120000
542.525269	145.080000
542.618958	145.720000
542.712524	146.340000
542.806213	146.420000
542.899780	146.560000
542.993469	146.020000
543.087036	145.600000
543.180725	145.160000
543.274292	145.520000
543.367981	145.540000
543.461548	146.120000
543.555237	145.980000
543.648926	146.660000
543.742493	147.240000
543.836182	147.080000
543.929749	146.920000
544.023437	147.140000
544.117004	146.880000
544.210693	146.320000
544.304260	146.180000
544.397949	146.000000
544.491516	146.300000
544.585205	146.180000
544.678772	145.700000
544.772461	146.480000
544.866028	146.420000
544.959717	146.260000
545.053284	146.080000
545.146973	146.640000
545.240540	146.220000
545.334229	146.940000
545.427795	146.920000
545.521423	146.980000
545.615051	147.020000
545.708679	147.220000
545.802307	146.760000
545.895935	146.860000
545.989624	147.480000
546.083191	147.200000
546.176880	147.020000
546.270447	146.880000
546.364136	147.260000
546.457703	147.000000
546.551331	146.880000
546.644958	146.780000
546.738586	147.240000
546.832214	146.700000
546.925842	146.340000
547.019409	146.900000
547.113098	146.640000
547.206665	145.880000
547.300354	145.860000
547.393921	146.300000
547.487549	146.320000
547.581177	146.180000
547.674805	146.480000
547.768433	145.620000
547.862061	145.360000
547.955627	144.520000
548.049316	145.060000
548.142883	145.240000
548.236572	146.180000
548.330139	146.280000
548.423767	146.240000
548.517456	146.040000
548.611023	146.020000
548.704651	145.140000
548.798279	145.200000
548.891907	145.880000
548.985474	146.040000
549.079163	146.020000
549.172729	146.120000
549.266357	145.700000
549.359985	145.560000
549.453613	144.880000
549.547180	144.840000
549.640869	145.660000
549.734436	145.520000
549.828064	145.880000
549.921631	145.960000
550.015320	145.800000
550.108887	145.920000
550.202515	146.280000
550.296143	145.600000
550.389771	146.040000
550.483337	145.920000
550.576965	145.520000
550.670593	145.640000
550.764221	146.000000
550.857849	145.720000
550.951477	145.500000
551.045105	145.360000
551.138672	145.280000
551.232300	144.940000
551.325928	145.220000
551.419556	145.600000
551.513123	145.540000
551.606750	145.380000
551.700378	145.640000
551.794006	145.880000
551.887573	145.940000
551.981201	146.600000
552.074768	146.420000
552.168457	146.160000
552.262024	146.720000
552.355652	146.680000
552.449219	146.800000
552.542847	147.160000
552.636475	147.160000
552.730103	145.980000
552.823669	145.980000
552.917297	145.180000
553.010864	145.080000
553.104553	145.160000
553.198181	145.240000
553.291748	145.780000
553.385376	146.140000
553.478943	146.060000
553.572571	146.240000
553.666199	146.640000
553.759827	145.920000
553.853394	145.580000
553.947021	145.620000
554.040588	145.940000
554.134216	146.200000
554.227783	147.020000
554.321411	147.740000
554.415039	147.420000
554.508667	147.040000
554.602234	146.840000
554.695862	145.940000
554.789429	145.400000
554.883057	145.480000
554.976624	145.400000
555.070251	145.540000
555.163818	145.540000
555.257507	145.920000
555.351074	146.320000
555.444702	147.680000
555.538330	147.180000
555.631897	147.760000
555.725525	147.440000
555.819092	147.080000
555.912720	145.620000
556.006287	146.280000
556.099915	145.860000
556.193481	145.840000
556.287109	146.040000
556.380676	146.200000
556.474304	146.180000
556.567871	146.540000
556.661499	146.080000
556.755066	146.220000
556.848694	146.260000
556.942261	145.580000
557.035889	145.760000
557.129517	146.280000
557.223145	146.440000
557.316711	146.480000
557.410339	146.880000
557.503906	146.600000
557.597473	146.720000
557.691040	146.180000
557.784668	146.220000
557.878296	146.200000
557.971863	146.340000
558.065491	146.520000
558.159058	146.360000
558.252686	147.080000
558.346252	147.700000
558.439880	146.760000
558.533447	146.340000
558.627075	146.360000
558.720642	145.240000
558.814270	144.540000
558.907837	145.100000
559.001465	144.780000
559.095032	145.620000
559.188660	146.300000
559.282227	145.780000
559.375854	146.460000
559.469360	146.340000
559.562988	146.380000
559.656555	146.060000
559.750183	146.660000
559.843750	146.340000
559.937378	146.800000
560.030945	146.640000
560.124573	0.000000
560.218140	0.000000
560.311707	0.000000
560.405334	0.000000
560.498901	0.000000
560.592529	0.000000
560.686096	0.000000
560.779724	0.000000
560.873291	0.000000
560.966858	0.000000
561.060425	0.000000
561.154053	0.000000
561.247620	0.000000
561.341248	0.000000
561.434814	0.000000
561.528381	0.000000
561.621948	0.000000
561.715576	0.000000
561.809143	0.000000
561.902771	0.000000
561.996277	0.000000
562.089905	0.000000
562.183472	0.000000
562.277100	0.000000
