Model Number: SPM-002-B   
Serial Number: 70087108
Firmware Version: 004.15.4
Exposure Time: 100000.000000us
Data Taken on: 11-12-2020 19:38:11.667
Wavelength	Amplitude
221.570786	0.000000
221.663406	0.000000
221.756027	0.000000
221.848648	0.000000
221.941269	0.000000
222.033905	0.000000
222.126526	0.000000
222.219162	0.000000
222.311798	0.000000
222.404419	0.000000
222.497055	0.000000
222.589676	0.000000
222.682312	0.000000
222.774933	0.000000
222.867569	0.000000
222.960205	0.000000
223.052841	0.000000
223.145462	0.000000
223.238098	0.000000
223.330734	0.000000
223.423386	0.000000
223.516022	0.000000
223.608658	0.000000
223.701309	0.000000
223.793945	0.000000
223.886581	0.000000
223.979218	0.000000
224.071869	0.000000
224.164505	0.000000
224.257156	0.000000
224.349792	0.000000
224.442444	0.000000
224.535095	0.000000
224.627747	0.000000
224.720398	0.000000
224.813034	0.000000
224.905685	0.000000
224.998337	144.700000
225.090988	144.060000
225.183640	144.260000
225.276291	144.100000
225.368942	144.780000
225.461594	145.940000
225.554245	146.580000
225.646912	146.600000
225.739578	147.220000
225.832230	147.560000
225.924896	146.860000
226.017548	146.760000
226.110199	146.980000
226.202866	146.180000
226.295532	145.560000
226.388184	145.240000
226.480850	145.000000
226.573517	144.720000
226.666168	145.220000
226.758835	145.620000
226.851501	146.240000
226.944183	146.200000
227.036850	145.880000
227.129517	145.820000
227.222183	146.020000
227.314850	146.060000
227.407516	146.620000
227.500198	147.520000
227.592865	146.920000
227.685532	146.100000
227.778214	145.560000
227.870880	145.700000
227.963562	145.780000
228.056229	146.560000
228.148926	146.780000
228.241592	147.640000
228.334274	146.980000
228.426956	146.700000
228.519638	146.440000
228.612305	146.340000
228.704987	146.300000
228.797668	146.440000
228.890350	146.040000
228.983032	145.600000
229.075714	146.260000
229.168396	145.800000
229.261108	145.440000
229.353790	145.420000
229.446472	145.680000
229.539169	145.240000
229.631851	144.760000
229.724533	145.120000
229.817230	145.500000
229.909912	146.580000
230.002609	146.540000
230.095306	146.780000
230.187988	146.640000
230.280685	146.540000
230.373383	145.080000
230.466095	144.960000
230.558792	145.220000
230.651474	145.400000
230.744171	144.860000
230.836868	145.000000
230.929581	145.160000
231.022278	145.080000
231.114975	144.860000
231.207672	145.040000
231.300369	145.720000
231.393082	145.800000
231.485779	145.560000
231.578506	145.480000
231.671204	145.920000
231.763916	145.700000
231.856613	145.660000
231.949326	146.020000
232.042023	146.000000
232.134735	145.840000
232.227448	145.340000
232.320160	145.700000
232.412872	145.720000
232.505585	146.580000
232.598297	146.800000
232.691010	147.000000
232.783722	146.360000
232.876450	146.820000
232.969162	146.040000
233.061874	145.400000
233.154587	145.300000
233.247314	145.480000
233.340027	144.880000
233.432739	145.400000
233.525467	145.300000
233.618179	145.660000
233.710907	145.300000
233.803635	145.720000
233.896347	145.340000
233.989090	146.120000
234.081818	145.740000
234.174545	146.180000
234.267258	145.520000
234.359985	145.720000
234.452713	145.300000
234.545441	145.220000
234.638168	144.900000
234.730896	145.500000
234.823639	145.320000
234.916367	145.680000
235.009094	145.980000
235.101822	146.120000
235.194580	145.800000
235.287308	145.740000
235.380051	145.260000
235.472778	145.220000
235.565521	145.620000
235.658249	145.340000
235.750992	145.540000
235.843719	145.640000
235.936462	146.000000
236.029205	145.420000
236.121948	145.500000
236.214691	145.720000
236.307449	146.120000
236.400192	145.600000
236.492935	145.520000
236.585678	145.700000
236.678421	145.580000
236.771164	145.340000
236.863907	146.140000
236.956665	146.700000
237.049408	148.140000
237.142151	147.640000
237.234909	148.200000
237.327652	147.580000
237.420410	147.260000
237.513153	146.180000
237.605927	146.320000
237.698669	145.740000
237.791428	145.360000
237.884186	145.700000
237.976944	145.160000
238.069702	145.300000
238.162445	145.000000
238.255203	145.340000
238.347961	145.520000
238.440720	145.780000
238.533478	145.500000
238.626266	145.280000
238.719025	145.580000
238.811783	145.340000
238.904541	144.980000
238.997314	145.280000
239.090073	145.220000
239.182831	145.300000
239.275604	145.920000
239.368362	146.040000
239.461136	146.080000
239.553909	146.280000
239.646667	145.900000
239.739441	145.420000
239.832214	145.760000
239.925003	145.800000
240.017761	146.820000
240.110535	147.460000
240.203308	147.060000
240.296082	147.060000
240.388855	146.820000
240.481628	146.540000
240.574417	146.400000
240.667191	146.560000
240.759964	146.120000
240.852737	146.300000
240.945526	145.800000
241.038315	145.360000
241.131088	145.580000
241.223877	146.140000
241.316650	145.600000
241.409439	145.840000
241.502228	145.480000
241.595001	145.720000
241.687790	145.420000
241.780579	145.800000
241.873367	145.860000
241.966141	146.520000
242.058929	145.880000
242.151718	146.040000
242.244507	146.400000
242.337311	145.380000
242.430099	145.500000
242.522903	146.120000
242.615692	145.940000
242.708481	145.960000
242.801270	147.020000
242.894073	146.720000
242.986862	146.340000
243.079651	146.700000
243.172455	146.220000
243.265244	146.380000
243.358063	146.000000
243.450867	146.300000
243.543655	146.080000
243.636459	146.480000
243.729263	146.580000
243.822067	146.920000
243.914856	147.340000
244.007660	147.260000
244.100464	147.000000
244.193268	146.420000
244.286072	146.600000
244.378876	145.680000
244.471680	145.620000
244.564499	145.980000
244.657318	146.480000
244.750122	146.520000
244.842926	146.220000
244.935745	146.160000
245.028549	145.540000
245.121368	145.040000
245.214172	144.720000
245.306992	145.380000
245.399796	145.220000
245.492615	145.620000
245.585434	145.620000
245.678253	146.000000
245.771072	145.940000
245.863892	146.760000
245.956711	147.120000
246.049530	147.200000
246.142349	146.760000
246.235168	146.780000
246.327988	146.620000
246.420807	145.880000
246.513626	145.920000
246.606445	146.060000
246.699280	145.940000
246.792099	145.840000
246.884918	145.860000
246.977753	145.740000
247.070587	145.780000
247.163422	145.820000
247.256241	145.900000
247.349075	146.360000
247.441895	146.300000
247.534729	145.940000
247.627563	145.580000
247.720383	145.900000
247.813217	145.540000
247.906052	145.620000
247.998886	145.980000
248.091736	146.060000
248.184570	145.500000
248.277405	145.500000
248.370239	146.160000
248.463074	146.840000
248.555908	147.200000
248.648743	147.040000
248.741592	147.280000
248.834427	146.680000
248.927261	145.520000
249.020111	145.920000
249.112946	146.560000
249.205795	146.340000
249.298630	146.320000
249.391495	146.480000
249.484344	145.820000
249.577179	145.700000
249.670029	145.700000
249.762878	146.240000
249.855728	146.520000
249.948563	146.840000
250.041412	146.120000
250.134262	146.520000
250.227112	146.240000
250.319962	146.180000
250.412827	145.960000
250.505692	145.720000
250.598541	145.680000
250.691391	145.320000
250.784241	145.260000
250.877106	145.220000
250.969955	145.340000
251.062805	145.700000
251.155670	146.360000
251.248520	146.340000
251.341385	146.700000
251.434235	146.700000
251.527100	146.320000
251.619965	145.640000
251.712814	146.200000
251.805695	146.240000
251.898560	146.700000
251.991425	146.900000
252.084290	147.280000
252.177155	146.640000
252.270020	146.240000
252.362885	145.900000
252.455750	145.940000
252.548615	145.400000
252.641479	145.580000
252.734360	145.440000
252.827240	145.140000
252.920105	144.980000
253.012970	145.240000
253.105850	145.220000
253.198715	145.160000
253.291595	145.600000
253.384460	145.240000
253.477341	145.360000
253.570221	145.360000
253.663086	145.240000
253.755966	145.720000
253.848846	145.760000
253.941727	145.940000
254.034592	145.960000
254.127472	145.760000
254.220367	145.620000
254.313248	146.320000
254.406128	145.660000
254.499008	146.040000
254.591904	147.080000
254.684784	147.580000
254.777664	146.980000
254.870544	146.780000
254.963440	146.300000
255.056335	145.900000
255.149216	145.260000
255.242111	145.640000
255.334991	146.320000
255.427887	146.440000
255.520767	146.600000
255.613663	146.780000
255.706558	146.160000
255.799438	145.900000
255.892334	145.800000
255.985229	145.540000
256.078125	145.320000
256.171021	145.480000
256.263916	146.140000
256.356812	146.200000
256.449707	146.040000
256.542603	146.040000
256.635498	146.420000
256.728394	145.880000
256.821289	145.860000
256.914215	146.360000
257.007080	146.620000
257.100006	146.580000
257.192932	146.780000
257.285828	147.000000
257.378723	146.680000
257.471619	146.220000
257.564545	145.680000
257.657440	145.840000
257.750336	146.100000
257.843262	145.960000
257.936157	147.040000
258.029053	147.480000
258.121979	147.540000
258.214874	147.220000
258.307800	147.100000
258.400696	145.900000
258.493622	145.740000
258.586517	144.820000
258.679443	145.000000
258.772339	144.660000
258.865265	144.700000
258.958160	144.480000
259.051086	145.440000
259.144012	144.960000
259.236938	145.880000
259.329834	146.380000
259.422791	146.200000
259.515717	145.500000
259.608612	145.400000
259.701538	145.120000
259.794464	144.660000
259.887390	145.220000
259.980316	145.060000
260.073212	145.240000
260.166138	144.420000
260.259064	144.640000
260.351990	145.100000
260.444916	145.440000
260.537842	145.700000
260.630768	146.500000
260.723694	146.680000
260.816620	146.220000
260.909546	146.400000
261.002472	145.900000
261.095398	145.360000
261.188354	145.520000
261.281281	145.180000
261.374207	144.980000
261.467133	145.820000
261.560089	146.220000
261.653015	145.800000
261.745972	146.440000
261.838867	146.900000
261.931824	147.020000
262.024780	146.680000
262.117706	146.880000
262.210663	146.660000
262.303589	146.220000
262.396515	145.940000
262.489471	147.140000
262.582397	146.860000
262.675354	146.560000
262.768280	146.680000
262.861237	146.600000
262.954163	145.920000
263.047119	146.120000
263.140045	146.140000
263.233002	146.020000
263.325958	145.880000
263.418884	145.280000
263.511841	145.260000
263.604797	145.000000
263.697723	145.220000
263.790680	145.120000
263.883636	145.940000
263.976593	145.800000
264.069550	146.160000
264.162476	145.760000
264.255463	145.960000
264.348419	145.880000
264.441376	146.040000
264.534332	145.640000
264.627289	146.060000
264.720245	146.220000
264.813202	145.700000
264.906158	145.980000
264.999115	146.540000
265.092072	146.280000
265.185028	146.560000
265.277985	146.600000
265.370941	146.520000
265.463898	146.400000
265.556854	146.160000
265.649811	145.040000
265.742798	145.340000
265.835754	145.100000
265.928711	145.620000
266.021667	146.040000
266.114655	146.640000
266.207611	146.760000
266.300568	146.200000
266.393585	145.460000
266.486511	145.680000
266.579498	145.260000
266.672485	144.800000
266.765442	145.060000
266.858429	145.740000
266.951385	145.260000
267.044342	145.640000
267.137329	145.960000
267.230316	146.240000
267.323273	145.760000
267.416260	146.440000
267.509216	146.080000
267.602203	145.820000
267.695160	146.300000
267.788147	146.280000
267.881134	145.680000
267.974091	146.360000
268.067078	146.220000
268.160065	145.760000
268.253052	145.860000
268.346008	145.820000
268.438995	145.280000
268.531982	145.700000
268.624969	145.720000
268.717987	145.760000
268.810944	145.620000
268.903961	145.720000
268.996948	145.360000
269.089905	145.880000
269.182892	146.000000
269.275879	146.640000
269.368866	146.280000
269.461853	146.580000
269.554871	146.120000
269.647858	146.000000
269.740845	145.960000
269.833832	146.220000
269.926819	145.940000
270.019806	145.900000
270.112793	145.560000
270.205811	145.580000
270.298798	145.540000
270.391785	146.240000
270.484772	146.020000
270.577789	146.280000
270.670776	145.820000
270.763763	145.840000
270.856750	145.620000
270.949768	145.420000
271.042786	145.480000
271.135773	145.860000
271.228790	146.140000
271.321808	145.620000
271.414795	145.280000
271.507782	144.860000
271.600800	144.280000
271.693817	144.340000
271.786804	144.900000
271.879822	145.700000
271.972809	145.460000
272.065826	146.000000
272.158844	145.640000
272.251831	146.240000
272.344849	146.100000
272.437866	146.380000
272.530853	146.200000
272.623871	146.440000
272.716888	145.060000
272.809906	145.460000
272.902893	145.380000
272.995911	144.880000
273.088928	144.840000
273.181946	145.300000
273.274963	144.580000
273.367981	144.400000
273.460999	144.780000
273.554047	145.080000
273.647003	145.520000
273.740051	145.820000
273.833069	146.660000
273.926086	146.880000
274.019135	146.340000
274.112152	146.080000
274.205170	145.920000
274.298187	145.800000
274.391205	145.180000
274.484222	145.240000
274.577240	145.100000
274.670258	145.020000
274.763306	144.440000
274.856323	145.020000
274.949341	145.280000
275.042358	145.700000
275.135406	145.920000
275.228424	146.220000
275.321442	146.200000
275.414490	145.820000
275.507507	146.000000
275.600525	146.360000
275.693573	146.220000
275.786591	145.960000
275.879669	146.340000
275.972656	145.700000
276.065735	145.460000
276.158752	145.880000
276.251801	146.680000
276.344818	146.660000
276.437866	146.920000
276.530884	146.780000
276.623932	146.180000
276.716980	145.840000
276.809998	145.720000
276.903046	145.860000
276.996094	146.620000
277.089111	147.320000
277.182159	147.580000
277.275208	147.380000
277.368256	147.100000
277.461304	146.540000
277.554321	145.520000
277.647369	145.040000
277.740417	145.140000
277.833466	145.080000
277.926514	144.700000
278.019562	145.940000
278.112610	145.780000
278.205688	146.180000
278.298706	146.280000
278.391785	146.340000
278.484833	145.500000
278.577881	145.480000
278.670929	145.260000
278.763977	145.100000
278.857025	145.340000
278.950073	145.340000
279.043121	145.140000
279.136169	144.920000
279.229248	144.620000
279.322296	144.420000
279.415344	144.240000
279.508392	144.440000
279.601440	144.820000
279.694519	145.200000
279.787567	145.200000
279.880615	145.320000
279.973694	145.120000
280.066742	145.020000
280.159790	145.220000
280.252869	145.140000
280.345917	145.440000
280.438995	145.760000
280.532074	145.580000
280.625122	145.440000
280.718201	146.500000
280.811279	146.480000
280.904327	146.100000
280.997406	146.280000
281.090454	146.220000
281.183533	145.260000
281.276581	145.060000
281.369659	144.960000
281.462738	144.940000
281.555786	145.080000
281.648865	145.440000
281.741943	145.280000
281.835022	145.800000
281.928070	145.460000
282.021149	145.000000
282.114227	144.520000
282.207306	144.680000
282.300385	144.780000
282.393433	145.360000
282.486511	145.580000
282.579590	146.260000
282.672668	146.540000
282.765747	146.080000
282.858856	145.320000
282.951904	145.560000
283.045013	145.420000
283.138062	145.420000
283.231171	145.780000
283.324249	146.420000
283.417328	146.420000
283.510406	146.400000
283.603485	146.600000
283.696564	146.600000
283.789642	146.400000
283.882751	146.080000
283.975830	146.380000
284.068909	145.500000
284.161987	146.080000
284.255066	145.840000
284.348175	146.180000
284.441254	145.680000
284.534332	146.420000
284.627441	145.920000
284.720520	146.220000
284.813599	145.940000
284.906708	145.940000
284.999786	145.440000
285.092896	145.040000
285.185974	145.760000
285.279053	145.480000
285.372192	145.800000
285.465240	146.800000
285.558380	146.980000
285.651459	146.280000
285.744568	147.120000
285.837677	146.980000
285.930756	146.420000
286.023865	146.280000
286.116943	145.820000
286.210052	145.560000
286.303162	145.280000
286.396240	145.280000
286.489349	145.120000
286.582458	145.620000
286.675568	145.400000
286.768646	145.280000
286.861755	145.300000
286.954865	146.240000
287.047974	145.340000
287.141083	145.020000
287.234161	145.300000
287.327271	145.440000
287.420380	145.420000
287.513519	145.700000
287.606598	146.100000
287.699738	146.260000
287.792816	146.020000
287.885956	145.820000
287.979034	146.320000
288.072174	146.320000
288.165283	145.920000
288.258392	146.000000
288.351501	145.360000
288.444611	145.520000
288.537720	146.000000
288.630859	146.040000
288.723969	146.160000
288.817078	146.600000
288.910187	146.340000
289.003296	145.660000
289.096436	145.340000
289.189545	144.860000
289.282654	144.320000
289.375763	144.820000
289.468903	145.240000
289.562012	145.900000
289.655121	146.180000
289.748260	146.600000
289.841400	146.680000
289.934509	146.500000
290.027649	146.400000
290.120728	145.900000
290.213898	145.880000
290.306976	145.360000
290.400146	145.540000
290.493256	145.160000
290.586395	145.600000
290.679535	145.760000
290.772644	145.440000
290.865784	144.520000
290.958893	144.360000
291.052032	144.300000
291.145172	144.340000
291.238281	144.360000
291.331421	145.180000
291.424561	145.860000
291.517670	145.580000
291.610809	145.900000
291.703949	145.880000
291.797089	145.920000
291.890228	145.520000
291.983337	145.880000
292.076477	145.300000
292.169617	145.920000
292.262756	145.820000
292.355927	145.940000
292.449036	145.600000
292.542206	146.160000
292.635315	145.940000
292.728485	145.860000
292.821625	145.320000
292.914764	146.660000
293.007904	146.360000
293.101044	146.260000
293.194183	146.260000
293.287323	146.700000
293.380463	145.660000
293.473602	145.360000
293.566742	145.560000
293.659882	145.940000
293.753021	146.280000
293.846191	146.080000
293.939331	145.940000
294.032471	145.860000
294.125610	145.580000
294.218781	145.800000
294.311920	146.180000
294.405060	146.340000
294.498230	146.100000
294.591370	146.120000
294.684540	145.360000
294.777679	144.720000
294.870850	145.020000
294.963959	144.960000
295.057159	144.880000
295.150299	145.220000
295.243469	145.640000
295.336609	144.900000
295.429779	144.840000
295.522919	145.060000
295.616089	144.980000
295.709229	145.500000
295.802399	145.940000
295.895569	145.840000
295.988708	145.560000
296.081879	145.620000
296.175018	144.860000
296.268188	144.540000
296.361359	145.220000
296.454529	145.400000
296.547668	145.420000
296.640839	145.740000
296.734009	145.920000
296.827179	145.820000
296.920319	145.860000
297.013519	145.660000
297.106659	145.700000
297.199860	145.840000
297.292999	145.740000
297.386200	145.680000
297.479309	145.480000
297.572510	145.620000
297.665680	145.120000
297.758850	145.060000
297.852020	145.180000
297.945190	145.060000
298.038361	144.880000
298.131531	146.280000
298.224701	146.100000
298.317871	145.600000
298.411072	145.400000
298.504242	145.260000
298.597412	144.340000
298.690582	144.680000
298.783752	144.800000
298.876923	145.700000
298.970093	145.760000
299.063293	146.260000
299.156464	146.420000
299.249634	146.880000
299.342834	146.700000
299.436005	146.900000
299.529205	146.480000
299.622345	146.220000
299.715576	145.420000
299.808716	145.180000
299.901917	145.400000
299.995117	145.840000
300.088287	145.940000
300.181488	145.900000
300.274658	146.020000
300.367828	145.900000
300.461029	145.600000
300.554199	145.600000
300.647400	145.840000
300.740601	146.200000
300.833771	145.960000
300.926971	146.200000
301.020142	145.940000
301.113342	145.880000
301.206512	145.880000
301.299713	146.060000
301.392914	146.060000
301.486084	146.500000
301.579285	146.380000
301.672516	146.500000
301.765686	146.160000
301.858887	145.900000
301.952057	145.720000
302.045288	146.220000
302.138458	145.760000
302.231659	145.900000
302.324860	145.760000
302.418060	145.260000
302.511261	145.060000
302.604462	145.400000
302.697662	145.100000
302.790863	145.200000
302.884064	145.140000
302.977264	144.940000
303.070465	145.080000
303.163666	145.960000
303.256866	146.220000
303.350067	146.440000
303.443268	146.720000
303.536469	146.620000
303.629669	146.240000
303.722870	146.480000
303.816071	146.360000
303.909271	146.180000
304.002472	145.280000
304.095673	144.960000
304.188934	143.800000
304.282104	144.700000
304.375336	144.760000
304.468506	145.060000
304.561768	144.960000
304.654968	145.760000
304.748169	145.140000
304.841370	144.740000
304.934601	145.240000
305.027802	145.160000
305.121002	144.960000
305.214233	144.900000
305.307434	144.940000
305.400665	145.480000
305.493866	145.320000
305.587097	145.440000
305.680298	145.460000
305.773499	146.340000
305.866730	145.800000
305.959930	146.480000
306.053162	146.680000
306.146393	146.420000
306.239594	145.580000
306.332825	145.240000
306.426025	145.460000
306.519287	145.020000
306.612488	145.200000
306.705719	145.460000
306.798920	145.840000
306.892181	145.160000
306.985352	145.120000
307.078613	144.720000
307.171844	145.060000
307.265045	144.720000
307.358276	144.600000
307.451508	144.940000
307.544739	145.720000
307.637970	145.380000
307.731201	145.040000
307.824402	145.860000
307.917633	146.060000
308.010864	146.300000
308.104095	146.700000
308.197327	147.240000
308.290558	147.140000
308.383789	146.520000
308.477020	145.920000
308.570251	145.240000
308.663483	144.840000
308.756714	144.480000
308.849976	144.700000
308.943176	145.020000
309.036438	145.120000
309.129639	144.900000
309.222900	144.660000
309.316101	144.660000
309.409393	144.200000
309.502625	144.340000
309.595856	144.620000
309.689087	144.920000
309.782318	144.980000
309.875580	145.280000
309.968811	145.440000
310.062042	145.400000
310.155273	145.560000
310.248535	145.720000
310.341766	145.540000
310.434998	145.440000
310.528259	145.300000
310.621490	145.440000
310.714722	145.080000
310.807983	145.160000
310.901215	145.100000
310.994476	145.320000
311.087708	144.640000
311.181000	145.080000
311.274200	144.640000
311.367462	144.700000
311.460693	144.580000
311.553986	145.420000
311.647186	145.260000
311.740479	146.180000
311.833710	145.960000
311.926971	145.820000
312.020203	145.060000
312.113464	144.900000
312.206726	144.080000
312.299957	144.460000
312.393219	145.400000
312.486481	145.540000
312.579712	145.420000
312.672974	145.600000
312.766235	145.280000
312.859497	144.660000
312.952759	144.620000
313.045990	145.560000
313.139252	145.240000
313.232513	145.700000
313.325775	145.860000
313.419037	145.800000
313.512299	144.760000
313.605530	145.380000
313.698822	145.200000
313.792053	145.460000
313.885345	145.260000
313.978577	145.580000
314.071869	145.320000
314.165131	145.400000
314.258392	145.340000
314.351654	145.580000
314.444916	144.880000
314.538177	145.300000
314.631439	145.500000
314.724701	145.160000
314.817993	145.240000
314.911255	145.900000
315.004517	145.180000
315.097778	145.140000
315.191040	145.720000
315.284302	145.980000
315.377594	145.840000
315.470856	146.280000
315.564117	145.420000
315.657379	145.040000
315.750671	144.860000
315.843933	145.020000
315.937195	144.420000
316.030518	144.760000
316.123749	144.320000
316.217041	144.960000
316.310303	144.760000
316.403595	145.240000
316.496857	145.800000
316.590149	146.440000
316.683411	145.540000
316.776703	145.740000
316.869965	145.900000
316.963257	145.240000
317.056519	144.440000
317.149811	144.780000
317.243073	144.440000
317.336365	144.560000
317.429626	145.160000
317.522919	145.640000
317.616180	145.320000
317.709473	145.360000
317.802765	144.840000
317.896027	144.680000
317.989319	145.040000
318.082611	144.640000
318.175873	144.640000
318.269165	144.800000
318.362488	144.840000
318.455750	144.360000
318.549042	145.180000
318.642303	145.760000
318.735626	145.540000
318.828888	145.640000
318.922211	145.260000
319.015472	145.660000
319.108765	145.100000
319.202057	144.920000
319.295349	144.820000
319.388641	145.120000
319.481934	144.700000
319.575226	144.640000
319.668518	145.240000
319.761810	145.280000
319.855103	145.480000
319.948395	145.800000
320.041687	146.140000
320.134979	146.240000
320.228271	146.120000
320.321564	146.100000
320.414856	145.700000
320.508148	145.100000
320.601440	144.860000
320.694763	144.740000
320.788025	145.300000
320.881348	145.320000
320.974640	145.700000
321.067963	145.460000
321.161224	145.700000
321.254547	144.940000
321.347839	145.680000
321.441162	145.340000
321.534454	145.600000
321.627747	145.360000
321.721069	146.100000
321.814362	145.800000
321.907654	146.180000
322.000946	146.080000
322.094269	146.740000
322.187561	146.180000
322.280884	146.100000
322.374176	146.320000
322.467468	146.760000
322.560791	146.580000
322.654083	147.000000
322.747406	146.980000
322.840698	146.880000
322.934021	147.080000
323.027344	147.120000
323.120636	146.780000
323.213959	146.740000
323.307251	146.340000
323.400574	145.840000
323.493866	145.220000
323.587219	145.320000
323.680511	145.320000
323.773834	145.460000
323.867157	145.380000
323.960449	145.780000
324.053772	145.780000
324.147095	145.920000
324.240387	146.860000
324.333710	147.200000
324.427032	147.220000
324.520355	147.180000
324.613647	146.800000
324.706970	146.000000
324.800293	145.720000
324.893616	145.800000
324.986938	145.840000
325.080231	145.420000
325.173553	146.040000
325.266876	146.780000
325.360199	146.540000
325.453522	146.500000
325.546875	146.800000
325.640167	146.420000
325.733521	146.120000
325.826813	146.660000
325.920166	146.500000
326.013489	146.760000
326.106812	146.140000
326.200134	145.820000
326.293457	144.900000
326.386780	145.240000
326.480103	144.800000
326.573425	145.180000
326.666748	145.480000
326.760071	146.080000
326.853424	145.840000
326.946747	145.940000
327.040070	146.320000
327.133392	145.940000
327.226715	145.360000
327.320068	145.080000
327.413391	145.660000
327.506714	145.080000
327.600037	144.920000
327.693390	145.340000
327.786713	145.600000
327.880066	145.180000
327.973358	145.460000
328.066742	145.880000
328.160034	145.920000
328.253418	146.260000
328.346710	146.220000
328.440063	145.900000
328.533417	145.640000
328.626740	145.740000
328.720093	145.180000
328.813416	145.160000
328.906769	145.560000
329.000092	145.720000
329.093445	145.820000
329.186768	145.860000
329.280121	146.400000
329.373444	146.580000
329.466797	146.580000
329.560120	146.260000
329.653473	146.340000
329.746796	145.920000
329.840149	145.440000
329.933502	145.420000
330.026825	145.300000
330.120178	145.200000
330.213562	144.920000
330.306854	144.940000
330.400238	144.640000
330.493561	144.760000
330.586945	145.580000
330.680237	146.200000
330.773621	146.580000
330.866974	146.760000
330.960327	146.800000
331.053680	146.140000
331.147003	146.100000
331.240356	146.000000
331.333710	146.020000
331.427063	145.840000
331.520416	145.880000
331.613770	145.480000
331.707123	145.560000
331.800476	145.560000
331.893829	146.320000
331.987152	146.420000
332.080505	146.360000
332.173859	146.280000
332.267212	146.020000
332.360565	145.180000
332.453918	144.740000
332.547333	144.780000
332.640656	144.660000
332.734039	144.860000
332.827362	145.040000
332.920746	145.500000
333.014069	145.840000
333.107452	146.420000
333.200806	146.760000
333.294159	147.180000
333.387543	146.760000
333.480896	145.900000
333.574249	145.340000
333.667603	144.980000
333.760956	144.980000
333.854340	145.140000
333.947693	145.640000
334.041046	145.820000
334.134430	145.900000
334.227783	145.220000
334.321136	145.360000
334.414520	145.080000
334.507874	145.020000
334.601227	145.160000
334.694611	145.340000
334.787964	145.440000
334.881348	145.960000
334.974701	146.020000
335.068085	145.600000
335.161438	145.740000
335.254822	145.440000
335.348175	145.380000
335.441559	144.900000
335.534943	145.660000
335.628296	145.780000
335.721680	145.880000
335.815033	145.940000
335.908417	146.240000
336.001770	145.920000
336.095154	145.440000
336.188538	145.040000
336.281891	144.580000
336.375275	144.540000
336.468658	144.320000
336.562012	144.440000
336.655396	145.260000
336.748779	145.900000
336.842133	146.120000
336.935516	146.440000
337.028900	146.480000
337.122284	145.840000
337.215637	145.780000
337.309021	145.460000
337.402435	145.060000
337.495789	145.280000
337.589203	145.700000
337.682526	145.280000
337.775940	145.440000
337.869324	145.800000
337.962708	145.220000
338.056091	145.400000
338.149475	145.180000
338.242859	145.380000
338.336243	144.920000
338.429626	145.320000
338.523010	144.900000
338.616394	145.080000
338.709778	145.380000
338.803162	145.660000
338.896545	145.940000
338.989929	145.720000
339.083313	145.840000
339.176697	145.240000
339.270081	145.220000
339.363464	145.340000
339.456848	145.640000
339.550232	145.020000
339.643616	144.940000
339.737030	144.980000
339.830383	144.860000
339.923828	144.820000
340.017181	145.240000
340.110596	145.600000
340.203949	145.280000
340.297363	144.880000
340.390778	144.920000
340.484161	145.200000
340.577545	145.200000
340.670959	145.740000
340.764343	145.980000
340.857727	146.300000
340.951111	145.760000
341.044525	145.840000
341.137909	145.260000
341.231293	144.940000
341.324707	144.400000
341.418091	145.280000
341.511505	145.080000
341.604889	145.280000
341.698303	145.760000
341.791687	146.000000
341.885071	145.240000
341.978485	145.140000
342.071899	145.360000
342.165283	145.460000
342.258698	145.740000
342.352081	146.300000
342.445496	146.740000
342.538879	146.420000
342.632324	145.900000
342.725708	145.660000
342.819122	145.280000
342.912506	145.000000
343.005920	144.940000
343.099335	146.080000
343.192719	145.800000
343.286133	146.080000
343.379547	146.200000
343.472931	146.220000
343.566345	145.300000
343.659760	145.820000
343.753143	145.500000
343.846558	145.140000
343.939972	145.540000
344.033386	146.080000
344.126770	145.860000
344.220184	145.940000
344.313599	146.460000
344.407043	146.180000
344.500427	145.200000
344.593872	145.700000
344.687225	145.300000
344.780670	144.820000
344.874054	144.780000
344.967499	145.420000
345.060913	144.820000
345.154327	145.100000
345.247742	144.760000
345.341156	144.660000
345.434570	144.280000
345.527985	144.200000
345.621399	144.380000
345.714813	144.520000
345.808228	144.680000
345.901642	144.620000
345.995056	144.640000
346.088470	144.860000
346.181885	145.200000
346.275299	145.060000
346.368713	145.160000
346.462128	144.800000
346.555573	144.360000
346.648987	144.620000
346.742401	144.940000
346.835815	145.440000
346.929260	145.560000
347.022644	145.840000
347.116119	145.600000
347.209503	145.560000
347.302948	146.100000
347.396362	146.760000
347.489807	146.700000
347.583221	147.100000
347.676636	146.760000
347.770050	145.300000
347.863495	144.700000
347.956909	144.700000
348.050323	144.020000
348.143768	144.060000
348.237183	144.320000
348.330597	144.640000
348.424042	145.060000
348.517456	145.680000
348.610901	146.000000
348.704315	145.940000
348.797760	145.180000
348.891174	144.160000
348.984619	143.600000
349.078033	143.940000
349.171448	144.840000
349.264923	145.380000
349.358337	145.780000
349.451782	145.740000
349.545197	144.880000
349.638641	143.880000
349.732086	143.340000
349.825500	143.720000
349.918945	143.500000
350.012390	144.040000
350.105804	145.080000
350.199249	145.600000
350.292664	145.720000
350.386108	145.900000
350.479553	146.540000
350.572968	146.080000
350.666412	146.180000
350.759857	146.000000
350.853302	146.700000
350.946716	145.760000
351.040161	145.680000
351.133606	145.620000
351.227081	145.540000
351.320465	145.820000
351.413940	145.840000
351.507355	146.020000
351.600830	146.000000
351.694244	145.840000
351.787720	145.380000
351.881104	145.620000
351.974579	145.520000
352.067993	146.340000
352.161469	146.440000
352.254883	145.900000
352.348358	145.760000
352.441803	145.760000
352.535248	145.160000
352.628693	145.620000
352.722137	145.940000
352.815582	146.360000
352.909027	146.500000
353.002472	146.400000
353.095917	146.060000
353.189362	146.280000
353.282806	146.040000
353.376251	145.620000
353.469696	145.020000
353.563141	145.400000
353.656586	144.980000
353.750061	144.820000
353.843475	144.980000
353.936981	145.960000
354.030396	145.500000
354.123871	145.600000
354.217285	146.100000
354.310760	146.340000
354.404175	145.980000
354.497681	145.780000
354.591095	145.900000
354.684570	145.000000
354.777985	144.500000
354.871490	144.260000
354.964935	144.480000
355.058380	144.460000
355.151855	144.520000
355.245300	145.180000
355.338745	145.800000
355.432220	146.020000
355.525665	145.320000
355.619110	146.000000
355.712585	145.820000
355.806030	145.240000
355.899475	144.680000
355.992950	145.360000
356.086426	145.320000
356.179871	145.000000
356.273346	145.220000
356.366791	145.640000
356.460266	145.880000
356.553711	145.560000
356.647186	145.980000
356.740631	145.900000
356.834106	145.400000
356.927551	145.280000
357.021027	145.080000
357.114471	145.020000
357.207947	145.160000
357.301422	145.580000
357.394867	145.660000
357.488342	146.060000
357.581818	145.920000
357.675262	146.040000
357.768738	145.760000
357.862213	145.120000
357.955658	145.000000
358.049133	144.820000
358.142609	144.780000
358.236053	144.700000
358.329529	145.060000
358.423035	145.300000
358.516449	145.280000
358.609955	145.720000
358.703400	146.740000
358.796906	146.900000
358.890350	146.380000
358.983826	146.620000
359.077271	145.820000
359.170776	145.060000
359.264221	144.740000
359.357727	145.480000
359.451172	145.720000
359.544647	146.040000
359.638123	146.120000
359.731598	146.600000
359.825073	146.620000
359.918549	146.080000
360.012024	146.080000
360.105499	145.400000
360.198975	145.040000
360.292450	144.880000
360.385925	144.760000
360.479401	144.520000
360.572876	145.240000
360.666351	145.500000
360.759857	145.140000
360.853302	145.560000
360.946808	145.220000
361.040253	145.200000
361.133759	144.800000
361.227203	145.040000
361.320709	144.660000
361.414154	145.040000
361.507660	145.060000
361.601105	145.560000
361.694641	146.080000
361.788086	146.040000
361.881592	146.360000
361.975067	146.060000
362.068542	146.400000
362.162018	146.100000
362.255524	146.260000
362.348999	146.060000
362.442474	146.700000
362.535950	146.060000
362.629456	145.740000
362.722931	145.620000
362.816406	146.080000
362.909882	145.940000
363.003387	145.700000
363.096863	146.180000
363.190338	146.060000
363.283875	145.580000
363.377319	145.500000
363.470825	146.060000
363.564301	145.220000
363.657806	145.680000
363.751282	145.520000
363.844788	146.220000
363.938232	145.700000
364.031769	146.700000
364.125214	147.040000
364.218750	147.600000
364.312225	146.260000
364.405731	146.600000
364.499207	145.580000
364.592712	144.940000
364.686188	144.760000
364.779694	145.380000
364.873169	145.120000
364.966675	145.160000
365.060150	145.360000
365.153656	145.620000
365.247131	145.420000
365.340637	146.160000
365.434143	146.960000
365.527618	146.740000
365.621155	145.600000
365.714600	145.640000
365.808136	145.120000
365.901611	144.100000
365.995117	144.000000
366.088593	144.440000
366.182129	144.580000
366.275604	144.660000
366.369110	145.040000
366.462585	145.040000
366.556122	145.700000
366.649567	145.860000
366.743103	145.860000
366.836609	145.700000
366.930115	146.060000
367.023590	146.220000
367.117096	145.700000
367.210602	145.680000
367.304108	146.360000
367.397614	146.820000
367.491119	146.640000
367.584595	146.960000
367.678101	147.060000
367.771606	146.680000
367.865112	145.900000
367.958649	145.280000
368.052124	145.260000
368.145660	145.020000
368.239136	145.320000
368.332672	145.360000
368.426147	145.600000
368.519684	145.380000
368.613159	145.980000
368.706696	145.360000
368.800171	145.420000
368.893707	145.220000
368.987183	145.560000
369.080719	145.120000
369.174225	145.540000
369.267731	145.920000
369.361237	145.920000
369.454742	145.700000
369.548248	146.280000
369.641754	145.880000
369.735260	145.560000
369.828766	145.120000
369.922272	145.560000
370.015808	145.120000
370.109314	145.120000
370.202820	144.720000
370.296356	145.960000
370.389832	145.400000
370.483368	144.880000
370.576874	144.980000
370.670410	145.520000
370.763885	144.360000
370.857422	144.440000
370.950928	144.760000
371.044464	145.340000
371.137939	145.320000
371.231476	145.840000
371.324982	146.540000
371.418518	146.580000
371.512024	146.380000
371.605560	146.060000
371.699066	146.420000
371.792572	145.600000
371.886108	145.620000
371.979614	145.120000
372.073120	145.860000
372.166656	145.240000
372.260162	145.740000
372.353668	145.520000
372.447205	145.680000
372.540710	145.200000
372.634277	145.260000
372.727753	145.280000
372.821320	145.680000
372.914795	145.760000
373.008362	145.520000
373.101837	145.840000
373.195404	145.340000
373.288879	144.860000
373.382446	145.260000
373.475922	145.580000
373.569489	145.940000
373.662964	146.340000
373.756531	146.440000
373.850037	146.360000
373.943573	146.240000
374.037109	145.280000
374.130615	145.380000
374.224152	145.520000
374.317657	145.240000
374.411194	146.020000
374.504730	146.240000
374.598236	145.780000
374.691772	145.500000
374.785309	145.520000
374.878815	144.640000
374.972351	145.000000
375.065887	144.980000
375.159454	146.080000
375.252930	145.960000
375.346497	146.060000
375.440002	146.340000
375.533569	146.400000
375.627045	145.380000
375.720612	145.600000
375.814117	145.680000
375.907684	145.500000
376.001160	145.520000
376.094727	145.120000
376.188232	145.720000
376.281799	146.000000
376.375336	145.540000
376.468872	146.100000
376.562408	146.500000
376.655914	145.680000
376.749451	145.560000
376.842987	146.000000
376.936523	145.340000
377.030060	145.420000
377.123596	145.740000
377.217133	145.220000
377.310669	145.120000
377.404205	145.600000
377.497772	145.980000
377.591278	145.800000
377.684845	146.700000
377.778351	146.600000
377.871918	146.640000
377.965424	145.820000
378.058990	145.540000
378.152496	145.000000
378.246063	145.380000
378.339569	145.100000
378.433136	145.460000
378.526642	145.760000
378.620209	145.960000
378.713745	145.420000
378.807312	145.780000
378.900848	145.780000
378.994385	146.040000
379.087921	145.320000
379.181458	145.620000
379.274994	144.660000
379.368530	144.520000
379.462097	144.500000
379.555634	145.240000
379.649170	144.840000
379.742706	145.500000
379.836273	145.640000
379.929810	145.240000
380.023376	144.800000
380.116882	144.840000
380.210449	144.540000
380.303986	144.240000
380.397552	143.960000
380.491058	144.240000
380.584656	144.340000
380.678162	144.420000
380.771729	144.980000
380.865265	145.680000
380.958832	145.820000
381.052368	146.060000
381.145935	146.480000
381.239471	146.420000
381.333008	146.360000
381.426575	146.100000
381.520111	146.220000
381.613647	146.260000
381.707214	145.940000
381.800751	145.120000
381.894318	145.320000
381.987854	144.760000
382.081421	144.260000
382.174988	144.580000
382.268524	144.680000
382.362091	144.700000
382.455627	145.800000
382.549194	145.720000
382.642731	145.320000
382.736298	145.540000
382.829834	145.100000
382.923401	145.180000
383.016937	145.540000
383.110504	145.920000
383.204041	146.040000
383.297607	146.600000
383.391174	145.520000
383.484741	145.940000
383.578278	145.360000
383.671844	145.080000
383.765411	144.240000
383.858948	144.880000
383.952515	144.640000
384.046051	145.300000
384.139618	146.080000
384.233185	146.740000
384.326721	146.500000
384.420288	147.060000
384.513855	146.880000
384.607422	146.660000
384.700989	146.680000
384.794525	146.500000
384.888123	146.020000
384.981659	146.100000
385.075226	145.660000
385.168762	145.360000
385.262360	145.180000
385.355896	144.400000
385.449463	144.380000
385.542999	144.700000
385.636597	145.300000
385.730164	145.580000
385.823730	145.620000
385.917267	145.320000
386.010834	145.360000
386.104401	145.240000
386.197968	145.300000
386.291534	145.880000
386.385101	146.160000
386.478668	146.400000
386.572235	146.180000
386.665802	145.840000
386.759338	145.500000
386.852905	145.200000
386.946472	144.680000
387.040070	144.700000
387.133606	145.020000
387.227203	144.880000
387.320740	145.240000
387.414337	144.880000
387.507874	144.860000
387.601471	144.700000
387.695007	144.560000
387.788605	144.260000
387.882141	144.500000
387.975739	144.640000
388.069275	144.300000
388.162872	144.800000
388.256439	144.700000
388.350037	145.040000
388.443604	144.680000
388.537170	145.020000
388.630737	145.540000
388.724304	145.780000
388.817871	145.440000
388.911438	145.760000
389.005005	145.820000
389.098602	145.660000
389.192169	145.280000
389.285736	145.920000
389.379333	145.720000
389.472870	145.400000
389.566467	145.020000
389.660034	145.400000
389.753632	144.940000
389.847168	145.400000
389.940765	145.980000
390.034332	146.400000
390.127930	145.700000
390.221466	145.820000
390.315063	145.020000
390.408630	143.900000
390.502228	143.120000
390.595795	143.740000
390.689362	143.680000
390.782959	144.560000
390.876526	145.620000
390.970093	145.680000
391.063690	146.200000
391.157257	146.320000
391.250824	146.160000
391.344421	145.780000
391.437988	146.180000
391.531555	146.320000
391.625153	146.240000
391.718750	146.300000
391.812317	146.240000
391.905914	145.980000
391.999481	145.600000
392.093079	145.720000
392.186615	145.960000
392.280243	146.160000
392.373779	146.300000
392.467407	146.780000
392.560944	146.760000
392.654572	146.040000
392.748108	145.820000
392.841736	146.040000
392.935303	145.440000
393.028900	145.000000
393.122467	145.380000
393.216064	145.320000
393.309631	144.740000
393.403229	144.520000
393.496796	144.900000
393.590393	144.380000
393.683990	144.940000
393.777557	145.480000
393.871155	145.900000
393.964722	146.080000
394.058350	146.300000
394.151917	145.940000
394.245514	145.720000
394.339081	145.760000
394.432678	146.120000
394.526245	146.280000
394.619873	145.900000
394.713409	146.040000
394.807037	145.740000
394.900604	145.220000
394.994202	145.160000
395.087769	145.740000
395.181396	145.260000
395.274994	146.060000
395.368561	145.580000
395.462158	145.860000
395.555756	145.440000
395.649353	145.940000
395.742920	145.160000
395.836517	145.740000
395.930115	144.860000
396.023712	145.160000
396.117279	145.300000
396.210876	144.980000
396.304474	145.040000
396.398071	145.600000
396.491669	145.800000
396.585266	145.500000
396.678833	145.460000
396.772461	145.420000
396.866028	145.180000
396.959656	145.500000
397.053223	146.080000
397.146851	146.220000
397.240417	146.960000
397.334015	148.680000
397.427582	149.260000
397.521210	150.580000
397.614807	153.240000
397.708405	155.700000
397.802002	158.500000
397.895599	162.860000
397.989197	167.580000
398.082794	172.820000
398.176392	180.260000
398.269989	188.540000
398.363586	199.020000
398.457184	211.940000
398.550781	227.660000
398.644379	243.680000
398.737976	262.380000
398.831573	281.680000
398.925201	301.160000
399.018768	320.500000
399.112396	339.220000
399.205963	356.740000
399.299591	373.820000
399.393158	389.500000
399.486786	405.840000
399.580353	421.700000
399.673981	436.660000
399.767578	452.580000
399.861206	468.420000
399.954773	479.680000
400.048401	487.180000
400.141998	489.620000
400.235596	484.980000
400.329193	474.660000
400.422791	462.060000
400.516418	447.260000
400.610016	433.380000
400.703613	418.880000
400.797211	401.920000
400.890808	383.100000
400.984436	364.060000
401.078033	342.080000
401.171631	319.340000
401.265259	298.640000
401.358826	279.300000
401.452484	260.460000
401.546051	243.980000
401.639679	227.820000
401.733246	213.860000
401.826904	200.680000
401.920471	188.900000
402.014099	178.940000
402.107697	171.900000
402.201324	165.660000
402.294891	161.080000
402.388550	157.960000
402.482147	155.040000
402.575745	152.180000
402.669373	149.860000
402.762970	148.280000
402.856567	147.120000
402.950195	146.600000
403.043793	146.260000
403.137390	146.760000
403.231018	146.160000
403.324615	146.600000
403.418243	146.220000
403.511841	146.700000
403.605469	146.240000
403.699066	146.880000
403.792694	146.780000
403.886292	146.560000
403.979919	146.700000
404.073517	146.560000
404.167145	146.520000
404.260712	146.300000
404.354370	146.340000
404.447937	145.900000
404.541595	146.000000
404.635162	146.460000
404.728821	146.680000
404.822418	146.280000
404.916046	146.160000
405.009644	146.520000
405.103271	146.440000
405.196899	145.980000
405.290497	146.240000
405.384125	146.560000
405.477722	145.920000
405.571350	145.220000
405.664948	145.800000
405.758575	145.980000
405.852203	145.520000
405.945801	145.780000
406.039429	146.220000
406.133057	145.340000
406.226654	145.280000
406.320312	145.600000
406.413879	145.600000
406.507538	145.700000
406.601135	145.840000
406.694763	146.480000
406.788361	146.060000
406.882019	146.140000
406.975586	146.400000
407.069244	147.100000
407.162872	146.520000
407.256470	146.120000
407.350098	146.020000
407.443726	145.420000
407.537323	144.860000
407.630951	145.320000
407.724579	145.620000
407.818207	146.020000
407.911804	145.980000
408.005432	145.760000
408.099060	145.660000
408.192688	146.220000
408.286285	145.720000
408.379913	145.520000
408.473572	145.900000
408.567169	145.460000
408.660828	145.000000
408.754395	145.060000
408.848053	145.060000
408.941650	145.280000
409.035309	144.760000
409.128906	144.840000
409.222565	144.840000
409.316132	145.420000
409.409790	144.980000
409.503387	145.200000
409.597046	145.720000
409.690674	145.920000
409.784302	145.600000
409.877930	145.560000
409.971558	145.940000
410.065186	145.420000
410.158783	145.220000
410.252411	145.080000
410.346039	145.420000
410.439667	145.440000
410.533295	145.860000
410.626923	146.160000
410.720551	146.040000
410.814209	146.320000
410.907806	146.360000
411.001465	145.740000
411.095062	145.600000
411.188721	145.800000
411.282318	145.340000
411.375977	145.080000
411.469574	145.440000
411.563232	145.220000
411.656830	145.160000
411.750488	145.020000
411.844086	144.940000
411.937744	144.880000
412.031372	144.660000
412.125000	144.620000
412.218628	144.620000
412.312256	145.220000
412.405884	145.480000
412.499512	145.920000
412.593170	146.080000
412.686798	146.540000
412.780426	146.020000
412.874054	146.080000
412.967682	145.940000
413.061310	146.540000
413.154968	146.280000
413.248566	146.620000
413.342224	146.080000
413.435852	146.000000
413.529510	145.460000
413.623108	145.000000
413.716766	144.520000
413.810364	145.140000
413.904022	144.920000
413.997650	144.460000
414.091309	145.660000
414.184906	146.020000
414.278564	145.560000
414.372192	146.120000
414.465851	146.500000
414.559479	145.420000
414.653107	146.000000
414.746735	146.080000
414.840393	145.840000
414.934021	145.940000
415.027649	145.760000
415.121277	145.480000
415.214935	145.720000
415.308563	145.520000
415.402191	145.020000
415.495850	145.320000
415.589478	144.980000
415.683136	144.620000
415.776733	144.920000
415.870422	146.000000
415.964020	145.600000
416.057678	145.700000
416.151306	145.680000
416.244965	145.280000
416.338562	144.780000
416.432251	145.360000
416.525848	146.140000
416.619507	146.820000
416.713165	147.280000
416.806793	146.880000
416.900421	147.140000
416.994080	145.800000
417.087708	145.440000
417.181366	145.120000
417.274994	145.220000
417.368622	145.320000
417.462280	146.120000
417.555908	146.080000
417.649567	146.040000
417.743195	146.260000
417.836853	145.900000
417.930481	146.160000
418.024170	146.420000
418.117767	146.920000
418.211426	147.080000
418.305054	147.300000
418.398712	146.560000
418.492340	146.340000
418.585999	146.800000
418.679626	146.740000
418.773285	146.860000
418.866913	147.300000
418.960571	147.480000
419.054230	146.960000
419.147858	147.080000
419.241516	147.040000
419.335144	146.680000
419.428802	146.560000
419.522461	146.540000
419.616089	145.760000
419.709747	145.880000
419.803375	146.320000
419.897034	145.820000
419.990662	145.720000
420.084320	146.620000
420.177979	146.540000
420.271606	146.340000
420.365295	146.980000
420.458893	146.880000
420.552582	146.920000
420.646210	146.680000
420.739868	146.360000
420.833496	145.900000
420.927155	145.680000
421.020782	145.260000
421.114471	144.780000
421.208069	145.020000
421.301758	145.340000
421.395386	145.500000
421.489044	145.440000
421.582703	145.700000
421.676361	146.220000
421.769989	145.880000
421.863647	146.340000
421.957306	146.380000
422.050934	146.740000
422.144592	146.380000
422.238251	146.220000
422.331909	145.840000
422.425537	145.520000
422.519196	145.320000
422.612854	144.820000
422.706543	144.720000
422.800140	144.860000
422.893829	144.760000
422.987457	144.560000
423.081146	144.740000
423.174744	145.340000
423.268433	144.780000
423.362061	144.920000
423.455750	144.920000
423.549347	145.060000
423.643036	144.520000
423.736664	145.360000
423.830353	145.600000
423.924011	146.220000
424.017639	146.000000
424.111298	146.200000
424.204956	145.800000
424.298615	145.780000
424.392273	145.200000
424.485931	145.380000
424.579559	145.340000
424.673218	144.940000
424.766876	144.880000
424.860535	144.540000
424.954193	144.140000
425.047882	144.480000
425.141510	144.560000
425.235199	144.560000
425.328796	144.520000
425.422485	144.640000
425.516113	144.040000
425.609802	144.320000
425.703430	144.200000
425.797119	144.140000
425.890747	144.660000
425.984436	145.100000
426.078064	145.320000
426.171753	145.540000
426.265411	145.820000
426.359070	145.640000
426.452728	145.180000
426.546356	144.940000
426.640015	144.580000
426.733673	144.640000
426.827332	144.360000
426.920990	145.300000
427.014648	144.880000
427.108307	145.220000
427.201965	145.460000
427.295624	145.840000
427.389282	145.120000
427.482941	145.620000
427.576630	145.680000
427.670258	145.280000
427.763947	145.000000
427.857574	145.180000
427.951263	144.860000
428.044922	144.520000
428.138611	144.820000
428.232239	145.080000
428.325928	145.560000
428.419556	146.160000
428.513245	146.140000
428.606903	146.080000
428.700562	145.500000
428.794220	144.540000
428.887878	143.860000
428.981537	144.180000
429.075195	144.280000
429.168854	144.680000
429.262512	145.200000
429.356201	145.640000
429.449860	145.380000
429.543518	145.160000
429.637177	145.220000
429.730835	145.100000
429.824493	144.920000
429.918182	145.160000
430.011810	144.860000
430.105530	144.640000
430.199158	144.980000
430.292847	145.020000
430.386475	144.720000
430.480164	144.700000
430.573792	144.200000
430.667511	143.920000
430.761139	143.800000
430.854828	144.420000
430.948456	144.920000
431.042145	146.020000
431.135834	145.820000
431.229492	145.880000
431.323151	145.960000
431.416809	145.760000
431.510468	145.420000
431.604156	145.460000
431.697815	145.800000
431.791473	145.260000
431.885132	145.000000
431.978821	145.260000
432.072479	145.500000
432.166138	145.660000
432.259827	145.380000
432.353485	145.820000
432.447174	145.960000
432.540802	145.780000
432.634491	145.500000
432.728149	145.920000
432.821838	146.120000
432.915466	145.320000
433.009186	145.620000
433.102814	145.160000
433.196503	144.780000
433.290131	144.640000
433.383850	145.160000
433.477509	145.200000
433.571167	146.060000
433.664856	146.760000
433.758514	147.400000
433.852173	147.300000
433.945862	146.940000
434.039520	146.540000
434.133179	145.820000
434.226868	144.760000
434.320526	144.300000
434.414185	144.900000
434.507874	144.680000
434.601562	145.000000
434.695221	145.180000
434.788910	145.680000
434.882538	145.480000
434.976257	145.160000
435.069885	145.180000
435.163574	145.400000
435.257233	144.880000
435.350922	144.820000
435.444580	144.920000
435.538269	144.800000
435.631897	145.020000
435.725616	145.900000
435.819275	146.020000
435.912964	146.380000
436.006622	147.220000
436.100311	146.920000
436.193970	145.780000
436.287628	145.380000
436.381317	145.280000
436.474976	144.300000
436.568665	143.940000
436.662323	144.360000
436.756012	143.980000
436.849670	143.680000
436.943390	143.820000
437.037018	144.120000
437.130737	144.540000
437.224365	144.800000
437.318085	144.860000
437.411713	145.040000
437.505432	145.400000
437.599060	145.640000
437.692780	146.700000
437.786407	146.880000
437.880127	146.820000
437.973755	146.400000
438.067474	145.500000
438.161133	144.760000
438.254822	145.260000
438.348480	145.000000
438.442169	145.820000
438.535828	146.460000
438.629517	146.240000
438.723175	145.480000
438.816864	146.160000
438.910553	145.600000
439.004211	145.220000
439.097900	145.280000
439.191559	145.540000
439.285248	144.620000
439.378906	144.840000
439.472626	145.200000
439.566284	145.100000
439.659973	145.720000
439.753632	145.960000
439.847321	146.060000
439.940979	145.840000
440.034698	146.040000
440.128326	145.180000
440.222046	144.920000
440.315674	144.060000
440.409393	144.020000
440.503082	143.720000
440.596741	144.160000
440.690430	144.300000
440.784088	144.360000
440.877777	143.980000
440.971466	144.240000
441.065125	143.980000
441.158813	144.140000
441.252502	144.280000
441.346161	144.880000
441.439850	145.120000
441.533539	144.840000
441.627197	145.220000
441.720886	145.440000
441.814606	145.480000
441.908234	145.620000
442.001953	145.740000
442.095612	145.640000
442.189301	145.720000
442.282959	145.400000
442.376678	144.840000
442.470306	145.480000
442.564026	145.180000
442.657684	145.200000
442.751404	145.240000
442.845032	146.140000
442.938751	145.660000
443.032440	145.580000
443.126099	145.300000
443.219788	145.920000
443.313477	145.440000
443.407166	145.600000
443.500824	145.860000
443.594513	146.120000
443.688202	145.460000
443.781891	144.780000
443.875549	144.440000
443.969238	144.440000
444.062927	144.520000
444.156647	144.480000
444.250275	145.120000
444.343994	145.220000
444.437653	145.720000
444.531372	145.740000
444.625031	145.720000
444.718719	145.160000
444.812378	145.480000
444.906097	144.860000
444.999756	144.320000
445.093445	144.580000
445.187103	144.980000
445.280823	145.220000
445.374512	145.180000
445.468201	145.300000
445.561859	145.240000
445.655548	145.060000
445.749237	144.480000
445.842926	144.540000
445.936615	145.140000
446.030304	144.780000
446.123962	145.140000
446.217651	145.340000
446.311340	145.600000
446.405029	145.040000
446.498749	145.140000
446.592407	144.920000
446.686096	145.060000
446.779755	145.240000
446.873474	145.380000
446.967133	145.560000
447.060852	145.200000
447.154510	144.980000
447.248230	144.680000
447.341858	144.700000
447.435577	144.280000
447.529236	144.420000
447.622955	144.420000
447.716644	144.360000
447.810333	144.300000
447.904022	145.260000
447.997711	145.180000
448.091400	145.580000
448.185059	145.720000
448.278748	146.140000
448.372437	145.700000
448.466125	146.120000
448.559814	145.760000
448.653503	145.920000
448.747192	146.040000
448.840912	146.380000
448.934570	146.500000
449.028290	146.860000
449.121948	146.460000
449.215637	145.940000
449.309296	145.200000
449.403015	145.180000
449.496674	144.760000
449.590393	144.920000
449.684052	144.660000
449.777771	145.860000
449.871429	145.180000
449.965149	145.300000
450.058838	145.580000
450.152527	146.260000
450.246216	145.680000
450.339905	145.940000
450.433594	145.880000
450.527283	146.300000
450.620972	145.980000
450.714661	145.800000
450.808350	145.980000
450.902039	146.320000
450.995728	145.780000
451.089417	145.600000
451.183105	145.680000
451.276794	146.100000
451.370514	145.180000
451.464172	144.580000
451.557892	144.600000
451.651550	144.560000
451.745270	143.980000
451.838928	144.420000
451.932648	144.960000
452.026306	145.700000
452.120026	145.280000
452.213684	145.620000
452.307404	145.480000
452.401062	145.340000
452.494781	145.380000
452.588470	145.800000
452.682159	145.480000
452.775848	145.620000
452.869537	145.480000
452.963226	144.900000
453.056915	144.560000
453.150604	144.800000
453.244293	144.920000
453.337982	145.620000
453.431671	145.860000
453.525360	146.720000
453.619049	146.640000
453.712769	146.840000
453.806427	145.720000
453.900146	145.020000
453.993805	144.840000
454.087555	145.240000
454.181213	145.120000
454.274933	145.520000
454.368591	145.960000
454.462311	145.540000
454.555969	145.000000
454.649689	145.760000
454.743347	145.720000
454.837067	146.360000
454.930756	146.940000
455.024445	147.220000
455.118134	146.260000
455.211853	146.740000
455.305542	145.960000
455.399231	145.520000
455.492920	145.400000
455.586609	145.540000
455.680298	145.560000
455.773987	145.360000
455.867676	145.280000
455.961365	145.180000
456.055084	145.200000
456.148773	144.600000
456.242493	144.740000
456.336151	144.720000
456.429871	145.140000
456.523529	145.760000
456.617249	146.160000
456.710907	146.900000
456.804626	146.880000
456.898315	146.100000
456.992035	145.780000
457.085693	145.320000
457.179413	144.380000
457.273102	145.500000
457.366791	145.900000
457.460480	146.220000
457.554199	147.100000
457.647888	147.440000
457.741577	146.240000
457.835266	146.520000
457.928955	146.440000
458.022644	146.280000
458.116364	146.560000
458.210052	146.600000
458.303741	146.360000
458.397461	145.560000
458.491119	144.760000
458.584839	144.800000
458.678528	144.500000
458.772247	144.260000
458.865906	144.440000
458.959625	145.500000
459.053284	145.420000
459.147003	145.720000
459.240692	146.360000
459.334412	146.600000
459.428070	146.120000
459.521790	145.800000
459.615479	145.580000
459.709198	145.780000
459.802887	145.460000
459.896576	145.120000
459.990265	145.220000
460.083954	145.560000
460.177673	144.680000
460.271362	145.120000
460.365051	145.160000
460.458740	144.820000
460.552429	144.300000
460.646149	144.520000
460.739838	144.120000
460.833527	144.240000
460.927246	144.420000
461.020905	144.640000
461.114655	144.880000
461.208313	145.060000
461.302032	144.920000
461.395691	145.320000
461.489441	145.440000
461.583099	145.080000
461.676819	144.940000
461.770477	145.360000
461.864197	144.800000
461.957916	144.900000
462.051605	144.680000
462.145294	145.500000
462.238983	145.080000
462.332703	145.640000
462.426392	145.980000
462.520081	146.020000
462.613770	145.380000
462.707489	145.600000
462.801178	145.240000
462.894867	144.940000
462.988556	145.200000
463.082275	145.300000
463.175964	144.820000
463.269684	144.940000
463.363342	145.060000
463.457092	144.480000
463.550751	144.480000
463.644470	145.060000
463.738129	144.860000
463.831879	144.840000
463.925537	145.920000
464.019257	145.920000
464.112946	145.700000
464.206665	145.680000
464.300323	145.380000
464.394043	144.680000
464.487762	144.540000
464.581451	144.720000
464.675140	144.920000
464.768829	145.480000
464.862549	145.960000
464.956238	146.480000
465.049927	146.760000
465.143646	147.160000
465.237335	146.560000
465.331024	146.660000
465.424713	146.460000
465.518433	146.240000
465.612152	145.740000
465.705811	146.020000
465.799561	145.920000
465.893219	145.620000
465.986938	145.600000
466.080597	145.500000
466.174347	145.660000
466.268005	145.620000
466.361725	145.940000
466.455414	145.840000
466.549133	145.720000
466.642792	145.800000
466.736542	145.300000
466.830231	145.020000
466.923920	145.040000
467.017609	145.460000
467.111328	144.900000
467.205017	145.400000
467.298706	145.560000
467.392426	145.720000
467.486115	145.800000
467.579803	145.740000
467.673523	145.780000
467.767212	145.740000
467.860901	145.520000
467.954651	145.300000
468.048309	145.800000
468.142029	145.520000
468.235718	145.580000
468.329437	145.500000
468.423096	145.500000
468.516846	145.420000
468.610504	145.240000
468.704224	144.940000
468.797913	144.720000
468.891632	144.920000
468.985291	144.800000
469.079010	144.820000
469.172729	144.420000
469.266418	144.840000
469.360107	144.600000
469.453827	144.360000
469.547516	144.940000
469.641205	145.540000
469.734924	145.560000
469.828613	146.240000
469.922302	146.580000
470.016022	146.240000
470.109711	146.060000
470.203430	145.480000
470.297150	144.440000
470.390808	144.900000
470.484558	144.460000
470.578217	145.000000
470.671936	145.580000
470.765625	146.280000
470.859344	145.500000
470.953003	146.220000
471.046753	145.560000
471.140411	144.860000
471.234131	144.840000
471.327820	145.300000
471.421539	145.200000
471.515228	144.980000
471.608948	145.440000
471.702637	144.900000
471.796326	144.340000
471.890045	144.440000
471.983734	144.860000
472.077423	144.680000
472.171143	145.040000
472.264832	145.340000
472.358521	145.060000
472.452240	144.840000
472.545929	145.560000
472.639648	145.640000
472.733337	145.920000
472.827057	145.940000
472.920746	145.980000
473.014465	145.840000
473.108124	145.920000
473.201874	145.680000
473.295532	145.700000
473.389252	146.220000
473.482941	146.280000
473.576660	145.920000
473.670319	146.020000
473.764069	146.220000
473.857727	146.220000
473.951477	146.400000
474.045166	147.140000
474.138855	147.040000
474.232574	146.740000
474.326263	146.660000
474.419952	146.500000
474.513672	146.100000
474.607361	145.960000
474.701050	145.880000
474.794769	146.180000
474.888458	146.380000
474.982178	146.240000
475.075867	146.500000
475.169586	146.840000
475.263275	145.960000
475.356995	145.600000
475.450653	145.500000
475.544403	145.040000
475.638062	145.640000
475.731812	145.540000
475.825470	145.180000
475.919189	145.460000
476.012878	146.060000
476.106598	145.100000
476.200256	145.680000
476.294006	145.860000
476.387695	145.980000
476.481384	145.960000
476.575104	146.180000
476.668793	145.760000
476.762512	145.500000
476.856201	145.500000
476.949890	145.060000
477.043610	144.720000
477.137299	144.740000
477.230988	145.200000
477.324707	144.720000
477.418396	145.080000
477.512146	145.140000
477.605804	145.040000
477.699524	145.000000
477.793213	144.800000
477.886932	144.720000
477.980591	144.680000
478.074341	144.780000
478.167999	144.120000
478.261749	144.500000
478.355408	144.280000
478.449127	144.680000
478.542816	145.560000
478.636536	146.440000
478.730225	146.540000
478.823944	146.660000
478.917633	146.400000
479.011322	146.260000
479.105042	146.020000
479.198730	145.980000
479.292450	146.000000
479.386139	146.580000
479.479828	146.360000
479.573547	146.880000
479.667267	146.940000
479.760925	146.620000
479.854675	146.400000
479.948334	146.420000
480.042084	145.520000
480.135742	145.880000
480.229462	145.800000
480.323151	145.600000
480.416870	144.980000
480.510529	145.240000
480.604279	144.420000
480.697937	145.040000
480.791656	144.760000
480.885345	144.760000
480.979065	144.720000
481.072754	145.540000
481.166473	145.500000
481.260132	145.540000
481.353882	145.660000
481.447540	145.560000
481.541260	145.540000
481.635010	145.000000
481.728668	145.060000
481.822388	145.160000
481.916077	145.340000
482.009796	144.740000
482.103485	145.180000
482.197205	145.260000
482.290863	145.400000
482.384613	145.240000
482.478271	145.240000
482.571991	144.880000
482.665680	145.120000
482.759399	145.660000
482.853058	145.980000
482.946808	145.800000
483.040466	146.380000
483.134216	145.940000
483.227875	145.200000
483.321594	145.740000
483.415283	146.040000
483.509003	145.460000
483.602661	145.640000
483.696411	145.900000
483.790070	145.380000
483.883789	145.380000
483.977478	145.900000
484.071198	146.000000
484.164917	145.840000
484.258606	145.140000
484.352325	145.280000
484.445984	145.140000
484.539734	144.920000
484.633392	144.440000
484.727142	144.960000
484.820801	144.760000
484.914520	144.940000
485.008209	145.480000
485.101929	146.180000
485.195587	146.200000
485.289337	146.320000
485.382996	146.080000
485.476715	145.920000
485.570404	146.200000
485.664124	146.020000
485.757782	146.500000
485.851532	146.140000
485.945190	145.560000
486.038910	145.400000
486.132599	145.980000
486.226318	145.200000
486.319977	145.440000
486.413727	146.280000
486.507446	145.780000
486.601105	145.420000
486.694855	145.380000
486.788513	145.160000
486.882233	144.580000
486.975922	144.700000
487.069641	144.460000
487.163300	144.520000
487.257050	145.900000
487.350708	146.040000
487.444427	145.960000
487.538116	146.220000
487.631836	146.300000
487.725494	145.440000
487.819214	145.240000
487.912903	144.920000
488.006622	144.880000
488.100281	145.180000
488.194031	145.080000
488.287689	145.660000
488.381409	146.680000
488.475098	146.560000
488.568817	146.620000
488.662476	146.240000
488.756226	145.620000
488.849945	144.460000
488.943604	144.680000
489.037354	144.600000
489.131012	144.920000
489.224731	144.900000
489.318390	145.140000
489.412140	145.220000
489.505798	145.220000
489.599518	144.700000
489.693207	145.180000
489.786926	145.220000
489.880585	144.840000
489.974335	145.180000
490.067993	146.260000
490.161713	146.360000
490.255371	147.480000
490.349121	147.800000
490.442780	147.260000
490.536499	146.480000
490.630188	146.220000
490.723907	145.360000
490.817566	145.400000
490.911285	145.460000
491.004974	145.380000
491.098694	144.960000
491.192413	145.720000
491.286102	145.380000
491.379822	145.740000
491.473480	146.100000
491.567200	146.160000
491.660889	145.280000
491.754608	145.400000
491.848267	144.940000
491.941986	144.900000
492.035675	144.940000
492.129395	145.260000
492.223053	145.040000
492.316772	145.400000
492.410461	144.940000
492.504181	145.020000
492.597839	144.720000
492.691559	144.860000
492.785248	145.060000
492.878967	145.380000
492.972626	145.460000
493.066345	145.600000
493.160034	145.280000
493.253754	144.600000
493.347412	144.120000
493.441132	144.120000
493.534882	144.680000
493.628540	145.100000
493.722260	145.640000
493.815918	146.480000
493.909668	147.220000
494.003326	147.120000
494.097046	146.820000
494.190704	146.740000
494.284454	146.600000
494.378113	145.920000
494.471832	145.700000
494.565491	145.740000
494.659210	145.620000
494.752899	145.360000
494.846619	145.080000
494.940277	144.980000
495.033997	145.140000
495.127686	144.680000
495.221405	144.380000
495.315063	145.140000
495.408783	145.280000
495.502441	145.260000
495.596191	145.860000
495.689850	146.240000
495.783569	146.140000
495.877228	146.180000
495.970947	146.180000
496.064697	145.840000
496.158356	146.440000
496.252075	146.180000
496.345734	145.640000
496.439453	146.440000
496.533142	146.440000
496.626862	146.300000
496.720520	146.040000
496.814240	146.400000
496.907898	145.500000
497.001617	145.740000
497.095306	144.700000
497.189026	144.680000
497.282684	144.860000
497.376404	145.300000
497.470062	145.040000
497.563782	145.640000
497.657471	145.920000
497.751190	145.460000
497.844849	145.160000
497.938568	145.600000
498.032227	145.580000
498.125946	145.380000
498.219635	145.460000
498.313354	145.720000
498.407074	145.220000
498.500732	145.320000
498.594452	145.680000
498.688110	145.500000
498.781830	145.280000
498.875519	145.280000
498.969238	145.140000
499.062897	144.760000
499.156616	145.300000
499.250275	145.180000
499.343994	145.020000
499.437653	144.940000
499.531372	145.340000
499.625061	145.800000
499.718781	146.020000
499.812439	146.640000
499.906158	146.580000
499.999817	145.960000
500.093536	145.420000
500.187195	145.540000
500.280914	145.240000
500.374573	145.480000
500.468323	145.540000
500.561981	145.600000
500.655701	145.120000
500.749420	145.180000
500.843079	145.480000
500.936798	146.000000
501.030457	146.120000
501.124176	146.280000
501.217834	146.440000
501.311554	146.140000
501.405212	145.640000
501.498962	145.140000
501.592621	145.260000
501.686340	145.200000
501.779999	144.940000
501.873718	145.260000
501.967377	145.600000
502.061096	145.900000
502.154755	145.300000
502.248474	145.400000
502.342133	145.580000
502.435852	145.580000
502.529510	146.100000
502.623230	146.900000
502.716888	146.820000
502.810608	146.760000
502.904266	147.260000
502.997986	146.620000
503.091705	145.880000
503.185364	145.760000
503.279083	145.860000
503.372772	145.320000
503.466492	145.020000
503.560150	145.360000
503.653870	145.620000
503.747528	145.380000
503.841248	145.340000
503.934906	145.560000
504.028625	145.180000
504.122284	145.320000
504.216003	145.840000
504.309662	145.500000
504.403381	145.780000
504.497040	146.200000
504.590759	146.100000
504.684418	146.040000
504.778137	146.340000
504.871796	146.440000
504.965515	146.260000
505.059174	146.060000
505.152893	145.480000
505.246521	145.300000
505.340240	144.520000
505.433899	144.720000
505.527618	145.200000
505.621338	145.580000
505.714996	145.560000
505.808716	145.840000
505.902374	146.360000
505.996094	146.540000
506.089752	146.180000
506.183472	146.300000
506.277130	146.360000
506.370850	146.160000
506.464508	145.560000
506.558228	145.760000
506.651886	145.540000
506.745605	145.740000
506.839264	145.520000
506.932983	145.940000
507.026611	145.420000
507.120331	146.200000
507.213989	145.500000
507.307709	145.400000
507.401367	145.560000
507.495087	146.920000
507.588745	146.080000
507.682465	147.480000
507.776123	147.440000
507.869843	147.140000
507.963531	146.740000
508.057190	147.320000
508.150909	146.280000
508.244568	146.620000
508.338287	146.280000
508.431946	145.600000
508.525665	145.220000
508.619324	145.280000
508.713013	145.320000
508.806671	145.880000
508.900391	146.800000
508.994049	147.040000
509.087769	146.800000
509.181427	146.400000
509.275146	146.100000
509.368774	144.980000
509.462494	144.560000
509.556152	144.660000
509.649872	145.440000
509.743530	145.420000
509.837250	145.660000
509.930878	145.880000
510.024597	145.680000
510.118256	145.160000
510.211975	145.040000
510.305695	145.100000
510.399353	145.480000
510.493042	146.500000
510.586700	146.280000
510.680420	146.780000
510.774078	146.800000
510.867798	146.760000
510.961426	145.700000
511.055145	145.700000
511.148804	145.440000
511.242523	145.820000
511.336151	145.640000
511.429871	146.020000
511.523529	145.920000
511.617249	145.680000
511.710876	145.500000
511.804596	145.440000
511.898254	145.580000
511.991974	146.240000
512.085632	146.060000
512.179321	146.180000
512.272949	146.440000
512.366699	146.580000
512.460327	146.200000
512.554077	146.980000
512.647766	146.580000
512.741394	146.380000
512.835144	146.660000
512.928772	146.260000
513.022461	145.980000
513.116150	146.180000
513.209839	146.740000
513.303467	146.060000
513.397217	146.120000
513.490845	145.700000
513.584595	145.600000
513.678223	144.960000
513.771912	144.600000
513.865601	145.080000
513.959290	144.940000
514.052917	144.940000
514.146667	145.480000
514.240295	146.140000
514.333984	146.200000
514.427673	146.280000
514.521362	146.740000
514.614990	145.840000
514.708740	145.600000
514.802368	145.600000
514.896057	146.040000
514.989746	146.380000
515.083435	146.660000
515.177124	147.100000
515.270752	146.360000
515.364502	146.280000
515.458130	145.860000
515.551819	145.680000
515.645508	145.320000
515.739197	145.620000
515.832825	145.500000
515.926575	145.140000
516.020203	145.600000
516.113892	146.140000
516.207520	146.140000
516.301270	146.320000
516.394897	146.340000
516.488586	146.560000
516.582275	146.040000
516.675964	145.580000
516.769592	145.360000
516.863281	145.900000
516.956970	146.000000
517.050659	146.040000
517.144287	146.480000
517.238037	146.460000
517.331665	145.660000
517.425354	145.060000
517.519043	144.680000
517.612732	144.900000
517.706421	144.800000
517.800049	144.880000
517.893738	144.840000
517.987427	144.960000
518.081116	144.620000
518.174744	144.480000
518.268433	144.780000
518.362122	145.600000
518.455811	146.080000
518.549438	146.740000
518.643127	148.000000
518.736816	148.080000
518.830505	147.000000
518.924133	146.480000
519.017822	146.800000
519.111511	146.040000
519.205200	146.360000
519.298828	146.860000
519.392517	146.700000
519.486206	146.520000
519.579895	146.580000
519.673523	146.200000
519.767212	146.100000
519.860901	146.940000
519.954590	146.300000
520.048279	145.820000
520.141907	145.460000
520.235596	146.440000
520.329224	146.280000
520.422974	146.500000
520.516602	146.600000
520.610291	146.500000
520.703918	145.960000
520.797607	145.720000
520.891296	145.700000
520.984985	145.900000
521.078613	146.620000
521.172302	146.020000
521.265930	146.620000
521.359680	146.960000
521.453308	146.780000
521.546997	146.520000
521.640625	146.720000
521.734314	146.040000
521.827942	145.700000
521.921692	145.920000
522.015320	146.060000
522.109009	145.600000
522.202698	145.520000
522.296326	145.460000
522.390015	145.580000
522.483704	145.540000
522.577393	145.640000
522.671021	145.420000
522.764709	145.040000
522.858337	145.620000
522.952026	145.400000
523.045654	146.180000
523.139404	147.240000
523.233032	147.740000
523.326721	146.860000
523.420349	147.060000
523.514038	146.520000
523.607666	146.400000
523.701355	145.840000
523.795044	146.100000
523.888733	146.280000
523.982361	146.740000
524.076050	146.160000
524.169678	146.660000
524.263367	146.320000
524.356995	145.580000
524.450684	145.080000
524.544373	145.020000
524.638062	145.020000
524.731750	145.240000
524.825378	145.340000
524.919067	145.220000
525.012695	145.360000
525.106384	145.080000
525.200012	145.240000
525.293701	145.320000
525.387329	145.860000
525.481018	145.920000
525.574646	146.100000
525.668396	145.800000
525.762024	146.360000
525.855713	146.260000
525.949341	145.860000
526.043030	146.140000
526.136658	146.400000
526.230347	146.100000
526.323975	145.760000
526.417664	145.880000
526.511292	145.880000
526.604980	145.980000
526.698608	145.800000
526.792297	146.240000
526.885925	146.600000
526.979614	146.580000
527.073303	146.060000
527.166931	145.920000
527.260620	145.800000
527.354309	146.060000
527.447998	145.840000
527.541626	146.080000
527.635315	146.580000
527.728943	147.220000
527.822632	147.120000
527.916260	147.180000
528.009949	147.200000
528.103577	146.760000
528.197266	145.920000
528.290894	145.900000
528.384583	145.840000
528.478210	145.940000
528.571899	146.440000
528.665527	146.760000
528.759216	146.780000
528.852844	147.000000
528.946533	147.000000
529.040161	146.960000
529.133850	146.660000
529.227478	146.480000
529.321167	146.800000
529.414856	147.120000
529.508484	147.240000
529.602173	146.680000
529.695801	146.460000
529.789490	145.960000
529.883057	145.480000
529.976746	145.600000
530.070374	146.500000
530.164062	146.540000
530.257690	146.860000
530.351379	147.280000
530.445007	147.160000
530.538696	146.520000
530.632324	146.860000
530.726013	146.920000
530.819641	146.900000
530.913330	146.660000
531.006958	146.760000
531.100647	146.680000
531.194275	146.220000
531.287964	145.740000
531.381592	145.420000
531.475220	145.700000
531.568848	145.200000
531.662537	145.240000
531.756226	145.900000
531.849854	146.200000
531.943542	146.060000
532.037170	145.980000
532.130859	146.520000
532.224487	146.140000
532.318176	145.380000
532.411804	145.780000
532.505432	146.180000
532.599060	145.640000
532.692749	145.620000
532.786377	146.560000
532.880066	145.820000
532.973694	145.280000
533.067383	145.520000
533.161011	144.960000
533.254639	144.660000
533.348267	144.920000
533.441956	145.440000
533.535583	145.100000
533.629272	145.600000
533.722900	145.440000
533.816589	145.420000
533.910156	145.620000
534.003845	145.360000
534.097534	145.620000
534.191162	146.100000
534.284851	146.260000
534.378479	146.300000
534.472107	146.660000
534.565735	146.220000
534.659424	146.080000
534.753052	146.280000
534.846741	145.660000
534.940369	146.180000
535.033997	146.460000
535.127625	146.480000
535.221313	146.720000
535.314941	147.020000
535.408630	146.080000
535.502197	146.280000
535.595886	146.040000
535.689514	145.440000
535.783203	145.720000
535.876831	146.440000
535.970459	146.280000
536.064087	146.120000
536.157776	146.260000
536.251404	146.200000
536.345093	145.800000
536.438721	145.780000
536.532349	146.020000
536.626038	146.040000
536.719666	146.040000
536.813293	145.800000
536.906921	145.800000
537.000610	146.220000
537.094238	146.380000
537.187866	146.220000
537.281494	146.100000
537.375183	146.380000
537.468811	145.940000
537.562439	145.820000
537.656067	145.680000
537.749756	146.060000
537.843384	146.240000
537.937012	146.320000
538.030640	146.280000
538.124329	146.620000
538.217896	147.240000
538.311584	146.740000
538.405212	146.740000
538.498901	146.920000
538.592468	147.100000
538.686157	146.180000
538.779785	145.580000
538.873413	145.660000
538.967102	145.280000
539.060730	144.800000
539.154358	145.240000
539.247986	145.880000
539.341675	145.580000
539.435242	145.660000
539.528931	145.900000
539.622559	145.600000
539.716187	145.920000
539.809814	145.960000
539.903503	145.900000
539.997070	145.760000
540.090759	145.960000
540.184387	145.640000
540.278015	146.340000
540.371643	146.740000
540.465332	146.760000
540.558899	146.780000
540.652588	146.860000
540.746216	146.280000
540.839844	146.200000
540.933472	146.240000
541.027100	146.040000
541.120728	145.980000
541.214417	146.340000
541.308044	146.580000
541.401672	146.260000
541.495300	146.180000
541.588928	146.280000
541.682617	145.720000
541.776184	145.300000
541.869873	145.700000
541.963440	146.080000
542.057129	145.880000
542.150757	146.140000
542.244385	145.940000
542.338013	145.620000
542.431641	145.480000
542.525269	145.660000
542.618958	145.880000
542.712524	145.940000
542.806213	145.920000
542.899780	145.880000
542.993469	145.420000
543.087036	145.100000
543.180725	144.960000
543.274292	145.300000
543.367981	145.720000
543.461548	146.380000
543.555237	146.520000
543.648926	147.180000
543.742493	148.000000
543.836182	147.740000
543.929749	147.580000
544.023437	147.580000
544.117004	147.200000
544.210693	146.660000
544.304260	146.800000
544.397949	146.280000
544.491516	146.460000
544.585205	146.740000
544.678772	146.140000
544.772461	146.340000
544.866028	146.580000
544.959717	146.460000
545.053284	146.020000
545.146973	146.460000
545.240540	146.420000
545.334229	147.180000
545.427795	147.420000
545.521423	148.100000
545.615051	148.140000
545.708679	148.640000
545.802307	148.220000
545.895935	148.160000
545.989624	148.480000
546.083191	148.120000
546.176880	147.500000
546.270447	147.060000
546.364136	147.220000
546.457703	146.200000
546.551331	146.380000
546.644958	146.540000
546.738586	146.920000
546.832214	146.520000
546.925842	146.640000
547.019409	146.560000
547.113098	145.920000
547.206665	145.340000
547.300354	145.320000
547.393921	145.600000
547.487549	146.040000
547.581177	146.320000
547.674805	146.520000
547.768433	145.980000
547.862061	145.980000
547.955627	145.340000
548.049316	145.600000
548.142883	145.840000
548.236572	146.480000
548.330139	146.600000
548.423767	146.560000
548.517456	146.380000
548.611023	146.560000
548.704651	146.020000
548.798279	146.040000
548.891907	146.500000
548.985474	146.440000
549.079163	146.320000
549.172729	146.260000
549.266357	145.660000
549.359985	145.620000
549.453613	145.100000
549.547180	145.080000
549.640869	145.860000
549.734436	146.060000
549.828064	146.400000
549.921631	146.640000
550.015320	146.180000
550.108887	146.480000
550.202515	146.520000
550.296143	145.860000
550.389771	146.180000
550.483337	146.300000
550.576965	145.660000
550.670593	145.840000
550.764221	146.040000
550.857849	145.860000
550.951477	145.760000
551.045105	145.400000
551.138672	145.560000
551.232300	145.060000
551.325928	145.560000
551.419556	145.740000
551.513123	146.140000
551.606750	145.800000
551.700378	146.220000
551.794006	145.720000
551.887573	145.600000
551.981201	146.040000
552.074768	146.100000
552.168457	145.960000
552.262024	146.700000
552.355652	146.780000
552.449219	146.900000
552.542847	146.640000
552.636475	146.420000
552.730103	145.540000
552.823669	145.660000
552.917297	144.860000
553.010864	145.200000
553.104553	145.560000
553.198181	145.460000
553.291748	145.500000
553.385376	145.660000
553.478943	145.540000
553.572571	145.520000
553.666199	145.660000
553.759827	145.480000
553.853394	145.200000
553.947021	145.080000
554.040588	144.940000
554.134216	145.360000
554.227783	146.140000
554.321411	146.860000
554.415039	146.700000
554.508667	146.700000
554.602234	146.960000
554.695862	146.340000
554.789429	146.280000
554.883057	146.340000
554.976624	146.420000
555.070251	146.160000
555.163818	145.780000
555.257507	145.380000
555.351074	145.400000
555.444702	146.700000
555.538330	146.140000
555.631897	146.620000
555.725525	146.500000
555.819092	146.400000
555.912720	144.900000
556.006287	145.580000
556.099915	145.340000
556.193481	145.660000
556.287109	146.260000
556.380676	146.380000
556.474304	146.200000
556.567871	146.500000
556.661499	146.060000
556.755066	145.620000
556.848694	146.020000
556.942261	145.720000
557.035889	145.920000
557.129517	146.480000
557.223145	147.100000
557.316711	147.020000
557.410339	147.260000
557.503906	146.720000
557.597473	146.660000
557.691040	146.580000
557.784668	146.420000
557.878296	146.180000
557.971863	146.620000
558.065491	146.780000
558.159058	146.100000
558.252686	146.480000
558.346252	147.340000
558.439880	146.700000
558.533447	146.200000
558.627075	146.260000
558.720642	145.720000
558.814270	145.460000
558.907837	146.020000
559.001465	145.960000
559.095032	146.660000
559.188660	147.000000
559.282227	146.300000
559.375854	146.600000
559.469360	146.720000
559.562988	146.320000
559.656555	146.280000
559.750183	146.800000
559.843750	146.460000
559.937378	146.560000
560.030945	146.660000
560.124573	0.000000
560.218140	0.000000
560.311707	0.000000
560.405334	0.000000
560.498901	0.000000
560.592529	0.000000
560.686096	0.000000
560.779724	0.000000
560.873291	0.000000
560.966858	0.000000
561.060425	0.000000
561.154053	0.000000
561.247620	0.000000
561.341248	0.000000
561.434814	0.000000
561.528381	0.000000
561.621948	0.000000
561.715576	0.000000
561.809143	0.000000
561.902771	0.000000
561.996277	0.000000
562.089905	0.000000
562.183472	0.000000
562.277100	0.000000
