Model Number: SPM-002-B   
Serial Number: 70087108
Firmware Version: 004.15.4
Exposure Time: 100000.000000us
Data Taken on: 11-12-2020 19:38:27.100
Wavelength	Amplitude
221.570786	0.000000
221.663406	0.000000
221.756027	0.000000
221.848648	0.000000
221.941269	0.000000
222.033905	0.000000
222.126526	0.000000
222.219162	0.000000
222.311798	0.000000
222.404419	0.000000
222.497055	0.000000
222.589676	0.000000
222.682312	0.000000
222.774933	0.000000
222.867569	0.000000
222.960205	0.000000
223.052841	0.000000
223.145462	0.000000
223.238098	0.000000
223.330734	0.000000
223.423386	0.000000
223.516022	0.000000
223.608658	0.000000
223.701309	0.000000
223.793945	0.000000
223.886581	0.000000
223.979218	0.000000
224.071869	0.000000
224.164505	0.000000
224.257156	0.000000
224.349792	0.000000
224.442444	0.000000
224.535095	0.000000
224.627747	0.000000
224.720398	0.000000
224.813034	0.000000
224.905685	0.000000
224.998337	146.260000
225.090988	145.840000
225.183640	145.820000
225.276291	145.480000
225.368942	145.760000
225.461594	146.100000
225.554245	146.480000
225.646912	146.180000
225.739578	146.640000
225.832230	146.820000
225.924896	146.120000
226.017548	146.260000
226.110199	147.000000
226.202866	146.480000
226.295532	146.460000
226.388184	146.380000
226.480850	145.740000
226.573517	144.920000
226.666168	145.360000
226.758835	145.480000
226.851501	146.060000
226.944183	146.500000
227.036850	146.380000
227.129517	146.360000
227.222183	146.500000
227.314850	146.300000
227.407516	146.440000
227.500198	147.260000
227.592865	146.520000
227.685532	146.100000
227.778214	145.560000
227.870880	145.900000
227.963562	146.200000
228.056229	146.900000
228.148926	146.920000
228.241592	148.000000
228.334274	147.660000
228.426956	147.300000
228.519638	147.500000
228.612305	146.920000
228.704987	146.540000
228.797668	146.400000
228.890350	145.940000
228.983032	145.340000
229.075714	146.400000
229.168396	146.160000
229.261108	145.720000
229.353790	145.780000
229.446472	145.800000
229.539169	145.200000
229.631851	144.800000
229.724533	145.180000
229.817230	145.260000
229.909912	146.520000
230.002609	146.660000
230.095306	147.000000
230.187988	146.840000
230.280685	146.920000
230.373383	145.700000
230.466095	145.760000
230.558792	145.740000
230.651474	145.880000
230.744171	145.680000
230.836868	145.740000
230.929581	145.940000
231.022278	146.220000
231.114975	146.020000
231.207672	145.860000
231.300369	146.340000
231.393082	146.380000
231.485779	146.060000
231.578506	146.180000
231.671204	146.500000
231.763916	146.440000
231.856613	146.300000
231.949326	146.540000
232.042023	146.520000
232.134735	146.540000
232.227448	146.140000
232.320160	146.220000
232.412872	146.120000
232.505585	146.740000
232.598297	147.060000
232.691010	146.920000
232.783722	146.640000
232.876450	147.440000
232.969162	147.120000
233.061874	146.520000
233.154587	146.300000
233.247314	146.540000
233.340027	145.640000
233.432739	145.880000
233.525467	145.880000
233.618179	146.480000
233.710907	146.100000
233.803635	146.600000
233.896347	146.180000
233.989090	146.900000
234.081818	146.860000
234.174545	147.320000
234.267258	146.620000
234.359985	146.800000
234.452713	146.360000
234.545441	146.200000
234.638168	146.020000
234.730896	146.540000
234.823639	146.280000
234.916367	146.660000
235.009094	146.800000
235.101822	146.840000
235.194580	146.680000
235.287308	146.740000
235.380051	145.920000
235.472778	145.940000
235.565521	146.100000
235.658249	145.460000
235.750992	145.360000
235.843719	145.700000
235.936462	145.800000
236.029205	145.500000
236.121948	145.620000
236.214691	145.840000
236.307449	146.540000
236.400192	145.940000
236.492935	145.580000
236.585678	145.960000
236.678421	145.940000
236.771164	145.420000
236.863907	146.260000
236.956665	146.720000
237.049408	148.160000
237.142151	148.160000
237.234909	148.780000
237.327652	148.600000
237.420410	148.520000
237.513153	147.440000
237.605927	147.340000
237.698669	146.860000
237.791428	146.160000
237.884186	146.520000
237.976944	145.980000
238.069702	146.280000
238.162445	145.800000
238.255203	146.040000
238.347961	145.980000
238.440720	146.120000
238.533478	145.820000
238.626266	145.740000
238.719025	146.200000
238.811783	146.160000
238.904541	145.980000
238.997314	145.880000
239.090073	145.720000
239.182831	145.820000
239.275604	146.320000
239.368362	146.520000
239.461136	146.620000
239.553909	147.100000
239.646667	146.840000
239.739441	146.220000
239.832214	146.360000
239.925003	146.340000
240.017761	146.580000
240.110535	147.140000
240.203308	146.720000
240.296082	146.980000
240.388855	147.080000
240.481628	147.300000
240.574417	147.140000
240.667191	147.780000
240.759964	147.320000
240.852737	147.400000
240.945526	146.640000
241.038315	146.080000
241.131088	146.100000
241.223877	146.500000
241.316650	146.100000
241.409439	146.500000
241.502228	146.320000
241.595001	146.700000
241.687790	146.460000
241.780579	146.640000
241.873367	146.820000
241.966141	147.140000
242.058929	146.120000
242.151718	146.440000
242.244507	146.940000
242.337311	146.340000
242.430099	147.040000
242.522903	147.440000
242.615692	147.100000
242.708481	146.880000
242.801270	147.560000
242.894073	147.120000
242.986862	147.280000
243.079651	147.820000
243.172455	147.600000
243.265244	147.480000
243.358063	146.660000
243.450867	147.060000
243.543655	146.760000
243.636459	146.920000
243.729263	147.060000
243.822067	147.840000
243.914856	147.820000
244.007660	147.780000
244.100464	147.600000
244.193268	147.040000
244.286072	146.900000
244.378876	146.500000
244.471680	145.940000
244.564499	146.360000
244.657318	147.300000
244.750122	147.620000
244.842926	146.800000
244.935745	147.440000
245.028549	146.900000
245.121368	146.340000
245.214172	146.160000
245.306992	147.060000
245.399796	146.440000
245.492615	146.480000
245.585434	146.400000
245.678253	146.200000
245.771072	145.940000
245.863892	146.740000
245.956711	147.140000
246.049530	147.020000
246.142349	146.860000
246.235168	147.160000
246.327988	147.360000
246.420807	146.980000
246.513626	147.060000
246.606445	147.140000
246.699280	146.900000
246.792099	146.460000
246.884918	145.940000
246.977753	145.520000
247.070587	145.560000
247.163422	145.600000
247.256241	146.000000
247.349075	146.600000
247.441895	146.900000
247.534729	146.940000
247.627563	146.780000
247.720383	146.860000
247.813217	146.780000
247.906052	146.720000
247.998886	146.760000
248.091736	146.660000
248.184570	146.260000
248.277405	146.420000
248.370239	147.300000
248.463074	148.040000
248.555908	148.660000
248.648743	148.640000
248.741592	148.660000
248.834427	147.900000
248.927261	146.540000
249.020111	146.360000
249.112946	146.840000
249.205795	146.380000
249.298630	146.500000
249.391495	147.180000
249.484344	146.920000
249.577179	146.380000
249.670029	146.720000
249.762878	147.140000
249.855728	147.200000
249.948563	147.320000
250.041412	146.940000
250.134262	146.920000
250.227112	146.880000
250.319962	146.920000
250.412827	146.880000
250.505692	146.760000
250.598541	146.820000
250.691391	146.360000
250.784241	146.000000
250.877106	146.140000
250.969955	146.140000
251.062805	146.740000
251.155670	147.140000
251.248520	147.080000
251.341385	147.240000
251.434235	147.160000
251.527100	146.660000
251.619965	146.340000
251.712814	147.060000
251.805695	147.020000
251.898560	147.640000
251.991425	148.000000
252.084290	148.080000
252.177155	147.560000
252.270020	147.280000
252.362885	147.140000
252.455750	147.180000
252.548615	147.100000
252.641479	146.940000
252.734360	146.680000
252.827240	146.500000
252.920105	146.400000
253.012970	146.200000
253.105850	146.460000
253.198715	146.300000
253.291595	146.240000
253.384460	145.560000
253.477341	145.500000
253.570221	145.860000
253.663086	146.000000
253.755966	146.900000
253.848846	147.280000
253.941727	147.940000
254.034592	147.500000
254.127472	147.220000
254.220367	146.880000
254.313248	147.140000
254.406128	146.440000
254.499008	146.640000
254.591904	147.520000
254.684784	147.780000
254.777664	147.420000
254.870544	147.400000
254.963440	147.220000
255.056335	147.040000
255.149216	146.540000
255.242111	147.220000
255.334991	147.380000
255.427887	147.460000
255.520767	147.520000
255.613663	147.560000
255.706558	146.780000
255.799438	146.760000
255.892334	146.560000
255.985229	146.220000
256.078125	146.240000
256.171021	146.320000
256.263916	146.440000
256.356812	146.840000
256.449707	146.900000
256.542603	146.840000
256.635498	147.340000
256.728394	147.120000
256.821289	146.600000
256.914215	146.700000
257.007080	146.820000
257.100006	146.740000
257.192932	147.320000
257.285828	147.800000
257.378723	147.580000
257.471619	147.340000
257.564545	146.720000
257.657440	146.640000
257.750336	146.740000
257.843262	146.580000
257.936157	147.640000
258.029053	147.920000
258.121979	147.820000
258.214874	147.380000
258.307800	147.380000
258.400696	146.220000
258.493622	146.200000
258.586517	145.740000
258.679443	146.140000
258.772339	146.000000
258.865265	146.260000
258.958160	146.060000
259.051086	146.840000
259.144012	146.600000
259.236938	147.420000
259.329834	147.440000
259.422791	147.340000
259.515717	146.520000
259.608612	146.320000
259.701538	146.160000
259.794464	145.980000
259.887390	146.120000
259.980316	146.440000
260.073212	146.300000
260.166138	145.300000
260.259064	145.560000
260.351990	146.140000
260.444916	145.740000
260.537842	146.480000
260.630768	147.600000
260.723694	147.520000
260.816620	147.040000
260.909546	147.180000
261.002472	146.240000
261.095398	145.600000
261.188354	145.420000
261.281281	145.180000
261.374207	145.700000
261.467133	146.600000
261.560089	146.720000
261.653015	146.500000
261.745972	147.240000
261.838867	147.300000
261.931824	147.220000
262.024780	146.980000
262.117706	147.280000
262.210663	147.200000
262.303589	146.940000
262.396515	146.800000
262.489471	147.800000
262.582397	147.580000
262.675354	147.200000
262.768280	147.080000
262.861237	147.020000
262.954163	146.800000
263.047119	147.100000
263.140045	146.860000
263.233002	146.840000
263.325958	146.900000
263.418884	146.160000
263.511841	146.260000
263.604797	146.340000
263.697723	146.500000
263.790680	146.260000
263.883636	146.820000
263.976593	146.680000
264.069550	146.700000
264.162476	146.500000
264.255463	146.520000
264.348419	146.100000
264.441376	146.060000
264.534332	146.000000
264.627289	145.960000
264.720245	146.440000
264.813202	146.160000
264.906158	146.460000
264.999115	146.980000
265.092072	147.140000
265.185028	147.240000
265.277985	147.480000
265.370941	147.360000
265.463898	146.960000
265.556854	146.540000
265.649811	145.700000
265.742798	145.780000
265.835754	146.000000
265.928711	146.660000
266.021667	146.880000
266.114655	147.440000
266.207611	147.700000
266.300568	146.880000
266.393585	145.960000
266.486511	146.280000
266.579498	145.260000
266.672485	145.040000
266.765442	145.280000
266.858429	146.000000
266.951385	145.720000
267.044342	146.320000
267.137329	146.380000
267.230316	146.740000
267.323273	146.180000
267.416260	146.760000
267.509216	146.940000
267.602203	147.160000
267.695160	147.280000
267.788147	147.520000
267.881134	146.780000
267.974091	146.840000
268.067078	146.480000
268.160065	146.200000
268.253052	146.040000
268.346008	146.600000
268.438995	146.340000
268.531982	146.600000
268.624969	146.580000
268.717987	146.940000
268.810944	146.840000
268.903961	146.920000
268.996948	146.440000
269.089905	146.680000
269.182892	146.720000
269.275879	146.520000
269.368866	146.120000
269.461853	146.660000
269.554871	146.280000
269.647858	146.120000
269.740845	146.400000
269.833832	147.000000
269.926819	146.420000
270.019806	146.760000
270.112793	146.520000
270.205811	146.560000
270.298798	146.420000
270.391785	147.420000
270.484772	147.160000
270.577789	147.460000
270.670776	147.000000
270.763763	146.820000
270.856750	146.520000
270.949768	146.340000
271.042786	146.100000
271.135773	146.060000
271.228790	146.460000
271.321808	145.680000
271.414795	145.440000
271.507782	145.380000
271.600800	145.400000
271.693817	145.280000
271.786804	146.100000
271.879822	146.480000
271.972809	146.460000
272.065826	147.180000
272.158844	146.580000
272.251831	146.860000
272.344849	147.020000
272.437866	146.520000
272.530853	146.220000
272.623871	146.840000
272.716888	145.740000
272.809906	145.980000
272.902893	146.460000
272.995911	145.780000
273.088928	145.800000
273.181946	146.320000
273.274963	145.840000
273.367981	145.840000
273.460999	146.480000
273.554047	146.640000
273.647003	147.120000
273.740051	147.300000
273.833069	147.680000
273.926086	147.820000
274.019135	147.400000
274.112152	147.140000
274.205170	147.160000
274.298187	147.160000
274.391205	146.600000
274.484222	146.980000
274.577240	146.860000
274.670258	146.660000
274.763306	146.640000
274.856323	147.280000
274.949341	147.240000
275.042358	147.700000
275.135406	147.660000
275.228424	147.780000
275.321442	147.440000
275.414490	146.900000
275.507507	147.080000
275.600525	147.820000
275.693573	147.100000
275.786591	147.020000
275.879669	147.640000
275.972656	146.940000
276.065735	146.560000
276.158752	147.180000
276.251801	147.580000
276.344818	147.180000
276.437866	147.240000
276.530884	146.940000
276.623932	146.280000
276.716980	146.320000
276.809998	146.640000
276.903046	146.820000
276.996094	147.860000
277.089111	148.480000
277.182159	148.640000
277.275208	148.340000
277.368256	148.320000
277.461304	147.620000
277.554321	146.740000
277.647369	146.660000
277.740417	146.540000
277.833466	146.260000
277.926514	146.060000
278.019562	147.120000
278.112610	146.540000
278.205688	146.740000
278.298706	147.140000
278.391785	147.060000
278.484833	146.320000
278.577881	146.100000
278.670929	146.560000
278.763977	146.360000
278.857025	146.940000
278.950073	147.260000
279.043121	147.260000
279.136169	146.760000
279.229248	146.260000
279.322296	146.000000
279.415344	145.880000
279.508392	146.080000
279.601440	146.140000
279.694519	146.300000
279.787567	146.440000
279.880615	146.160000
279.973694	146.160000
280.066742	146.320000
280.159790	146.560000
280.252869	145.900000
280.345917	146.360000
280.438995	146.120000
280.532074	145.960000
280.625122	146.380000
280.718201	147.300000
280.811279	147.120000
280.904327	147.520000
280.997406	147.620000
281.090454	147.360000
281.183533	146.840000
281.276581	147.020000
281.369659	146.720000
281.462738	146.840000
281.555786	146.880000
281.648865	146.620000
281.741943	146.480000
281.835022	147.080000
281.928070	146.460000
282.021149	146.460000
282.114227	146.620000
282.207306	146.520000
282.300385	146.820000
282.393433	147.240000
282.486511	147.180000
282.579590	147.660000
282.672668	148.060000
282.765747	147.100000
282.858856	146.820000
282.951904	146.680000
283.045013	146.560000
283.138062	146.740000
283.231171	147.260000
283.324249	147.980000
283.417328	147.980000
283.510406	147.400000
283.603485	146.940000
283.696564	146.740000
283.789642	146.540000
283.882751	146.460000
283.975830	147.300000
284.068909	147.160000
284.161987	147.660000
284.255066	147.240000
284.348175	147.480000
284.441254	147.000000
284.534332	147.340000
284.627441	146.420000
284.720520	146.020000
284.813599	145.860000
284.906708	145.960000
284.999786	145.340000
285.092896	145.420000
285.185974	146.860000
285.279053	146.620000
285.372192	146.580000
285.465240	147.440000
285.558380	147.520000
285.651459	146.740000
285.744568	147.480000
285.837677	147.100000
285.930756	146.900000
286.023865	146.900000
286.116943	146.540000
286.210052	146.480000
286.303162	146.900000
286.396240	146.680000
286.489349	146.540000
286.582458	147.120000
286.675568	146.620000
286.768646	146.580000
286.861755	146.920000
286.954865	147.840000
287.047974	147.080000
287.141083	147.120000
287.234161	146.660000
287.327271	146.260000
287.420380	146.220000
287.513519	146.240000
287.606598	146.600000
287.699738	147.200000
287.792816	147.220000
287.885956	147.080000
287.979034	147.240000
288.072174	146.880000
288.165283	146.740000
288.258392	146.880000
288.351501	146.020000
288.444611	146.260000
288.537720	146.880000
288.630859	146.720000
288.723969	146.700000
288.817078	147.560000
288.910187	147.460000
289.003296	146.480000
289.096436	146.080000
289.189545	145.760000
289.282654	145.260000
289.375763	145.660000
289.468903	146.000000
289.562012	146.520000
289.655121	146.820000
289.748260	146.660000
289.841400	146.840000
289.934509	146.900000
290.027649	147.060000
290.120728	146.980000
290.213898	147.440000
290.306976	146.860000
290.400146	147.220000
290.493256	146.280000
290.586395	146.600000
290.679535	146.460000
290.772644	146.440000
290.865784	145.580000
290.958893	146.100000
291.052032	145.700000
291.145172	145.620000
291.238281	145.460000
291.331421	145.660000
291.424561	146.160000
291.517670	146.000000
291.610809	146.500000
291.703949	146.480000
291.797089	147.060000
291.890228	146.560000
291.983337	146.860000
292.076477	146.560000
292.169617	146.960000
292.262756	146.640000
292.355927	146.440000
292.449036	146.080000
292.542206	146.000000
292.635315	146.100000
292.728485	146.320000
292.821625	146.240000
292.914764	147.440000
293.007904	147.460000
293.101044	147.200000
293.194183	146.980000
293.287323	147.160000
293.380463	146.040000
293.473602	146.160000
293.566742	146.460000
293.659882	146.860000
293.753021	147.140000
293.846191	147.500000
293.939331	147.100000
294.032471	146.720000
294.125610	146.400000
294.218781	146.780000
294.311920	147.040000
294.405060	147.180000
294.498230	147.360000
294.591370	147.500000
294.684540	146.800000
294.777679	146.380000
294.870850	146.700000
294.963959	146.540000
295.057159	146.120000
295.150299	146.360000
295.243469	146.260000
295.336609	145.700000
295.429779	145.760000
295.522919	146.180000
295.616089	146.420000
295.709229	147.340000
295.802399	147.620000
295.895569	147.540000
295.988708	147.420000
296.081879	147.120000
296.175018	146.240000
296.268188	146.160000
296.361359	146.640000
296.454529	146.500000
296.547668	146.400000
296.640839	146.940000
296.734009	146.900000
296.827179	146.920000
296.920319	147.440000
297.013519	147.220000
297.106659	147.060000
297.199860	146.840000
297.292999	146.440000
297.386200	146.180000
297.479309	146.460000
297.572510	146.480000
297.665680	146.440000
297.758850	146.780000
297.852020	146.640000
297.945190	146.600000
298.038361	146.060000
298.131531	147.020000
298.224701	146.720000
298.317871	146.600000
298.411072	146.080000
298.504242	146.220000
298.597412	145.660000
298.690582	145.740000
298.783752	145.560000
298.876923	146.300000
298.970093	146.520000
299.063293	146.600000
299.156464	146.800000
299.249634	147.100000
299.342834	147.040000
299.436005	147.180000
299.529205	147.180000
299.622345	147.360000
299.715576	147.000000
299.808716	146.640000
299.901917	146.500000
299.995117	146.680000
300.088287	146.520000
300.181488	146.540000
300.274658	146.440000
300.367828	146.300000
300.461029	146.360000
300.554199	146.520000
300.647400	146.460000
300.740601	147.220000
300.833771	147.360000
300.926971	147.180000
301.020142	146.660000
301.113342	146.780000
301.206512	146.500000
301.299713	146.460000
301.392914	146.420000
301.486084	146.800000
301.579285	146.860000
301.672516	147.020000
301.765686	146.900000
301.858887	146.660000
301.952057	146.460000
302.045288	146.400000
302.138458	146.340000
302.231659	146.200000
302.324860	146.100000
302.418060	145.920000
302.511261	145.840000
302.604462	145.900000
302.697662	145.940000
302.790863	146.040000
302.884064	145.800000
302.977264	145.900000
303.070465	146.060000
303.163666	146.700000
303.256866	146.920000
303.350067	147.140000
303.443268	147.140000
303.536469	147.140000
303.629669	146.560000
303.722870	146.560000
303.816071	146.420000
303.909271	146.620000
304.002472	145.700000
304.095673	145.720000
304.188934	145.300000
304.282104	146.260000
304.375336	146.140000
304.468506	146.520000
304.561768	146.260000
304.654968	146.600000
304.748169	145.600000
304.841370	145.400000
304.934601	145.900000
305.027802	146.120000
305.121002	145.960000
305.214233	146.320000
305.307434	146.540000
305.400665	146.820000
305.493866	146.520000
305.587097	146.880000
305.680298	146.820000
305.773499	147.200000
305.866730	146.640000
305.959930	147.420000
306.053162	147.640000
306.146393	147.260000
306.239594	146.480000
306.332825	146.580000
306.426025	146.400000
306.519287	145.820000
306.612488	146.220000
306.705719	146.740000
306.798920	146.620000
306.892181	146.260000
306.985352	146.100000
307.078613	145.680000
307.171844	145.720000
307.265045	145.340000
307.358276	145.040000
307.451508	145.740000
307.544739	146.100000
307.637970	145.580000
307.731201	145.600000
307.824402	146.380000
307.917633	146.160000
308.010864	146.780000
308.104095	147.420000
308.197327	147.440000
308.290558	147.460000
308.383789	147.200000
308.477020	146.560000
308.570251	146.020000
308.663483	146.160000
308.756714	145.600000
308.849976	145.640000
308.943176	146.020000
309.036438	146.000000
309.129639	145.720000
309.222900	146.120000
309.316101	146.060000
309.409393	145.620000
309.502625	145.520000
309.595856	145.980000
309.689087	145.780000
309.782318	145.840000
309.875580	146.100000
309.968811	146.540000
310.062042	146.220000
310.155273	145.940000
310.248535	146.360000
310.341766	146.520000
310.434998	146.080000
310.528259	145.980000
310.621490	146.720000
310.714722	146.060000
310.807983	145.780000
310.901215	146.200000
310.994476	146.240000
311.087708	145.480000
311.181000	146.000000
311.274200	145.480000
311.367462	145.400000
311.460693	145.440000
311.553986	146.200000
311.647186	146.360000
311.740479	147.280000
311.833710	146.920000
311.926971	146.980000
312.020203	146.300000
312.113464	145.800000
312.206726	144.920000
312.299957	145.340000
312.393219	145.780000
312.486481	146.020000
312.579712	146.060000
312.672974	146.260000
312.766235	145.880000
312.859497	145.700000
312.952759	145.700000
313.045990	146.620000
313.139252	146.220000
313.232513	146.640000
313.325775	146.460000
313.419037	146.220000
313.512299	145.100000
313.605530	146.080000
313.698822	146.020000
313.792053	145.960000
313.885345	145.640000
313.978577	146.040000
314.071869	145.440000
314.165131	145.540000
314.258392	146.060000
314.351654	146.580000
314.444916	146.040000
314.538177	146.660000
314.631439	146.980000
314.724701	146.760000
314.817993	146.520000
314.911255	146.700000
315.004517	146.020000
315.097778	145.520000
315.191040	145.860000
315.284302	146.060000
315.377594	146.080000
315.470856	146.380000
315.564117	146.080000
315.657379	145.180000
315.750671	144.600000
315.843933	145.000000
315.937195	144.500000
316.030518	144.300000
316.123749	144.600000
316.217041	145.740000
316.310303	145.720000
316.403595	146.100000
316.496857	146.640000
316.590149	146.880000
316.683411	146.080000
316.776703	145.600000
316.869965	145.760000
316.963257	145.540000
317.056519	144.840000
317.149811	144.860000
317.243073	145.280000
317.336365	145.240000
317.429626	145.840000
317.522919	146.760000
317.616180	146.900000
317.709473	146.360000
317.802765	146.080000
317.896027	145.680000
317.989319	145.820000
318.082611	145.920000
318.175873	146.400000
318.269165	146.740000
318.362488	146.780000
318.455750	146.200000
318.549042	146.140000
318.642303	146.480000
318.735626	146.180000
318.828888	146.300000
318.922211	146.220000
319.015472	146.960000
319.108765	145.920000
319.202057	145.800000
319.295349	145.720000
319.388641	145.900000
319.481934	145.280000
319.575226	145.600000
319.668518	146.160000
319.761810	146.420000
319.855103	146.400000
319.948395	146.400000
320.041687	146.680000
320.134979	146.660000
320.228271	146.220000
320.321564	146.140000
320.414856	146.340000
320.508148	145.980000
320.601440	145.520000
320.694763	145.640000
320.788025	146.280000
320.881348	146.020000
320.974640	145.880000
321.067963	145.520000
321.161224	145.560000
321.254547	144.520000
321.347839	145.160000
321.441162	145.540000
321.534454	145.860000
321.627747	145.520000
321.721069	146.600000
321.814362	146.180000
321.907654	145.940000
322.000946	146.020000
322.094269	146.880000
322.187561	146.300000
322.280884	146.660000
322.374176	147.000000
322.467468	147.680000
322.560791	147.220000
322.654083	147.440000
322.747406	147.280000
322.840698	147.660000
322.934021	147.400000
323.027344	147.560000
323.120636	147.380000
323.213959	147.260000
323.307251	146.600000
323.400574	146.320000
323.493866	145.920000
323.587219	146.040000
323.680511	146.220000
323.773834	146.240000
323.867157	146.380000
323.960449	146.440000
324.053772	146.500000
324.147095	146.520000
324.240387	147.040000
324.333710	147.100000
324.427032	147.300000
324.520355	147.140000
324.613647	146.820000
324.706970	146.640000
324.800293	146.560000
324.893616	146.760000
324.986938	147.020000
325.080231	146.760000
325.173553	147.080000
325.266876	147.500000
325.360199	147.400000
325.453522	147.260000
325.546875	147.140000
325.640167	147.360000
325.733521	147.280000
325.826813	147.360000
325.920166	147.040000
326.013489	147.280000
326.106812	146.120000
326.200134	145.660000
326.293457	145.260000
326.386780	145.580000
326.480103	145.800000
326.573425	146.060000
326.666748	146.200000
326.760071	146.760000
326.853424	146.580000
326.946747	146.180000
327.040070	147.320000
327.133392	146.800000
327.226715	146.000000
327.320068	145.740000
327.413391	146.480000
327.506714	145.240000
327.600037	145.880000
327.693390	146.140000
327.786713	146.140000
327.880066	145.620000
327.973358	146.200000
328.066742	146.420000
328.160034	146.740000
328.253418	147.020000
328.346710	146.940000
328.440063	146.680000
328.533417	146.360000
328.626740	146.440000
328.720093	146.320000
328.813416	146.240000
328.906769	146.060000
329.000092	146.300000
329.093445	146.000000
329.186768	146.020000
329.280121	146.820000
329.373444	147.280000
329.466797	146.980000
329.560120	147.220000
329.653473	147.420000
329.746796	146.520000
329.840149	146.100000
329.933502	146.060000
330.026825	145.640000
330.120178	145.420000
330.213562	145.740000
330.306854	145.840000
330.400238	145.920000
330.493561	145.860000
330.586945	146.280000
330.680237	146.780000
330.773621	146.920000
330.866974	146.820000
330.960327	147.400000
331.053680	147.300000
331.147003	147.040000
331.240356	147.260000
331.333710	147.340000
331.427063	146.760000
331.520416	146.600000
331.613770	146.300000
331.707123	146.220000
331.800476	146.380000
331.893829	147.280000
331.987152	147.380000
332.080505	147.480000
332.173859	147.220000
332.267212	146.560000
332.360565	145.840000
332.453918	145.440000
332.547333	145.520000
332.640656	145.760000
332.734039	146.300000
332.827362	146.140000
332.920746	146.800000
333.014069	146.980000
333.107452	147.140000
333.200806	147.300000
333.294159	147.760000
333.387543	146.820000
333.480896	146.340000
333.574249	146.060000
333.667603	145.760000
333.760956	145.800000
333.854340	146.180000
333.947693	146.180000
334.041046	146.060000
334.134430	146.580000
334.227783	146.040000
334.321136	145.980000
334.414520	145.840000
334.507874	146.260000
334.601227	145.860000
334.694611	146.100000
334.787964	146.320000
334.881348	146.880000
334.974701	146.460000
335.068085	146.460000
335.161438	146.800000
335.254822	146.720000
335.348175	146.280000
335.441559	146.280000
335.534943	146.860000
335.628296	146.620000
335.721680	146.420000
335.815033	146.820000
335.908417	147.060000
336.001770	146.840000
336.095154	146.860000
336.188538	146.600000
336.281891	146.300000
336.375275	145.760000
336.468658	144.920000
336.562012	145.020000
336.655396	145.740000
336.748779	145.880000
336.842133	146.280000
336.935516	146.700000
337.028900	146.260000
337.122284	146.060000
337.215637	146.140000
337.309021	145.760000
337.402435	145.660000
337.495789	145.640000
337.589203	145.540000
337.682526	145.340000
337.775940	146.260000
337.869324	146.220000
337.962708	146.240000
338.056091	146.800000
338.149475	146.540000
338.242859	146.360000
338.336243	146.180000
338.429626	146.480000
338.523010	146.160000
338.616394	146.120000
338.709778	146.240000
338.803162	146.860000
338.896545	147.040000
338.989929	146.420000
339.083313	146.900000
339.176697	146.440000
339.270081	146.100000
339.363464	146.180000
339.456848	147.100000
339.550232	146.440000
339.643616	146.100000
339.737030	146.280000
339.830383	145.640000
339.923828	145.440000
340.017181	145.880000
340.110596	145.960000
340.203949	145.920000
340.297363	145.700000
340.390778	145.700000
340.484161	145.500000
340.577545	145.660000
340.670959	145.760000
340.764343	146.260000
340.857727	146.220000
340.951111	146.000000
341.044525	146.360000
341.137909	145.680000
341.231293	145.620000
341.324707	145.140000
341.418091	146.200000
341.511505	146.040000
341.604889	146.560000
341.698303	146.600000
341.791687	146.660000
341.885071	145.840000
341.978485	145.440000
342.071899	145.220000
342.165283	145.180000
342.258698	145.660000
342.352081	146.100000
342.445496	146.920000
342.538879	146.920000
342.632324	146.760000
342.725708	146.540000
342.819122	146.020000
342.912506	145.600000
343.005920	145.760000
343.099335	146.780000
343.192719	146.600000
343.286133	146.740000
343.379547	146.640000
343.472931	146.680000
343.566345	145.760000
343.659760	146.160000
343.753143	145.940000
343.846558	145.820000
343.939972	145.820000
344.033386	146.520000
344.126770	146.240000
344.220184	146.560000
344.313599	147.040000
344.407043	147.120000
344.500427	146.300000
344.593872	146.900000
344.687225	146.420000
344.780670	145.880000
344.874054	145.660000
344.967499	146.340000
345.060913	145.920000
345.154327	146.240000
345.247742	146.120000
345.341156	146.000000
345.434570	145.460000
345.527985	145.440000
345.621399	145.540000
345.714813	145.460000
345.808228	145.920000
345.901642	145.960000
345.995056	145.700000
346.088470	145.920000
346.181885	146.060000
346.275299	145.720000
346.368713	145.760000
346.462128	145.660000
346.555573	145.340000
346.648987	145.560000
346.742401	145.780000
346.835815	146.240000
346.929260	146.100000
347.022644	146.200000
347.116119	146.260000
347.209503	146.180000
347.302948	146.580000
347.396362	147.200000
347.489807	147.300000
347.583221	148.080000
347.676636	147.780000
347.770050	146.480000
347.863495	146.060000
347.956909	146.100000
348.050323	145.200000
348.143768	145.400000
348.237183	145.620000
348.330597	146.200000
348.424042	146.280000
348.517456	146.460000
348.610901	146.580000
348.704315	146.500000
348.797760	145.680000
348.891174	145.040000
348.984619	144.700000
349.078033	144.920000
349.171448	145.700000
349.264923	145.820000
349.358337	146.020000
349.451782	146.220000
349.545197	145.720000
349.638641	144.840000
349.732086	144.780000
349.825500	145.380000
349.918945	144.960000
350.012390	145.660000
350.105804	146.320000
350.199249	146.320000
350.292664	146.660000
350.386108	146.800000
350.479553	146.920000
350.572968	146.780000
350.666412	147.020000
350.759857	146.220000
350.853302	146.780000
350.946716	146.160000
351.040161	146.220000
351.133606	146.420000
351.227081	146.720000
351.320465	147.440000
351.413940	147.580000
351.507355	147.640000
351.600830	147.360000
351.694244	146.980000
351.787720	146.260000
351.881104	146.260000
351.974579	146.240000
352.067993	147.200000
352.161469	147.200000
352.254883	146.580000
352.348358	146.500000
352.441803	146.380000
352.535248	145.600000
352.628693	146.100000
352.722137	146.180000
352.815582	146.120000
352.909027	146.240000
353.002472	146.160000
353.095917	146.020000
353.189362	146.520000
353.282806	146.720000
353.376251	146.720000
353.469696	146.580000
353.563141	147.300000
353.656586	147.160000
353.750061	146.640000
353.843475	146.500000
353.936981	146.920000
354.030396	145.900000
354.123871	145.760000
354.217285	146.680000
354.310760	147.100000
354.404175	146.760000
354.497681	146.800000
354.591095	147.000000
354.684570	145.880000
354.777985	145.220000
354.871490	145.460000
354.964935	145.820000
355.058380	145.780000
355.151855	145.940000
355.245300	146.540000
355.338745	146.760000
355.432220	146.540000
355.525665	146.060000
355.619110	146.680000
355.712585	146.400000
355.806030	145.980000
355.899475	145.740000
355.992950	146.440000
356.086426	146.460000
356.179871	146.380000
356.273346	146.620000
356.366791	147.140000
356.460266	147.120000
356.553711	146.680000
356.647186	146.740000
356.740631	146.440000
356.834106	146.020000
356.927551	145.680000
357.021027	145.900000
357.114471	146.280000
357.207947	146.420000
357.301422	146.940000
357.394867	147.140000
357.488342	147.480000
357.581818	147.060000
357.675262	147.300000
357.768738	146.940000
357.862213	146.600000
357.955658	146.440000
358.049133	146.280000
358.142609	146.560000
358.236053	146.480000
358.329529	146.300000
358.423035	146.280000
358.516449	146.060000
358.609955	146.120000
358.703400	146.640000
358.796906	146.940000
358.890350	146.620000
358.983826	147.000000
359.077271	146.260000
359.170776	145.860000
359.264221	145.940000
359.357727	146.360000
359.451172	146.880000
359.544647	147.180000
359.638123	147.000000
359.731598	147.080000
359.825073	147.180000
359.918549	146.820000
360.012024	146.840000
360.105499	146.600000
360.198975	146.600000
360.292450	146.580000
360.385925	146.640000
360.479401	146.240000
360.572876	146.780000
360.666351	147.020000
360.759857	146.820000
360.853302	146.480000
360.946808	146.220000
361.040253	146.200000
361.133759	145.540000
361.227203	145.700000
361.320709	145.460000
361.414154	146.060000
361.507660	146.060000
361.601105	146.660000
361.694641	146.880000
361.788086	147.140000
361.881592	147.500000
361.975067	147.340000
362.068542	147.660000
362.162018	147.160000
362.255524	146.780000
362.348999	146.500000
362.442474	146.540000
362.535950	145.500000
362.629456	145.440000
362.722931	145.600000
362.816406	145.780000
362.909882	146.220000
363.003387	146.200000
363.096863	146.660000
363.190338	146.900000
363.283875	146.580000
363.377319	146.100000
363.470825	146.840000
363.564301	146.220000
363.657806	146.420000
363.751282	146.280000
363.844788	147.020000
363.938232	146.540000
364.031769	147.380000
364.125214	147.260000
364.218750	147.940000
364.312225	146.700000
364.405731	146.940000
364.499207	146.420000
364.592712	146.300000
364.686188	145.980000
364.779694	146.460000
364.873169	146.420000
364.966675	146.220000
365.060150	146.340000
365.153656	146.440000
365.247131	146.420000
365.340637	146.660000
365.434143	147.360000
365.527618	147.240000
365.621155	146.380000
365.714600	146.580000
365.808136	146.620000
365.901611	145.380000
365.995117	145.380000
366.088593	145.840000
366.182129	145.360000
366.275604	145.420000
366.369110	145.900000
366.462585	145.740000
366.556122	146.480000
366.649567	146.600000
366.743103	146.600000
366.836609	146.320000
366.930115	146.840000
367.023590	146.340000
367.117096	146.320000
367.210602	146.000000
367.304108	146.940000
367.397614	147.300000
367.491119	147.500000
367.584595	147.620000
367.678101	147.900000
367.771606	147.220000
367.865112	146.540000
367.958649	145.980000
368.052124	146.060000
368.145660	145.640000
368.239136	146.380000
368.332672	146.520000
368.426147	146.600000
368.519684	146.200000
368.613159	146.540000
368.706696	145.980000
368.800171	145.960000
368.893707	146.080000
368.987183	146.580000
369.080719	146.560000
369.174225	146.340000
369.267731	146.260000
369.361237	146.380000
369.454742	146.280000
369.548248	146.640000
369.641754	146.400000
369.735260	146.320000
369.828766	145.840000
369.922272	146.480000
370.015808	145.680000
370.109314	145.600000
370.202820	145.420000
370.296356	146.160000
370.389832	145.480000
370.483368	145.520000
370.576874	145.840000
370.670410	146.120000
370.763885	145.160000
370.857422	145.180000
370.950928	145.420000
371.044464	146.020000
371.137939	146.140000
371.231476	146.700000
371.324982	147.140000
371.418518	147.260000
371.512024	146.600000
371.605560	146.340000
371.699066	146.780000
371.792572	146.320000
371.886108	146.660000
371.979614	147.000000
372.073120	147.660000
372.166656	147.060000
372.260162	147.500000
372.353668	146.740000
372.447205	146.460000
372.540710	145.980000
372.634277	145.820000
372.727753	145.420000
372.821320	145.740000
372.914795	145.680000
373.008362	145.540000
373.101837	145.980000
373.195404	145.920000
373.288879	145.960000
373.382446	146.720000
373.475922	146.460000
373.569489	146.860000
373.662964	147.060000
373.756531	146.960000
373.850037	146.880000
373.943573	147.220000
374.037109	146.060000
374.130615	146.400000
374.224152	146.520000
374.317657	146.320000
374.411194	147.060000
374.504730	147.320000
374.598236	146.620000
374.691772	146.360000
374.785309	146.140000
374.878815	145.200000
374.972351	145.660000
375.065887	145.820000
375.159454	146.480000
375.252930	146.520000
375.346497	146.920000
375.440002	147.400000
375.533569	147.420000
375.627045	146.900000
375.720612	146.700000
375.814117	147.000000
375.907684	146.380000
376.001160	146.000000
376.094727	145.460000
376.188232	146.320000
376.281799	145.960000
376.375336	146.060000
376.468872	146.960000
376.562408	147.520000
376.655914	146.820000
376.749451	146.760000
376.842987	146.760000
376.936523	146.420000
377.030060	146.500000
377.123596	146.780000
377.217133	146.300000
377.310669	146.280000
377.404205	146.580000
377.497772	147.000000
377.591278	146.520000
377.684845	147.200000
377.778351	147.380000
377.871918	147.140000
377.965424	146.180000
378.058990	146.520000
378.152496	146.240000
378.246063	146.300000
378.339569	146.460000
378.433136	147.000000
378.526642	146.800000
378.620209	146.760000
378.713745	146.340000
378.807312	146.760000
378.900848	146.860000
378.994385	147.240000
379.087921	146.700000
379.181458	147.200000
379.274994	146.260000
379.368530	145.820000
379.462097	145.780000
379.555634	146.600000
379.649170	145.920000
379.742706	145.960000
379.836273	146.420000
379.929810	145.940000
380.023376	145.620000
380.116882	145.760000
380.210449	145.880000
380.303986	145.160000
380.397552	144.820000
380.491058	145.000000
380.584656	145.060000
380.678162	144.960000
380.771729	145.360000
380.865265	146.600000
380.958832	146.520000
381.052368	146.620000
381.145935	147.160000
381.239471	147.320000
381.333008	146.560000
381.426575	146.620000
381.520111	147.060000
381.613647	146.920000
381.707214	146.760000
381.800751	146.180000
381.894318	146.340000
381.987854	145.500000
382.081421	145.180000
382.174988	145.300000
382.268524	145.700000
382.362091	145.500000
382.455627	146.920000
382.549194	147.140000
382.642731	146.680000
382.736298	146.440000
382.829834	146.380000
382.923401	145.840000
383.016937	145.780000
383.110504	146.320000
383.204041	146.840000
383.297607	146.940000
383.391174	146.240000
383.484741	146.680000
383.578278	146.040000
383.671844	145.500000
383.765411	145.260000
383.858948	145.700000
383.952515	145.180000
384.046051	145.720000
384.139618	146.280000
384.233185	146.500000
384.326721	146.500000
384.420288	147.140000
384.513855	147.300000
384.607422	147.500000
384.700989	147.760000
384.794525	147.500000
384.888123	147.320000
384.981659	147.460000
385.075226	147.000000
385.168762	146.500000
385.262360	146.600000
385.355896	145.900000
385.449463	145.700000
385.542999	145.700000
385.636597	146.220000
385.730164	146.320000
385.823730	146.240000
385.917267	145.940000
386.010834	146.100000
386.104401	146.120000
386.197968	146.480000
386.291534	146.820000
386.385101	147.040000
386.478668	147.260000
386.572235	147.120000
386.665802	146.380000
386.759338	146.220000
386.852905	145.760000
386.946472	145.320000
387.040070	145.400000
387.133606	145.620000
387.227203	145.500000
387.320740	145.880000
387.414337	145.800000
387.507874	145.560000
387.601471	145.720000
387.695007	145.580000
387.788605	145.620000
387.882141	145.860000
387.975739	145.840000
388.069275	145.440000
388.162872	146.140000
388.256439	145.800000
388.350037	145.660000
388.443604	145.520000
388.537170	145.640000
388.630737	146.140000
388.724304	146.340000
388.817871	146.140000
388.911438	146.260000
389.005005	146.520000
389.098602	146.220000
389.192169	145.980000
389.285736	146.740000
389.379333	146.620000
389.472870	146.480000
389.566467	146.060000
389.660034	146.340000
389.753632	145.720000
389.847168	146.020000
389.940765	146.200000
390.034332	146.380000
390.127930	145.860000
390.221466	145.980000
390.315063	145.640000
390.408630	145.040000
390.502228	144.320000
390.595795	144.700000
390.689362	144.780000
390.782959	145.340000
390.876526	145.880000
390.970093	146.260000
391.063690	146.660000
391.157257	146.540000
391.250824	146.660000
391.344421	146.440000
391.437988	146.860000
391.531555	146.980000
391.625153	147.060000
391.718750	146.700000
391.812317	146.800000
391.905914	146.660000
391.999481	146.440000
392.093079	146.500000
392.186615	146.800000
392.280243	146.940000
392.373779	146.840000
392.467407	147.320000
392.560944	146.920000
392.654572	146.340000
392.748108	146.260000
392.841736	146.220000
392.935303	145.520000
393.028900	145.920000
393.122467	145.880000
393.216064	145.500000
393.309631	145.300000
393.403229	145.160000
393.496796	145.020000
393.590393	144.640000
393.683990	145.020000
393.777557	145.320000
393.871155	145.520000
393.964722	145.940000
394.058350	146.620000
394.151917	146.660000
394.245514	146.440000
394.339081	147.060000
394.432678	147.060000
394.526245	147.000000
394.619873	146.620000
394.713409	146.940000
394.807037	146.120000
394.900604	146.360000
394.994202	146.480000
395.087769	146.760000
395.181396	146.320000
395.274994	147.200000
395.368561	146.520000
395.462158	146.680000
395.555756	146.640000
395.649353	147.260000
395.742920	146.600000
395.836517	147.100000
395.930115	146.140000
396.023712	146.160000
396.117279	146.260000
396.210876	146.200000
396.304474	146.200000
396.398071	146.980000
396.491669	147.220000
396.585266	146.620000
396.678833	146.480000
396.772461	146.760000
396.866028	146.740000
396.959656	147.080000
397.053223	147.520000
397.146851	147.980000
397.240417	148.280000
397.334015	149.480000
397.427582	149.860000
397.521210	151.260000
397.614807	153.480000
397.708405	155.840000
397.802002	158.460000
397.895599	162.860000
397.989197	167.700000
398.082794	172.960000
398.176392	179.980000
398.269989	188.300000
398.363586	198.480000
398.457184	211.060000
398.550781	226.160000
398.644379	242.020000
398.737976	260.320000
398.831573	278.960000
398.925201	297.360000
399.018768	315.000000
399.112396	333.040000
399.205963	349.640000
399.299591	365.240000
399.393158	380.820000
399.486786	397.040000
399.580353	412.300000
399.673981	426.980000
399.767578	442.680000
399.861206	456.340000
399.954773	467.560000
400.048401	473.240000
400.141998	473.740000
400.235596	469.880000
400.329193	460.960000
400.422791	448.240000
400.516418	434.920000
400.610016	422.300000
400.703613	406.800000
400.797211	390.060000
400.890808	372.240000
400.984436	353.280000
401.078033	331.860000
401.171631	311.080000
401.265259	290.980000
401.358826	272.320000
401.452484	254.480000
401.546051	239.260000
401.639679	223.900000
401.733246	210.720000
401.826904	197.940000
401.920471	187.420000
402.014099	177.880000
402.107697	170.720000
402.201324	165.140000
402.294891	161.120000
402.388550	157.740000
402.482147	155.300000
402.575745	153.200000
402.669373	150.760000
402.762970	149.280000
402.856567	148.480000
402.950195	147.820000
403.043793	147.260000
403.137390	147.900000
403.231018	147.240000
403.324615	147.540000
403.418243	147.060000
403.511841	147.400000
403.605469	146.900000
403.699066	147.500000
403.792694	147.020000
403.886292	147.100000
403.979919	146.920000
404.073517	146.780000
404.167145	146.920000
404.260712	147.000000
404.354370	146.960000
404.447937	146.920000
404.541595	147.080000
404.635162	147.200000
404.728821	147.500000
404.822418	147.220000
404.916046	147.080000
405.009644	147.500000
405.103271	147.380000
405.196899	147.000000
405.290497	147.260000
405.384125	147.740000
405.477722	147.000000
405.571350	146.700000
405.664948	147.120000
405.758575	146.860000
405.852203	146.280000
405.945801	146.420000
406.039429	146.580000
406.133057	146.140000
406.226654	146.300000
406.320312	146.360000
406.413879	146.720000
406.507538	146.460000
406.601135	146.080000
406.694763	146.500000
406.788361	146.020000
406.882019	145.580000
406.975586	146.000000
407.069244	146.620000
407.162872	146.380000
407.256470	146.700000
407.350098	146.620000
407.443726	145.980000
407.537323	145.500000
407.630951	145.560000
407.724579	144.940000
407.818207	145.540000
407.911804	145.540000
408.005432	145.760000
408.099060	146.140000
408.192688	146.880000
408.286285	146.580000
408.379913	146.660000
408.473572	146.640000
408.567169	145.540000
408.660828	145.540000
408.754395	145.140000
408.848053	145.220000
408.941650	145.200000
409.035309	145.360000
409.128906	145.540000
409.222565	145.900000
409.316132	145.980000
409.409790	145.880000
409.503387	145.900000
409.597046	145.680000
409.690674	145.660000
409.784302	145.800000
409.877930	145.880000
409.971558	146.280000
410.065186	146.360000
410.158783	146.240000
410.252411	146.420000
410.346039	146.760000
410.439667	146.820000
410.533295	146.860000
410.626923	147.240000
410.720551	146.760000
410.814209	146.860000
410.907806	146.960000
411.001465	146.380000
411.095062	146.500000
411.188721	146.820000
411.282318	146.320000
411.375977	145.640000
411.469574	146.320000
411.563232	145.800000
411.656830	145.540000
411.750488	145.540000
411.844086	145.800000
411.937744	145.760000
412.031372	145.740000
412.125000	145.580000
412.218628	145.500000
412.312256	146.380000
412.405884	146.640000
412.499512	147.000000
412.593170	147.580000
412.686798	147.980000
412.780426	147.060000
412.874054	146.860000
412.967682	146.680000
413.061310	146.840000
413.154968	146.980000
413.248566	147.300000
413.342224	147.060000
413.435852	147.340000
413.529510	146.640000
413.623108	145.560000
413.716766	145.420000
413.810364	145.820000
413.904022	145.120000
413.997650	145.080000
414.091309	146.180000
414.184906	145.800000
414.278564	145.400000
414.372192	146.200000
414.465851	146.500000
414.559479	146.080000
414.653107	146.980000
414.746735	146.600000
414.840393	146.300000
414.934021	146.460000
415.027649	146.260000
415.121277	146.080000
415.214935	146.820000
415.308563	146.900000
415.402191	146.340000
415.495850	146.280000
415.589478	145.940000
415.683136	145.460000
415.776733	145.540000
415.870422	146.280000
415.964020	146.080000
416.057678	146.180000
416.151306	146.480000
416.244965	146.240000
416.338562	146.180000
416.432251	147.000000
416.525848	147.800000
416.619507	147.980000
416.713165	148.340000
416.806793	147.940000
416.900421	147.740000
416.994080	146.620000
417.087708	146.620000
417.181366	146.260000
417.274994	146.380000
417.368622	146.500000
417.462280	147.100000
417.555908	146.820000
417.649567	146.720000
417.743195	146.640000
417.836853	146.600000
417.930481	146.860000
418.024170	146.880000
418.117767	147.220000
418.211426	147.500000
418.305054	147.740000
418.398712	147.120000
418.492340	147.280000
418.585999	147.420000
418.679626	147.480000
418.773285	147.140000
418.866913	147.260000
418.960571	147.380000
419.054230	147.280000
419.147858	147.000000
419.241516	147.260000
419.335144	147.260000
419.428802	147.160000
419.522461	146.920000
419.616089	146.780000
419.709747	146.680000
419.803375	146.800000
419.897034	146.320000
419.990662	146.360000
420.084320	146.560000
420.177979	146.600000
420.271606	146.340000
420.365295	146.960000
420.458893	147.440000
420.552582	147.660000
420.646210	147.680000
420.739868	147.540000
420.833496	147.180000
420.927155	146.240000
421.020782	145.840000
421.114471	145.380000
421.208069	145.420000
421.301758	145.800000
421.395386	146.320000
421.489044	146.560000
421.582703	146.680000
421.676361	147.460000
421.769989	147.100000
421.863647	147.360000
421.957306	147.400000
422.050934	147.580000
422.144592	147.220000
422.238251	146.860000
422.331909	146.380000
422.425537	146.060000
422.519196	146.060000
422.612854	145.560000
422.706543	145.740000
422.800140	146.180000
422.893829	146.020000
422.987457	146.040000
423.081146	146.360000
423.174744	146.880000
423.268433	146.440000
423.362061	146.440000
423.455750	146.240000
423.549347	146.320000
423.643036	145.840000
423.736664	146.340000
423.830353	146.740000
423.924011	147.100000
424.017639	146.360000
424.111298	146.320000
424.204956	146.200000
424.298615	146.120000
424.392273	145.940000
424.485931	146.700000
424.579559	146.920000
424.673218	146.720000
424.766876	146.760000
424.860535	146.400000
424.954193	146.240000
425.047882	146.780000
425.141510	146.660000
425.235199	146.720000
425.328796	146.600000
425.422485	146.380000
425.516113	145.300000
425.609802	145.240000
425.703430	145.300000
425.797119	145.200000
425.890747	145.740000
425.984436	146.160000
426.078064	146.460000
426.171753	146.500000
426.265411	146.580000
426.359070	146.360000
426.452728	146.240000
426.546356	146.020000
426.640015	145.480000
426.733673	145.860000
426.827332	145.460000
426.920990	146.220000
427.014648	145.820000
427.108307	146.260000
427.201965	146.620000
427.295624	146.980000
427.389282	146.160000
427.482941	146.680000
427.576630	146.580000
427.670258	145.640000
427.763947	145.740000
427.857574	146.180000
427.951263	146.120000
428.044922	145.900000
428.138611	146.320000
428.232239	146.380000
428.325928	146.560000
428.419556	146.880000
428.513245	146.640000
428.606903	146.740000
428.700562	146.380000
428.794220	145.920000
428.887878	145.480000
428.981537	146.080000
429.075195	146.220000
429.168854	146.620000
429.262512	146.400000
429.356201	146.560000
429.449860	146.180000
429.543518	145.900000
429.637177	145.620000
429.730835	145.920000
429.824493	145.960000
429.918182	146.360000
430.011810	146.020000
430.105530	145.540000
430.199158	145.780000
430.292847	145.420000
430.386475	145.060000
430.480164	145.080000
430.573792	145.260000
430.667511	144.880000
430.761139	145.040000
430.854828	145.660000
430.948456	146.000000
431.042145	146.620000
431.135834	146.620000
431.229492	147.000000
431.323151	146.660000
431.416809	146.620000
431.510468	146.220000
431.604156	145.920000
431.697815	145.600000
431.791473	145.220000
431.885132	145.000000
431.978821	145.300000
432.072479	145.860000
432.166138	146.460000
432.259827	146.620000
432.353485	147.080000
432.447174	147.140000
432.540802	146.800000
432.634491	146.680000
432.728149	146.900000
432.821838	147.300000
432.915466	146.940000
433.009186	146.840000
433.102814	146.080000
433.196503	145.820000
433.290131	145.320000
433.383850	145.520000
433.477509	145.740000
433.571167	146.780000
433.664856	147.340000
433.758514	147.780000
433.852173	147.540000
433.945862	147.440000
434.039520	146.940000
434.133179	146.160000
434.226868	145.720000
434.320526	145.200000
434.414185	145.880000
434.507874	145.340000
434.601562	145.860000
434.695221	145.720000
434.788910	146.580000
434.882538	146.160000
434.976257	146.180000
435.069885	146.140000
435.163574	146.400000
435.257233	145.740000
435.350922	145.720000
435.444580	145.860000
435.538269	145.480000
435.631897	145.660000
435.725616	146.280000
435.819275	146.760000
435.912964	147.280000
436.006622	147.680000
436.100311	147.500000
436.193970	146.760000
436.287628	146.180000
436.381317	145.940000
436.474976	145.820000
436.568665	145.400000
436.662323	145.840000
436.756012	145.920000
436.849670	145.420000
436.943390	145.220000
437.037018	145.080000
437.130737	145.100000
437.224365	144.500000
437.318085	145.000000
437.411713	144.860000
437.505432	145.600000
437.599060	146.240000
437.692780	147.220000
437.786407	146.820000
437.880127	146.960000
437.973755	146.600000
438.067474	145.780000
438.161133	145.720000
438.254822	146.160000
438.348480	146.220000
438.442169	146.960000
438.535828	147.420000
438.629517	146.920000
438.723175	146.280000
438.816864	146.640000
438.910553	145.800000
439.004211	145.520000
439.097900	145.360000
439.191559	145.800000
439.285248	145.180000
439.378906	145.640000
439.472626	145.620000
439.566284	145.780000
439.659973	146.160000
439.753632	146.140000
439.847321	146.300000
439.940979	146.440000
440.034698	146.220000
440.128326	145.640000
440.222046	145.720000
440.315674	144.860000
440.409393	144.960000
440.503082	144.980000
440.596741	145.140000
440.690430	145.620000
440.784088	145.660000
440.877777	145.220000
440.971466	145.460000
441.065125	145.400000
441.158813	144.840000
441.252502	145.460000
441.346161	145.960000
441.439850	146.400000
441.533539	146.300000
441.627197	146.880000
441.720886	146.440000
441.814606	146.500000
441.908234	146.700000
442.001953	146.700000
442.095612	146.340000
442.189301	146.500000
442.282959	146.520000
442.376678	145.380000
442.470306	146.100000
442.564026	145.940000
442.657684	146.240000
442.751404	146.240000
442.845032	147.440000
442.938751	146.840000
443.032440	147.100000
443.126099	146.500000
443.219788	146.760000
443.313477	146.400000
443.407166	146.440000
443.500824	146.360000
443.594513	146.820000
443.688202	146.340000
443.781891	145.920000
443.875549	145.880000
443.969238	146.120000
444.062927	145.980000
444.156647	145.880000
444.250275	146.300000
444.343994	146.400000
444.437653	146.440000
444.531372	146.300000
444.625031	146.260000
444.718719	145.780000
444.812378	145.600000
444.906097	145.220000
444.999756	144.920000
445.093445	145.100000
445.187103	145.420000
445.280823	146.200000
445.374512	145.840000
445.468201	145.900000
445.561859	145.620000
445.655548	145.400000
445.749237	144.760000
445.842926	145.460000
445.936615	146.040000
446.030304	146.000000
446.123962	146.380000
446.217651	146.060000
446.311340	145.680000
446.405029	145.200000
446.498749	145.260000
446.592407	144.760000
446.686096	145.180000
446.779755	145.380000
446.873474	145.780000
446.967133	145.900000
447.060852	145.840000
447.154510	145.760000
447.248230	145.860000
447.341858	145.760000
447.435577	145.660000
447.529236	145.460000
447.622955	145.320000
447.716644	145.500000
447.810333	145.520000
447.904022	145.760000
447.997711	146.020000
448.091400	146.420000
448.185059	146.100000
448.278748	146.160000
448.372437	145.980000
448.466125	146.400000
448.559814	145.980000
448.653503	146.580000
448.747192	146.660000
448.840912	146.940000
448.934570	146.880000
449.028290	147.400000
449.121948	146.820000
449.215637	146.280000
449.309296	145.820000
449.403015	145.920000
449.496674	145.920000
449.590393	145.900000
449.684052	146.080000
449.777771	147.120000
449.871429	146.620000
449.965149	146.300000
450.058838	146.380000
450.152527	147.040000
450.246216	146.400000
450.339905	146.280000
450.433594	145.940000
450.527283	146.680000
450.620972	146.040000
450.714661	145.900000
450.808350	146.200000
450.902039	146.520000
450.995728	145.880000
451.089417	145.640000
451.183105	145.360000
451.276794	145.920000
451.370514	145.440000
451.464172	144.900000
451.557892	144.980000
451.651550	145.460000
451.745270	144.520000
451.838928	144.280000
451.932648	145.060000
452.026306	145.960000
452.120026	145.640000
452.213684	146.460000
452.307404	146.840000
452.401062	146.600000
452.494781	146.180000
452.588470	146.280000
452.682159	145.780000
452.775848	145.980000
452.869537	145.540000
452.963226	145.200000
453.056915	145.040000
453.150604	145.300000
453.244293	145.500000
453.337982	146.300000
453.431671	146.900000
453.525360	147.460000
453.619049	147.020000
453.712769	146.780000
453.806427	145.840000
453.900146	145.260000
453.993805	145.180000
454.087555	145.780000
454.181213	146.280000
454.274933	146.620000
454.368591	146.360000
454.462311	145.960000
454.555969	145.520000
454.649689	145.540000
454.743347	145.320000
454.837067	146.320000
454.930756	146.980000
455.024445	147.200000
455.118134	146.860000
455.211853	147.260000
455.305542	146.640000
455.399231	145.840000
455.492920	145.520000
455.586609	145.840000
455.680298	145.720000
455.773987	145.480000
455.867676	145.820000
455.961365	146.280000
456.055084	145.800000
456.148773	145.760000
456.242493	145.900000
456.336151	145.900000
456.429871	145.980000
456.523529	146.380000
456.617249	146.160000
456.710907	146.720000
456.804626	146.840000
456.898315	146.260000
456.992035	146.300000
457.085693	146.360000
457.179413	145.560000
457.273102	146.300000
457.366791	146.640000
457.460480	146.580000
457.554199	147.200000
457.647888	147.360000
457.741577	146.600000
457.835266	146.460000
457.928955	146.420000
458.022644	146.380000
458.116364	146.960000
458.210052	146.960000
458.303741	147.260000
458.397461	146.880000
458.491119	146.100000
458.584839	145.640000
458.678528	145.340000
458.772247	144.840000
458.865906	144.980000
458.959625	146.140000
459.053284	146.340000
459.147003	146.120000
459.240692	147.280000
459.334412	147.420000
459.428070	146.600000
459.521790	146.460000
459.615479	146.620000
459.709198	146.500000
459.802887	146.380000
459.896576	146.280000
459.990265	146.460000
460.083954	146.740000
460.177673	146.040000
460.271362	146.000000
460.365051	146.540000
460.458740	146.080000
460.552429	145.700000
460.646149	145.620000
460.739838	145.480000
460.833527	145.140000
460.927246	145.020000
461.020905	145.260000
461.114655	145.420000
461.208313	145.720000
461.302032	145.400000
461.395691	145.880000
461.489441	145.900000
461.583099	145.800000
461.676819	145.160000
461.770477	145.700000
461.864197	145.340000
461.957916	145.040000
462.051605	144.480000
462.145294	145.900000
462.238983	145.500000
462.332703	146.120000
462.426392	146.940000
462.520081	147.040000
462.613770	146.300000
462.707489	146.580000
462.801178	146.300000
462.894867	145.760000
462.988556	146.180000
463.082275	146.100000
463.175964	145.600000
463.269684	145.640000
463.363342	145.600000
463.457092	145.320000
463.550751	145.440000
463.644470	145.900000
463.738129	145.700000
463.831879	146.020000
463.925537	146.720000
464.019257	146.700000
464.112946	146.640000
464.206665	146.620000
464.300323	146.400000
464.394043	145.960000
464.487762	145.800000
464.581451	146.420000
464.675140	146.480000
464.768829	146.480000
464.862549	146.400000
464.956238	146.460000
465.049927	145.880000
465.143646	145.920000
465.237335	145.800000
465.331024	146.400000
465.424713	146.640000
465.518433	146.780000
465.612152	146.460000
465.705811	146.560000
465.799561	145.880000
465.893219	145.480000
465.986938	145.220000
466.080597	145.380000
466.174347	145.520000
466.268005	145.920000
466.361725	145.880000
466.455414	145.840000
466.549133	145.700000
466.642792	145.940000
466.736542	145.320000
466.830231	145.560000
466.923920	145.520000
467.017609	145.560000
467.111328	145.200000
467.205017	145.540000
467.298706	145.520000
467.392426	145.940000
467.486115	146.280000
467.579803	145.780000
467.673523	146.120000
467.767212	146.460000
467.860901	146.280000
467.954651	146.440000
468.048309	146.960000
468.142029	146.680000
468.235718	146.500000
468.329437	146.160000
468.423096	145.920000
468.516846	145.600000
468.610504	145.360000
468.704224	144.980000
468.797913	145.280000
468.891632	145.540000
468.985291	145.920000
469.079010	146.300000
469.172729	146.100000
469.266418	146.660000
469.360107	146.720000
469.453827	146.540000
469.547516	146.400000
469.641205	146.920000
469.734924	146.720000
469.828613	146.980000
469.922302	147.140000
470.016022	147.260000
470.109711	147.180000
470.203430	146.300000
470.297150	145.380000
470.390808	145.440000
470.484558	145.220000
470.578217	145.520000
470.671936	146.100000
470.765625	146.960000
470.859344	146.620000
470.953003	146.620000
471.046753	146.100000
471.140411	145.680000
471.234131	145.600000
471.327820	146.540000
471.421539	146.660000
471.515228	146.440000
471.608948	146.580000
471.702637	145.820000
471.796326	144.840000
471.890045	145.100000
471.983734	145.400000
472.077423	145.080000
472.171143	145.280000
472.264832	145.440000
472.358521	145.160000
472.452240	144.960000
472.545929	145.960000
472.639648	146.580000
472.733337	147.020000
472.827057	147.160000
472.920746	147.120000
473.014465	147.300000
473.108124	147.100000
473.201874	146.920000
473.295532	146.820000
473.389252	147.500000
473.482941	147.240000
473.576660	147.060000
473.670319	146.900000
473.764069	146.940000
473.857727	147.160000
473.951477	147.080000
474.045166	147.240000
474.138855	147.200000
474.232574	147.120000
474.326263	146.540000
474.419952	146.480000
474.513672	146.200000
474.607361	145.940000
474.701050	146.540000
474.794769	146.780000
474.888458	147.020000
474.982178	147.040000
475.075867	147.380000
475.169586	147.300000
475.263275	147.120000
475.356995	147.080000
475.450653	147.000000
475.544403	146.660000
475.638062	146.920000
475.731812	146.700000
475.825470	146.580000
475.919189	146.660000
476.012878	146.960000
476.106598	146.140000
476.200256	146.500000
476.294006	145.880000
476.387695	146.060000
476.481384	145.680000
476.575104	145.780000
476.668793	145.520000
476.762512	145.620000
476.856201	145.800000
476.949890	145.860000
477.043610	145.340000
477.137299	145.400000
477.230988	145.740000
477.324707	145.140000
477.418396	145.680000
477.512146	146.000000
477.605804	145.920000
477.699524	145.900000
477.793213	146.080000
477.886932	145.640000
477.980591	145.460000
478.074341	145.360000
478.167999	145.040000
478.261749	145.360000
478.355408	145.380000
478.449127	145.860000
478.542816	146.860000
478.636536	147.880000
478.730225	147.780000
478.823944	148.180000
478.917633	148.000000
479.011322	147.440000
479.105042	146.980000
479.198730	147.260000
479.292450	147.040000
479.386139	147.260000
479.479828	147.420000
479.573547	147.740000
479.667267	147.320000
479.760925	147.480000
479.854675	147.600000
479.948334	147.060000
480.042084	146.440000
480.135742	146.900000
480.229462	146.280000
480.323151	146.300000
480.416870	146.000000
480.510529	145.960000
480.604279	145.300000
480.697937	146.020000
480.791656	145.320000
480.885345	145.280000
480.979065	145.220000
481.072754	146.020000
481.166473	146.280000
481.260132	146.720000
481.353882	146.900000
481.447540	147.000000
481.541260	146.620000
481.635010	145.900000
481.728668	145.840000
481.822388	145.920000
481.916077	145.900000
482.009796	145.740000
482.103485	146.040000
482.197205	146.060000
482.290863	146.440000
482.384613	146.360000
482.478271	145.940000
482.571991	146.060000
482.665680	146.000000
482.759399	146.460000
482.853058	146.820000
482.946808	147.020000
483.040466	146.820000
483.134216	146.500000
483.227875	145.760000
483.321594	146.060000
483.415283	146.260000
483.509003	145.980000
483.602661	145.760000
483.696411	146.260000
483.790070	145.940000
483.883789	145.920000
483.977478	146.340000
484.071198	146.980000
484.164917	146.380000
484.258606	145.800000
484.352325	146.060000
484.445984	146.060000
484.539734	145.920000
484.633392	145.540000
484.727142	145.940000
484.820801	145.660000
484.914520	145.520000
485.008209	145.560000
485.101929	146.340000
485.195587	146.260000
485.289337	146.340000
485.382996	146.340000
485.476715	146.380000
485.570404	146.540000
485.664124	146.360000
485.757782	146.720000
485.851532	146.500000
485.945190	146.260000
486.038910	146.240000
486.132599	146.600000
486.226318	146.020000
486.319977	146.060000
486.413727	146.700000
486.507446	145.920000
486.601105	145.340000
486.694855	145.220000
486.788513	145.200000
486.882233	144.920000
486.975922	145.100000
487.069641	145.300000
487.163300	145.480000
487.257050	146.580000
487.350708	146.340000
487.444427	146.340000
487.538116	146.160000
487.631836	145.940000
487.725494	145.080000
487.819214	144.940000
487.912903	145.060000
488.006622	145.400000
488.100281	145.720000
488.194031	145.780000
488.287689	146.360000
488.381409	146.700000
488.475098	146.740000
488.568817	146.960000
488.662476	146.580000
488.756226	146.020000
488.849945	145.420000
488.943604	145.700000
489.037354	145.720000
489.131012	145.900000
489.224731	145.880000
489.318390	146.180000
489.412140	145.460000
489.505798	145.320000
489.599518	145.040000
489.693207	145.160000
489.786926	144.980000
489.880585	145.480000
489.974335	145.520000
490.067993	146.780000
490.161713	147.180000
490.255371	147.800000
490.349121	147.640000
490.442780	147.380000
490.536499	146.340000
490.630188	146.140000
490.723907	145.880000
490.817566	146.240000
490.911285	146.360000
491.004974	146.100000
491.098694	145.400000
491.192413	145.680000
491.286102	145.360000
491.379822	145.460000
491.473480	145.820000
491.567200	146.300000
491.660889	145.620000
491.754608	145.420000
491.848267	145.240000
491.941986	144.980000
492.035675	145.080000
492.129395	145.700000
492.223053	145.640000
492.316772	145.840000
492.410461	146.040000
492.504181	145.980000
492.597839	145.420000
492.691559	145.980000
492.785248	145.960000
492.878967	146.020000
492.972626	146.000000
493.066345	146.000000
493.160034	145.440000
493.253754	145.400000
493.347412	145.120000
493.441132	145.160000
493.534882	145.920000
493.628540	146.360000
493.722260	146.520000
493.815918	146.880000
493.909668	147.360000
494.003326	147.300000
494.097046	147.260000
494.190704	147.100000
494.284454	147.180000
494.378113	147.040000
494.471832	146.780000
494.565491	146.480000
494.659210	146.340000
494.752899	146.040000
494.846619	145.400000
494.940277	145.540000
495.033997	145.760000
495.127686	145.760000
495.221405	145.940000
495.315063	146.360000
495.408783	145.940000
495.502441	146.160000
495.596191	146.180000
495.689850	145.660000
495.783569	145.920000
495.877228	146.440000
495.970947	145.640000
496.064697	145.520000
496.158356	146.520000
496.252075	146.300000
496.345734	145.940000
496.439453	147.200000
496.533142	147.300000
496.626862	147.400000
496.720520	147.380000
496.814240	147.480000
496.907898	146.840000
497.001617	147.080000
497.095306	146.000000
497.189026	146.100000
497.282684	146.100000
497.376404	146.000000
497.470062	145.500000
497.563782	146.000000
497.657471	145.660000
497.751190	145.100000
497.844849	145.320000
497.938568	145.620000
498.032227	145.540000
498.125946	145.540000
498.219635	145.920000
498.313354	145.920000
498.407074	145.880000
498.500732	146.160000
498.594452	146.720000
498.688110	146.560000
498.781830	146.000000
498.875519	145.920000
498.969238	145.560000
499.062897	144.820000
499.156616	145.440000
499.250275	145.860000
499.343994	145.580000
499.437653	145.960000
499.531372	146.680000
499.625061	147.120000
499.718781	147.600000
499.812439	148.160000
499.906158	147.880000
499.999817	147.540000
500.093536	146.580000
500.187195	146.100000
500.280914	146.020000
500.374573	146.120000
500.468323	145.860000
500.561981	146.140000
500.655701	145.820000
500.749420	145.880000
500.843079	145.960000
500.936798	146.120000
501.030457	146.500000
501.124176	146.700000
501.217834	146.740000
501.311554	146.380000
501.405212	146.320000
501.498962	145.280000
501.592621	145.440000
501.686340	145.740000
501.779999	146.160000
501.873718	146.240000
501.967377	146.720000
502.061096	147.060000
502.154755	146.380000
502.248474	146.300000
502.342133	146.520000
502.435852	146.500000
502.529510	146.660000
502.623230	147.480000
502.716888	146.900000
502.810608	147.020000
502.904266	147.300000
502.997986	146.600000
503.091705	145.900000
503.185364	146.240000
503.279083	146.080000
503.372772	145.960000
503.466492	145.620000
503.560150	145.600000
503.653870	145.900000
503.747528	145.780000
503.841248	145.520000
503.934906	146.200000
504.028625	146.120000
504.122284	146.140000
504.216003	146.660000
504.309662	146.280000
504.403381	146.420000
504.497040	146.620000
504.590759	146.280000
504.684418	146.040000
504.778137	146.920000
504.871796	147.020000
504.965515	146.700000
505.059174	146.820000
505.152893	146.220000
505.246521	145.840000
505.340240	145.580000
505.433899	146.140000
505.527618	146.440000
505.621338	146.960000
505.714996	146.700000
505.808716	146.380000
505.902374	146.580000
505.996094	146.340000
506.089752	145.820000
506.183472	146.360000
506.277130	146.660000
506.370850	146.040000
506.464508	146.140000
506.558228	146.540000
506.651886	145.860000
506.745605	145.960000
506.839264	146.260000
506.932983	146.120000
507.026611	145.920000
507.120331	146.400000
507.213989	145.840000
507.307709	146.040000
507.401367	146.060000
507.495087	147.020000
507.588745	146.740000
507.682465	147.680000
507.776123	147.300000
507.869843	147.320000
507.963531	146.600000
508.057190	147.240000
508.150909	146.480000
508.244568	146.560000
508.338287	146.400000
508.431946	146.140000
508.525665	145.440000
508.619324	145.360000
508.713013	145.640000
508.806671	146.080000
508.900391	147.240000
508.994049	147.720000
509.087769	147.580000
509.181427	147.580000
509.275146	147.000000
509.368774	145.660000
509.462494	145.300000
509.556152	145.540000
509.649872	145.620000
509.743530	146.040000
509.837250	146.640000
509.930878	146.720000
510.024597	146.740000
510.118256	146.560000
510.211975	146.360000
510.305695	146.060000
510.399353	146.540000
510.493042	146.660000
510.586700	146.380000
510.680420	147.040000
510.774078	146.880000
510.867798	146.800000
510.961426	146.220000
511.055145	146.200000
511.148804	145.600000
511.242523	146.120000
511.336151	146.200000
511.429871	146.960000
511.523529	146.940000
511.617249	146.500000
511.710876	146.280000
511.804596	145.780000
511.898254	145.460000
511.991974	145.940000
512.085632	146.360000
512.179321	146.820000
512.272949	147.140000
512.366699	147.680000
512.460327	147.460000
512.554077	148.320000
512.647766	147.820000
512.741394	148.000000
512.835144	147.900000
512.928772	147.700000
513.022461	147.100000
513.116150	147.080000
513.209839	147.360000
513.303467	147.060000
513.397217	146.920000
513.490845	146.780000
513.584595	146.820000
513.678223	146.200000
513.771912	145.520000
513.865601	146.000000
513.959290	145.660000
514.052917	145.600000
514.146667	145.960000
514.240295	146.480000
514.333984	146.340000
514.427673	146.320000
514.521362	146.720000
514.614990	146.080000
514.708740	146.480000
514.802368	146.480000
514.896057	146.680000
514.989746	147.200000
515.083435	147.280000
515.177124	147.440000
515.270752	147.200000
515.364502	147.320000
515.458130	146.740000
515.551819	146.700000
515.645508	146.380000
515.739197	146.820000
515.832825	146.820000
515.926575	146.360000
516.020203	146.580000
516.113892	147.160000
516.207520	146.580000
516.301270	146.780000
516.394897	146.920000
516.488586	147.500000
516.582275	147.020000
516.675964	147.020000
516.769592	146.520000
516.863281	147.340000
516.956970	147.240000
517.050659	146.940000
517.144287	146.920000
517.238037	147.280000
517.331665	146.480000
517.425354	146.280000
517.519043	146.120000
517.612732	146.720000
517.706421	146.560000
517.800049	146.320000
517.893738	145.900000
517.987427	146.120000
518.081116	145.660000
518.174744	145.320000
518.268433	145.620000
518.362122	146.400000
518.455811	146.340000
518.549438	146.920000
518.643127	148.400000
518.736816	148.300000
518.830505	147.580000
518.924133	147.720000
519.017822	147.700000
519.111511	146.720000
519.205200	147.380000
519.298828	147.560000
519.392517	147.160000
519.486206	147.200000
519.579895	147.300000
519.673523	146.940000
519.767212	146.900000
519.860901	147.700000
519.954590	147.260000
520.048279	146.700000
520.141907	146.260000
520.235596	147.100000
520.329224	147.420000
520.422974	147.360000
520.516602	147.560000
520.610291	147.460000
520.703918	147.280000
520.797607	146.440000
520.891296	146.760000
520.984985	147.020000
521.078613	147.940000
521.172302	146.580000
521.265930	147.340000
521.359680	147.700000
521.453308	147.780000
521.546997	147.300000
521.640625	148.180000
521.734314	147.400000
521.827942	146.900000
521.921692	146.760000
522.015320	146.900000
522.109009	146.320000
522.202698	146.340000
522.296326	146.380000
522.390015	146.700000
522.483704	146.740000
522.577393	146.940000
522.671021	146.800000
522.764709	146.680000
522.858337	146.880000
522.952026	146.460000
523.045654	147.240000
523.139404	147.820000
523.233032	147.740000
523.326721	147.180000
523.420349	147.240000
523.514038	146.440000
523.607666	146.520000
523.701355	146.180000
523.795044	146.120000
523.888733	146.200000
523.982361	146.480000
524.076050	146.180000
524.169678	146.700000
524.263367	146.540000
524.356995	146.500000
524.450684	146.280000
524.544373	145.980000
524.638062	145.700000
524.731750	146.040000
524.825378	146.020000
524.919067	145.540000
525.012695	145.700000
525.106384	145.420000
525.200012	145.420000
525.293701	145.240000
525.387329	146.140000
525.481018	146.460000
525.574646	147.160000
525.668396	147.420000
525.762024	147.940000
525.855713	147.960000
525.949341	147.220000
526.043030	147.120000
526.136658	146.720000
526.230347	146.260000
526.323975	145.800000
526.417664	146.140000
526.511292	145.980000
526.604980	146.120000
526.698608	146.080000
526.792297	146.460000
526.885925	147.000000
526.979614	147.160000
527.073303	146.720000
527.166931	147.000000
527.260620	147.060000
527.354309	146.960000
527.447998	147.080000
527.541626	147.280000
527.635315	147.080000
527.728943	147.600000
527.822632	147.500000
527.916260	147.340000
528.009949	147.300000
528.103577	147.160000
528.197266	146.160000
528.290894	145.980000
528.384583	146.020000
528.478210	146.200000
528.571899	146.800000
528.665527	147.300000
528.759216	147.600000
528.852844	147.860000
528.946533	147.860000
529.040161	147.380000
529.133850	146.940000
529.227478	146.880000
529.321167	147.120000
529.414856	147.380000
529.508484	147.920000
529.602173	147.800000
529.695801	147.600000
529.789490	147.300000
529.883057	147.160000
529.976746	146.900000
530.070374	147.220000
530.164062	147.140000
530.257690	147.340000
530.351379	147.540000
530.445007	147.420000
530.538696	146.760000
530.632324	147.240000
530.726013	147.200000
530.819641	147.340000
530.913330	147.720000
531.006958	148.280000
531.100647	147.780000
531.194275	147.060000
531.287964	146.580000
531.381592	146.120000
531.475220	146.080000
531.568848	145.960000
531.662537	146.400000
531.756226	146.880000
531.849854	147.020000
531.943542	147.180000
532.037170	147.040000
532.130859	147.380000
532.224487	146.580000
532.318176	146.200000
532.411804	146.400000
532.505432	146.920000
532.599060	146.440000
532.692749	146.520000
532.786377	147.100000
532.880066	146.580000
532.973694	146.100000
533.067383	145.880000
533.161011	145.960000
533.254639	145.700000
533.348267	145.660000
533.441956	146.000000
533.535583	146.200000
533.629272	146.280000
533.722900	146.020000
533.816589	146.480000
533.910156	146.540000
534.003845	146.240000
534.097534	146.760000
534.191162	147.380000
534.284851	147.300000
534.378479	147.160000
534.472107	147.360000
534.565735	146.920000
534.659424	146.960000
534.753052	147.180000
534.846741	146.920000
534.940369	147.640000
535.033997	147.720000
535.127625	147.580000
535.221313	147.900000
535.314941	147.860000
535.408630	146.800000
535.502197	147.160000
535.595886	146.720000
535.689514	146.120000
535.783203	146.860000
535.876831	147.520000
535.970459	147.340000
536.064087	147.500000
536.157776	147.320000
536.251404	146.920000
536.345093	146.740000
536.438721	146.840000
536.532349	147.200000
536.626038	147.240000
536.719666	147.520000
536.813293	147.320000
536.906921	147.080000
537.000610	147.000000
537.094238	147.100000
537.187866	146.800000
537.281494	146.840000
537.375183	147.160000
537.468811	147.060000
537.562439	146.860000
537.656067	146.880000
537.749756	146.740000
537.843384	147.000000
537.937012	146.920000
538.030640	146.780000
538.124329	146.760000
538.217896	147.400000
538.311584	147.280000
538.405212	147.200000
538.498901	147.760000
538.592468	148.160000
538.686157	147.440000
538.779785	146.660000
538.873413	146.540000
538.967102	145.940000
539.060730	145.560000
539.154358	145.920000
539.247986	146.200000
539.341675	146.320000
539.435242	146.460000
539.528931	146.440000
539.622559	146.060000
539.716187	146.700000
539.809814	146.780000
539.903503	146.960000
539.997070	146.860000
540.090759	147.020000
540.184387	146.400000
540.278015	146.960000
540.371643	147.260000
540.465332	147.220000
540.558899	147.580000
540.652588	147.760000
540.746216	147.140000
540.839844	147.100000
540.933472	147.100000
541.027100	146.800000
541.120728	146.720000
541.214417	147.000000
541.308044	147.220000
541.401672	147.200000
541.495300	147.340000
541.588928	147.260000
541.682617	147.020000
541.776184	146.380000
541.869873	146.860000
541.963440	146.660000
542.057129	146.420000
542.150757	146.420000
542.244385	146.340000
542.338013	145.840000
542.431641	145.940000
542.525269	146.120000
542.618958	146.420000
542.712524	146.800000
542.806213	146.740000
542.899780	146.720000
542.993469	146.540000
543.087036	146.260000
543.180725	145.960000
543.274292	146.420000
543.367981	146.920000
543.461548	147.500000
543.555237	147.220000
543.648926	147.740000
543.742493	148.300000
543.836182	147.900000
543.929749	147.320000
544.023437	147.660000
544.117004	147.540000
544.210693	147.000000
544.304260	146.960000
544.397949	147.200000
544.491516	147.420000
544.585205	147.080000
544.678772	146.760000
544.772461	147.260000
544.866028	146.880000
544.959717	146.760000
545.053284	146.660000
545.146973	147.080000
545.240540	147.100000
545.334229	148.040000
545.427795	148.160000
545.521423	148.540000
545.615051	148.420000
545.708679	148.660000
545.802307	148.240000
545.895935	148.240000
545.989624	148.720000
546.083191	148.720000
546.176880	147.820000
546.270447	147.340000
546.364136	147.660000
546.457703	147.140000
546.551331	146.880000
546.644958	147.380000
546.738586	148.020000
546.832214	147.380000
546.925842	147.220000
547.019409	147.600000
547.113098	147.000000
547.206665	146.640000
547.300354	146.700000
547.393921	146.840000
547.487549	146.980000
547.581177	147.200000
547.674805	147.200000
547.768433	146.680000
547.862061	146.820000
547.955627	145.660000
548.049316	146.280000
548.142883	146.280000
548.236572	147.040000
548.330139	147.260000
548.423767	147.640000
548.517456	147.160000
548.611023	147.280000
548.704651	146.740000
548.798279	146.240000
548.891907	147.080000
548.985474	147.100000
549.079163	147.280000
549.172729	147.280000
549.266357	147.160000
549.359985	146.740000
549.453613	146.220000
549.547180	145.820000
549.640869	146.040000
549.734436	145.720000
549.828064	146.120000
549.921631	146.300000
550.015320	145.880000
550.108887	146.280000
550.202515	146.640000
550.296143	146.140000
550.389771	146.560000
550.483337	147.060000
550.576965	146.740000
550.670593	146.840000
550.764221	146.780000
550.857849	146.240000
550.951477	145.780000
551.045105	145.380000
551.138672	145.600000
551.232300	145.280000
551.325928	145.620000
551.419556	146.400000
551.513123	146.660000
551.606750	146.220000
551.700378	146.700000
551.794006	146.760000
551.887573	146.560000
551.981201	146.940000
552.074768	147.060000
552.168457	146.660000
552.262024	147.440000
552.355652	147.260000
552.449219	147.460000
552.542847	147.740000
552.636475	147.620000
552.730103	146.540000
552.823669	146.640000
552.917297	146.080000
553.010864	145.920000
553.104553	146.120000
553.198181	145.900000
553.291748	146.120000
553.385376	146.220000
553.478943	145.900000
553.572571	146.060000
553.666199	146.600000
553.759827	146.180000
553.853394	145.660000
553.947021	146.120000
554.040588	146.280000
554.134216	146.180000
554.227783	146.960000
554.321411	147.720000
554.415039	147.240000
554.508667	146.960000
554.602234	147.060000
554.695862	146.360000
554.789429	146.280000
554.883057	146.400000
554.976624	146.340000
555.070251	146.040000
555.163818	145.900000
555.257507	145.660000
555.351074	145.700000
555.444702	146.960000
555.538330	146.700000
555.631897	147.400000
555.725525	147.280000
555.819092	147.240000
555.912720	146.020000
556.006287	146.860000
556.099915	146.060000
556.193481	146.340000
556.287109	146.700000
556.380676	146.400000
556.474304	146.200000
556.567871	146.860000
556.661499	146.100000
556.755066	145.980000
556.848694	146.500000
556.942261	146.420000
557.035889	146.100000
557.129517	146.480000
557.223145	146.380000
557.316711	146.220000
557.410339	146.080000
557.503906	145.660000
557.597473	146.020000
557.691040	146.180000
557.784668	146.080000
557.878296	146.260000
557.971863	146.600000
558.065491	146.600000
558.159058	145.960000
558.252686	147.000000
558.346252	147.340000
558.439880	146.780000
558.533447	146.600000
558.627075	146.560000
558.720642	145.640000
558.814270	145.400000
558.907837	145.840000
559.001465	145.620000
559.095032	146.500000
559.188660	146.640000
559.282227	146.120000
559.375854	146.580000
559.469360	146.280000
559.562988	146.360000
559.656555	146.220000
559.750183	146.520000
559.843750	146.300000
559.937378	146.860000
560.030945	146.280000
560.124573	0.000000
560.218140	0.000000
560.311707	0.000000
560.405334	0.000000
560.498901	0.000000
560.592529	0.000000
560.686096	0.000000
560.779724	0.000000
560.873291	0.000000
560.966858	0.000000
561.060425	0.000000
561.154053	0.000000
561.247620	0.000000
561.341248	0.000000
561.434814	0.000000
561.528381	0.000000
561.621948	0.000000
561.715576	0.000000
561.809143	0.000000
561.902771	0.000000
561.996277	0.000000
562.089905	0.000000
562.183472	0.000000
562.277100	0.000000
