Model Number: SPM-002-B   
Serial Number: 70087108
Firmware Version: 004.15.4
Exposure Time: 100000.000000us
Data Taken on: 11-12-2020 19:38:37.271
Wavelength	Amplitude
221.570786	0.000000
221.663406	0.000000
221.756027	0.000000
221.848648	0.000000
221.941269	0.000000
222.033905	0.000000
222.126526	0.000000
222.219162	0.000000
222.311798	0.000000
222.404419	0.000000
222.497055	0.000000
222.589676	0.000000
222.682312	0.000000
222.774933	0.000000
222.867569	0.000000
222.960205	0.000000
223.052841	0.000000
223.145462	0.000000
223.238098	0.000000
223.330734	0.000000
223.423386	0.000000
223.516022	0.000000
223.608658	0.000000
223.701309	0.000000
223.793945	0.000000
223.886581	0.000000
223.979218	0.000000
224.071869	0.000000
224.164505	0.000000
224.257156	0.000000
224.349792	0.000000
224.442444	0.000000
224.535095	0.000000
224.627747	0.000000
224.720398	0.000000
224.813034	0.000000
224.905685	0.000000
224.998337	145.980000
225.090988	145.660000
225.183640	145.580000
225.276291	145.600000
225.368942	146.120000
225.461594	146.640000
225.554245	146.780000
225.646912	146.860000
225.739578	147.260000
225.832230	147.260000
225.924896	146.480000
226.017548	146.980000
226.110199	147.400000
226.202866	146.640000
226.295532	146.520000
226.388184	146.740000
226.480850	145.900000
226.573517	145.460000
226.666168	145.620000
226.758835	145.820000
226.851501	146.400000
226.944183	146.880000
227.036850	146.300000
227.129517	146.220000
227.222183	146.200000
227.314850	145.960000
227.407516	146.060000
227.500198	146.960000
227.592865	147.000000
227.685532	146.740000
227.778214	146.260000
227.870880	146.340000
227.963562	146.340000
228.056229	147.020000
228.148926	147.080000
228.241592	148.120000
228.334274	147.900000
228.426956	147.840000
228.519638	147.380000
228.612305	147.040000
228.704987	146.640000
228.797668	146.780000
228.890350	146.520000
228.983032	145.980000
229.075714	146.940000
229.168396	146.660000
229.261108	146.200000
229.353790	146.260000
229.446472	146.860000
229.539169	146.540000
229.631851	146.280000
229.724533	146.500000
229.817230	146.460000
229.909912	147.260000
230.002609	147.220000
230.095306	147.060000
230.187988	147.120000
230.280685	146.940000
230.373383	145.720000
230.466095	145.140000
230.558792	145.700000
230.651474	145.860000
230.744171	145.880000
230.836868	145.800000
230.929581	146.460000
231.022278	146.300000
231.114975	146.120000
231.207672	146.180000
231.300369	146.780000
231.393082	146.540000
231.485779	146.200000
231.578506	146.340000
231.671204	146.380000
231.763916	146.200000
231.856613	146.100000
231.949326	146.320000
232.042023	146.040000
232.134735	145.840000
232.227448	145.560000
232.320160	145.980000
232.412872	145.960000
232.505585	146.860000
232.598297	147.500000
232.691010	147.320000
232.783722	146.700000
232.876450	147.240000
232.969162	146.500000
233.061874	145.720000
233.154587	145.600000
233.247314	146.020000
233.340027	145.080000
233.432739	145.320000
233.525467	145.580000
233.618179	145.780000
233.710907	145.660000
233.803635	146.700000
233.896347	146.260000
233.989090	146.900000
234.081818	147.120000
234.174545	147.060000
234.267258	146.180000
234.359985	146.720000
234.452713	146.180000
234.545441	146.180000
234.638168	146.100000
234.730896	146.540000
234.823639	146.540000
234.916367	147.140000
235.009094	147.140000
235.101822	147.120000
235.194580	147.120000
235.287308	147.080000
235.380051	146.260000
235.472778	146.500000
235.565521	146.900000
235.658249	146.740000
235.750992	146.780000
235.843719	146.780000
235.936462	147.120000
236.029205	146.640000
236.121948	146.260000
236.214691	146.720000
236.307449	147.580000
236.400192	146.800000
236.492935	146.800000
236.585678	147.220000
236.678421	146.720000
236.771164	146.280000
236.863907	146.940000
236.956665	147.240000
237.049408	149.060000
237.142151	148.640000
237.234909	149.160000
237.327652	148.640000
237.420410	148.220000
237.513153	146.620000
237.605927	146.620000
237.698669	145.960000
237.791428	145.940000
237.884186	146.400000
237.976944	145.920000
238.069702	146.260000
238.162445	145.820000
238.255203	145.540000
238.347961	145.860000
238.440720	146.100000
238.533478	146.060000
238.626266	145.900000
238.719025	146.440000
238.811783	146.160000
238.904541	146.000000
238.997314	145.800000
239.090073	146.080000
239.182831	146.160000
239.275604	146.860000
239.368362	146.860000
239.461136	147.140000
239.553909	147.400000
239.646667	147.140000
239.739441	146.360000
239.832214	146.620000
239.925003	146.700000
240.017761	147.000000
240.110535	147.520000
240.203308	147.140000
240.296082	147.080000
240.388855	146.860000
240.481628	146.900000
240.574417	146.840000
240.667191	147.320000
240.759964	147.100000
240.852737	147.080000
240.945526	146.720000
241.038315	146.340000
241.131088	146.400000
241.223877	146.580000
241.316650	146.300000
241.409439	146.640000
241.502228	146.320000
241.595001	146.720000
241.687790	146.420000
241.780579	146.720000
241.873367	146.600000
241.966141	147.200000
242.058929	146.220000
242.151718	146.460000
242.244507	146.560000
242.337311	145.820000
242.430099	146.100000
242.522903	146.700000
242.615692	146.340000
242.708481	146.360000
242.801270	147.060000
242.894073	146.540000
242.986862	146.600000
243.079651	147.120000
243.172455	146.840000
243.265244	146.680000
243.358063	146.120000
243.450867	146.180000
243.543655	146.180000
243.636459	146.120000
243.729263	146.460000
243.822067	147.120000
243.914856	147.300000
244.007660	147.460000
244.100464	147.760000
244.193268	147.200000
244.286072	147.160000
244.378876	146.620000
244.471680	146.200000
244.564499	146.400000
244.657318	147.200000
244.750122	147.160000
244.842926	146.840000
244.935745	147.080000
245.028549	146.540000
245.121368	146.120000
245.214172	146.040000
245.306992	146.640000
245.399796	146.560000
245.492615	146.980000
245.585434	146.620000
245.678253	146.740000
245.771072	146.280000
245.863892	146.660000
245.956711	146.720000
246.049530	146.720000
246.142349	146.320000
246.235168	146.580000
246.327988	146.960000
246.420807	146.700000
246.513626	146.960000
246.606445	147.040000
246.699280	146.800000
246.792099	146.340000
246.884918	146.180000
246.977753	146.040000
247.070587	146.440000
247.163422	146.600000
247.256241	146.400000
247.349075	146.700000
247.441895	146.720000
247.534729	146.540000
247.627563	146.240000
247.720383	146.700000
247.813217	146.440000
247.906052	146.440000
247.998886	146.480000
248.091736	146.300000
248.184570	145.700000
248.277405	145.740000
248.370239	146.440000
248.463074	147.340000
248.555908	148.220000
248.648743	148.160000
248.741592	148.280000
248.834427	147.440000
248.927261	145.880000
249.020111	146.060000
249.112946	146.920000
249.205795	146.820000
249.298630	147.020000
249.391495	147.440000
249.484344	146.580000
249.577179	146.260000
249.670029	146.380000
249.762878	146.800000
249.855728	147.120000
249.948563	147.340000
250.041412	147.000000
250.134262	147.220000
250.227112	147.180000
250.319962	147.120000
250.412827	147.240000
250.505692	146.800000
250.598541	146.560000
250.691391	146.140000
250.784241	146.080000
250.877106	146.200000
250.969955	146.500000
251.062805	147.100000
251.155670	147.700000
251.248520	147.680000
251.341385	147.620000
251.434235	147.500000
251.527100	146.880000
251.619965	146.420000
251.712814	147.120000
251.805695	147.280000
251.898560	147.600000
251.991425	147.980000
252.084290	148.120000
252.177155	147.140000
252.270020	146.620000
252.362885	146.260000
252.455750	146.060000
252.548615	145.760000
252.641479	145.860000
252.734360	146.160000
252.827240	146.340000
252.920105	146.300000
253.012970	146.280000
253.105850	146.240000
253.198715	145.960000
253.291595	145.620000
253.384460	145.280000
253.477341	145.240000
253.570221	145.480000
253.663086	145.400000
253.755966	146.360000
253.848846	146.480000
253.941727	146.760000
254.034592	146.760000
254.127472	146.540000
254.220367	146.480000
254.313248	146.680000
254.406128	146.480000
254.499008	146.600000
254.591904	147.580000
254.684784	147.720000
254.777664	147.760000
254.870544	147.420000
254.963440	147.220000
255.056335	147.040000
255.149216	146.480000
255.242111	146.560000
255.334991	146.920000
255.427887	147.160000
255.520767	146.980000
255.613663	147.100000
255.706558	146.780000
255.799438	146.560000
255.892334	145.940000
255.985229	146.020000
256.078125	146.120000
256.171021	146.440000
256.263916	146.860000
256.356812	147.420000
256.449707	147.560000
256.542603	147.140000
256.635498	147.360000
256.728394	147.360000
256.821289	147.160000
256.914215	147.180000
257.007080	147.480000
257.100006	147.500000
257.192932	147.520000
257.285828	147.980000
257.378723	147.600000
257.471619	147.320000
257.564545	146.780000
257.657440	146.700000
257.750336	146.620000
257.843262	146.360000
257.936157	147.520000
258.029053	147.840000
258.121979	148.020000
258.214874	147.620000
258.307800	147.760000
258.400696	146.620000
258.493622	146.460000
258.586517	145.680000
258.679443	146.180000
258.772339	145.920000
258.865265	145.820000
258.958160	145.280000
259.051086	146.360000
259.144012	146.080000
259.236938	147.060000
259.329834	147.300000
259.422791	147.380000
259.515717	146.600000
259.608612	146.160000
259.701538	145.660000
259.794464	145.720000
259.887390	145.900000
259.980316	145.960000
260.073212	145.920000
260.166138	145.240000
260.259064	145.340000
260.351990	145.940000
260.444916	145.940000
260.537842	146.400000
260.630768	147.120000
260.723694	146.960000
260.816620	146.720000
260.909546	146.920000
261.002472	146.480000
261.095398	146.000000
261.188354	145.800000
261.281281	145.220000
261.374207	145.200000
261.467133	145.900000
261.560089	146.340000
261.653015	146.340000
261.745972	147.180000
261.838867	147.540000
261.931824	147.660000
262.024780	146.900000
262.117706	147.360000
262.210663	147.180000
262.303589	146.740000
262.396515	146.780000
262.489471	148.080000
262.582397	147.600000
262.675354	147.120000
262.768280	147.100000
262.861237	146.760000
262.954163	146.200000
263.047119	146.480000
263.140045	146.560000
263.233002	146.660000
263.325958	146.460000
263.418884	146.060000
263.511841	146.060000
263.604797	145.900000
263.697723	145.900000
263.790680	145.960000
263.883636	146.480000
263.976593	146.220000
264.069550	146.800000
264.162476	146.660000
264.255463	146.660000
264.348419	146.640000
264.441376	146.980000
264.534332	146.640000
264.627289	146.820000
264.720245	147.560000
264.813202	147.040000
264.906158	147.200000
264.999115	147.300000
265.092072	147.100000
265.185028	147.080000
265.277985	147.660000
265.370941	147.720000
265.463898	147.880000
265.556854	147.820000
265.649811	146.860000
265.742798	146.560000
265.835754	146.200000
265.928711	146.340000
266.021667	146.400000
266.114655	146.840000
266.207611	147.340000
266.300568	147.100000
266.393585	146.700000
266.486511	146.820000
266.579498	145.880000
266.672485	145.500000
266.765442	145.500000
266.858429	145.940000
266.951385	145.600000
267.044342	146.240000
267.137329	146.360000
267.230316	146.740000
267.323273	146.020000
267.416260	146.980000
267.509216	146.880000
267.602203	146.620000
267.695160	146.920000
267.788147	147.360000
267.881134	146.480000
267.974091	146.700000
268.067078	146.720000
268.160065	146.280000
268.253052	145.860000
268.346008	146.120000
268.438995	145.960000
268.531982	145.900000
268.624969	145.520000
268.717987	146.220000
268.810944	146.120000
268.903961	146.420000
268.996948	146.080000
269.089905	146.660000
269.182892	146.320000
269.275879	146.520000
269.368866	145.920000
269.461853	146.360000
269.554871	146.240000
269.647858	146.440000
269.740845	146.720000
269.833832	147.020000
269.926819	146.840000
270.019806	147.180000
270.112793	146.620000
270.205811	146.620000
270.298798	146.540000
270.391785	147.120000
270.484772	146.380000
270.577789	146.780000
270.670776	146.440000
270.763763	146.340000
270.856750	146.020000
270.949768	145.820000
271.042786	145.800000
271.135773	145.880000
271.228790	146.500000
271.321808	146.220000
271.414795	146.060000
271.507782	145.540000
271.600800	145.200000
271.693817	145.000000
271.786804	145.280000
271.879822	145.740000
271.972809	146.000000
272.065826	146.340000
272.158844	145.860000
272.251831	146.440000
272.344849	146.540000
272.437866	146.480000
272.530853	146.560000
272.623871	146.920000
272.716888	145.740000
272.809906	145.920000
272.902893	146.160000
272.995911	145.840000
273.088928	146.060000
273.181946	146.760000
273.274963	146.500000
273.367981	146.440000
273.460999	146.260000
273.554047	146.440000
273.647003	146.740000
273.740051	146.740000
273.833069	147.120000
273.926086	147.440000
274.019135	146.760000
274.112152	146.400000
274.205170	146.600000
274.298187	146.440000
274.391205	146.240000
274.484222	146.420000
274.577240	146.400000
274.670258	146.380000
274.763306	146.360000
274.856323	146.700000
274.949341	146.880000
275.042358	147.220000
275.135406	147.000000
275.228424	147.020000
275.321442	146.820000
275.414490	146.620000
275.507507	146.840000
275.600525	147.460000
275.693573	147.340000
275.786591	147.080000
275.879669	147.160000
275.972656	146.560000
276.065735	146.420000
276.158752	147.000000
276.251801	147.720000
276.344818	147.860000
276.437866	148.020000
276.530884	147.720000
276.623932	146.500000
276.716980	146.240000
276.809998	146.180000
276.903046	146.440000
276.996094	147.200000
277.089111	148.180000
277.182159	148.680000
277.275208	148.520000
277.368256	148.200000
277.461304	147.620000
277.554321	146.760000
277.647369	146.500000
277.740417	146.440000
277.833466	146.080000
277.926514	146.040000
278.019562	146.940000
278.112610	146.180000
278.205688	146.180000
278.298706	146.560000
278.391785	146.340000
278.484833	145.480000
278.577881	145.780000
278.670929	146.080000
278.763977	146.200000
278.857025	146.500000
278.950073	146.900000
279.043121	146.800000
279.136169	146.840000
279.229248	146.360000
279.322296	146.300000
279.415344	146.100000
279.508392	145.820000
279.601440	145.560000
279.694519	145.840000
279.787567	145.780000
279.880615	145.860000
279.973694	146.020000
280.066742	145.920000
280.159790	145.740000
280.252869	145.260000
280.345917	145.260000
280.438995	145.240000
280.532074	145.400000
280.625122	146.080000
280.718201	146.840000
280.811279	147.060000
280.904327	147.260000
280.997406	147.520000
281.090454	147.100000
281.183533	146.720000
281.276581	146.540000
281.369659	146.480000
281.462738	146.360000
281.555786	146.440000
281.648865	146.480000
281.741943	146.340000
281.835022	146.940000
281.928070	146.440000
282.021149	146.200000
282.114227	146.100000
282.207306	146.500000
282.300385	146.700000
282.393433	147.180000
282.486511	147.360000
282.579590	147.920000
282.672668	148.060000
282.765747	147.420000
282.858856	147.000000
282.951904	147.060000
283.045013	146.920000
283.138062	147.060000
283.231171	147.140000
283.324249	147.560000
283.417328	147.660000
283.510406	146.980000
283.603485	146.640000
283.696564	146.480000
283.789642	146.700000
283.882751	146.380000
283.975830	147.200000
284.068909	146.820000
284.161987	147.260000
284.255066	146.620000
284.348175	147.020000
284.441254	146.620000
284.534332	147.180000
284.627441	146.700000
284.720520	146.380000
284.813599	146.000000
284.906708	146.140000
284.999786	145.300000
285.092896	145.040000
285.185974	146.220000
285.279053	146.240000
285.372192	146.300000
285.465240	147.060000
285.558380	147.360000
285.651459	146.620000
285.744568	147.380000
285.837677	146.960000
285.930756	146.840000
286.023865	146.960000
286.116943	147.160000
286.210052	146.820000
286.303162	146.880000
286.396240	146.840000
286.489349	146.360000
286.582458	146.380000
286.675568	146.120000
286.768646	146.400000
286.861755	146.700000
286.954865	147.740000
287.047974	147.320000
287.141083	146.760000
287.234161	146.300000
287.327271	145.960000
287.420380	145.680000
287.513519	145.900000
287.606598	146.320000
287.699738	146.660000
287.792816	146.540000
287.885956	146.520000
287.979034	146.520000
288.072174	146.820000
288.165283	146.700000
288.258392	146.880000
288.351501	146.200000
288.444611	146.580000
288.537720	146.720000
288.630859	146.800000
288.723969	147.260000
288.817078	147.540000
288.910187	147.320000
289.003296	146.900000
289.096436	146.340000
289.189545	145.760000
289.282654	145.600000
289.375763	145.960000
289.468903	146.080000
289.562012	146.780000
289.655121	147.020000
289.748260	147.260000
289.841400	147.480000
289.934509	147.300000
290.027649	147.180000
290.120728	146.680000
290.213898	146.660000
290.306976	146.040000
290.400146	146.440000
290.493256	145.960000
290.586395	146.540000
290.679535	146.980000
290.772644	146.720000
290.865784	145.760000
290.958893	145.680000
291.052032	145.380000
291.145172	145.120000
291.238281	145.180000
291.331421	145.500000
291.424561	146.160000
291.517670	145.780000
291.610809	145.760000
291.703949	145.840000
291.797089	146.160000
291.890228	145.700000
291.983337	145.860000
292.076477	145.780000
292.169617	146.040000
292.262756	146.240000
292.355927	146.360000
292.449036	146.040000
292.542206	146.220000
292.635315	146.280000
292.728485	146.480000
292.821625	146.220000
292.914764	147.520000
293.007904	147.240000
293.101044	147.060000
293.194183	146.580000
293.287323	146.840000
293.380463	146.440000
293.473602	146.300000
293.566742	146.600000
293.659882	146.920000
293.753021	147.240000
293.846191	146.940000
293.939331	146.840000
294.032471	146.440000
294.125610	146.360000
294.218781	146.480000
294.311920	147.000000
294.405060	147.220000
294.498230	147.280000
294.591370	147.040000
294.684540	146.420000
294.777679	145.680000
294.870850	146.240000
294.963959	146.300000
295.057159	146.500000
295.150299	147.060000
295.243469	146.980000
295.336609	146.020000
295.429779	145.980000
295.522919	145.860000
295.616089	145.900000
295.709229	146.880000
295.802399	147.320000
295.895569	147.060000
295.988708	147.020000
296.081879	147.020000
296.175018	146.060000
296.268188	145.880000
296.361359	146.700000
296.454529	146.980000
296.547668	146.700000
296.640839	147.040000
296.734009	146.840000
296.827179	146.540000
296.920319	146.740000
297.013519	146.720000
297.106659	146.920000
297.199860	147.300000
297.292999	147.220000
297.386200	146.640000
297.479309	146.480000
297.572510	146.240000
297.665680	146.260000
297.758850	146.180000
297.852020	145.960000
297.945190	146.160000
298.038361	145.940000
298.131531	146.740000
298.224701	146.740000
298.317871	146.600000
298.411072	145.880000
298.504242	145.840000
298.597412	145.120000
298.690582	145.200000
298.783752	145.480000
298.876923	146.260000
298.970093	146.140000
299.063293	146.280000
299.156464	146.360000
299.249634	146.500000
299.342834	146.620000
299.436005	147.100000
299.529205	146.980000
299.622345	146.940000
299.715576	146.500000
299.808716	146.520000
299.901917	146.520000
299.995117	146.660000
300.088287	146.960000
300.181488	147.040000
300.274658	146.420000
300.367828	146.580000
300.461029	146.520000
300.554199	146.780000
300.647400	146.760000
300.740601	147.620000
300.833771	147.140000
300.926971	147.220000
301.020142	146.280000
301.113342	146.520000
301.206512	146.140000
301.299713	146.480000
301.392914	146.340000
301.486084	146.880000
301.579285	146.820000
301.672516	147.060000
301.765686	146.620000
301.858887	146.620000
301.952057	146.420000
302.045288	146.660000
302.138458	146.700000
302.231659	146.760000
302.324860	146.620000
302.418060	146.420000
302.511261	146.160000
302.604462	146.240000
302.697662	146.340000
302.790863	146.380000
302.884064	146.140000
302.977264	146.240000
303.070465	145.880000
303.163666	146.460000
303.256866	146.740000
303.350067	147.120000
303.443268	147.200000
303.536469	147.560000
303.629669	146.920000
303.722870	146.840000
303.816071	146.640000
303.909271	146.440000
304.002472	145.700000
304.095673	145.800000
304.188934	144.920000
304.282104	145.600000
304.375336	145.900000
304.468506	145.940000
304.561768	145.780000
304.654968	146.840000
304.748169	146.400000
304.841370	146.140000
304.934601	146.780000
305.027802	146.620000
305.121002	146.100000
305.214233	146.160000
305.307434	146.300000
305.400665	146.480000
305.493866	146.600000
305.587097	146.600000
305.680298	146.460000
305.773499	147.100000
305.866730	146.540000
305.959930	147.020000
306.053162	147.480000
306.146393	147.020000
306.239594	145.980000
306.332825	146.140000
306.426025	146.300000
306.519287	145.620000
306.612488	145.960000
306.705719	146.180000
306.798920	146.120000
306.892181	145.480000
306.985352	145.280000
307.078613	145.080000
307.171844	145.580000
307.265045	144.820000
307.358276	144.860000
307.451508	145.700000
307.544739	146.380000
307.637970	145.700000
307.731201	146.060000
307.824402	146.700000
307.917633	146.980000
308.010864	147.140000
308.104095	147.840000
308.197327	148.260000
308.290558	148.060000
308.383789	147.040000
308.477020	146.280000
308.570251	145.400000
308.663483	144.800000
308.756714	144.520000
308.849976	144.920000
308.943176	145.560000
309.036438	145.760000
309.129639	145.860000
309.222900	145.880000
309.316101	145.840000
309.409393	145.340000
309.502625	145.300000
309.595856	145.680000
309.689087	145.840000
309.782318	145.900000
309.875580	146.040000
309.968811	146.320000
310.062042	146.160000
310.155273	146.200000
310.248535	146.720000
310.341766	146.580000
310.434998	146.600000
310.528259	146.680000
310.621490	146.640000
310.714722	145.820000
310.807983	145.840000
310.901215	145.540000
310.994476	145.700000
311.087708	145.560000
311.181000	146.040000
311.274200	145.980000
311.367462	146.220000
311.460693	145.700000
311.553986	146.160000
311.647186	146.380000
311.740479	146.940000
311.833710	146.800000
311.926971	147.140000
312.020203	146.540000
312.113464	146.100000
312.206726	145.580000
312.299957	146.080000
312.393219	146.860000
312.486481	147.000000
312.579712	147.040000
312.672974	147.120000
312.766235	146.780000
312.859497	146.080000
312.952759	145.940000
313.045990	146.720000
313.139252	146.320000
313.232513	146.660000
313.325775	146.760000
313.419037	146.680000
313.512299	145.480000
313.605530	146.280000
313.698822	146.020000
313.792053	146.220000
313.885345	146.100000
313.978577	146.460000
314.071869	145.760000
314.165131	145.960000
314.258392	146.100000
314.351654	146.260000
314.444916	145.900000
314.538177	146.400000
314.631439	146.440000
314.724701	146.160000
314.817993	146.060000
314.911255	146.400000
315.004517	145.880000
315.097778	145.620000
315.191040	145.900000
315.284302	146.260000
315.377594	146.080000
315.470856	146.200000
315.564117	145.720000
315.657379	145.360000
315.750671	144.860000
315.843933	145.340000
315.937195	145.080000
316.030518	145.380000
316.123749	145.440000
316.217041	146.460000
316.310303	146.360000
316.403595	146.760000
316.496857	147.220000
316.590149	147.340000
316.683411	146.440000
316.776703	146.200000
316.869965	146.240000
316.963257	145.920000
317.056519	145.060000
317.149811	145.320000
317.243073	145.500000
317.336365	145.560000
317.429626	146.080000
317.522919	147.000000
317.616180	146.860000
317.709473	146.480000
317.802765	146.500000
317.896027	145.960000
317.989319	146.140000
318.082611	146.300000
318.175873	146.360000
318.269165	146.320000
318.362488	146.400000
318.455750	146.040000
318.549042	146.300000
318.642303	146.860000
318.735626	146.900000
318.828888	147.020000
318.922211	146.840000
319.015472	147.140000
319.108765	146.540000
319.202057	146.180000
319.295349	145.980000
319.388641	145.840000
319.481934	145.500000
319.575226	145.620000
319.668518	146.160000
319.761810	146.480000
319.855103	146.580000
319.948395	146.640000
320.041687	146.840000
320.134979	146.680000
320.228271	146.540000
320.321564	146.360000
320.414856	146.160000
320.508148	145.680000
320.601440	145.640000
320.694763	145.400000
320.788025	146.140000
320.881348	146.120000
320.974640	146.340000
321.067963	146.040000
321.161224	146.300000
321.254547	145.660000
321.347839	146.340000
321.441162	146.080000
321.534454	146.060000
321.627747	145.740000
321.721069	146.620000
321.814362	146.080000
321.907654	146.420000
322.000946	146.520000
322.094269	147.120000
322.187561	146.240000
322.280884	146.720000
322.374176	146.740000
322.467468	147.200000
322.560791	147.220000
322.654083	147.560000
322.747406	147.360000
322.840698	147.720000
322.934021	147.820000
323.027344	147.780000
323.120636	147.720000
323.213959	147.500000
323.307251	146.900000
323.400574	146.480000
323.493866	145.880000
323.587219	146.040000
323.680511	146.280000
323.773834	146.480000
323.867157	146.640000
323.960449	146.780000
324.053772	146.620000
324.147095	146.120000
324.240387	146.680000
324.333710	146.540000
324.427032	146.980000
324.520355	147.020000
324.613647	146.660000
324.706970	146.260000
324.800293	146.140000
324.893616	146.100000
324.986938	146.620000
325.080231	146.900000
325.173553	147.260000
325.266876	147.860000
325.360199	147.780000
325.453522	146.880000
325.546875	146.880000
325.640167	146.920000
325.733521	146.940000
325.826813	147.200000
325.920166	147.240000
326.013489	147.140000
326.106812	146.240000
326.200134	145.680000
326.293457	145.020000
326.386780	145.340000
326.480103	145.460000
326.573425	145.800000
326.666748	145.620000
326.760071	146.080000
326.853424	146.060000
326.946747	146.440000
327.040070	147.220000
327.133392	147.380000
327.226715	146.720000
327.320068	146.480000
327.413391	146.660000
327.506714	145.460000
327.600037	145.560000
327.693390	145.860000
327.786713	146.060000
327.880066	145.740000
327.973358	146.420000
328.066742	146.780000
328.160034	146.980000
328.253418	147.220000
328.346710	146.940000
328.440063	146.640000
328.533417	146.000000
328.626740	146.320000
328.720093	145.860000
328.813416	145.860000
328.906769	146.000000
329.000092	146.460000
329.093445	146.060000
329.186768	145.900000
329.280121	146.220000
329.373444	146.660000
329.466797	146.720000
329.560120	146.780000
329.653473	147.060000
329.746796	146.760000
329.840149	146.640000
329.933502	146.500000
330.026825	146.700000
330.120178	146.680000
330.213562	146.920000
330.306854	146.520000
330.400238	146.580000
330.493561	146.220000
330.586945	146.860000
330.680237	147.080000
330.773621	147.120000
330.866974	147.080000
330.960327	147.560000
331.053680	146.920000
331.147003	146.800000
331.240356	147.280000
331.333710	147.240000
331.427063	146.640000
331.520416	146.780000
331.613770	146.840000
331.707123	146.660000
331.800476	146.820000
331.893829	147.860000
331.987152	147.940000
332.080505	147.580000
332.173859	147.300000
332.267212	146.640000
332.360565	145.780000
332.453918	145.380000
332.547333	145.260000
332.640656	145.440000
332.734039	145.980000
332.827362	145.820000
332.920746	146.300000
333.014069	146.540000
333.107452	146.920000
333.200806	147.000000
333.294159	147.260000
333.387543	146.580000
333.480896	146.380000
333.574249	145.940000
333.667603	145.780000
333.760956	145.960000
333.854340	146.260000
333.947693	146.520000
334.041046	146.540000
334.134430	146.620000
334.227783	146.300000
334.321136	146.200000
334.414520	145.660000
334.507874	145.820000
334.601227	145.940000
334.694611	145.980000
334.787964	146.240000
334.881348	146.780000
334.974701	146.720000
335.068085	146.360000
335.161438	146.540000
335.254822	146.360000
335.348175	146.160000
335.441559	145.660000
335.534943	146.280000
335.628296	145.920000
335.721680	146.140000
335.815033	146.560000
335.908417	147.120000
336.001770	146.560000
336.095154	146.800000
336.188538	146.260000
336.281891	145.740000
336.375275	145.060000
336.468658	144.940000
336.562012	144.580000
336.655396	145.320000
336.748779	145.920000
336.842133	146.260000
336.935516	146.700000
337.028900	146.920000
337.122284	146.740000
337.215637	146.460000
337.309021	146.420000
337.402435	145.820000
337.495789	145.480000
337.589203	145.440000
337.682526	145.060000
337.775940	145.360000
337.869324	145.660000
337.962708	145.720000
338.056091	145.960000
338.149475	145.820000
338.242859	145.980000
338.336243	146.000000
338.429626	146.340000
338.523010	146.240000
338.616394	146.320000
338.709778	146.240000
338.803162	146.320000
338.896545	146.360000
338.989929	145.760000
339.083313	146.080000
339.176697	145.720000
339.270081	145.760000
339.363464	146.140000
339.456848	146.620000
339.550232	146.140000
339.643616	146.040000
339.737030	145.900000
339.830383	145.580000
339.923828	145.600000
340.017181	145.980000
340.110596	146.280000
340.203949	146.220000
340.297363	145.880000
340.390778	145.800000
340.484161	145.860000
340.577545	145.680000
340.670959	145.860000
340.764343	145.860000
340.857727	145.940000
340.951111	145.340000
341.044525	145.680000
341.137909	145.140000
341.231293	145.280000
341.324707	144.820000
341.418091	145.980000
341.511505	145.600000
341.604889	146.100000
341.698303	146.260000
341.791687	146.580000
341.885071	145.800000
341.978485	145.480000
342.071899	145.720000
342.165283	145.840000
342.258698	146.040000
342.352081	146.580000
342.445496	147.600000
342.538879	147.360000
342.632324	147.060000
342.725708	146.940000
342.819122	146.240000
342.912506	145.840000
343.005920	145.740000
343.099335	146.560000
343.192719	146.640000
343.286133	146.820000
343.379547	146.840000
343.472931	146.980000
343.566345	146.020000
343.659760	146.200000
343.753143	146.300000
343.846558	145.980000
343.939972	145.880000
344.033386	146.820000
344.126770	146.440000
344.220184	146.320000
344.313599	146.880000
344.407043	146.920000
344.500427	146.200000
344.593872	146.760000
344.687225	146.420000
344.780670	145.780000
344.874054	145.660000
344.967499	146.060000
345.060913	145.900000
345.154327	146.360000
345.247742	146.340000
345.341156	145.980000
345.434570	145.700000
345.527985	145.600000
345.621399	145.640000
345.714813	145.900000
345.808228	146.380000
345.901642	146.140000
345.995056	145.920000
346.088470	145.760000
346.181885	145.720000
346.275299	145.440000
346.368713	145.540000
346.462128	145.140000
346.555573	145.320000
346.648987	145.400000
346.742401	145.440000
346.835815	145.980000
346.929260	146.160000
347.022644	146.040000
347.116119	146.160000
347.209503	146.380000
347.302948	146.820000
347.396362	147.680000
347.489807	147.920000
347.583221	148.240000
347.676636	148.060000
347.770050	146.880000
347.863495	145.980000
347.956909	146.020000
348.050323	145.360000
348.143768	145.560000
348.237183	145.760000
348.330597	146.680000
348.424042	147.020000
348.517456	147.400000
348.610901	147.660000
348.704315	147.480000
348.797760	146.600000
348.891174	145.680000
348.984619	145.120000
349.078033	145.180000
349.171448	145.900000
349.264923	145.820000
349.358337	146.340000
349.451782	146.640000
349.545197	145.820000
349.638641	145.100000
349.732086	145.020000
349.825500	145.320000
349.918945	145.160000
350.012390	145.760000
350.105804	146.480000
350.199249	146.680000
350.292664	147.020000
350.386108	147.080000
350.479553	147.320000
350.572968	147.000000
350.666412	147.140000
350.759857	146.620000
350.853302	147.240000
350.946716	146.700000
351.040161	146.920000
351.133606	146.820000
351.227081	146.800000
351.320465	147.060000
351.413940	147.380000
351.507355	147.060000
351.600830	147.360000
351.694244	147.040000
351.787720	146.760000
351.881104	146.740000
351.974579	146.960000
352.067993	147.560000
352.161469	147.900000
352.254883	147.420000
352.348358	147.320000
352.441803	147.220000
352.535248	146.620000
352.628693	146.660000
352.722137	146.500000
352.815582	146.660000
352.909027	146.700000
353.002472	146.700000
353.095917	146.540000
353.189362	146.960000
353.282806	146.840000
353.376251	146.680000
353.469696	145.860000
353.563141	146.500000
353.656586	146.160000
353.750061	145.900000
353.843475	145.600000
353.936981	146.660000
354.030396	145.820000
354.123871	146.080000
354.217285	146.940000
354.310760	147.120000
354.404175	146.840000
354.497681	146.720000
354.591095	146.680000
354.684570	145.800000
354.777985	145.540000
354.871490	145.380000
354.964935	146.060000
355.058380	146.000000
355.151855	146.000000
355.245300	146.760000
355.338745	147.060000
355.432220	146.700000
355.525665	146.260000
355.619110	146.600000
355.712585	146.160000
355.806030	145.860000
355.899475	145.400000
355.992950	145.860000
356.086426	145.980000
356.179871	145.920000
356.273346	146.100000
356.366791	146.600000
356.460266	146.740000
356.553711	146.320000
356.647186	146.340000
356.740631	145.840000
356.834106	145.760000
356.927551	145.840000
357.021027	145.720000
357.114471	146.020000
357.207947	146.340000
357.301422	146.460000
357.394867	146.420000
357.488342	147.120000
357.581818	146.900000
357.675262	146.960000
357.768738	146.860000
357.862213	146.060000
357.955658	145.800000
358.049133	145.820000
358.142609	146.100000
358.236053	145.800000
358.329529	146.400000
358.423035	146.360000
358.516449	146.020000
358.609955	146.380000
358.703400	146.900000
358.796906	147.000000
358.890350	146.660000
358.983826	146.780000
359.077271	145.880000
359.170776	145.960000
359.264221	145.740000
359.357727	145.840000
359.451172	146.260000
359.544647	146.580000
359.638123	146.080000
359.731598	146.560000
359.825073	146.980000
359.918549	146.800000
360.012024	147.000000
360.105499	146.840000
360.198975	146.660000
360.292450	146.520000
360.385925	146.520000
360.479401	145.840000
360.572876	146.260000
360.666351	146.360000
360.759857	146.240000
360.853302	146.240000
360.946808	146.320000
361.040253	146.460000
361.133759	146.000000
361.227203	146.340000
361.320709	146.020000
361.414154	146.520000
361.507660	146.620000
361.601105	147.040000
361.694641	147.320000
361.788086	147.520000
361.881592	147.600000
361.975067	146.920000
362.068542	146.900000
362.162018	146.560000
362.255524	146.220000
362.348999	146.180000
362.442474	146.800000
362.535950	146.480000
362.629456	145.980000
362.722931	146.240000
362.816406	146.280000
362.909882	146.380000
363.003387	146.240000
363.096863	146.820000
363.190338	146.560000
363.283875	146.180000
363.377319	146.080000
363.470825	146.600000
363.564301	146.000000
363.657806	146.360000
363.751282	146.240000
363.844788	146.700000
363.938232	146.320000
364.031769	147.020000
364.125214	147.200000
364.218750	148.100000
364.312225	147.100000
364.405731	147.360000
364.499207	146.880000
364.592712	146.700000
364.686188	146.140000
364.779694	146.480000
364.873169	146.280000
364.966675	146.240000
365.060150	145.900000
365.153656	146.080000
365.247131	146.420000
365.340637	146.780000
365.434143	147.340000
365.527618	147.720000
365.621155	146.980000
365.714600	146.720000
365.808136	146.540000
365.901611	145.600000
365.995117	145.300000
366.088593	145.420000
366.182129	145.320000
366.275604	145.380000
366.369110	145.680000
366.462585	145.840000
366.556122	146.780000
366.649567	146.680000
366.743103	146.720000
366.836609	146.500000
366.930115	146.700000
367.023590	146.400000
367.117096	146.480000
367.210602	146.280000
367.304108	147.180000
367.397614	147.480000
367.491119	147.560000
367.584595	147.760000
367.678101	147.720000
367.771606	146.900000
367.865112	146.420000
367.958649	145.840000
368.052124	145.380000
368.145660	145.440000
368.239136	146.180000
368.332672	146.160000
368.426147	146.500000
368.519684	146.480000
368.613159	146.680000
368.706696	146.160000
368.800171	146.280000
368.893707	146.000000
368.987183	146.280000
369.080719	146.400000
369.174225	146.140000
369.267731	146.420000
369.361237	146.460000
369.454742	145.980000
369.548248	146.180000
369.641754	146.200000
369.735260	145.900000
369.828766	145.580000
369.922272	146.620000
370.015808	145.840000
370.109314	145.840000
370.202820	145.480000
370.296356	146.660000
370.389832	145.940000
370.483368	145.620000
370.576874	145.560000
370.670410	146.200000
370.763885	145.080000
370.857422	145.360000
370.950928	145.700000
371.044464	146.480000
371.137939	146.480000
371.231476	147.000000
371.324982	147.520000
371.418518	147.800000
371.512024	147.440000
371.605560	146.720000
371.699066	146.640000
371.792572	145.940000
371.886108	146.300000
371.979614	146.140000
372.073120	147.040000
372.166656	147.060000
372.260162	147.300000
372.353668	147.040000
372.447205	146.780000
372.540710	146.200000
372.634277	146.040000
372.727753	145.780000
372.821320	145.640000
372.914795	145.920000
373.008362	146.020000
373.101837	145.940000
373.195404	146.100000
373.288879	145.900000
373.382446	146.280000
373.475922	146.300000
373.569489	147.160000
373.662964	147.400000
373.756531	147.740000
373.850037	147.840000
373.943573	147.900000
374.037109	146.740000
374.130615	146.920000
374.224152	146.900000
374.317657	146.720000
374.411194	147.640000
374.504730	147.580000
374.598236	147.140000
374.691772	146.760000
374.785309	146.520000
374.878815	145.160000
374.972351	145.880000
375.065887	145.700000
375.159454	146.700000
375.252930	146.660000
375.346497	147.020000
375.440002	147.420000
375.533569	147.380000
375.627045	146.260000
375.720612	146.440000
375.814117	146.740000
375.907684	145.800000
376.001160	145.700000
376.094727	145.620000
376.188232	146.320000
376.281799	146.420000
376.375336	146.440000
376.468872	147.140000
376.562408	147.460000
376.655914	146.480000
376.749451	146.180000
376.842987	146.780000
376.936523	146.360000
377.030060	146.220000
377.123596	146.700000
377.217133	146.480000
377.310669	146.280000
377.404205	146.520000
377.497772	147.100000
377.591278	146.860000
377.684845	147.780000
377.778351	147.920000
377.871918	147.780000
377.965424	147.160000
378.058990	147.040000
378.152496	146.180000
378.246063	146.260000
378.339569	146.800000
378.433136	146.860000
378.526642	146.760000
378.620209	146.900000
378.713745	146.480000
378.807312	146.560000
378.900848	146.640000
378.994385	147.220000
379.087921	147.000000
379.181458	147.380000
379.274994	146.460000
379.368530	146.200000
379.462097	146.020000
379.555634	146.480000
379.649170	145.960000
379.742706	145.920000
379.836273	146.240000
379.929810	145.880000
380.023376	145.520000
380.116882	145.680000
380.210449	145.960000
380.303986	145.720000
380.397552	145.540000
380.491058	145.700000
380.584656	145.720000
380.678162	145.660000
380.771729	146.020000
380.865265	146.940000
380.958832	147.000000
381.052368	147.200000
381.145935	147.420000
381.239471	147.380000
381.333008	147.020000
381.426575	146.660000
381.520111	146.680000
381.613647	146.920000
381.707214	146.740000
381.800751	145.880000
381.894318	146.480000
381.987854	145.940000
382.081421	145.780000
382.174988	145.960000
382.268524	146.140000
382.362091	145.660000
382.455627	146.500000
382.549194	146.260000
382.642731	145.700000
382.736298	145.860000
382.829834	145.920000
382.923401	146.080000
383.016937	146.180000
383.110504	146.620000
383.204041	146.780000
383.297607	147.320000
383.391174	146.560000
383.484741	147.000000
383.578278	146.780000
383.671844	146.600000
383.765411	145.660000
383.858948	146.180000
383.952515	145.840000
384.046051	146.480000
384.139618	146.960000
384.233185	147.680000
384.326721	147.460000
384.420288	148.140000
384.513855	147.980000
384.607422	148.040000
384.700989	148.020000
384.794525	147.720000
384.888123	147.220000
384.981659	147.160000
385.075226	146.800000
385.168762	146.460000
385.262360	146.820000
385.355896	145.920000
385.449463	145.580000
385.542999	145.600000
385.636597	146.340000
385.730164	146.340000
385.823730	146.620000
385.917267	146.640000
386.010834	146.540000
386.104401	146.300000
386.197968	146.640000
386.291534	147.160000
386.385101	147.320000
386.478668	147.920000
386.572235	147.700000
386.665802	147.100000
386.759338	146.860000
386.852905	146.460000
386.946472	145.720000
387.040070	145.780000
387.133606	146.000000
387.227203	145.700000
387.320740	146.300000
387.414337	146.560000
387.507874	146.260000
387.601471	146.280000
387.695007	146.280000
387.788605	145.840000
387.882141	145.740000
387.975739	145.880000
388.069275	145.560000
388.162872	145.900000
388.256439	146.160000
388.350037	146.300000
388.443604	146.300000
388.537170	146.140000
388.630737	146.840000
388.724304	147.140000
388.817871	146.800000
388.911438	146.800000
389.005005	147.240000
389.098602	147.040000
389.192169	146.460000
389.285736	147.220000
389.379333	147.000000
389.472870	146.440000
389.566467	146.040000
389.660034	146.080000
389.753632	145.500000
389.847168	145.920000
389.940765	146.640000
390.034332	146.800000
390.127930	146.240000
390.221466	146.180000
390.315063	145.700000
390.408630	144.680000
390.502228	144.000000
390.595795	144.860000
390.689362	144.960000
390.782959	145.300000
390.876526	146.240000
390.970093	146.440000
391.063690	146.620000
391.157257	146.480000
391.250824	146.840000
391.344421	146.440000
391.437988	146.960000
391.531555	147.120000
391.625153	147.480000
391.718750	147.340000
391.812317	147.480000
391.905914	146.820000
391.999481	146.540000
392.093079	146.240000
392.186615	146.480000
392.280243	146.340000
392.373779	146.840000
392.467407	147.260000
392.560944	147.320000
392.654572	146.680000
392.748108	146.640000
392.841736	146.440000
392.935303	145.960000
393.028900	146.040000
393.122467	146.640000
393.216064	146.620000
393.309631	146.080000
393.403229	145.720000
393.496796	145.560000
393.590393	144.540000
393.683990	144.940000
393.777557	145.520000
393.871155	146.000000
393.964722	146.480000
394.058350	147.080000
394.151917	146.900000
394.245514	146.960000
394.339081	147.180000
394.432678	147.200000
394.526245	147.280000
394.619873	146.820000
394.713409	146.720000
394.807037	146.180000
394.900604	146.140000
394.994202	145.920000
395.087769	146.420000
395.181396	146.000000
395.274994	147.000000
395.368561	146.240000
395.462158	146.620000
395.555756	146.240000
395.649353	146.640000
395.742920	145.800000
395.836517	146.440000
395.930115	145.600000
396.023712	146.080000
396.117279	146.400000
396.210876	146.180000
396.304474	146.200000
396.398071	146.720000
396.491669	146.660000
396.585266	146.280000
396.678833	146.040000
396.772461	146.160000
396.866028	146.260000
396.959656	146.580000
397.053223	146.920000
397.146851	147.380000
397.240417	148.180000
397.334015	149.500000
397.427582	150.280000
397.521210	151.720000
397.614807	154.220000
397.708405	156.400000
397.802002	159.300000
397.895599	163.480000
397.989197	168.280000
398.082794	173.600000
398.176392	180.860000
398.269989	189.140000
398.363586	199.600000
398.457184	212.980000
398.550781	228.960000
398.644379	245.800000
398.737976	264.880000
398.831573	284.840000
398.925201	304.540000
399.018768	325.000000
399.112396	345.280000
399.205963	364.380000
399.299591	383.000000
399.393158	400.920000
399.486786	417.840000
399.580353	434.300000
399.673981	450.980000
399.767578	467.780000
399.861206	483.740000
399.954773	497.260000
400.048401	505.900000
400.141998	508.960000
400.235596	505.980000
400.329193	496.160000
400.422791	482.500000
400.516418	466.460000
400.610016	449.960000
400.703613	432.580000
400.797211	413.140000
400.890808	392.080000
400.984436	371.380000
401.078033	348.360000
401.171631	324.620000
401.265259	303.660000
401.358826	284.180000
401.452484	264.360000
401.546051	247.440000
401.639679	231.000000
401.733246	216.560000
401.826904	202.680000
401.920471	191.000000
402.014099	180.940000
402.107697	173.860000
402.201324	167.600000
402.294891	162.820000
402.388550	159.620000
402.482147	156.880000
402.575745	153.820000
402.669373	151.540000
402.762970	150.300000
402.856567	149.280000
402.950195	148.680000
403.043793	148.420000
403.137390	148.940000
403.231018	147.980000
403.324615	148.160000
403.418243	147.480000
403.511841	147.840000
403.605469	147.120000
403.699066	147.540000
403.792694	147.520000
403.886292	147.760000
403.979919	147.320000
404.073517	147.100000
404.167145	147.560000
404.260712	147.120000
404.354370	146.860000
404.447937	147.000000
404.541595	147.480000
404.635162	147.600000
404.728821	148.180000
404.822418	147.800000
404.916046	147.520000
405.009644	147.560000
405.103271	147.220000
405.196899	146.660000
405.290497	147.160000
405.384125	147.380000
405.477722	146.760000
405.571350	146.380000
405.664948	146.540000
405.758575	146.140000
405.852203	145.800000
405.945801	146.020000
406.039429	146.160000
406.133057	145.800000
406.226654	145.940000
406.320312	146.080000
406.413879	146.080000
406.507538	146.380000
406.601135	146.480000
406.694763	146.880000
406.788361	146.560000
406.882019	146.660000
406.975586	146.460000
407.069244	146.840000
407.162872	146.860000
407.256470	147.080000
407.350098	146.720000
407.443726	146.360000
407.537323	145.940000
407.630951	145.940000
407.724579	145.680000
407.818207	146.180000
407.911804	146.260000
408.005432	146.160000
408.099060	146.240000
408.192688	146.800000
408.286285	146.580000
408.379913	146.440000
408.473572	146.680000
408.567169	145.880000
408.660828	145.980000
408.754395	145.680000
408.848053	145.620000
408.941650	145.560000
409.035309	145.260000
409.128906	144.840000
409.222565	145.100000
409.316132	145.420000
409.409790	145.320000
409.503387	145.760000
409.597046	146.160000
409.690674	146.280000
409.784302	146.380000
409.877930	146.240000
409.971558	146.520000
410.065186	146.000000
410.158783	145.680000
410.252411	145.660000
410.346039	146.140000
410.439667	145.900000
410.533295	146.140000
410.626923	146.420000
410.720551	146.120000
410.814209	146.680000
410.907806	147.080000
411.001465	146.440000
411.095062	146.640000
411.188721	147.160000
411.282318	146.320000
411.375977	145.940000
411.469574	146.680000
411.563232	146.300000
411.656830	146.040000
411.750488	145.920000
411.844086	145.980000
411.937744	145.980000
412.031372	145.960000
412.125000	145.960000
412.218628	146.280000
412.312256	146.820000
412.405884	147.220000
412.499512	147.160000
412.593170	147.320000
412.686798	147.300000
412.780426	146.660000
412.874054	146.300000
412.967682	146.260000
413.061310	146.660000
413.154968	146.640000
413.248566	147.020000
413.342224	146.940000
413.435852	147.000000
413.529510	146.340000
413.623108	145.980000
413.716766	145.700000
413.810364	146.140000
413.904022	146.240000
413.997650	146.400000
414.091309	147.160000
414.184906	146.940000
414.278564	146.200000
414.372192	146.480000
414.465851	146.500000
414.559479	146.300000
414.653107	147.320000
414.746735	147.480000
414.840393	147.360000
414.934021	147.480000
415.027649	147.200000
415.121277	146.960000
415.214935	147.560000
415.308563	147.700000
415.402191	147.200000
415.495850	147.200000
415.589478	146.920000
415.683136	146.340000
415.776733	146.220000
415.870422	146.640000
415.964020	146.220000
416.057678	146.040000
416.151306	146.140000
416.244965	145.900000
416.338562	145.720000
416.432251	146.360000
416.525848	147.140000
416.619507	147.560000
416.713165	148.060000
416.806793	148.080000
416.900421	148.080000
416.994080	147.660000
417.087708	147.280000
417.181366	146.440000
417.274994	146.600000
417.368622	146.740000
417.462280	146.880000
417.555908	146.740000
417.649567	147.060000
417.743195	146.980000
417.836853	146.880000
417.930481	146.780000
418.024170	147.160000
418.117767	147.760000
418.211426	147.880000
418.305054	148.020000
418.398712	147.680000
418.492340	147.560000
418.585999	147.660000
418.679626	147.760000
418.773285	147.560000
418.866913	147.860000
418.960571	148.080000
419.054230	147.940000
419.147858	147.560000
419.241516	147.660000
419.335144	147.380000
419.428802	147.000000
419.522461	146.520000
419.616089	146.280000
419.709747	146.540000
419.803375	146.600000
419.897034	146.340000
419.990662	146.320000
420.084320	146.880000
420.177979	146.840000
420.271606	146.880000
420.365295	147.140000
420.458893	147.340000
420.552582	147.500000
420.646210	147.320000
420.739868	147.260000
420.833496	147.240000
420.927155	146.820000
421.020782	146.620000
421.114471	146.000000
421.208069	146.120000
421.301758	146.480000
421.395386	146.960000
421.489044	146.620000
421.582703	146.800000
421.676361	147.060000
421.769989	146.600000
421.863647	146.840000
421.957306	147.160000
422.050934	147.700000
422.144592	147.540000
422.238251	147.420000
422.331909	146.620000
422.425537	146.420000
422.519196	146.000000
422.612854	145.780000
422.706543	145.640000
422.800140	146.280000
422.893829	145.900000
422.987457	145.820000
423.081146	145.980000
423.174744	146.860000
423.268433	146.400000
423.362061	146.540000
423.455750	146.500000
423.549347	146.380000
423.643036	145.460000
423.736664	145.880000
423.830353	146.200000
423.924011	146.860000
424.017639	146.560000
424.111298	146.740000
424.204956	146.560000
424.298615	146.540000
424.392273	145.940000
424.485931	146.260000
424.579559	146.340000
424.673218	146.220000
424.766876	145.980000
424.860535	145.680000
424.954193	145.280000
425.047882	145.720000
425.141510	145.940000
425.235199	146.360000
425.328796	146.500000
425.422485	146.600000
425.516113	146.120000
425.609802	145.920000
425.703430	146.020000
425.797119	146.180000
425.890747	146.440000
425.984436	146.560000
426.078064	146.760000
426.171753	146.460000
426.265411	146.240000
426.359070	146.260000
426.452728	146.140000
426.546356	145.900000
426.640015	145.960000
426.733673	146.040000
426.827332	145.660000
426.920990	146.400000
427.014648	146.100000
427.108307	146.320000
427.201965	146.840000
427.295624	147.240000
427.389282	146.500000
427.482941	147.040000
427.576630	146.600000
427.670258	146.160000
427.763947	145.860000
427.857574	145.920000
427.951263	145.660000
428.044922	145.660000
428.138611	145.960000
428.232239	146.780000
428.325928	147.160000
428.419556	147.840000
428.513245	147.580000
428.606903	147.400000
428.700562	146.680000
428.794220	146.020000
428.887878	145.160000
428.981537	145.560000
429.075195	145.560000
429.168854	145.720000
429.262512	146.120000
429.356201	146.560000
429.449860	146.640000
429.543518	146.760000
429.637177	147.180000
429.730835	146.940000
429.824493	146.940000
429.918182	147.260000
430.011810	146.680000
430.105530	145.820000
430.199158	146.360000
430.292847	146.280000
430.386475	145.660000
430.480164	145.920000
430.573792	145.960000
430.667511	145.560000
430.761139	145.800000
430.854828	146.680000
430.948456	146.880000
431.042145	147.600000
431.135834	147.300000
431.229492	147.100000
431.323151	146.860000
431.416809	146.740000
431.510468	146.340000
431.604156	146.660000
431.697815	146.760000
431.791473	146.440000
431.885132	146.200000
431.978821	146.400000
432.072479	146.480000
432.166138	146.740000
432.259827	146.580000
432.353485	146.980000
432.447174	147.100000
432.540802	146.800000
432.634491	146.420000
432.728149	146.800000
432.821838	147.380000
432.915466	147.160000
433.009186	147.260000
433.102814	146.780000
433.196503	146.080000
433.290131	145.640000
433.383850	145.960000
433.477509	145.940000
433.571167	146.960000
433.664856	147.760000
433.758514	148.200000
433.852173	147.920000
433.945862	147.920000
434.039520	147.500000
434.133179	146.900000
434.226868	146.280000
434.320526	145.600000
434.414185	146.460000
434.507874	146.100000
434.601562	146.280000
434.695221	146.040000
434.788910	146.760000
434.882538	146.280000
434.976257	146.160000
435.069885	146.300000
435.163574	146.660000
435.257233	145.840000
435.350922	145.760000
435.444580	145.860000
435.538269	145.760000
435.631897	146.140000
435.725616	147.300000
435.819275	147.600000
435.912964	148.020000
436.006622	148.140000
436.100311	147.720000
436.193970	146.860000
436.287628	146.420000
436.381317	146.160000
436.474976	145.860000
436.568665	145.500000
436.662323	145.860000
436.756012	146.240000
436.849670	146.180000
436.943390	146.200000
437.037018	146.360000
437.130737	146.200000
437.224365	145.920000
437.318085	146.060000
437.411713	146.180000
437.505432	146.620000
437.599060	147.380000
437.692780	148.220000
437.786407	148.160000
437.880127	148.380000
437.973755	147.920000
438.067474	147.280000
438.161133	146.540000
438.254822	147.120000
438.348480	146.820000
438.442169	147.180000
438.535828	147.240000
438.629517	147.100000
438.723175	146.440000
438.816864	146.740000
438.910553	146.300000
439.004211	146.300000
439.097900	145.900000
439.191559	146.060000
439.285248	145.560000
439.378906	145.780000
439.472626	145.640000
439.566284	145.920000
439.659973	146.000000
439.753632	145.960000
439.847321	146.400000
439.940979	146.400000
440.034698	146.500000
440.128326	146.040000
440.222046	145.880000
440.315674	145.220000
440.409393	145.340000
440.503082	144.980000
440.596741	145.500000
440.690430	146.140000
440.784088	146.000000
440.877777	145.540000
440.971466	145.820000
441.065125	145.540000
441.158813	145.100000
441.252502	145.200000
441.346161	145.480000
441.439850	145.640000
441.533539	145.460000
441.627197	146.140000
441.720886	146.120000
441.814606	146.600000
441.908234	147.000000
442.001953	146.940000
442.095612	146.560000
442.189301	147.080000
442.282959	147.040000
442.376678	146.140000
442.470306	146.820000
442.564026	146.540000
442.657684	146.400000
442.751404	146.220000
442.845032	147.140000
442.938751	146.380000
443.032440	146.660000
443.126099	146.420000
443.219788	146.880000
443.313477	146.800000
443.407166	147.300000
443.500824	147.440000
443.594513	147.640000
443.688202	147.260000
443.781891	146.540000
443.875549	146.140000
443.969238	146.240000
444.062927	146.440000
444.156647	146.280000
444.250275	146.940000
444.343994	147.320000
444.437653	147.080000
444.531372	146.840000
444.625031	146.360000
444.718719	145.560000
444.812378	145.460000
444.906097	145.260000
444.999756	144.860000
445.093445	145.320000
445.187103	145.520000
445.280823	146.080000
445.374512	146.000000
445.468201	146.200000
445.561859	145.900000
445.655548	146.120000
445.749237	145.240000
445.842926	145.440000
445.936615	146.000000
446.030304	146.220000
446.123962	146.260000
446.217651	146.420000
446.311340	146.700000
446.405029	145.960000
446.498749	145.780000
446.592407	145.540000
446.686096	145.520000
446.779755	145.440000
446.873474	145.920000
446.967133	146.080000
447.060852	145.960000
447.154510	146.060000
447.248230	145.940000
447.341858	145.840000
447.435577	145.420000
447.529236	145.080000
447.622955	144.940000
447.716644	144.660000
447.810333	144.680000
447.904022	145.620000
447.997711	146.180000
448.091400	146.800000
448.185059	147.060000
448.278748	147.300000
448.372437	146.880000
448.466125	147.040000
448.559814	146.660000
448.653503	146.900000
448.747192	147.240000
448.840912	147.620000
448.934570	147.720000
449.028290	148.120000
449.121948	147.860000
449.215637	147.280000
449.309296	146.620000
449.403015	146.720000
449.496674	146.400000
449.590393	146.760000
449.684052	146.300000
449.777771	147.140000
449.871429	146.380000
449.965149	146.520000
450.058838	146.380000
450.152527	147.440000
450.246216	147.120000
450.339905	147.420000
450.433594	146.820000
450.527283	147.440000
450.620972	146.820000
450.714661	146.820000
450.808350	146.880000
450.902039	147.380000
450.995728	146.520000
451.089417	146.300000
451.183105	146.200000
451.276794	146.960000
451.370514	146.500000
451.464172	145.880000
451.557892	146.100000
451.651550	146.340000
451.745270	145.480000
451.838928	145.120000
451.932648	145.700000
452.026306	145.680000
452.120026	145.400000
452.213684	145.920000
452.307404	146.380000
452.401062	146.540000
452.494781	146.580000
452.588470	146.320000
452.682159	145.880000
452.775848	146.120000
452.869537	145.260000
452.963226	145.120000
453.056915	145.360000
453.150604	145.520000
453.244293	145.680000
453.337982	147.040000
453.431671	147.120000
453.525360	147.520000
453.619049	147.400000
453.712769	147.180000
453.806427	146.260000
453.900146	145.740000
453.993805	145.180000
454.087555	145.620000
454.181213	145.620000
454.274933	145.740000
454.368591	146.360000
454.462311	146.320000
454.555969	145.580000
454.649689	146.460000
454.743347	146.340000
454.837067	146.640000
454.930756	147.280000
455.024445	147.680000
455.118134	146.840000
455.211853	147.080000
455.305542	146.400000
455.399231	146.060000
455.492920	145.880000
455.586609	146.000000
455.680298	146.100000
455.773987	146.040000
455.867676	146.100000
455.961365	146.520000
456.055084	146.300000
456.148773	146.280000
456.242493	146.500000
456.336151	146.260000
456.429871	146.340000
456.523529	146.860000
456.617249	146.600000
456.710907	147.340000
456.804626	147.100000
456.898315	146.140000
456.992035	145.640000
457.085693	145.320000
457.179413	144.140000
457.273102	145.180000
457.366791	145.720000
457.460480	146.240000
457.554199	147.260000
457.647888	147.700000
457.741577	147.260000
457.835266	147.340000
457.928955	146.840000
458.022644	146.620000
458.116364	147.040000
458.210052	146.740000
458.303741	146.960000
458.397461	146.600000
458.491119	145.980000
458.584839	145.560000
458.678528	145.300000
458.772247	144.800000
458.865906	145.220000
458.959625	146.220000
459.053284	146.300000
459.147003	145.920000
459.240692	146.720000
459.334412	146.820000
459.428070	146.080000
459.521790	146.000000
459.615479	146.560000
459.709198	146.420000
459.802887	146.020000
459.896576	146.160000
459.990265	146.500000
460.083954	146.760000
460.177673	146.140000
460.271362	146.320000
460.365051	146.320000
460.458740	145.700000
460.552429	145.040000
460.646149	145.080000
460.739838	144.960000
460.833527	144.960000
460.927246	145.100000
461.020905	145.280000
461.114655	145.320000
461.208313	145.540000
461.302032	145.020000
461.395691	145.160000
461.489441	145.260000
461.583099	145.180000
461.676819	144.760000
461.770477	145.100000
461.864197	144.880000
461.957916	144.860000
462.051605	144.440000
462.145294	145.380000
462.238983	145.460000
462.332703	146.040000
462.426392	146.500000
462.520081	147.020000
462.613770	146.340000
462.707489	146.560000
462.801178	146.380000
462.894867	146.200000
462.988556	146.000000
463.082275	146.440000
463.175964	145.920000
463.269684	145.920000
463.363342	145.860000
463.457092	145.560000
463.550751	145.600000
463.644470	145.920000
463.738129	145.960000
463.831879	145.940000
463.925537	146.920000
464.019257	146.820000
464.112946	146.520000
464.206665	146.240000
464.300323	146.400000
464.394043	145.960000
464.487762	145.640000
464.581451	146.140000
464.675140	146.100000
464.768829	145.900000
464.862549	146.120000
464.956238	146.220000
465.049927	146.140000
465.143646	146.600000
465.237335	146.420000
465.331024	146.600000
465.424713	146.920000
465.518433	147.060000
465.612152	146.760000
465.705811	147.020000
465.799561	146.620000
465.893219	146.480000
465.986938	146.160000
466.080597	145.820000
466.174347	145.980000
466.268005	146.200000
466.361725	145.960000
466.455414	146.120000
466.549133	145.980000
466.642792	146.140000
466.736542	145.520000
466.830231	145.660000
466.923920	145.340000
467.017609	145.860000
467.111328	145.240000
467.205017	145.700000
467.298706	145.640000
467.392426	145.960000
467.486115	145.880000
467.579803	145.960000
467.673523	146.220000
467.767212	146.280000
467.860901	146.160000
467.954651	146.360000
468.048309	146.460000
468.142029	146.400000
468.235718	146.540000
468.329437	146.100000
468.423096	146.040000
468.516846	145.920000
468.610504	145.480000
468.704224	144.940000
468.797913	145.280000
468.891632	145.400000
468.985291	145.540000
469.079010	145.760000
469.172729	145.580000
469.266418	146.180000
469.360107	146.100000
469.453827	145.720000
469.547516	145.780000
469.641205	146.440000
469.734924	146.220000
469.828613	146.660000
469.922302	147.240000
470.016022	146.920000
470.109711	146.900000
470.203430	146.260000
470.297150	145.100000
470.390808	145.100000
470.484558	144.960000
470.578217	145.300000
470.671936	146.060000
470.765625	147.200000
470.859344	146.760000
470.953003	147.420000
471.046753	146.740000
471.140411	145.860000
471.234131	145.820000
471.327820	146.460000
471.421539	146.300000
471.515228	146.040000
471.608948	146.700000
471.702637	146.000000
471.796326	145.240000
471.890045	145.660000
471.983734	146.000000
472.077423	145.660000
472.171143	145.980000
472.264832	146.340000
472.358521	145.560000
472.452240	145.220000
472.545929	145.940000
472.639648	146.060000
472.733337	146.540000
472.827057	146.800000
472.920746	147.280000
473.014465	147.160000
473.108124	147.100000
473.201874	146.940000
473.295532	147.080000
473.389252	147.280000
473.482941	147.040000
473.576660	146.620000
473.670319	146.020000
473.764069	146.080000
473.857727	146.260000
473.951477	146.340000
474.045166	146.980000
474.138855	147.360000
474.232574	146.980000
474.326263	146.820000
474.419952	146.940000
474.513672	146.820000
474.607361	146.660000
474.701050	147.280000
474.794769	147.040000
474.888458	147.300000
474.982178	147.080000
475.075867	147.220000
475.169586	147.040000
475.263275	147.180000
475.356995	146.960000
475.450653	146.560000
475.544403	146.080000
475.638062	146.600000
475.731812	146.360000
475.825470	145.760000
475.919189	146.280000
476.012878	146.900000
476.106598	145.900000
476.200256	146.080000
476.294006	146.380000
476.387695	146.520000
476.481384	146.320000
476.575104	146.720000
476.668793	146.300000
476.762512	145.960000
476.856201	146.180000
476.949890	145.840000
477.043610	145.220000
477.137299	145.360000
477.230988	145.820000
477.324707	145.200000
477.418396	145.840000
477.512146	146.380000
477.605804	146.240000
477.699524	146.260000
477.793213	146.380000
477.886932	145.660000
477.980591	145.440000
478.074341	145.440000
478.167999	144.760000
478.261749	144.960000
478.355408	145.040000
478.449127	145.260000
478.542816	146.180000
478.636536	146.960000
478.730225	147.000000
478.823944	147.720000
478.917633	147.520000
479.011322	147.360000
479.105042	147.460000
479.198730	147.760000
479.292450	146.980000
479.386139	147.360000
479.479828	147.400000
479.573547	147.460000
479.667267	146.880000
479.760925	147.160000
479.854675	146.940000
479.948334	146.880000
480.042084	145.840000
480.135742	146.360000
480.229462	146.140000
480.323151	146.160000
480.416870	145.240000
480.510529	145.760000
480.604279	144.660000
480.697937	145.120000
480.791656	144.680000
480.885345	144.920000
480.979065	144.860000
481.072754	145.720000
481.166473	145.740000
481.260132	145.740000
481.353882	145.720000
481.447540	145.880000
481.541260	145.740000
481.635010	145.460000
481.728668	145.580000
481.822388	145.400000
481.916077	145.500000
482.009796	145.340000
482.103485	145.520000
482.197205	145.660000
482.290863	146.260000
482.384613	145.780000
482.478271	145.500000
482.571991	145.680000
482.665680	145.380000
482.759399	145.780000
482.853058	146.320000
482.946808	146.620000
483.040466	146.160000
483.134216	146.620000
483.227875	146.000000
483.321594	146.360000
483.415283	146.420000
483.509003	146.460000
483.602661	146.100000
483.696411	146.380000
483.790070	145.700000
483.883789	145.520000
483.977478	146.000000
484.071198	146.220000
484.164917	145.660000
484.258606	145.660000
484.352325	145.800000
484.445984	145.740000
484.539734	145.520000
484.633392	145.100000
484.727142	145.600000
484.820801	145.600000
484.914520	145.480000
485.008209	145.780000
485.101929	146.740000
485.195587	146.260000
485.289337	146.480000
485.382996	146.560000
485.476715	146.660000
485.570404	146.880000
485.664124	146.940000
485.757782	147.320000
485.851532	146.900000
485.945190	146.740000
486.038910	146.600000
486.132599	147.080000
486.226318	146.340000
486.319977	146.340000
486.413727	146.800000
486.507446	146.140000
486.601105	145.640000
486.694855	145.660000
486.788513	145.420000
486.882233	145.240000
486.975922	145.420000
487.069641	145.400000
487.163300	145.420000
487.257050	146.820000
487.350708	146.520000
487.444427	146.440000
487.538116	146.380000
487.631836	146.380000
487.725494	145.800000
487.819214	146.040000
487.912903	145.980000
488.006622	146.800000
488.100281	147.280000
488.194031	147.200000
488.287689	147.500000
488.381409	148.300000
488.475098	147.720000
488.568817	147.140000
488.662476	146.940000
488.756226	146.300000
488.849945	145.160000
488.943604	145.400000
489.037354	145.900000
489.131012	145.780000
489.224731	145.780000
489.318390	146.220000
489.412140	146.020000
489.505798	145.900000
489.599518	145.600000
489.693207	145.820000
489.786926	145.960000
489.880585	145.880000
489.974335	145.780000
490.067993	146.960000
490.161713	146.840000
490.255371	147.440000
490.349121	147.600000
490.442780	147.520000
490.536499	146.400000
490.630188	146.700000
490.723907	145.960000
490.817566	145.760000
490.911285	145.820000
491.004974	145.760000
491.098694	145.440000
491.192413	146.300000
491.286102	146.040000
491.379822	145.960000
491.473480	146.520000
491.567200	146.580000
491.660889	145.680000
491.754608	145.920000
491.848267	145.760000
491.941986	145.560000
492.035675	145.580000
492.129395	146.020000
492.223053	146.000000
492.316772	146.220000
492.410461	146.000000
492.504181	145.920000
492.597839	145.660000
492.691559	145.720000
492.785248	145.500000
492.878967	145.700000
492.972626	145.480000
493.066345	145.620000
493.160034	145.480000
493.253754	145.640000
493.347412	145.160000
493.441132	145.380000
493.534882	145.700000
493.628540	146.040000
493.722260	146.260000
493.815918	146.620000
493.909668	146.960000
494.003326	147.000000
494.097046	146.660000
494.190704	146.160000
494.284454	146.500000
494.378113	146.360000
494.471832	146.080000
494.565491	145.940000
494.659210	146.480000
494.752899	146.320000
494.846619	145.980000
494.940277	146.360000
495.033997	146.440000
495.127686	146.180000
495.221405	145.780000
495.315063	146.360000
495.408783	146.220000
495.502441	146.360000
495.596191	146.500000
495.689850	146.520000
495.783569	146.500000
495.877228	146.280000
495.970947	145.960000
496.064697	145.960000
496.158356	146.920000
496.252075	146.520000
496.345734	146.640000
496.439453	147.400000
496.533142	147.460000
496.626862	147.440000
496.720520	147.800000
496.814240	147.600000
496.907898	147.180000
497.001617	147.140000
497.095306	146.380000
497.189026	146.140000
497.282684	146.420000
497.376404	146.860000
497.470062	146.680000
497.563782	146.980000
497.657471	147.140000
497.751190	146.820000
497.844849	146.560000
497.938568	147.160000
498.032227	147.000000
498.125946	146.880000
498.219635	146.960000
498.313354	147.060000
498.407074	146.160000
498.500732	146.460000
498.594452	146.540000
498.688110	146.220000
498.781830	145.780000
498.875519	146.020000
498.969238	145.840000
499.062897	145.740000
499.156616	146.160000
499.250275	146.400000
499.343994	146.020000
499.437653	145.920000
499.531372	146.040000
499.625061	146.600000
499.718781	146.700000
499.812439	147.460000
499.906158	147.260000
499.999817	147.020000
500.093536	146.180000
500.187195	146.300000
500.280914	146.160000
500.374573	146.100000
500.468323	146.140000
500.561981	146.500000
500.655701	146.040000
500.749420	146.060000
500.843079	146.340000
500.936798	146.440000
501.030457	146.780000
501.124176	147.020000
501.217834	146.700000
501.311554	146.800000
501.405212	146.740000
501.498962	146.000000
501.592621	146.000000
501.686340	146.460000
501.779999	146.300000
501.873718	146.360000
501.967377	146.780000
502.061096	147.120000
502.154755	146.660000
502.248474	146.620000
502.342133	146.800000
502.435852	146.380000
502.529510	146.760000
502.623230	147.040000
502.716888	147.040000
502.810608	146.800000
502.904266	147.280000
502.997986	146.520000
503.091705	146.280000
503.185364	146.300000
503.279083	146.480000
503.372772	146.360000
503.466492	146.020000
503.560150	146.060000
503.653870	146.000000
503.747528	145.740000
503.841248	145.480000
503.934906	146.020000
504.028625	146.000000
504.122284	146.440000
504.216003	147.100000
504.309662	146.800000
504.403381	146.580000
504.497040	146.680000
504.590759	146.020000
504.684418	145.840000
504.778137	146.400000
504.871796	147.000000
504.965515	146.760000
505.059174	147.020000
505.152893	146.360000
505.246521	146.040000
505.340240	145.600000
505.433899	145.960000
505.527618	146.400000
505.621338	147.100000
505.714996	147.040000
505.808716	146.780000
505.902374	146.860000
505.996094	146.480000
506.089752	146.200000
506.183472	146.360000
506.277130	146.760000
506.370850	146.740000
506.464508	146.620000
506.558228	146.600000
506.651886	146.440000
506.745605	146.500000
506.839264	146.220000
506.932983	146.520000
507.026611	146.100000
507.120331	146.680000
507.213989	146.020000
507.307709	146.180000
507.401367	146.460000
507.495087	147.580000
507.588745	147.020000
507.682465	148.220000
507.776123	148.220000
507.869843	147.860000
507.963531	147.300000
508.057190	148.040000
508.150909	147.040000
508.244568	147.000000
508.338287	146.900000
508.431946	146.700000
508.525665	146.200000
508.619324	146.140000
508.713013	146.600000
508.806671	146.840000
508.900391	147.560000
508.994049	147.540000
509.087769	147.360000
509.181427	147.260000
509.275146	146.780000
509.368774	145.480000
509.462494	145.460000
509.556152	145.720000
509.649872	145.660000
509.743530	146.080000
509.837250	146.580000
509.930878	146.360000
510.024597	146.400000
510.118256	146.180000
510.211975	145.920000
510.305695	145.760000
510.399353	146.400000
510.493042	146.920000
510.586700	147.260000
510.680420	147.840000
510.774078	147.720000
510.867798	147.660000
510.961426	146.980000
511.055145	146.540000
511.148804	146.100000
511.242523	146.800000
511.336151	146.760000
511.429871	147.260000
511.523529	147.500000
511.617249	147.160000
511.710876	146.900000
511.804596	146.380000
511.898254	146.100000
511.991974	146.380000
512.085632	146.460000
512.179321	146.280000
512.272949	146.720000
512.366699	147.240000
512.460327	146.720000
512.554077	147.860000
512.647766	147.940000
512.741394	147.460000
512.835144	147.600000
512.928772	147.180000
513.022461	146.440000
513.116150	146.040000
513.209839	146.760000
513.303467	145.680000
513.397217	145.780000
513.490845	145.520000
513.584595	145.840000
513.678223	145.180000
513.771912	145.060000
513.865601	145.160000
513.959290	145.120000
514.052917	145.220000
514.146667	146.020000
514.240295	146.820000
514.333984	147.440000
514.427673	147.200000
514.521362	147.360000
514.614990	146.500000
514.708740	146.260000
514.802368	146.120000
514.896057	146.260000
514.989746	146.680000
515.083435	146.800000
515.177124	147.180000
515.270752	146.940000
515.364502	147.060000
515.458130	146.960000
515.551819	147.000000
515.645508	146.420000
515.739197	146.660000
515.832825	146.660000
515.926575	146.260000
516.020203	146.480000
516.113892	146.780000
516.207520	146.460000
516.301270	146.480000
516.394897	146.300000
516.488586	146.780000
516.582275	146.720000
516.675964	146.200000
516.769592	146.260000
516.863281	147.000000
516.956970	146.780000
517.050659	146.780000
517.144287	147.340000
517.238037	147.500000
517.331665	146.760000
517.425354	146.360000
517.519043	146.080000
517.612732	146.320000
517.706421	146.060000
517.800049	146.140000
517.893738	145.880000
517.987427	145.920000
518.081116	145.500000
518.174744	145.200000
518.268433	145.600000
518.362122	146.360000
518.455811	146.600000
518.549438	147.500000
518.643127	148.460000
518.736816	147.820000
518.830505	147.280000
518.924133	147.280000
519.017822	147.020000
519.111511	146.660000
519.205200	147.040000
519.298828	147.300000
519.392517	146.760000
519.486206	146.840000
519.579895	146.900000
519.673523	146.860000
519.767212	146.560000
519.860901	147.280000
519.954590	146.880000
520.048279	146.340000
520.141907	146.220000
520.235596	147.060000
520.329224	147.000000
520.422974	146.980000
520.516602	147.260000
520.610291	146.920000
520.703918	146.580000
520.797607	146.180000
520.891296	146.180000
520.984985	146.320000
521.078613	146.800000
521.172302	146.260000
521.265930	147.220000
521.359680	147.640000
521.453308	147.300000
521.546997	147.280000
521.640625	147.540000
521.734314	146.620000
521.827942	146.460000
521.921692	147.040000
522.015320	147.140000
522.109009	146.840000
522.202698	147.200000
522.296326	147.060000
522.390015	146.840000
522.483704	146.520000
522.577393	146.560000
522.671021	146.440000
522.764709	146.300000
522.858337	146.800000
522.952026	147.060000
523.045654	147.620000
523.139404	148.080000
523.233032	148.040000
523.326721	147.660000
523.420349	147.660000
523.514038	147.100000
523.607666	147.160000
523.701355	146.800000
523.795044	146.500000
523.888733	146.680000
523.982361	147.040000
524.076050	146.480000
524.169678	147.200000
524.263367	146.740000
524.356995	146.400000
524.450684	146.040000
524.544373	146.120000
524.638062	145.960000
524.731750	146.640000
524.825378	146.560000
524.919067	146.400000
525.012695	146.560000
525.106384	146.040000
525.200012	146.020000
525.293701	146.040000
525.387329	146.260000
525.481018	146.380000
525.574646	147.140000
525.668396	146.880000
525.762024	147.280000
525.855713	147.780000
525.949341	147.300000
526.043030	147.060000
526.136658	147.120000
526.230347	146.760000
526.323975	146.260000
526.417664	146.160000
526.511292	146.220000
526.604980	146.500000
526.698608	146.640000
526.792297	146.740000
526.885925	146.980000
526.979614	146.940000
527.073303	146.760000
527.166931	146.620000
527.260620	146.840000
527.354309	147.000000
527.447998	146.760000
527.541626	146.420000
527.635315	146.300000
527.728943	146.920000
527.822632	147.060000
527.916260	147.360000
528.009949	147.840000
528.103577	147.820000
528.197266	146.740000
528.290894	146.500000
528.384583	146.400000
528.478210	146.420000
528.571899	146.940000
528.665527	147.500000
528.759216	147.540000
528.852844	147.920000
528.946533	147.920000
529.040161	147.340000
529.133850	147.020000
529.227478	147.140000
529.321167	147.180000
529.414856	147.340000
529.508484	148.080000
529.602173	148.080000
529.695801	148.240000
529.789490	147.660000
529.883057	147.440000
529.976746	147.700000
530.070374	148.100000
530.164062	147.760000
530.257690	148.500000
530.351379	148.600000
530.445007	147.960000
530.538696	147.460000
530.632324	147.600000
530.726013	147.140000
530.819641	146.820000
530.913330	147.020000
531.006958	146.900000
531.100647	146.980000
531.194275	146.620000
531.287964	146.300000
531.381592	146.120000
531.475220	146.320000
531.568848	146.140000
531.662537	146.160000
531.756226	147.020000
531.849854	147.040000
531.943542	147.120000
532.037170	146.760000
532.130859	147.000000
532.224487	146.700000
532.318176	146.480000
532.411804	146.920000
532.505432	147.420000
532.599060	147.160000
532.692749	146.740000
532.786377	147.020000
532.880066	146.300000
532.973694	145.600000
533.067383	145.660000
533.161011	145.900000
533.254639	145.680000
533.348267	145.500000
533.441956	146.200000
533.535583	146.280000
533.629272	146.460000
533.722900	146.000000
533.816589	146.300000
533.910156	146.280000
534.003845	145.980000
534.097534	146.280000
534.191162	147.300000
534.284851	147.520000
534.378479	147.320000
534.472107	147.760000
534.565735	147.340000
534.659424	147.360000
534.753052	147.520000
534.846741	147.280000
534.940369	147.240000
535.033997	147.240000
535.127625	146.840000
535.221313	147.240000
535.314941	147.180000
535.408630	147.060000
535.502197	147.160000
535.595886	146.960000
535.689514	146.320000
535.783203	147.240000
535.876831	147.680000
535.970459	147.700000
536.064087	147.540000
536.157776	147.480000
536.251404	147.100000
536.345093	146.560000
536.438721	146.480000
536.532349	147.040000
536.626038	146.980000
536.719666	146.840000
536.813293	146.920000
536.906921	146.820000
537.000610	146.940000
537.094238	146.860000
537.187866	146.820000
537.281494	146.760000
537.375183	146.940000
537.468811	146.280000
537.562439	146.520000
537.656067	146.400000
537.749756	146.520000
537.843384	147.060000
537.937012	147.320000
538.030640	146.760000
538.124329	147.080000
538.217896	147.320000
538.311584	146.980000
538.405212	147.020000
538.498901	147.540000
538.592468	147.900000
538.686157	147.580000
538.779785	146.700000
538.873413	146.740000
538.967102	146.520000
539.060730	145.800000
539.154358	145.780000
539.247986	146.440000
539.341675	146.460000
539.435242	146.280000
539.528931	146.400000
539.622559	146.340000
539.716187	146.640000
539.809814	146.420000
539.903503	146.800000
539.997070	146.760000
540.090759	147.060000
540.184387	146.860000
540.278015	147.360000
540.371643	147.460000
540.465332	147.560000
540.558899	146.920000
540.652588	146.940000
540.746216	146.420000
540.839844	146.600000
540.933472	146.660000
541.027100	147.040000
541.120728	146.780000
541.214417	147.240000
541.308044	147.180000
541.401672	146.800000
541.495300	146.440000
541.588928	146.620000
541.682617	146.100000
541.776184	145.660000
541.869873	146.120000
541.963440	146.220000
542.057129	146.120000
542.150757	146.320000
542.244385	146.300000
542.338013	145.860000
542.431641	146.120000
542.525269	146.140000
542.618958	146.580000
542.712524	146.900000
542.806213	147.080000
542.899780	147.500000
542.993469	147.400000
543.087036	146.860000
543.180725	146.360000
543.274292	146.740000
543.367981	146.440000
543.461548	146.680000
543.555237	146.620000
543.648926	147.200000
543.742493	147.740000
543.836182	147.800000
543.929749	147.740000
544.023437	147.980000
544.117004	147.800000
544.210693	147.240000
544.304260	147.080000
544.397949	146.960000
544.491516	147.260000
544.585205	147.400000
544.678772	147.280000
544.772461	147.480000
544.866028	147.560000
544.959717	147.660000
545.053284	147.240000
545.146973	147.340000
545.240540	147.560000
545.334229	148.080000
545.427795	148.100000
545.521423	148.720000
545.615051	148.780000
545.708679	148.980000
545.802307	148.540000
545.895935	148.480000
545.989624	149.080000
546.083191	148.960000
546.176880	148.580000
546.270447	148.100000
546.364136	148.400000
546.457703	147.600000
546.551331	147.440000
546.644958	147.680000
546.738586	148.120000
546.832214	147.560000
546.925842	147.420000
547.019409	147.800000
547.113098	147.100000
547.206665	147.020000
547.300354	147.040000
547.393921	147.020000
547.487549	147.040000
547.581177	147.040000
547.674805	146.900000
547.768433	146.200000
547.862061	146.380000
547.955627	145.680000
548.049316	146.140000
548.142883	146.640000
548.236572	147.580000
548.330139	147.620000
548.423767	147.620000
548.517456	147.640000
548.611023	147.300000
548.704651	146.500000
548.798279	146.380000
548.891907	147.060000
548.985474	146.760000
549.079163	147.040000
549.172729	146.940000
549.266357	146.580000
549.359985	146.020000
549.453613	145.520000
549.547180	144.940000
549.640869	145.860000
549.734436	145.880000
549.828064	146.500000
549.921631	146.860000
550.015320	146.880000
550.108887	147.000000
550.202515	147.140000
550.296143	146.480000
550.389771	146.720000
550.483337	147.040000
550.576965	146.700000
550.670593	147.120000
550.764221	147.500000
550.857849	147.360000
550.951477	146.960000
551.045105	146.440000
551.138672	146.400000
551.232300	145.740000
551.325928	145.960000
551.419556	146.100000
551.513123	146.340000
551.606750	146.040000
551.700378	146.540000
551.794006	146.140000
551.887573	146.420000
551.981201	146.920000
552.074768	146.880000
552.168457	146.660000
552.262024	147.540000
552.355652	147.220000
552.449219	147.260000
552.542847	147.520000
552.636475	147.160000
552.730103	146.380000
552.823669	146.140000
552.917297	145.660000
553.010864	145.560000
553.104553	146.200000
553.198181	145.900000
553.291748	146.600000
553.385376	146.900000
553.478943	146.620000
553.572571	146.560000
553.666199	146.940000
553.759827	146.360000
553.853394	145.660000
553.947021	145.800000
554.040588	145.460000
554.134216	145.640000
554.227783	146.640000
554.321411	147.320000
554.415039	146.800000
554.508667	146.860000
554.602234	146.880000
554.695862	146.080000
554.789429	145.700000
554.883057	145.960000
554.976624	146.220000
555.070251	146.120000
555.163818	146.000000
555.257507	146.080000
555.351074	146.380000
555.444702	147.120000
555.538330	146.840000
555.631897	147.300000
555.725525	147.340000
555.819092	147.240000
555.912720	146.200000
556.006287	147.100000
556.099915	146.780000
556.193481	146.640000
556.287109	146.980000
556.380676	147.080000
556.474304	146.660000
556.567871	146.640000
556.661499	146.360000
556.755066	146.140000
556.848694	146.200000
556.942261	146.000000
557.035889	146.320000
557.129517	146.760000
557.223145	146.920000
557.316711	146.960000
557.410339	147.140000
557.503906	146.800000
557.597473	146.540000
557.691040	146.400000
557.784668	146.240000
557.878296	146.120000
557.971863	146.380000
558.065491	146.980000
558.159058	146.600000
558.252686	147.340000
558.346252	147.780000
558.439880	147.400000
558.533447	146.580000
558.627075	146.580000
558.720642	145.900000
558.814270	145.420000
558.907837	145.580000
559.001465	145.800000
559.095032	146.340000
559.188660	146.800000
559.282227	146.560000
559.375854	147.060000
559.469360	146.940000
559.562988	146.960000
559.656555	146.960000
559.750183	147.400000
559.843750	147.100000
559.937378	147.300000
560.030945	147.240000
560.124573	0.000000
560.218140	0.000000
560.311707	0.000000
560.405334	0.000000
560.498901	0.000000
560.592529	0.000000
560.686096	0.000000
560.779724	0.000000
560.873291	0.000000
560.966858	0.000000
561.060425	0.000000
561.154053	0.000000
561.247620	0.000000
561.341248	0.000000
561.434814	0.000000
561.528381	0.000000
561.621948	0.000000
561.715576	0.000000
561.809143	0.000000
561.902771	0.000000
561.996277	0.000000
562.089905	0.000000
562.183472	0.000000
562.277100	0.000000
