Model Number: SPM-002-B   
Serial Number: 70087108
Firmware Version: 004.15.4
Exposure Time: 100000.000000us
Data Taken on: 11-12-2020 19:39:04.779
Wavelength	Amplitude
221.570786	0.000000
221.663406	0.000000
221.756027	0.000000
221.848648	0.000000
221.941269	0.000000
222.033905	0.000000
222.126526	0.000000
222.219162	0.000000
222.311798	0.000000
222.404419	0.000000
222.497055	0.000000
222.589676	0.000000
222.682312	0.000000
222.774933	0.000000
222.867569	0.000000
222.960205	0.000000
223.052841	0.000000
223.145462	0.000000
223.238098	0.000000
223.330734	0.000000
223.423386	0.000000
223.516022	0.000000
223.608658	0.000000
223.701309	0.000000
223.793945	0.000000
223.886581	0.000000
223.979218	0.000000
224.071869	0.000000
224.164505	0.000000
224.257156	0.000000
224.349792	0.000000
224.442444	0.000000
224.535095	0.000000
224.627747	0.000000
224.720398	0.000000
224.813034	0.000000
224.905685	0.000000
224.998337	146.000000
225.090988	145.820000
225.183640	145.520000
225.276291	145.380000
225.368942	145.900000
225.461594	146.220000
225.554245	146.160000
225.646912	146.180000
225.739578	146.940000
225.832230	146.780000
225.924896	146.380000
226.017548	146.840000
226.110199	147.220000
226.202866	146.060000
226.295532	146.100000
226.388184	145.960000
226.480850	145.560000
226.573517	145.280000
226.666168	145.680000
226.758835	145.980000
226.851501	146.900000
226.944183	147.000000
227.036850	146.740000
227.129517	146.860000
227.222183	146.740000
227.314850	146.100000
227.407516	146.440000
227.500198	146.960000
227.592865	146.580000
227.685532	146.120000
227.778214	146.000000
227.870880	146.200000
227.963562	146.520000
228.056229	147.340000
228.148926	147.720000
228.241592	148.700000
228.334274	147.820000
228.426956	147.480000
228.519638	146.980000
228.612305	146.780000
228.704987	146.340000
228.797668	146.860000
228.890350	146.640000
228.983032	146.280000
229.075714	146.660000
229.168396	146.360000
229.261108	145.900000
229.353790	145.760000
229.446472	146.040000
229.539169	145.980000
229.631851	145.680000
229.724533	146.340000
229.817230	146.860000
229.909912	147.720000
230.002609	147.880000
230.095306	148.100000
230.187988	147.760000
230.280685	147.540000
230.373383	146.480000
230.466095	145.960000
230.558792	146.120000
230.651474	146.220000
230.744171	146.060000
230.836868	146.040000
230.929581	146.460000
231.022278	146.740000
231.114975	146.400000
231.207672	146.280000
231.300369	146.780000
231.393082	146.960000
231.485779	146.240000
231.578506	146.300000
231.671204	146.480000
231.763916	146.560000
231.856613	146.120000
231.949326	146.580000
232.042023	146.900000
232.134735	146.760000
232.227448	146.280000
232.320160	146.740000
232.412872	146.580000
232.505585	147.260000
232.598297	147.680000
232.691010	147.760000
232.783722	147.160000
232.876450	147.760000
232.969162	146.920000
233.061874	146.260000
233.154587	146.140000
233.247314	146.600000
233.340027	145.880000
233.432739	146.260000
233.525467	146.520000
233.618179	146.800000
233.710907	146.360000
233.803635	146.660000
233.896347	146.620000
233.989090	147.360000
234.081818	147.440000
234.174545	147.780000
234.267258	147.420000
234.359985	147.280000
234.452713	146.980000
234.545441	146.840000
234.638168	146.740000
234.730896	147.500000
234.823639	147.440000
234.916367	147.700000
235.009094	147.640000
235.101822	147.400000
235.194580	147.260000
235.287308	146.980000
235.380051	146.320000
235.472778	146.820000
235.565521	146.900000
235.658249	146.360000
235.750992	146.620000
235.843719	146.620000
235.936462	146.480000
236.029205	146.220000
236.121948	146.100000
236.214691	146.320000
236.307449	146.940000
236.400192	146.620000
236.492935	146.660000
236.585678	146.980000
236.678421	146.900000
236.771164	146.660000
236.863907	146.900000
236.956665	147.220000
237.049408	148.540000
237.142151	147.940000
237.234909	148.500000
237.327652	148.680000
237.420410	148.480000
237.513153	147.640000
237.605927	147.880000
237.698669	146.980000
237.791428	146.300000
237.884186	146.820000
237.976944	146.120000
238.069702	146.420000
238.162445	146.060000
238.255203	146.300000
238.347961	146.380000
238.440720	146.600000
238.533478	146.160000
238.626266	146.280000
238.719025	146.700000
238.811783	146.360000
238.904541	146.220000
238.997314	146.560000
239.090073	146.640000
239.182831	146.680000
239.275604	147.420000
239.368362	147.520000
239.461136	147.640000
239.553909	147.600000
239.646667	147.420000
239.739441	146.800000
239.832214	146.800000
239.925003	146.580000
240.017761	147.340000
240.110535	147.960000
240.203308	147.700000
240.296082	147.680000
240.388855	147.720000
240.481628	147.500000
240.574417	147.160000
240.667191	147.420000
240.759964	147.240000
240.852737	147.160000
240.945526	146.780000
241.038315	146.140000
241.131088	145.980000
241.223877	146.340000
241.316650	145.940000
241.409439	146.460000
241.502228	146.220000
241.595001	146.580000
241.687790	146.520000
241.780579	147.180000
241.873367	146.780000
241.966141	147.360000
242.058929	146.740000
242.151718	146.660000
242.244507	146.760000
242.337311	146.160000
242.430099	146.280000
242.522903	146.700000
242.615692	146.600000
242.708481	146.360000
242.801270	147.300000
242.894073	147.320000
242.986862	147.280000
243.079651	147.660000
243.172455	147.500000
243.265244	147.320000
243.358063	146.940000
243.450867	147.280000
243.543655	146.940000
243.636459	147.120000
243.729263	147.300000
243.822067	147.740000
243.914856	147.940000
244.007660	148.200000
244.100464	147.980000
244.193268	147.400000
244.286072	147.180000
244.378876	146.460000
244.471680	146.240000
244.564499	146.600000
244.657318	147.660000
244.750122	147.620000
244.842926	147.520000
244.935745	147.680000
245.028549	147.120000
245.121368	146.320000
245.214172	146.400000
245.306992	146.900000
245.399796	146.820000
245.492615	147.100000
245.585434	147.120000
245.678253	147.020000
245.771072	146.640000
245.863892	146.920000
245.956711	147.240000
246.049530	146.920000
246.142349	146.700000
246.235168	146.880000
246.327988	147.120000
246.420807	146.880000
246.513626	147.380000
246.606445	147.200000
246.699280	147.180000
246.792099	146.720000
246.884918	146.420000
246.977753	146.140000
247.070587	146.660000
247.163422	146.420000
247.256241	146.500000
247.349075	147.060000
247.441895	146.980000
247.534729	146.820000
247.627563	146.740000
247.720383	147.280000
247.813217	147.100000
247.906052	146.960000
247.998886	147.040000
248.091736	147.220000
248.184570	146.740000
248.277405	146.540000
248.370239	147.360000
248.463074	148.120000
248.555908	148.500000
248.648743	148.360000
248.741592	148.840000
248.834427	148.000000
248.927261	146.800000
249.020111	147.140000
249.112946	147.840000
249.205795	147.420000
249.298630	147.800000
249.391495	148.100000
249.484344	147.220000
249.577179	146.860000
249.670029	147.240000
249.762878	147.600000
249.855728	147.920000
249.948563	148.220000
250.041412	147.800000
250.134262	147.860000
250.227112	147.800000
250.319962	147.500000
250.412827	147.400000
250.505692	146.980000
250.598541	146.560000
250.691391	146.100000
250.784241	146.100000
250.877106	146.080000
250.969955	146.120000
251.062805	146.820000
251.155670	147.380000
251.248520	147.120000
251.341385	147.240000
251.434235	147.300000
251.527100	146.700000
251.619965	146.080000
251.712814	146.880000
251.805695	147.440000
251.898560	147.800000
251.991425	148.260000
252.084290	148.460000
252.177155	147.740000
252.270020	146.860000
252.362885	146.680000
252.455750	146.320000
252.548615	146.160000
252.641479	146.340000
252.734360	146.540000
252.827240	146.560000
252.920105	146.680000
253.012970	146.520000
253.105850	146.200000
253.198715	146.100000
253.291595	146.420000
253.384460	146.060000
253.477341	146.300000
253.570221	146.780000
253.663086	146.280000
253.755966	146.880000
253.848846	146.700000
253.941727	147.020000
254.034592	146.880000
254.127472	146.940000
254.220367	146.620000
254.313248	147.020000
254.406128	146.420000
254.499008	146.680000
254.591904	147.700000
254.684784	147.700000
254.777664	147.720000
254.870544	147.660000
254.963440	147.620000
255.056335	147.480000
255.149216	147.340000
255.242111	147.540000
255.334991	148.120000
255.427887	147.940000
255.520767	147.940000
255.613663	147.820000
255.706558	147.180000
255.799438	146.920000
255.892334	146.900000
255.985229	146.680000
256.078125	146.360000
256.171021	146.920000
256.263916	147.260000
256.356812	147.280000
256.449707	147.380000
256.542603	147.340000
256.635498	147.640000
256.728394	147.200000
256.821289	147.080000
256.914215	146.980000
257.007080	147.360000
257.100006	147.160000
257.192932	147.640000
257.285828	147.660000
257.378723	147.700000
257.471619	147.340000
257.564545	146.860000
257.657440	146.800000
257.750336	147.360000
257.843262	147.080000
257.936157	148.120000
258.029053	148.560000
258.121979	148.460000
258.214874	147.720000
258.307800	147.600000
258.400696	146.680000
258.493622	146.420000
258.586517	145.640000
258.679443	146.000000
258.772339	145.940000
258.865265	145.740000
258.958160	145.400000
259.051086	146.380000
259.144012	146.340000
259.236938	147.080000
259.329834	147.220000
259.422791	147.120000
259.515717	146.520000
259.608612	146.160000
259.701538	146.080000
259.794464	145.900000
259.887390	146.060000
259.980316	146.080000
260.073212	145.860000
260.166138	144.820000
260.259064	145.480000
260.351990	145.920000
260.444916	145.960000
260.537842	146.840000
260.630768	147.500000
260.723694	147.400000
260.816620	147.260000
260.909546	147.240000
261.002472	146.720000
261.095398	146.280000
261.188354	146.020000
261.281281	145.740000
261.374207	145.840000
261.467133	146.440000
261.560089	146.900000
261.653015	146.800000
261.745972	147.280000
261.838867	147.680000
261.931824	147.660000
262.024780	147.060000
262.117706	147.480000
262.210663	147.540000
262.303589	147.080000
262.396515	147.040000
262.489471	148.360000
262.582397	147.960000
262.675354	147.380000
262.768280	147.420000
262.861237	147.320000
262.954163	146.720000
263.047119	147.000000
263.140045	146.920000
263.233002	146.880000
263.325958	146.740000
263.418884	146.360000
263.511841	146.240000
263.604797	146.200000
263.697723	146.300000
263.790680	146.380000
263.883636	146.860000
263.976593	146.660000
264.069550	147.440000
264.162476	147.000000
264.255463	146.900000
264.348419	146.720000
264.441376	146.800000
264.534332	145.900000
264.627289	146.160000
264.720245	146.540000
264.813202	146.260000
264.906158	146.440000
264.999115	147.120000
265.092072	147.500000
265.185028	147.740000
265.277985	147.940000
265.370941	147.580000
265.463898	147.360000
265.556854	146.880000
265.649811	145.780000
265.742798	145.800000
265.835754	146.140000
265.928711	146.600000
266.021667	147.000000
266.114655	147.480000
266.207611	147.760000
266.300568	147.200000
266.393585	146.620000
266.486511	146.400000
266.579498	145.860000
266.672485	145.520000
266.765442	145.640000
266.858429	146.240000
266.951385	146.220000
267.044342	146.460000
267.137329	146.440000
267.230316	146.880000
267.323273	146.320000
267.416260	147.160000
267.509216	147.180000
267.602203	147.300000
267.695160	147.860000
267.788147	147.920000
267.881134	147.000000
267.974091	147.000000
268.067078	146.560000
268.160065	145.920000
268.253052	145.900000
268.346008	146.240000
268.438995	146.240000
268.531982	146.840000
268.624969	146.540000
268.717987	146.700000
268.810944	146.180000
268.903961	146.280000
268.996948	145.640000
269.089905	146.200000
269.182892	146.400000
269.275879	146.940000
269.368866	146.780000
269.461853	147.160000
269.554871	146.960000
269.647858	146.640000
269.740845	146.680000
269.833832	146.860000
269.926819	146.480000
270.019806	146.440000
270.112793	146.020000
270.205811	146.320000
270.298798	145.840000
270.391785	146.600000
270.484772	146.280000
270.577789	146.720000
270.670776	146.220000
270.763763	146.560000
270.856750	146.360000
270.949768	146.340000
271.042786	146.200000
271.135773	146.080000
271.228790	146.460000
271.321808	145.920000
271.414795	145.720000
271.507782	145.460000
271.600800	145.540000
271.693817	145.460000
271.786804	146.160000
271.879822	146.740000
271.972809	146.980000
272.065826	147.220000
272.158844	146.680000
272.251831	147.040000
272.344849	146.640000
272.437866	146.180000
272.530853	146.320000
272.623871	146.780000
272.716888	145.620000
272.809906	146.000000
272.902893	146.260000
272.995911	145.500000
273.088928	145.300000
273.181946	145.840000
273.274963	145.400000
273.367981	145.200000
273.460999	145.600000
273.554047	146.120000
273.647003	146.520000
273.740051	146.520000
273.833069	147.240000
273.926086	147.280000
274.019135	146.940000
274.112152	146.640000
274.205170	146.940000
274.298187	146.640000
274.391205	146.420000
274.484222	146.660000
274.577240	146.580000
274.670258	146.580000
274.763306	146.580000
274.856323	146.860000
274.949341	146.600000
275.042358	146.940000
275.135406	146.760000
275.228424	146.700000
275.321442	146.540000
275.414490	146.240000
275.507507	146.340000
275.600525	146.900000
275.693573	146.960000
275.786591	146.900000
275.879669	147.160000
275.972656	146.800000
276.065735	146.320000
276.158752	146.820000
276.251801	147.240000
276.344818	147.260000
276.437866	147.220000
276.530884	147.380000
276.623932	146.760000
276.716980	147.020000
276.809998	147.060000
276.903046	147.480000
276.996094	148.140000
277.089111	148.880000
277.182159	149.240000
277.275208	148.860000
277.368256	148.560000
277.461304	148.140000
277.554321	147.320000
277.647369	146.720000
277.740417	146.940000
277.833466	146.740000
277.926514	146.380000
278.019562	147.040000
278.112610	146.440000
278.205688	146.740000
278.298706	147.060000
278.391785	146.860000
278.484833	146.480000
278.577881	146.600000
278.670929	146.840000
278.763977	146.640000
278.857025	147.300000
278.950073	147.140000
279.043121	147.180000
279.136169	146.940000
279.229248	146.580000
279.322296	146.340000
279.415344	146.260000
279.508392	146.060000
279.601440	145.820000
279.694519	145.960000
279.787567	145.780000
279.880615	145.640000
279.973694	145.880000
280.066742	145.940000
280.159790	146.280000
280.252869	146.320000
280.345917	146.700000
280.438995	146.620000
280.532074	146.680000
280.625122	146.840000
280.718201	147.320000
280.811279	147.460000
280.904327	147.640000
280.997406	147.820000
281.090454	147.820000
281.183533	147.140000
281.276581	146.780000
281.369659	146.200000
281.462738	145.960000
281.555786	145.860000
281.648865	146.320000
281.741943	146.480000
281.835022	147.400000
281.928070	147.340000
282.021149	147.000000
282.114227	146.720000
282.207306	146.820000
282.300385	146.720000
282.393433	146.760000
282.486511	147.240000
282.579590	147.440000
282.672668	147.640000
282.765747	147.320000
282.858856	147.120000
282.951904	147.120000
283.045013	147.460000
283.138062	147.460000
283.231171	147.720000
283.324249	148.360000
283.417328	148.100000
283.510406	147.680000
283.603485	147.480000
283.696564	147.360000
283.789642	147.060000
283.882751	146.940000
283.975830	147.000000
284.068909	146.900000
284.161987	147.340000
284.255066	146.800000
284.348175	146.740000
284.441254	146.760000
284.534332	146.900000
284.627441	146.480000
284.720520	146.540000
284.813599	146.440000
284.906708	146.520000
284.999786	146.140000
285.092896	145.920000
285.185974	146.860000
285.279053	146.640000
285.372192	146.400000
285.465240	146.940000
285.558380	147.100000
285.651459	146.720000
285.744568	147.660000
285.837677	147.480000
285.930756	147.520000
286.023865	147.040000
286.116943	146.700000
286.210052	146.440000
286.303162	146.460000
286.396240	146.220000
286.489349	146.500000
286.582458	146.980000
286.675568	146.780000
286.768646	146.880000
286.861755	147.080000
286.954865	147.760000
287.047974	146.920000
287.141083	146.620000
287.234161	146.520000
287.327271	146.120000
287.420380	145.940000
287.513519	146.360000
287.606598	146.480000
287.699738	146.380000
287.792816	146.480000
287.885956	146.380000
287.979034	146.360000
288.072174	146.420000
288.165283	146.580000
288.258392	146.920000
288.351501	146.360000
288.444611	146.580000
288.537720	146.820000
288.630859	146.760000
288.723969	146.940000
288.817078	147.320000
288.910187	147.280000
289.003296	146.920000
289.096436	146.440000
289.189545	146.020000
289.282654	145.620000
289.375763	145.980000
289.468903	146.280000
289.562012	146.960000
289.655121	146.980000
289.748260	147.520000
289.841400	147.540000
289.934509	147.460000
290.027649	147.780000
290.120728	147.480000
290.213898	147.240000
290.306976	146.820000
290.400146	146.900000
290.493256	145.940000
290.586395	146.340000
290.679535	146.900000
290.772644	146.360000
290.865784	145.780000
290.958893	146.400000
291.052032	146.280000
291.145172	145.880000
291.238281	146.180000
291.331421	146.600000
291.424561	147.060000
291.517670	146.780000
291.610809	146.760000
291.703949	146.620000
291.797089	146.780000
291.890228	145.960000
291.983337	146.160000
292.076477	146.040000
292.169617	146.580000
292.262756	146.380000
292.355927	146.580000
292.449036	146.320000
292.542206	146.500000
292.635315	146.340000
292.728485	146.700000
292.821625	146.480000
292.914764	147.640000
293.007904	148.020000
293.101044	148.180000
293.194183	148.100000
293.287323	148.280000
293.380463	147.560000
293.473602	146.900000
293.566742	147.000000
293.659882	147.320000
293.753021	147.540000
293.846191	147.320000
293.939331	147.240000
294.032471	146.900000
294.125610	146.380000
294.218781	146.640000
294.311920	146.900000
294.405060	147.020000
294.498230	147.060000
294.591370	147.060000
294.684540	146.280000
294.777679	145.920000
294.870850	146.260000
294.963959	146.080000
295.057159	146.100000
295.150299	146.680000
295.243469	146.700000
295.336609	146.060000
295.429779	146.020000
295.522919	146.120000
295.616089	146.220000
295.709229	146.520000
295.802399	146.860000
295.895569	146.800000
295.988708	146.480000
296.081879	146.380000
296.175018	145.840000
296.268188	145.840000
296.361359	146.620000
296.454529	147.140000
296.547668	147.060000
296.640839	147.620000
296.734009	147.620000
296.827179	147.460000
296.920319	147.680000
297.013519	147.560000
297.106659	147.780000
297.199860	147.800000
297.292999	147.400000
297.386200	146.740000
297.479309	146.660000
297.572510	146.420000
297.665680	146.180000
297.758850	146.160000
297.852020	146.260000
297.945190	146.280000
298.038361	145.980000
298.131531	146.680000
298.224701	146.500000
298.317871	146.400000
298.411072	146.220000
298.504242	146.200000
298.597412	145.480000
298.690582	146.260000
298.783752	146.300000
298.876923	146.880000
298.970093	147.140000
299.063293	147.700000
299.156464	147.440000
299.249634	147.640000
299.342834	147.560000
299.436005	147.620000
299.529205	147.280000
299.622345	147.340000
299.715576	146.780000
299.808716	146.360000
299.901917	146.520000
299.995117	147.180000
300.088287	147.400000
300.181488	147.180000
300.274658	147.300000
300.367828	147.360000
300.461029	146.700000
300.554199	146.520000
300.647400	147.000000
300.740601	147.480000
300.833771	147.100000
300.926971	147.380000
301.020142	146.960000
301.113342	146.900000
301.206512	146.540000
301.299713	147.020000
301.392914	147.100000
301.486084	147.620000
301.579285	147.820000
301.672516	147.960000
301.765686	147.440000
301.858887	147.160000
301.952057	146.880000
302.045288	146.720000
302.138458	146.680000
302.231659	146.680000
302.324860	146.820000
302.418060	146.640000
302.511261	146.620000
302.604462	146.640000
302.697662	146.300000
302.790863	145.940000
302.884064	145.880000
302.977264	146.000000
303.070465	146.180000
303.163666	147.140000
303.256866	147.560000
303.350067	147.620000
303.443268	147.740000
303.536469	147.820000
303.629669	146.980000
303.722870	147.000000
303.816071	146.700000
303.909271	146.600000
304.002472	145.740000
304.095673	145.860000
304.188934	145.260000
304.282104	146.420000
304.375336	146.460000
304.468506	146.860000
304.561768	146.800000
304.654968	147.540000
304.748169	146.640000
304.841370	146.300000
304.934601	146.620000
305.027802	146.280000
305.121002	145.860000
305.214233	146.000000
305.307434	146.440000
305.400665	146.900000
305.493866	147.100000
305.587097	147.340000
305.680298	147.220000
305.773499	147.640000
305.866730	146.840000
305.959930	147.520000
306.053162	147.660000
306.146393	147.580000
306.239594	146.580000
306.332825	146.860000
306.426025	147.080000
306.519287	146.680000
306.612488	146.900000
306.705719	147.180000
306.798920	147.140000
306.892181	146.220000
306.985352	145.920000
307.078613	145.440000
307.171844	145.640000
307.265045	145.060000
307.358276	145.060000
307.451508	145.660000
307.544739	146.120000
307.637970	145.680000
307.731201	145.820000
307.824402	146.380000
307.917633	146.420000
308.010864	146.660000
308.104095	147.200000
308.197327	147.520000
308.290558	147.440000
308.383789	146.900000
308.477020	146.460000
308.570251	145.780000
308.663483	145.600000
308.756714	145.240000
308.849976	145.640000
308.943176	146.340000
309.036438	146.380000
309.129639	146.220000
309.222900	146.440000
309.316101	146.040000
309.409393	145.000000
309.502625	145.020000
309.595856	145.260000
309.689087	145.180000
309.782318	145.400000
309.875580	145.640000
309.968811	145.900000
310.062042	145.660000
310.155273	145.800000
310.248535	146.520000
310.341766	146.480000
310.434998	146.420000
310.528259	146.440000
310.621490	146.520000
310.714722	145.480000
310.807983	145.740000
310.901215	145.860000
310.994476	146.120000
311.087708	145.660000
311.181000	145.860000
311.274200	145.760000
311.367462	145.900000
311.460693	145.760000
311.553986	146.680000
311.647186	147.120000
311.740479	147.820000
311.833710	147.520000
311.926971	147.320000
312.020203	146.440000
312.113464	146.220000
312.206726	145.200000
312.299957	145.640000
312.393219	146.320000
312.486481	146.980000
312.579712	146.720000
312.672974	146.980000
312.766235	146.840000
312.859497	146.560000
312.952759	146.300000
313.045990	146.940000
313.139252	146.460000
313.232513	146.420000
313.325775	146.360000
313.419037	145.960000
313.512299	145.240000
313.605530	146.120000
313.698822	146.200000
313.792053	146.360000
313.885345	146.180000
313.978577	146.340000
314.071869	145.720000
314.165131	145.720000
314.258392	145.740000
314.351654	146.140000
314.444916	145.700000
314.538177	146.740000
314.631439	147.040000
314.724701	146.800000
314.817993	146.600000
314.911255	147.040000
315.004517	145.980000
315.097778	145.380000
315.191040	145.900000
315.284302	146.280000
315.377594	146.160000
315.470856	146.480000
315.564117	146.360000
315.657379	145.520000
315.750671	145.000000
315.843933	145.360000
315.937195	144.920000
316.030518	144.960000
316.123749	145.360000
316.217041	146.320000
316.310303	146.120000
316.403595	146.280000
316.496857	146.520000
316.590149	146.840000
316.683411	146.040000
316.776703	146.240000
316.869965	146.560000
316.963257	146.200000
317.056519	145.540000
317.149811	145.600000
317.243073	145.320000
317.336365	145.400000
317.429626	145.940000
317.522919	146.480000
317.616180	146.320000
317.709473	146.120000
317.802765	146.080000
317.896027	146.040000
317.989319	146.300000
318.082611	146.360000
318.175873	146.500000
318.269165	146.560000
318.362488	146.280000
318.455750	145.640000
318.549042	146.260000
318.642303	146.700000
318.735626	146.280000
318.828888	146.560000
318.922211	146.480000
319.015472	146.560000
319.108765	146.060000
319.202057	145.780000
319.295349	145.900000
319.388641	146.000000
319.481934	145.600000
319.575226	145.460000
319.668518	145.960000
319.761810	146.000000
319.855103	146.220000
319.948395	146.220000
320.041687	146.700000
320.134979	146.440000
320.228271	146.220000
320.321564	145.760000
320.414856	145.780000
320.508148	145.600000
320.601440	145.680000
320.694763	145.400000
320.788025	146.400000
320.881348	146.500000
320.974640	146.420000
321.067963	146.180000
321.161224	146.220000
321.254547	145.240000
321.347839	145.560000
321.441162	145.160000
321.534454	145.440000
321.627747	145.300000
321.721069	146.160000
321.814362	146.340000
321.907654	146.880000
322.000946	146.740000
322.094269	147.540000
322.187561	147.080000
322.280884	146.840000
322.374176	146.980000
322.467468	147.480000
322.560791	147.240000
322.654083	147.560000
322.747406	147.800000
322.840698	147.700000
322.934021	147.880000
323.027344	147.780000
323.120636	147.360000
323.213959	146.860000
323.307251	146.640000
323.400574	145.920000
323.493866	145.520000
323.587219	145.880000
323.680511	146.380000
323.773834	146.420000
323.867157	146.940000
323.960449	147.220000
324.053772	146.960000
324.147095	146.460000
324.240387	146.780000
324.333710	146.740000
324.427032	146.900000
324.520355	146.940000
324.613647	146.720000
324.706970	146.560000
324.800293	146.400000
324.893616	146.700000
324.986938	147.020000
325.080231	146.940000
325.173553	147.300000
325.266876	147.780000
325.360199	147.440000
325.453522	146.840000
325.546875	146.900000
325.640167	146.780000
325.733521	146.740000
325.826813	147.080000
325.920166	146.980000
326.013489	146.900000
326.106812	146.120000
326.200134	145.680000
326.293457	144.940000
326.386780	145.180000
326.480103	145.260000
326.573425	145.620000
326.666748	145.760000
326.760071	146.460000
326.853424	146.580000
326.946747	146.720000
327.040070	147.560000
327.133392	147.380000
327.226715	146.700000
327.320068	146.140000
327.413391	146.540000
327.506714	145.320000
327.600037	145.420000
327.693390	145.700000
327.786713	146.220000
327.880066	146.080000
327.973358	146.580000
328.066742	146.920000
328.160034	147.100000
328.253418	147.560000
328.346710	147.220000
328.440063	146.880000
328.533417	146.480000
328.626740	146.840000
328.720093	145.960000
328.813416	145.920000
328.906769	146.400000
329.000092	146.380000
329.093445	145.920000
329.186768	145.960000
329.280121	146.300000
329.373444	146.140000
329.466797	146.220000
329.560120	146.160000
329.653473	146.520000
329.746796	146.180000
329.840149	146.220000
329.933502	146.160000
330.026825	146.300000
330.120178	146.000000
330.213562	146.120000
330.306854	146.240000
330.400238	146.360000
330.493561	145.900000
330.586945	146.560000
330.680237	146.640000
330.773621	146.360000
330.866974	146.360000
330.960327	146.820000
331.053680	146.240000
331.147003	146.460000
331.240356	146.840000
331.333710	146.960000
331.427063	146.600000
331.520416	146.600000
331.613770	146.100000
331.707123	146.060000
331.800476	145.920000
331.893829	147.000000
331.987152	147.500000
332.080505	147.800000
332.173859	147.520000
332.267212	147.180000
332.360565	146.100000
332.453918	145.620000
332.547333	145.620000
332.640656	145.820000
332.734039	145.860000
332.827362	146.280000
332.920746	146.680000
333.014069	146.900000
333.107452	147.360000
333.200806	147.740000
333.294159	147.780000
333.387543	147.720000
333.480896	147.080000
333.574249	146.540000
333.667603	146.280000
333.760956	146.240000
333.854340	146.060000
333.947693	146.260000
334.041046	146.200000
334.134430	146.500000
334.227783	146.000000
334.321136	145.960000
334.414520	145.360000
334.507874	145.800000
334.601227	145.800000
334.694611	145.960000
334.787964	146.280000
334.881348	147.280000
334.974701	146.920000
335.068085	146.500000
335.161438	147.120000
335.254822	146.720000
335.348175	146.520000
335.441559	146.240000
335.534943	147.020000
335.628296	146.400000
335.721680	146.300000
335.815033	146.460000
335.908417	146.880000
336.001770	146.720000
336.095154	146.980000
336.188538	146.880000
336.281891	146.300000
336.375275	145.800000
336.468658	145.400000
336.562012	145.360000
336.655396	145.640000
336.748779	146.260000
336.842133	146.520000
336.935516	146.860000
337.028900	146.620000
337.122284	146.540000
337.215637	146.500000
337.309021	146.480000
337.402435	146.100000
337.495789	146.260000
337.589203	146.100000
337.682526	145.820000
337.775940	146.040000
337.869324	146.080000
337.962708	145.860000
338.056091	146.660000
338.149475	146.660000
338.242859	146.500000
338.336243	146.600000
338.429626	146.800000
338.523010	146.360000
338.616394	146.120000
338.709778	146.660000
338.803162	146.660000
338.896545	146.660000
338.989929	146.180000
339.083313	146.600000
339.176697	146.060000
339.270081	145.800000
339.363464	146.240000
339.456848	146.540000
339.550232	146.040000
339.643616	146.040000
339.737030	146.340000
339.830383	146.160000
339.923828	146.340000
340.017181	146.500000
340.110596	146.620000
340.203949	146.660000
340.297363	146.200000
340.390778	146.240000
340.484161	146.420000
340.577545	146.340000
340.670959	146.400000
340.764343	146.640000
340.857727	146.820000
340.951111	146.440000
341.044525	146.640000
341.137909	146.160000
341.231293	146.060000
341.324707	145.560000
341.418091	146.380000
341.511505	146.460000
341.604889	146.920000
341.698303	147.180000
341.791687	147.580000
341.885071	147.120000
341.978485	146.600000
342.071899	146.520000
342.165283	146.440000
342.258698	146.760000
342.352081	147.280000
342.445496	148.140000
342.538879	148.000000
342.632324	147.780000
342.725708	147.360000
342.819122	146.840000
342.912506	146.260000
343.005920	146.420000
343.099335	147.060000
343.192719	147.160000
343.286133	147.280000
343.379547	147.540000
343.472931	147.460000
343.566345	146.760000
343.659760	146.840000
343.753143	146.260000
343.846558	145.840000
343.939972	145.920000
344.033386	146.580000
344.126770	146.100000
344.220184	146.500000
344.313599	147.160000
344.407043	146.920000
344.500427	146.400000
344.593872	147.220000
344.687225	147.060000
344.780670	146.260000
344.874054	146.320000
344.967499	146.800000
345.060913	146.500000
345.154327	146.260000
345.247742	146.580000
345.341156	146.380000
345.434570	145.760000
345.527985	145.260000
345.621399	145.420000
345.714813	145.140000
345.808228	145.280000
345.901642	145.100000
345.995056	145.000000
346.088470	145.640000
346.181885	145.920000
346.275299	146.060000
346.368713	146.160000
346.462128	146.040000
346.555573	145.560000
346.648987	145.640000
346.742401	145.400000
346.835815	146.220000
346.929260	146.260000
347.022644	146.620000
347.116119	146.580000
347.209503	147.400000
347.302948	147.840000
347.396362	148.600000
347.489807	148.700000
347.583221	149.020000
347.676636	148.340000
347.770050	147.080000
347.863495	146.220000
347.956909	145.940000
348.050323	145.600000
348.143768	145.560000
348.237183	145.480000
348.330597	146.220000
348.424042	146.400000
348.517456	146.500000
348.610901	146.840000
348.704315	147.040000
348.797760	146.440000
348.891174	145.940000
348.984619	145.380000
349.078033	145.600000
349.171448	146.240000
349.264923	146.420000
349.358337	146.440000
349.451782	146.840000
349.545197	145.940000
349.638641	145.200000
349.732086	145.020000
349.825500	145.500000
349.918945	145.000000
350.012390	145.800000
350.105804	146.280000
350.199249	146.460000
350.292664	146.540000
350.386108	147.040000
350.479553	147.180000
350.572968	146.940000
350.666412	147.120000
350.759857	146.920000
350.853302	147.400000
350.946716	146.820000
351.040161	146.860000
351.133606	146.600000
351.227081	146.360000
351.320465	146.600000
351.413940	146.820000
351.507355	146.920000
351.600830	147.320000
351.694244	147.220000
351.787720	146.900000
351.881104	146.800000
351.974579	146.460000
352.067993	146.740000
352.161469	147.020000
352.254883	146.720000
352.348358	146.580000
352.441803	146.940000
352.535248	146.420000
352.628693	146.620000
352.722137	146.340000
352.815582	146.720000
352.909027	146.740000
353.002472	146.860000
353.095917	146.660000
353.189362	147.040000
353.282806	146.720000
353.376251	146.440000
353.469696	146.160000
353.563141	146.620000
353.656586	146.420000
353.750061	145.880000
353.843475	146.060000
353.936981	146.740000
354.030396	146.000000
354.123871	145.960000
354.217285	147.280000
354.310760	147.300000
354.404175	146.920000
354.497681	146.920000
354.591095	146.820000
354.684570	145.840000
354.777985	145.280000
354.871490	145.080000
354.964935	145.580000
355.058380	145.820000
355.151855	145.780000
355.245300	146.480000
355.338745	146.680000
355.432220	146.480000
355.525665	146.260000
355.619110	146.480000
355.712585	145.940000
355.806030	145.600000
355.899475	145.260000
355.992950	145.740000
356.086426	146.000000
356.179871	146.160000
356.273346	146.180000
356.366791	146.300000
356.460266	146.140000
356.553711	145.880000
356.647186	146.060000
356.740631	145.960000
356.834106	146.080000
356.927551	146.400000
357.021027	146.480000
357.114471	146.680000
357.207947	147.240000
357.301422	147.480000
357.394867	147.280000
357.488342	147.700000
357.581818	147.360000
357.675262	147.300000
357.768738	147.020000
357.862213	146.400000
357.955658	146.160000
358.049133	146.380000
358.142609	146.680000
358.236053	146.640000
358.329529	147.100000
358.423035	147.100000
358.516449	146.720000
358.609955	146.780000
358.703400	147.420000
358.796906	147.280000
358.890350	146.900000
358.983826	147.260000
359.077271	146.480000
359.170776	146.160000
359.264221	146.180000
359.357727	146.340000
359.451172	146.860000
359.544647	146.980000
359.638123	146.640000
359.731598	147.080000
359.825073	147.740000
359.918549	147.560000
360.012024	148.060000
360.105499	147.660000
360.198975	147.460000
360.292450	147.140000
360.385925	146.840000
360.479401	146.220000
360.572876	146.860000
360.666351	146.980000
360.759857	146.880000
360.853302	147.060000
360.946808	147.000000
361.040253	146.840000
361.133759	146.560000
361.227203	146.780000
361.320709	146.420000
361.414154	146.780000
361.507660	147.000000
361.601105	147.280000
361.694641	147.440000
361.788086	147.260000
361.881592	147.260000
361.975067	147.040000
362.068542	147.160000
362.162018	146.800000
362.255524	146.760000
362.348999	146.840000
362.442474	147.280000
362.535950	146.680000
362.629456	146.840000
362.722931	146.820000
362.816406	146.900000
362.909882	146.860000
363.003387	146.760000
363.096863	146.880000
363.190338	147.000000
363.283875	146.880000
363.377319	146.780000
363.470825	147.580000
363.564301	146.900000
363.657806	147.400000
363.751282	147.140000
363.844788	148.000000
363.938232	147.120000
364.031769	148.080000
364.125214	147.660000
364.218750	148.540000
364.312225	147.260000
364.405731	147.700000
364.499207	146.880000
364.592712	146.960000
364.686188	146.600000
364.779694	146.840000
364.873169	146.920000
364.966675	146.920000
365.060150	146.580000
365.153656	146.360000
365.247131	146.400000
365.340637	146.320000
365.434143	147.040000
365.527618	147.320000
365.621155	147.020000
365.714600	147.020000
365.808136	147.160000
365.901611	146.200000
365.995117	146.040000
366.088593	146.280000
366.182129	145.920000
366.275604	145.940000
366.369110	146.140000
366.462585	146.500000
366.556122	147.000000
366.649567	147.080000
366.743103	147.060000
366.836609	147.060000
366.930115	147.060000
367.023590	147.060000
367.117096	147.140000
367.210602	147.020000
367.304108	147.500000
367.397614	148.060000
367.491119	147.860000
367.584595	148.020000
367.678101	148.120000
367.771606	147.480000
367.865112	146.900000
367.958649	146.340000
368.052124	146.260000
368.145660	146.100000
368.239136	146.720000
368.332672	146.740000
368.426147	147.120000
368.519684	146.800000
368.613159	147.140000
368.706696	146.740000
368.800171	146.800000
368.893707	146.780000
368.987183	147.140000
369.080719	147.080000
369.174225	146.820000
369.267731	146.760000
369.361237	146.700000
369.454742	146.680000
369.548248	146.800000
369.641754	147.040000
369.735260	146.820000
369.828766	146.220000
369.922272	146.960000
370.015808	146.620000
370.109314	146.320000
370.202820	146.200000
370.296356	147.200000
370.389832	146.600000
370.483368	146.320000
370.576874	146.580000
370.670410	146.780000
370.763885	145.620000
370.857422	145.480000
370.950928	145.560000
371.044464	146.120000
371.137939	145.880000
371.231476	146.660000
371.324982	147.140000
371.418518	147.360000
371.512024	147.040000
371.605560	147.160000
371.699066	147.240000
371.792572	146.820000
371.886108	147.040000
371.979614	147.020000
372.073120	147.700000
372.166656	147.440000
372.260162	147.740000
372.353668	147.260000
372.447205	147.200000
372.540710	146.800000
372.634277	146.720000
372.727753	146.480000
372.821320	146.600000
372.914795	146.660000
373.008362	146.360000
373.101837	146.480000
373.195404	146.460000
373.288879	146.500000
373.382446	147.020000
373.475922	147.140000
373.569489	147.860000
373.662964	148.100000
373.756531	148.180000
373.850037	148.000000
373.943573	148.060000
374.037109	146.960000
374.130615	146.880000
374.224152	147.020000
374.317657	146.560000
374.411194	147.160000
374.504730	147.460000
374.598236	147.460000
374.691772	147.100000
374.785309	147.340000
374.878815	145.980000
374.972351	146.300000
375.065887	146.000000
375.159454	146.880000
375.252930	146.940000
375.346497	147.800000
375.440002	148.160000
375.533569	148.120000
375.627045	147.120000
375.720612	146.840000
375.814117	147.000000
375.907684	146.600000
376.001160	146.800000
376.094727	146.500000
376.188232	146.820000
376.281799	146.920000
376.375336	146.640000
376.468872	147.260000
376.562408	147.880000
376.655914	147.600000
376.749451	147.440000
376.842987	147.860000
376.936523	147.200000
377.030060	147.140000
377.123596	147.540000
377.217133	146.840000
377.310669	146.380000
377.404205	146.820000
377.497772	147.280000
377.591278	147.000000
377.684845	148.060000
377.778351	148.620000
377.871918	148.080000
377.965424	147.420000
378.058990	147.120000
378.152496	146.800000
378.246063	147.000000
378.339569	147.420000
378.433136	147.380000
378.526642	147.640000
378.620209	147.420000
378.713745	146.800000
378.807312	147.200000
378.900848	147.320000
378.994385	147.620000
379.087921	147.100000
379.181458	147.460000
379.274994	146.400000
379.368530	146.380000
379.462097	146.460000
379.555634	147.060000
379.649170	146.160000
379.742706	146.340000
379.836273	146.640000
379.929810	146.160000
380.023376	145.920000
380.116882	146.140000
380.210449	145.940000
380.303986	145.540000
380.397552	145.080000
380.491058	145.140000
380.584656	145.160000
380.678162	145.640000
380.771729	145.680000
380.865265	146.620000
380.958832	146.640000
381.052368	146.980000
381.145935	147.080000
381.239471	147.540000
381.333008	147.300000
381.426575	147.340000
381.520111	147.700000
381.613647	148.080000
381.707214	147.660000
381.800751	147.020000
381.894318	147.220000
381.987854	146.640000
382.081421	146.120000
382.174988	146.200000
382.268524	146.140000
382.362091	145.900000
382.455627	146.760000
382.549194	146.560000
382.642731	146.020000
382.736298	146.100000
382.829834	145.980000
382.923401	145.980000
383.016937	146.240000
383.110504	146.940000
383.204041	147.040000
383.297607	147.500000
383.391174	146.560000
383.484741	147.180000
383.578278	146.800000
383.671844	146.640000
383.765411	146.100000
383.858948	146.920000
383.952515	146.220000
384.046051	146.460000
384.139618	146.960000
384.233185	147.200000
384.326721	146.960000
384.420288	147.480000
384.513855	147.520000
384.607422	147.820000
384.700989	148.040000
384.794525	147.520000
384.888123	147.340000
384.981659	147.360000
385.075226	146.580000
385.168762	146.160000
385.262360	146.300000
385.355896	145.160000
385.449463	145.040000
385.542999	145.560000
385.636597	146.180000
385.730164	146.340000
385.823730	146.580000
385.917267	146.380000
386.010834	146.460000
386.104401	146.120000
386.197968	146.360000
386.291534	146.780000
386.385101	146.920000
386.478668	146.960000
386.572235	146.840000
386.665802	146.300000
386.759338	146.140000
386.852905	145.960000
386.946472	145.600000
387.040070	146.100000
387.133606	146.200000
387.227203	146.220000
387.320740	146.440000
387.414337	145.980000
387.507874	145.720000
387.601471	145.880000
387.695007	145.620000
387.788605	145.440000
387.882141	145.900000
387.975739	145.660000
388.069275	145.700000
388.162872	146.100000
388.256439	146.280000
388.350037	146.320000
388.443604	146.480000
388.537170	146.180000
388.630737	146.700000
388.724304	146.980000
388.817871	147.100000
388.911438	147.040000
389.005005	147.460000
389.098602	147.480000
389.192169	147.100000
389.285736	147.220000
389.379333	147.220000
389.472870	146.660000
389.566467	146.220000
389.660034	146.340000
389.753632	145.900000
389.847168	146.420000
389.940765	146.940000
390.034332	147.180000
390.127930	146.800000
390.221466	146.800000
390.315063	145.940000
390.408630	145.340000
390.502228	144.620000
390.595795	144.940000
390.689362	145.140000
390.782959	145.720000
390.876526	146.220000
390.970093	146.500000
391.063690	146.760000
391.157257	146.760000
391.250824	146.880000
391.344421	146.340000
391.437988	147.040000
391.531555	146.720000
391.625153	146.940000
391.718750	147.000000
391.812317	147.340000
391.905914	146.740000
391.999481	147.180000
392.093079	147.260000
392.186615	147.340000
392.280243	147.540000
392.373779	147.740000
392.467407	147.980000
392.560944	147.640000
392.654572	146.940000
392.748108	146.960000
392.841736	147.080000
392.935303	146.400000
393.028900	146.240000
393.122467	146.620000
393.216064	146.280000
393.309631	145.580000
393.403229	145.520000
393.496796	145.560000
393.590393	144.920000
393.683990	145.260000
393.777557	145.920000
393.871155	145.900000
393.964722	146.480000
394.058350	146.520000
394.151917	146.240000
394.245514	145.940000
394.339081	146.540000
394.432678	146.480000
394.526245	146.980000
394.619873	146.640000
394.713409	146.580000
394.807037	146.000000
394.900604	145.840000
394.994202	145.720000
395.087769	146.360000
395.181396	146.380000
395.274994	147.300000
395.368561	146.660000
395.462158	146.960000
395.555756	146.500000
395.649353	146.800000
395.742920	146.360000
395.836517	147.140000
395.930115	146.280000
396.023712	146.660000
396.117279	147.020000
396.210876	146.560000
396.304474	146.500000
396.398071	147.120000
396.491669	147.320000
396.585266	146.900000
396.678833	146.800000
396.772461	147.220000
396.866028	147.080000
396.959656	147.060000
397.053223	147.320000
397.146851	147.420000
397.240417	147.500000
397.334015	149.000000
397.427582	149.540000
397.521210	150.540000
397.614807	153.120000
397.708405	155.180000
397.802002	157.840000
397.895599	162.540000
397.989197	167.540000
398.082794	172.780000
398.176392	180.140000
398.269989	188.040000
398.363586	197.400000
398.457184	209.580000
398.550781	223.660000
398.644379	238.660000
398.737976	255.960000
398.831573	274.420000
398.925201	292.680000
399.018768	311.840000
399.112396	331.360000
399.205963	349.820000
399.299591	368.380000
399.393158	386.580000
399.486786	403.720000
399.580353	420.320000
399.673981	436.200000
399.767578	452.020000
399.861206	466.940000
399.954773	480.020000
400.048401	488.320000
400.141998	493.020000
400.235596	491.280000
400.329193	483.680000
400.422791	471.240000
400.516418	456.520000
400.610016	439.700000
400.703613	422.120000
400.797211	402.460000
400.890808	383.400000
400.984436	364.640000
401.078033	344.760000
401.171631	324.060000
401.265259	305.280000
401.358826	287.000000
401.452484	268.180000
401.546051	251.620000
401.639679	235.540000
401.733246	221.080000
401.826904	206.580000
401.920471	194.520000
402.014099	183.840000
402.107697	175.500000
402.201324	168.620000
402.294891	163.920000
402.388550	160.040000
402.482147	156.680000
402.575745	153.940000
402.669373	151.460000
402.762970	149.800000
402.856567	148.780000
402.950195	148.580000
403.043793	148.160000
403.137390	148.800000
403.231018	148.080000
403.324615	148.400000
403.418243	147.540000
403.511841	147.960000
403.605469	147.240000
403.699066	147.700000
403.792694	147.440000
403.886292	147.500000
403.979919	147.220000
404.073517	147.260000
404.167145	147.560000
404.260712	147.000000
404.354370	146.880000
404.447937	147.020000
404.541595	146.940000
404.635162	146.760000
404.728821	147.520000
404.822418	147.260000
404.916046	146.880000
405.009644	146.920000
405.103271	147.020000
405.196899	146.680000
405.290497	147.000000
405.384125	147.240000
405.477722	147.080000
405.571350	146.620000
405.664948	146.560000
405.758575	146.520000
405.852203	145.920000
405.945801	146.200000
406.039429	146.400000
406.133057	146.380000
406.226654	146.040000
406.320312	146.400000
406.413879	146.380000
406.507538	146.560000
406.601135	146.080000
406.694763	146.880000
406.788361	146.660000
406.882019	146.160000
406.975586	146.400000
407.069244	147.300000
407.162872	147.040000
407.256470	147.100000
407.350098	147.280000
407.443726	146.880000
407.537323	146.140000
407.630951	146.180000
407.724579	146.200000
407.818207	146.700000
407.911804	146.600000
408.005432	146.780000
408.099060	146.820000
408.192688	147.060000
408.286285	146.740000
408.379913	146.260000
408.473572	146.220000
408.567169	145.680000
408.660828	145.500000
408.754395	145.360000
408.848053	145.680000
408.941650	145.880000
409.035309	145.720000
409.128906	145.900000
409.222565	146.100000
409.316132	146.440000
409.409790	146.260000
409.503387	146.760000
409.597046	146.680000
409.690674	146.760000
409.784302	146.500000
409.877930	146.260000
409.971558	146.180000
410.065186	146.060000
410.158783	145.580000
410.252411	145.660000
410.346039	146.240000
410.439667	146.280000
410.533295	146.620000
410.626923	147.100000
410.720551	147.120000
410.814209	147.320000
410.907806	147.440000
411.001465	146.820000
411.095062	146.700000
411.188721	146.580000
411.282318	146.300000
411.375977	146.140000
411.469574	146.760000
411.563232	146.400000
411.656830	146.120000
411.750488	146.020000
411.844086	145.800000
411.937744	145.560000
412.031372	145.740000
412.125000	146.140000
412.218628	146.100000
412.312256	146.660000
412.405884	147.200000
412.499512	147.100000
412.593170	147.180000
412.686798	147.480000
412.780426	146.980000
412.874054	146.880000
412.967682	147.160000
413.061310	147.640000
413.154968	147.480000
413.248566	147.760000
413.342224	147.220000
413.435852	147.300000
413.529510	146.620000
413.623108	145.860000
413.716766	145.700000
413.810364	146.060000
413.904022	145.800000
413.997650	145.860000
414.091309	146.820000
414.184906	146.880000
414.278564	146.460000
414.372192	146.800000
414.465851	146.920000
414.559479	146.420000
414.653107	147.060000
414.746735	147.180000
414.840393	146.880000
414.934021	146.960000
415.027649	146.740000
415.121277	146.360000
415.214935	146.760000
415.308563	146.940000
415.402191	146.360000
415.495850	146.480000
415.589478	145.980000
415.683136	145.500000
415.776733	145.760000
415.870422	146.440000
415.964020	146.080000
416.057678	146.520000
416.151306	146.760000
416.244965	146.540000
416.338562	146.320000
416.432251	147.020000
416.525848	147.480000
416.619507	147.600000
416.713165	147.980000
416.806793	147.920000
416.900421	148.240000
416.994080	147.500000
417.087708	147.140000
417.181366	146.180000
417.274994	146.260000
417.368622	146.160000
417.462280	146.440000
417.555908	146.780000
417.649567	147.120000
417.743195	147.280000
417.836853	147.120000
417.930481	147.340000
418.024170	147.160000
418.117767	147.780000
418.211426	147.940000
418.305054	148.020000
418.398712	147.260000
418.492340	147.280000
418.585999	147.260000
418.679626	147.200000
418.773285	147.260000
418.866913	148.040000
418.960571	148.160000
419.054230	148.100000
419.147858	148.020000
419.241516	147.840000
419.335144	147.320000
419.428802	147.180000
419.522461	146.840000
419.616089	146.220000
419.709747	146.320000
419.803375	146.680000
419.897034	146.840000
419.990662	146.740000
420.084320	147.680000
420.177979	147.840000
420.271606	147.680000
420.365295	148.000000
420.458893	148.200000
420.552582	148.020000
420.646210	148.060000
420.739868	147.880000
420.833496	147.520000
420.927155	147.140000
421.020782	146.660000
421.114471	145.700000
421.208069	145.960000
421.301758	146.160000
421.395386	146.200000
421.489044	146.120000
421.582703	146.540000
421.676361	146.920000
421.769989	146.440000
421.863647	146.820000
421.957306	147.120000
422.050934	147.540000
422.144592	147.160000
422.238251	146.840000
422.331909	146.640000
422.425537	146.320000
422.519196	146.140000
422.612854	146.100000
422.706543	146.100000
422.800140	146.120000
422.893829	146.160000
422.987457	145.960000
423.081146	145.800000
423.174744	146.540000
423.268433	146.420000
423.362061	146.140000
423.455750	145.940000
423.549347	146.100000
423.643036	145.400000
423.736664	145.960000
423.830353	146.560000
423.924011	147.160000
424.017639	146.900000
424.111298	147.180000
424.204956	146.740000
424.298615	146.560000
424.392273	146.200000
424.485931	146.280000
424.579559	146.620000
424.673218	146.600000
424.766876	146.460000
424.860535	146.100000
424.954193	145.960000
425.047882	146.100000
425.141510	146.320000
425.235199	146.300000
425.328796	146.400000
425.422485	146.280000
425.516113	145.800000
425.609802	145.640000
425.703430	145.700000
425.797119	145.520000
425.890747	145.800000
425.984436	145.860000
426.078064	145.860000
426.171753	146.160000
426.265411	146.120000
426.359070	146.260000
426.452728	146.220000
426.546356	146.020000
426.640015	145.440000
426.733673	145.740000
426.827332	145.040000
426.920990	145.620000
427.014648	145.600000
427.108307	146.320000
427.201965	147.000000
427.295624	147.680000
427.389282	146.940000
427.482941	147.320000
427.576630	146.920000
427.670258	145.920000
427.763947	145.800000
427.857574	146.140000
427.951263	145.800000
428.044922	145.540000
428.138611	146.060000
428.232239	146.520000
428.325928	146.940000
428.419556	147.520000
428.513245	147.600000
428.606903	147.580000
428.700562	147.020000
428.794220	146.180000
428.887878	145.340000
428.981537	145.680000
429.075195	145.560000
429.168854	146.000000
429.262512	146.260000
429.356201	146.760000
429.449860	146.480000
429.543518	146.720000
429.637177	146.900000
429.730835	146.700000
429.824493	146.760000
429.918182	146.920000
430.011810	146.360000
430.105530	145.460000
430.199158	146.060000
430.292847	145.840000
430.386475	145.440000
430.480164	145.540000
430.573792	145.420000
430.667511	145.180000
430.761139	145.260000
430.854828	146.140000
430.948456	146.340000
431.042145	147.220000
431.135834	146.900000
431.229492	146.980000
431.323151	146.920000
431.416809	146.860000
431.510468	146.600000
431.604156	146.680000
431.697815	146.700000
431.791473	145.900000
431.885132	145.600000
431.978821	145.740000
432.072479	146.120000
432.166138	146.480000
432.259827	146.720000
432.353485	147.000000
432.447174	147.020000
432.540802	146.440000
432.634491	146.180000
432.728149	146.800000
432.821838	147.420000
432.915466	147.000000
433.009186	147.240000
433.102814	146.760000
433.196503	146.040000
433.290131	145.900000
433.383850	146.280000
433.477509	146.520000
433.571167	147.320000
433.664856	147.980000
433.758514	148.080000
433.852173	147.740000
433.945862	147.700000
434.039520	147.380000
434.133179	146.800000
434.226868	146.500000
434.320526	146.140000
434.414185	146.600000
434.507874	146.320000
434.601562	146.620000
434.695221	146.320000
434.788910	146.960000
434.882538	146.840000
434.976257	146.760000
435.069885	146.720000
435.163574	147.040000
435.257233	146.520000
435.350922	146.400000
435.444580	146.120000
435.538269	145.980000
435.631897	146.220000
435.725616	146.840000
435.819275	147.120000
435.912964	147.680000
436.006622	147.700000
436.100311	147.700000
436.193970	146.940000
436.287628	146.440000
436.381317	146.100000
436.474976	146.020000
436.568665	145.460000
436.662323	145.980000
436.756012	145.820000
436.849670	145.820000
436.943390	145.720000
437.037018	145.940000
437.130737	146.080000
437.224365	146.160000
437.318085	146.400000
437.411713	146.680000
437.505432	147.080000
437.599060	147.180000
437.692780	147.720000
437.786407	147.580000
437.880127	147.520000
437.973755	147.260000
438.067474	146.800000
438.161133	146.560000
438.254822	147.260000
438.348480	147.080000
438.442169	147.360000
438.535828	147.620000
438.629517	147.380000
438.723175	146.600000
438.816864	147.100000
438.910553	146.680000
439.004211	146.740000
439.097900	146.340000
439.191559	146.540000
439.285248	145.940000
439.378906	146.120000
439.472626	145.860000
439.566284	146.100000
439.659973	146.380000
439.753632	146.420000
439.847321	146.920000
439.940979	147.080000
440.034698	147.040000
440.128326	146.640000
440.222046	146.420000
440.315674	145.280000
440.409393	145.660000
440.503082	145.560000
440.596741	145.780000
440.690430	146.340000
440.784088	146.700000
440.877777	146.140000
440.971466	146.200000
441.065125	146.000000
441.158813	145.460000
441.252502	145.520000
441.346161	145.620000
441.439850	145.940000
441.533539	146.000000
441.627197	146.220000
441.720886	146.100000
441.814606	146.380000
441.908234	146.640000
442.001953	146.480000
442.095612	146.640000
442.189301	147.100000
442.282959	147.020000
442.376678	146.320000
442.470306	147.000000
442.564026	146.760000
442.657684	146.500000
442.751404	146.500000
442.845032	147.560000
442.938751	146.840000
443.032440	146.840000
443.126099	146.440000
443.219788	146.520000
443.313477	145.940000
443.407166	146.600000
443.500824	146.860000
443.594513	147.340000
443.688202	147.240000
443.781891	146.840000
443.875549	146.020000
443.969238	146.140000
444.062927	146.380000
444.156647	146.100000
444.250275	146.540000
444.343994	146.980000
444.437653	147.160000
444.531372	146.720000
444.625031	146.560000
444.718719	146.260000
444.812378	146.280000
444.906097	145.920000
444.999756	145.640000
445.093445	146.080000
445.187103	145.960000
445.280823	146.280000
445.374512	146.240000
445.468201	146.340000
445.561859	146.060000
445.655548	146.320000
445.749237	145.780000
445.842926	145.920000
445.936615	146.680000
446.030304	146.740000
446.123962	147.060000
446.217651	146.900000
446.311340	146.820000
446.405029	146.060000
446.498749	146.040000
446.592407	145.780000
446.686096	146.100000
446.779755	145.960000
446.873474	146.080000
446.967133	146.300000
447.060852	145.980000
447.154510	146.060000
447.248230	146.260000
447.341858	146.420000
447.435577	146.080000
447.529236	145.780000
447.622955	145.540000
447.716644	145.640000
447.810333	145.920000
447.904022	146.620000
447.997711	147.140000
448.091400	147.620000
448.185059	147.520000
448.278748	147.600000
448.372437	146.840000
448.466125	147.100000
448.559814	146.480000
448.653503	146.800000
448.747192	147.060000
448.840912	147.360000
448.934570	146.780000
449.028290	147.300000
449.121948	146.900000
449.215637	146.220000
449.309296	146.200000
449.403015	146.680000
449.496674	146.340000
449.590393	146.360000
449.684052	146.340000
449.777771	147.120000
449.871429	146.440000
449.965149	146.540000
450.058838	146.820000
450.152527	147.200000
450.246216	146.440000
450.339905	146.560000
450.433594	146.520000
450.527283	147.120000
450.620972	146.600000
450.714661	146.520000
450.808350	146.980000
450.902039	147.100000
450.995728	146.540000
451.089417	146.120000
451.183105	146.280000
451.276794	146.660000
451.370514	145.960000
451.464172	145.040000
451.557892	145.500000
451.651550	145.700000
451.745270	144.840000
451.838928	144.920000
451.932648	145.640000
452.026306	146.020000
452.120026	145.800000
452.213684	146.440000
452.307404	146.620000
452.401062	146.780000
452.494781	146.900000
452.588470	146.920000
452.682159	146.440000
452.775848	146.620000
452.869537	146.040000
452.963226	145.920000
453.056915	145.860000
453.150604	146.180000
453.244293	146.460000
453.337982	147.140000
453.431671	147.160000
453.525360	147.480000
453.619049	147.320000
453.712769	147.260000
453.806427	146.780000
453.900146	146.180000
453.993805	145.800000
454.087555	146.140000
454.181213	146.240000
454.274933	146.080000
454.368591	146.260000
454.462311	146.220000
454.555969	145.840000
454.649689	146.420000
454.743347	146.440000
454.837067	147.140000
454.930756	147.540000
455.024445	147.640000
455.118134	146.940000
455.211853	147.200000
455.305542	146.740000
455.399231	146.600000
455.492920	146.860000
455.586609	147.040000
455.680298	147.140000
455.773987	146.940000
455.867676	146.700000
455.961365	146.540000
456.055084	146.460000
456.148773	146.260000
456.242493	146.240000
456.336151	146.380000
456.429871	146.660000
456.523529	146.700000
456.617249	146.620000
456.710907	147.320000
456.804626	147.200000
456.898315	146.720000
456.992035	146.840000
457.085693	146.880000
457.179413	146.060000
457.273102	146.880000
457.366791	147.220000
457.460480	147.360000
457.554199	148.020000
457.647888	148.140000
457.741577	147.500000
457.835266	147.180000
457.928955	147.020000
458.022644	146.780000
458.116364	147.020000
458.210052	146.720000
458.303741	147.220000
458.397461	146.800000
458.491119	146.100000
458.584839	146.220000
458.678528	146.000000
458.772247	145.580000
458.865906	145.880000
458.959625	147.040000
459.053284	146.960000
459.147003	147.280000
459.240692	147.840000
459.334412	147.680000
459.428070	147.160000
459.521790	147.080000
459.615479	147.120000
459.709198	147.020000
459.802887	146.780000
459.896576	146.320000
459.990265	146.400000
460.083954	146.560000
460.177673	146.000000
460.271362	146.260000
460.365051	146.540000
460.458740	146.140000
460.552429	145.540000
460.646149	145.740000
460.739838	145.540000
460.833527	145.700000
460.927246	145.480000
461.020905	145.780000
461.114655	145.760000
461.208313	145.900000
461.302032	145.080000
461.395691	145.820000
461.489441	145.840000
461.583099	145.820000
461.676819	145.560000
461.770477	146.280000
461.864197	145.800000
461.957916	145.740000
462.051605	145.240000
462.145294	146.020000
462.238983	145.460000
462.332703	146.080000
462.426392	146.520000
462.520081	146.920000
462.613770	146.400000
462.707489	147.060000
462.801178	146.800000
462.894867	146.460000
462.988556	146.320000
463.082275	146.580000
463.175964	145.940000
463.269684	145.980000
463.363342	146.000000
463.457092	145.700000
463.550751	145.800000
463.644470	146.300000
463.738129	146.100000
463.831879	146.460000
463.925537	147.540000
464.019257	147.400000
464.112946	147.260000
464.206665	147.340000
464.300323	146.840000
464.394043	146.080000
464.487762	146.060000
464.581451	146.520000
464.675140	146.620000
464.768829	147.440000
464.862549	147.760000
464.956238	147.960000
465.049927	147.720000
465.143646	147.680000
465.237335	147.140000
465.331024	147.580000
465.424713	147.240000
465.518433	147.380000
465.612152	147.000000
465.705811	147.060000
465.799561	146.680000
465.893219	146.560000
465.986938	146.320000
466.080597	146.480000
466.174347	146.780000
466.268005	146.660000
466.361725	146.740000
466.455414	146.560000
466.549133	146.340000
466.642792	146.160000
466.736542	145.860000
466.830231	145.880000
466.923920	145.680000
467.017609	146.080000
467.111328	145.720000
467.205017	145.820000
467.298706	146.000000
467.392426	146.480000
467.486115	146.680000
467.579803	146.180000
467.673523	146.600000
467.767212	146.380000
467.860901	146.240000
467.954651	146.120000
468.048309	146.680000
468.142029	146.680000
468.235718	146.800000
468.329437	146.760000
468.423096	146.660000
468.516846	146.560000
468.610504	146.100000
468.704224	145.880000
468.797913	145.640000
468.891632	145.580000
468.985291	145.560000
469.079010	145.600000
469.172729	145.240000
469.266418	145.700000
469.360107	145.860000
469.453827	145.960000
469.547516	146.260000
469.641205	146.800000
469.734924	146.860000
469.828613	147.020000
469.922302	147.240000
470.016022	146.980000
470.109711	147.020000
470.203430	146.480000
470.297150	145.680000
470.390808	145.600000
470.484558	145.360000
470.578217	145.840000
470.671936	146.460000
470.765625	147.480000
470.859344	147.140000
470.953003	147.440000
471.046753	146.860000
471.140411	146.060000
471.234131	145.880000
471.327820	146.720000
471.421539	146.840000
471.515228	146.540000
471.608948	146.880000
471.702637	146.200000
471.796326	145.440000
471.890045	145.660000
471.983734	146.060000
472.077423	145.960000
472.171143	146.160000
472.264832	146.460000
472.358521	145.900000
472.452240	145.660000
472.545929	146.120000
472.639648	146.500000
472.733337	146.580000
472.827057	146.960000
472.920746	147.080000
473.014465	147.180000
473.108124	147.100000
473.201874	147.120000
473.295532	146.880000
473.389252	147.460000
473.482941	147.720000
473.576660	147.320000
473.670319	147.400000
473.764069	147.860000
473.857727	147.560000
473.951477	147.540000
474.045166	148.140000
474.138855	147.720000
474.232574	147.140000
474.326263	147.140000
474.419952	147.060000
474.513672	146.760000
474.607361	146.880000
474.701050	147.200000
474.794769	147.420000
474.888458	147.440000
474.982178	147.700000
475.075867	147.740000
475.169586	147.640000
475.263275	147.500000
475.356995	147.180000
475.450653	146.800000
475.544403	146.420000
475.638062	147.280000
475.731812	146.700000
475.825470	146.420000
475.919189	146.640000
476.012878	147.100000
476.106598	146.200000
476.200256	146.720000
476.294006	146.920000
476.387695	146.820000
476.481384	146.840000
476.575104	147.120000
476.668793	146.600000
476.762512	146.160000
476.856201	146.580000
476.949890	146.080000
477.043610	145.500000
477.137299	145.700000
477.230988	146.180000
477.324707	145.740000
477.418396	146.460000
477.512146	146.520000
477.605804	146.560000
477.699524	146.860000
477.793213	146.840000
477.886932	146.520000
477.980591	146.420000
478.074341	146.080000
478.167999	145.320000
478.261749	145.360000
478.355408	145.220000
478.449127	145.840000
478.542816	146.980000
478.636536	147.880000
478.730225	148.000000
478.823944	148.460000
478.917633	148.480000
479.011322	148.020000
479.105042	147.640000
479.198730	147.620000
479.292450	147.280000
479.386139	147.380000
479.479828	147.320000
479.573547	147.780000
479.667267	147.740000
479.760925	147.700000
479.854675	147.560000
479.948334	147.460000
480.042084	146.560000
480.135742	146.800000
480.229462	146.520000
480.323151	146.480000
480.416870	146.000000
480.510529	146.620000
480.604279	145.920000
480.697937	146.400000
480.791656	146.060000
480.885345	145.880000
480.979065	145.180000
481.072754	146.100000
481.166473	146.300000
481.260132	146.280000
481.353882	146.680000
481.447540	147.060000
481.541260	146.760000
481.635010	146.040000
481.728668	146.360000
481.822388	146.140000
481.916077	146.460000
482.009796	146.240000
482.103485	146.960000
482.197205	146.920000
482.290863	147.340000
482.384613	146.820000
482.478271	146.460000
482.571991	146.360000
482.665680	146.200000
482.759399	146.740000
482.853058	147.180000
482.946808	147.400000
483.040466	147.000000
483.134216	146.940000
483.227875	146.240000
483.321594	146.540000
483.415283	146.560000
483.509003	146.480000
483.602661	146.580000
483.696411	146.940000
483.790070	146.680000
483.883789	146.900000
483.977478	147.060000
484.071198	147.020000
484.164917	146.600000
484.258606	145.820000
484.352325	146.080000
484.445984	146.260000
484.539734	146.320000
484.633392	146.040000
484.727142	146.900000
484.820801	146.640000
484.914520	146.500000
485.008209	146.560000
485.101929	147.020000
485.195587	146.740000
485.289337	146.480000
485.382996	146.480000
485.476715	146.440000
485.570404	147.040000
485.664124	146.700000
485.757782	147.300000
485.851532	147.060000
485.945190	147.140000
486.038910	146.900000
486.132599	147.560000
486.226318	147.100000
486.319977	147.300000
486.413727	147.540000
486.507446	147.020000
486.601105	146.260000
486.694855	146.060000
486.788513	145.840000
486.882233	145.480000
486.975922	145.480000
487.069641	145.820000
487.163300	145.740000
487.257050	146.920000
487.350708	146.820000
487.444427	146.820000
487.538116	146.940000
487.631836	147.040000
487.725494	146.140000
487.819214	146.040000
487.912903	146.000000
488.006622	146.200000
488.100281	146.520000
488.194031	146.620000
488.287689	146.940000
488.381409	147.540000
488.475098	147.200000
488.568817	147.180000
488.662476	146.960000
488.756226	146.520000
488.849945	145.540000
488.943604	146.000000
489.037354	146.300000
489.131012	146.120000
489.224731	146.280000
489.318390	146.700000
489.412140	146.240000
489.505798	145.860000
489.599518	146.020000
489.693207	146.340000
489.786926	146.320000
489.880585	146.280000
489.974335	146.320000
490.067993	147.380000
490.161713	147.320000
490.255371	147.820000
490.349121	148.080000
490.442780	147.920000
490.536499	147.080000
490.630188	147.340000
490.723907	146.780000
490.817566	146.760000
490.911285	146.900000
491.004974	146.500000
491.098694	146.180000
491.192413	147.000000
491.286102	146.880000
491.379822	146.780000
491.473480	147.200000
491.567200	147.300000
491.660889	146.320000
491.754608	146.220000
491.848267	146.260000
491.941986	145.980000
492.035675	145.880000
492.129395	146.580000
492.223053	146.620000
492.316772	146.720000
492.410461	146.640000
492.504181	146.640000
492.597839	145.960000
492.691559	145.780000
492.785248	145.760000
492.878967	146.100000
492.972626	145.880000
493.066345	146.200000
493.160034	146.220000
493.253754	146.100000
493.347412	145.680000
493.441132	146.060000
493.534882	146.500000
493.628540	146.740000
493.722260	147.000000
493.815918	147.300000
493.909668	147.400000
494.003326	147.580000
494.097046	147.300000
494.190704	146.740000
494.284454	146.880000
494.378113	146.860000
494.471832	146.680000
494.565491	146.400000
494.659210	146.860000
494.752899	146.700000
494.846619	146.200000
494.940277	146.060000
495.033997	146.280000
495.127686	146.020000
495.221405	146.080000
495.315063	146.660000
495.408783	146.660000
495.502441	146.940000
495.596191	146.980000
495.689850	146.680000
495.783569	146.580000
495.877228	146.340000
495.970947	146.200000
496.064697	146.320000
496.158356	147.280000
496.252075	147.200000
496.345734	147.000000
496.439453	147.600000
496.533142	147.600000
496.626862	147.380000
496.720520	147.360000
496.814240	147.760000
496.907898	147.160000
497.001617	147.280000
497.095306	146.440000
497.189026	146.720000
497.282684	146.980000
497.376404	147.500000
497.470062	147.180000
497.563782	147.380000
497.657471	146.940000
497.751190	146.600000
497.844849	146.300000
497.938568	146.580000
498.032227	146.740000
498.125946	146.860000
498.219635	146.480000
498.313354	146.740000
498.407074	146.340000
498.500732	146.620000
498.594452	146.580000
498.688110	146.440000
498.781830	145.980000
498.875519	145.920000
498.969238	145.820000
499.062897	145.820000
499.156616	146.440000
499.250275	146.580000
499.343994	146.400000
499.437653	146.260000
499.531372	146.400000
499.625061	146.760000
499.718781	146.760000
499.812439	147.840000
499.906158	147.800000
499.999817	147.380000
500.093536	146.920000
500.187195	147.040000
500.280914	146.620000
500.374573	146.660000
500.468323	146.640000
500.561981	146.980000
500.655701	146.520000
500.749420	146.420000
500.843079	146.520000
500.936798	146.920000
501.030457	147.180000
501.124176	147.700000
501.217834	147.860000
501.311554	148.040000
501.405212	147.560000
501.498962	146.580000
501.592621	146.320000
501.686340	146.360000
501.779999	146.060000
501.873718	146.740000
501.967377	147.160000
502.061096	147.380000
502.154755	147.040000
502.248474	146.940000
502.342133	146.620000
502.435852	146.460000
502.529510	147.160000
502.623230	147.880000
502.716888	147.820000
502.810608	147.720000
502.904266	147.940000
502.997986	147.200000
503.091705	146.420000
503.185364	146.340000
503.279083	146.300000
503.372772	145.920000
503.466492	145.520000
503.560150	145.680000
503.653870	146.180000
503.747528	146.260000
503.841248	146.720000
503.934906	147.160000
504.028625	146.840000
504.122284	146.960000
504.216003	147.640000
504.309662	147.100000
504.403381	147.180000
504.497040	147.380000
504.590759	146.760000
504.684418	146.400000
504.778137	146.900000
504.871796	147.100000
504.965515	146.820000
505.059174	147.100000
505.152893	146.900000
505.246521	146.400000
505.340240	145.780000
505.433899	146.200000
505.527618	146.840000
505.621338	146.880000
505.714996	146.840000
505.808716	146.920000
505.902374	147.200000
505.996094	146.740000
506.089752	146.680000
506.183472	147.020000
506.277130	147.180000
506.370850	147.060000
506.464508	146.620000
506.558228	146.460000
506.651886	146.060000
506.745605	145.900000
506.839264	145.880000
506.932983	146.260000
507.026611	146.260000
507.120331	146.880000
507.213989	146.580000
507.307709	146.620000
507.401367	146.820000
507.495087	147.800000
507.588745	147.300000
507.682465	148.440000
507.776123	148.220000
507.869843	147.900000
507.963531	147.220000
508.057190	147.520000
508.150909	146.420000
508.244568	146.580000
508.338287	146.380000
508.431946	146.480000
508.525665	146.240000
508.619324	146.380000
508.713013	146.380000
508.806671	146.720000
508.900391	147.340000
508.994049	147.600000
509.087769	147.380000
509.181427	147.600000
509.275146	147.320000
509.368774	146.200000
509.462494	146.100000
509.556152	146.320000
509.649872	146.280000
509.743530	146.560000
509.837250	146.920000
509.930878	146.920000
510.024597	147.000000
510.118256	146.560000
510.211975	146.440000
510.305695	146.060000
510.399353	146.160000
510.493042	146.720000
510.586700	147.120000
510.680420	147.560000
510.774078	147.780000
510.867798	148.220000
510.961426	147.300000
511.055145	147.080000
511.148804	146.460000
511.242523	146.740000
511.336151	146.380000
511.429871	147.020000
511.523529	146.920000
511.617249	146.980000
511.710876	146.820000
511.804596	146.440000
511.898254	146.240000
511.991974	146.480000
512.085632	146.580000
512.179321	146.460000
512.272949	146.860000
512.366699	147.360000
512.460327	147.100000
512.554077	147.840000
512.647766	147.820000
512.741394	147.660000
512.835144	147.780000
512.928772	147.620000
513.022461	146.940000
513.116150	146.720000
513.209839	147.160000
513.303467	146.540000
513.397217	146.400000
513.490845	146.320000
513.584595	146.380000
513.678223	145.880000
513.771912	145.400000
513.865601	145.740000
513.959290	145.580000
514.052917	145.860000
514.146667	146.480000
514.240295	147.160000
514.333984	147.440000
514.427673	147.380000
514.521362	147.640000
514.614990	146.960000
514.708740	146.860000
514.802368	146.760000
514.896057	146.900000
514.989746	147.540000
515.083435	147.720000
515.177124	148.080000
515.270752	147.740000
515.364502	147.840000
515.458130	147.260000
515.551819	147.060000
515.645508	146.500000
515.739197	146.700000
515.832825	146.540000
515.926575	146.200000
516.020203	146.440000
516.113892	147.000000
516.207520	147.000000
516.301270	147.040000
516.394897	147.120000
516.488586	147.500000
516.582275	147.200000
516.675964	146.760000
516.769592	146.960000
516.863281	147.660000
516.956970	147.420000
517.050659	147.540000
517.144287	147.840000
517.238037	147.800000
517.331665	146.760000
517.425354	146.660000
517.519043	146.180000
517.612732	146.780000
517.706421	146.660000
517.800049	146.600000
517.893738	146.240000
517.987427	146.340000
518.081116	145.440000
518.174744	145.120000
518.268433	145.520000
518.362122	146.120000
518.455811	146.560000
518.549438	147.540000
518.643127	148.620000
518.736816	148.360000
518.830505	147.740000
518.924133	147.320000
519.017822	146.980000
519.111511	146.400000
519.205200	146.960000
519.298828	147.280000
519.392517	147.000000
519.486206	147.140000
519.579895	147.180000
519.673523	146.740000
519.767212	146.540000
519.860901	147.180000
519.954590	147.020000
520.048279	146.720000
520.141907	146.680000
520.235596	147.580000
520.329224	147.520000
520.422974	147.500000
520.516602	147.520000
520.610291	146.920000
520.703918	146.620000
520.797607	146.140000
520.891296	146.120000
520.984985	146.280000
521.078613	147.440000
521.172302	146.580000
521.265930	147.740000
521.359680	148.200000
521.453308	148.200000
521.546997	147.800000
521.640625	148.220000
521.734314	147.320000
521.827942	147.040000
521.921692	146.900000
522.015320	147.060000
522.109009	146.740000
522.202698	146.820000
522.296326	146.720000
522.390015	147.060000
522.483704	146.980000
522.577393	147.180000
522.671021	147.040000
522.764709	146.700000
522.858337	147.240000
522.952026	147.140000
523.045654	147.800000
523.139404	148.400000
523.233032	148.660000
523.326721	147.780000
523.420349	147.700000
523.514038	147.140000
523.607666	147.340000
523.701355	146.820000
523.795044	146.860000
523.888733	147.100000
523.982361	147.260000
524.076050	146.560000
524.169678	146.980000
524.263367	146.620000
524.356995	146.380000
524.450684	146.320000
524.544373	146.400000
524.638062	146.840000
524.731750	147.380000
524.825378	147.260000
524.919067	146.640000
525.012695	146.500000
525.106384	145.820000
525.200012	145.900000
525.293701	145.940000
525.387329	146.580000
525.481018	146.960000
525.574646	147.300000
525.668396	147.140000
525.762024	147.640000
525.855713	147.740000
525.949341	147.080000
526.043030	147.120000
526.136658	147.040000
526.230347	146.300000
526.323975	146.060000
526.417664	146.160000
526.511292	145.860000
526.604980	145.800000
526.698608	145.980000
526.792297	146.060000
526.885925	146.400000
526.979614	146.760000
527.073303	146.900000
527.166931	147.060000
527.260620	147.140000
527.354309	147.200000
527.447998	146.960000
527.541626	146.540000
527.635315	146.660000
527.728943	146.920000
527.822632	147.100000
527.916260	147.020000
528.009949	147.560000
528.103577	147.300000
528.197266	146.660000
528.290894	146.800000
528.384583	146.700000
528.478210	146.500000
528.571899	146.660000
528.665527	147.120000
528.759216	146.800000
528.852844	147.280000
528.946533	147.640000
529.040161	147.660000
529.133850	147.360000
529.227478	147.680000
529.321167	147.660000
529.414856	147.580000
529.508484	148.040000
529.602173	147.620000
529.695801	147.160000
529.789490	146.780000
529.883057	146.700000
529.976746	146.700000
530.070374	147.420000
530.164062	147.380000
530.257690	148.020000
530.351379	148.000000
530.445007	147.880000
530.538696	147.340000
530.632324	147.660000
530.726013	147.380000
530.819641	147.100000
530.913330	147.160000
531.006958	147.220000
531.100647	147.180000
531.194275	147.100000
531.287964	147.160000
531.381592	146.800000
531.475220	146.960000
531.568848	146.960000
531.662537	146.840000
531.756226	147.420000
531.849854	147.200000
531.943542	147.520000
532.037170	146.860000
532.130859	147.440000
532.224487	146.740000
532.318176	146.480000
532.411804	146.580000
532.505432	147.360000
532.599060	146.720000
532.692749	146.760000
532.786377	147.580000
532.880066	146.860000
532.973694	146.300000
533.067383	146.420000
533.161011	146.480000
533.254639	146.160000
533.348267	146.240000
533.441956	146.600000
533.535583	146.580000
533.629272	146.540000
533.722900	145.920000
533.816589	146.380000
533.910156	146.580000
534.003845	146.300000
534.097534	146.760000
534.191162	148.040000
534.284851	148.000000
534.378479	147.520000
534.472107	147.860000
534.565735	147.480000
534.659424	147.240000
534.753052	147.160000
534.846741	147.000000
534.940369	147.300000
535.033997	147.460000
535.127625	147.220000
535.221313	147.620000
535.314941	147.800000
535.408630	147.080000
535.502197	147.480000
535.595886	147.220000
535.689514	146.800000
535.783203	147.340000
535.876831	147.840000
535.970459	147.400000
536.064087	147.020000
536.157776	147.140000
536.251404	146.840000
536.345093	146.440000
536.438721	146.480000
536.532349	147.100000
536.626038	146.740000
536.719666	146.840000
536.813293	146.800000
536.906921	146.580000
537.000610	146.680000
537.094238	146.680000
537.187866	146.340000
537.281494	146.400000
537.375183	146.600000
537.468811	146.220000
537.562439	146.400000
537.656067	146.260000
537.749756	146.380000
537.843384	146.660000
537.937012	146.620000
538.030640	146.240000
538.124329	146.760000
538.217896	146.880000
538.311584	146.820000
538.405212	146.520000
538.498901	147.100000
538.592468	147.620000
538.686157	147.180000
538.779785	146.260000
538.873413	146.620000
538.967102	146.260000
539.060730	145.340000
539.154358	145.540000
539.247986	146.120000
539.341675	146.080000
539.435242	146.180000
539.528931	146.520000
539.622559	146.080000
539.716187	146.760000
539.809814	146.760000
539.903503	146.680000
539.997070	146.300000
540.090759	146.980000
540.184387	146.380000
540.278015	146.500000
540.371643	146.840000
540.465332	147.140000
540.558899	146.700000
540.652588	146.740000
540.746216	146.620000
540.839844	146.580000
540.933472	146.680000
541.027100	146.780000
541.120728	146.840000
541.214417	146.960000
541.308044	147.080000
541.401672	146.660000
541.495300	146.620000
541.588928	146.640000
541.682617	146.460000
541.776184	145.840000
541.869873	146.080000
541.963440	146.300000
542.057129	146.260000
542.150757	146.320000
542.244385	146.300000
542.338013	146.220000
542.431641	145.880000
542.525269	145.760000
542.618958	146.320000
542.712524	146.840000
542.806213	146.560000
542.899780	146.980000
542.993469	146.920000
543.087036	146.420000
543.180725	145.740000
543.274292	146.260000
543.367981	146.320000
543.461548	146.820000
543.555237	146.500000
543.648926	147.400000
543.742493	147.880000
543.836182	147.760000
543.929749	147.320000
544.023437	147.940000
544.117004	147.640000
544.210693	147.060000
544.304260	147.360000
544.397949	147.340000
544.491516	147.400000
544.585205	147.400000
544.678772	147.020000
544.772461	147.000000
544.866028	146.940000
544.959717	146.960000
545.053284	146.800000
545.146973	147.300000
545.240540	147.360000
545.334229	147.960000
545.427795	148.040000
545.521423	148.260000
545.615051	148.340000
545.708679	148.600000
545.802307	148.400000
545.895935	148.560000
545.989624	149.160000
546.083191	148.960000
546.176880	148.500000
546.270447	148.020000
546.364136	148.020000
546.457703	147.580000
546.551331	147.580000
546.644958	147.620000
546.738586	148.040000
546.832214	147.400000
546.925842	147.120000
547.019409	147.300000
547.113098	147.000000
547.206665	146.600000
547.300354	146.660000
547.393921	146.660000
547.487549	146.680000
547.581177	146.580000
547.674805	146.960000
547.768433	146.540000
547.862061	146.400000
547.955627	145.820000
548.049316	146.420000
548.142883	146.320000
548.236572	147.100000
548.330139	147.480000
548.423767	147.500000
548.517456	147.260000
548.611023	147.460000
548.704651	146.680000
548.798279	146.460000
548.891907	146.900000
548.985474	146.860000
549.079163	146.620000
549.172729	146.580000
549.266357	146.120000
549.359985	146.100000
549.453613	145.480000
549.547180	145.520000
549.640869	146.180000
549.734436	146.280000
549.828064	146.340000
549.921631	146.860000
550.015320	146.420000
550.108887	146.720000
550.202515	146.880000
550.296143	146.640000
550.389771	146.540000
550.483337	146.640000
550.576965	146.160000
550.670593	146.820000
550.764221	146.720000
550.857849	146.520000
550.951477	146.200000
551.045105	145.960000
551.138672	145.500000
551.232300	145.700000
551.325928	146.300000
551.419556	146.900000
551.513123	146.820000
551.606750	146.580000
551.700378	146.500000
551.794006	146.300000
551.887573	146.120000
551.981201	146.540000
552.074768	146.480000
552.168457	146.220000
552.262024	146.820000
552.355652	146.760000
552.449219	147.200000
552.542847	147.480000
552.636475	147.220000
552.730103	146.380000
552.823669	146.320000
552.917297	145.620000
553.010864	145.540000
553.104553	146.040000
553.198181	145.720000
553.291748	146.220000
553.385376	146.440000
553.478943	146.580000
553.572571	146.740000
553.666199	147.320000
553.759827	146.840000
553.853394	146.340000
553.947021	146.140000
554.040588	146.160000
554.134216	145.960000
554.227783	146.500000
554.321411	147.600000
554.415039	147.080000
554.508667	146.800000
554.602234	147.120000
554.695862	146.380000
554.789429	145.820000
554.883057	146.200000
554.976624	146.040000
555.070251	145.860000
555.163818	146.020000
555.257507	145.940000
555.351074	146.000000
555.444702	147.280000
555.538330	147.040000
555.631897	147.400000
555.725525	147.320000
555.819092	147.180000
555.912720	146.040000
556.006287	146.460000
556.099915	146.080000
556.193481	146.320000
556.287109	146.740000
556.380676	146.720000
556.474304	146.700000
556.567871	147.280000
556.661499	146.740000
556.755066	146.600000
556.848694	146.540000
556.942261	146.480000
557.035889	146.620000
557.129517	147.200000
557.223145	147.360000
557.316711	147.420000
557.410339	147.420000
557.503906	147.200000
557.597473	147.460000
557.691040	147.280000
557.784668	147.620000
557.878296	147.680000
557.971863	147.700000
558.065491	147.820000
558.159058	147.820000
558.252686	148.320000
558.346252	148.860000
558.439880	148.220000
558.533447	147.360000
558.627075	147.180000
558.720642	146.440000
558.814270	145.900000
558.907837	146.240000
559.001465	146.160000
559.095032	146.760000
559.188660	146.840000
559.282227	146.320000
559.375854	146.800000
559.469360	146.800000
559.562988	146.740000
559.656555	146.620000
559.750183	146.820000
559.843750	146.720000
559.937378	147.080000
560.030945	146.920000
560.124573	0.000000
560.218140	0.000000
560.311707	0.000000
560.405334	0.000000
560.498901	0.000000
560.592529	0.000000
560.686096	0.000000
560.779724	0.000000
560.873291	0.000000
560.966858	0.000000
561.060425	0.000000
561.154053	0.000000
561.247620	0.000000
561.341248	0.000000
561.434814	0.000000
561.528381	0.000000
561.621948	0.000000
561.715576	0.000000
561.809143	0.000000
561.902771	0.000000
561.996277	0.000000
562.089905	0.000000
562.183472	0.000000
562.277100	0.000000
