Model Number: SPM-002-B   
Serial Number: 70087108
Firmware Version: 004.15.4
Exposure Time: 100000.000000us
Data Taken on: 11-12-2020 19:38:53.511
Wavelength	Amplitude
221.570786	0.000000
221.663406	0.000000
221.756027	0.000000
221.848648	0.000000
221.941269	0.000000
222.033905	0.000000
222.126526	0.000000
222.219162	0.000000
222.311798	0.000000
222.404419	0.000000
222.497055	0.000000
222.589676	0.000000
222.682312	0.000000
222.774933	0.000000
222.867569	0.000000
222.960205	0.000000
223.052841	0.000000
223.145462	0.000000
223.238098	0.000000
223.330734	0.000000
223.423386	0.000000
223.516022	0.000000
223.608658	0.000000
223.701309	0.000000
223.793945	0.000000
223.886581	0.000000
223.979218	0.000000
224.071869	0.000000
224.164505	0.000000
224.257156	0.000000
224.349792	0.000000
224.442444	0.000000
224.535095	0.000000
224.627747	0.000000
224.720398	0.000000
224.813034	0.000000
224.905685	0.000000
224.998337	146.380000
225.090988	146.100000
225.183640	145.940000
225.276291	145.920000
225.368942	146.480000
225.461594	146.940000
225.554245	146.880000
225.646912	147.040000
225.739578	147.460000
225.832230	147.560000
225.924896	146.660000
226.017548	147.140000
226.110199	147.580000
226.202866	146.940000
226.295532	146.720000
226.388184	146.860000
226.480850	146.340000
226.573517	145.480000
226.666168	145.720000
226.758835	146.000000
226.851501	146.380000
226.944183	146.620000
227.036850	146.500000
227.129517	146.600000
227.222183	146.480000
227.314850	146.360000
227.407516	146.740000
227.500198	147.560000
227.592865	147.380000
227.685532	147.120000
227.778214	146.920000
227.870880	146.840000
227.963562	146.880000
228.056229	147.080000
228.148926	146.900000
228.241592	147.680000
228.334274	147.340000
228.426956	147.080000
228.519638	146.920000
228.612305	146.760000
228.704987	146.600000
228.797668	146.860000
228.890350	146.540000
228.983032	146.020000
229.075714	146.760000
229.168396	146.280000
229.261108	145.700000
229.353790	145.880000
229.446472	146.080000
229.539169	145.880000
229.631851	145.580000
229.724533	145.760000
229.817230	146.040000
229.909912	147.480000
230.002609	147.420000
230.095306	147.880000
230.187988	148.160000
230.280685	147.840000
230.373383	146.220000
230.466095	146.240000
230.558792	146.320000
230.651474	146.200000
230.744171	146.140000
230.836868	146.460000
230.929581	146.340000
231.022278	146.180000
231.114975	146.100000
231.207672	145.860000
231.300369	146.400000
231.393082	146.680000
231.485779	146.300000
231.578506	146.380000
231.671204	146.800000
231.763916	146.520000
231.856613	146.280000
231.949326	146.820000
232.042023	146.580000
232.134735	146.220000
232.227448	145.920000
232.320160	146.160000
232.412872	146.080000
232.505585	146.720000
232.598297	147.200000
232.691010	146.900000
232.783722	146.580000
232.876450	146.920000
232.969162	146.620000
233.061874	145.940000
233.154587	146.180000
233.247314	146.100000
233.340027	145.580000
233.432739	145.920000
233.525467	146.160000
233.618179	146.540000
233.710907	146.500000
233.803635	147.220000
233.896347	146.920000
233.989090	147.860000
234.081818	147.600000
234.174545	147.860000
234.267258	147.000000
234.359985	147.180000
234.452713	146.740000
234.545441	146.580000
234.638168	146.540000
234.730896	147.080000
234.823639	146.800000
234.916367	147.260000
235.009094	147.360000
235.101822	147.460000
235.194580	147.440000
235.287308	147.520000
235.380051	146.700000
235.472778	147.180000
235.565521	147.300000
235.658249	146.700000
235.750992	147.000000
235.843719	147.000000
235.936462	146.940000
236.029205	146.480000
236.121948	146.560000
236.214691	146.780000
236.307449	147.540000
236.400192	147.120000
236.492935	147.220000
236.585678	147.560000
236.678421	147.440000
236.771164	146.600000
236.863907	147.100000
236.956665	147.120000
237.049408	148.360000
237.142151	147.740000
237.234909	148.860000
237.327652	148.700000
237.420410	148.540000
237.513153	147.420000
237.605927	147.380000
237.698669	146.380000
237.791428	145.900000
237.884186	146.700000
237.976944	146.300000
238.069702	146.620000
238.162445	146.500000
238.255203	146.660000
238.347961	146.340000
238.440720	146.580000
238.533478	146.400000
238.626266	146.340000
238.719025	146.580000
238.811783	146.560000
238.904541	146.180000
238.997314	146.020000
239.090073	145.760000
239.182831	145.980000
239.275604	146.760000
239.368362	146.660000
239.461136	147.060000
239.553909	147.320000
239.646667	147.020000
239.739441	146.340000
239.832214	146.580000
239.925003	146.620000
240.017761	147.220000
240.110535	147.580000
240.203308	147.020000
240.296082	147.320000
240.388855	147.160000
240.481628	147.020000
240.574417	146.940000
240.667191	147.160000
240.759964	146.740000
240.852737	146.840000
240.945526	146.600000
241.038315	146.080000
241.131088	146.180000
241.223877	146.700000
241.316650	146.100000
241.409439	146.500000
241.502228	146.360000
241.595001	146.820000
241.687790	146.440000
241.780579	146.820000
241.873367	147.020000
241.966141	147.540000
242.058929	146.840000
242.151718	146.900000
242.244507	147.380000
242.337311	146.400000
242.430099	146.600000
242.522903	147.200000
242.615692	146.900000
242.708481	146.740000
242.801270	147.340000
242.894073	147.060000
242.986862	146.480000
243.079651	147.520000
243.172455	147.320000
243.265244	147.180000
243.358063	146.820000
243.450867	147.560000
243.543655	147.000000
243.636459	147.140000
243.729263	147.540000
243.822067	148.020000
243.914856	148.200000
244.007660	148.300000
244.100464	148.200000
244.193268	147.380000
244.286072	147.200000
244.378876	146.180000
244.471680	146.060000
244.564499	146.320000
244.657318	147.280000
244.750122	147.400000
244.842926	147.040000
244.935745	147.160000
245.028549	146.400000
245.121368	145.980000
245.214172	145.960000
245.306992	146.720000
245.399796	146.280000
245.492615	146.840000
245.585434	146.860000
245.678253	146.680000
245.771072	146.440000
245.863892	146.920000
245.956711	146.960000
246.049530	146.420000
246.142349	146.280000
246.235168	146.200000
246.327988	146.240000
246.420807	145.800000
246.513626	146.080000
246.606445	146.100000
246.699280	146.320000
246.792099	146.260000
246.884918	145.960000
246.977753	145.720000
247.070587	145.860000
247.163422	145.600000
247.256241	145.620000
247.349075	146.280000
247.441895	146.600000
247.534729	146.560000
247.627563	146.760000
247.720383	147.100000
247.813217	147.040000
247.906052	146.700000
247.998886	147.020000
248.091736	146.840000
248.184570	146.480000
248.277405	146.340000
248.370239	147.320000
248.463074	148.000000
248.555908	148.500000
248.648743	148.360000
248.741592	148.640000
248.834427	147.960000
248.927261	146.680000
249.020111	146.860000
249.112946	147.420000
249.205795	147.200000
249.298630	147.440000
249.391495	147.760000
249.484344	147.320000
249.577179	147.000000
249.670029	147.200000
249.762878	147.640000
249.855728	147.780000
249.948563	147.820000
250.041412	147.340000
250.134262	147.700000
250.227112	147.400000
250.319962	147.300000
250.412827	146.900000
250.505692	146.820000
250.598541	146.340000
250.691391	145.880000
250.784241	146.180000
250.877106	146.660000
250.969955	146.680000
251.062805	146.920000
251.155670	147.560000
251.248520	147.080000
251.341385	147.280000
251.434235	147.300000
251.527100	147.080000
251.619965	146.500000
251.712814	147.460000
251.805695	147.420000
251.898560	147.540000
251.991425	147.900000
252.084290	148.220000
252.177155	147.040000
252.270020	146.660000
252.362885	146.680000
252.455750	146.360000
252.548615	145.900000
252.641479	146.360000
252.734360	146.340000
252.827240	146.020000
252.920105	146.180000
253.012970	146.240000
253.105850	146.020000
253.198715	145.700000
253.291595	146.100000
253.384460	145.660000
253.477341	145.680000
253.570221	145.940000
253.663086	146.080000
253.755966	146.820000
253.848846	147.140000
253.941727	147.300000
254.034592	147.020000
254.127472	146.620000
254.220367	146.100000
254.313248	146.160000
254.406128	145.700000
254.499008	146.140000
254.591904	147.200000
254.684784	147.600000
254.777664	147.660000
254.870544	147.620000
254.963440	147.400000
255.056335	147.340000
255.149216	146.980000
255.242111	147.240000
255.334991	147.880000
255.427887	147.960000
255.520767	147.860000
255.613663	147.960000
255.706558	146.920000
255.799438	146.300000
255.892334	145.960000
255.985229	145.600000
256.078125	145.640000
256.171021	146.100000
256.263916	146.780000
256.356812	147.220000
256.449707	147.640000
256.542603	146.960000
256.635498	147.460000
256.728394	147.300000
256.821289	146.920000
256.914215	146.840000
257.007080	147.420000
257.100006	147.220000
257.192932	147.440000
257.285828	147.760000
257.378723	147.380000
257.471619	147.140000
257.564545	146.640000
257.657440	146.660000
257.750336	146.880000
257.843262	146.960000
257.936157	148.280000
258.029053	148.720000
258.121979	148.580000
258.214874	148.160000
258.307800	148.100000
258.400696	146.600000
258.493622	146.500000
258.586517	145.960000
258.679443	146.080000
258.772339	145.860000
258.865265	145.700000
258.958160	145.180000
259.051086	145.980000
259.144012	145.840000
259.236938	146.680000
259.329834	146.700000
259.422791	146.960000
259.515717	146.300000
259.608612	146.300000
259.701538	145.940000
259.794464	146.180000
259.887390	146.080000
259.980316	145.920000
260.073212	145.500000
260.166138	144.500000
260.259064	144.860000
260.351990	145.560000
260.444916	145.600000
260.537842	146.200000
260.630768	147.420000
260.723694	147.320000
260.816620	147.060000
260.909546	147.300000
261.002472	146.920000
261.095398	146.460000
261.188354	146.520000
261.281281	146.140000
261.374207	146.280000
261.467133	147.120000
261.560089	147.380000
261.653015	146.920000
261.745972	147.740000
261.838867	148.020000
261.931824	147.920000
262.024780	147.160000
262.117706	147.620000
262.210663	147.480000
262.303589	147.380000
262.396515	147.000000
262.489471	148.360000
262.582397	148.120000
262.675354	147.520000
262.768280	147.220000
262.861237	147.320000
262.954163	146.780000
263.047119	146.780000
263.140045	146.520000
263.233002	146.760000
263.325958	146.760000
263.418884	146.080000
263.511841	146.360000
263.604797	146.600000
263.697723	146.400000
263.790680	146.200000
263.883636	147.080000
263.976593	146.660000
264.069550	146.900000
264.162476	146.840000
264.255463	147.020000
264.348419	146.480000
264.441376	146.900000
264.534332	146.600000
264.627289	146.580000
264.720245	146.980000
264.813202	146.900000
264.906158	147.080000
264.999115	147.440000
265.092072	147.640000
265.185028	147.720000
265.277985	148.120000
265.370941	147.880000
265.463898	147.400000
265.556854	146.740000
265.649811	145.700000
265.742798	145.360000
265.835754	145.240000
265.928711	145.940000
266.021667	146.520000
266.114655	147.100000
266.207611	147.740000
266.300568	147.220000
266.393585	146.560000
266.486511	146.820000
266.579498	146.060000
266.672485	145.720000
266.765442	146.120000
266.858429	146.780000
266.951385	146.380000
267.044342	146.840000
267.137329	146.640000
267.230316	146.740000
267.323273	146.240000
267.416260	146.980000
267.509216	146.960000
267.602203	146.960000
267.695160	147.340000
267.788147	147.440000
267.881134	146.880000
267.974091	147.060000
268.067078	146.800000
268.160065	146.640000
268.253052	146.540000
268.346008	146.420000
268.438995	146.020000
268.531982	146.600000
268.624969	146.160000
268.717987	146.240000
268.810944	146.260000
268.903961	146.940000
268.996948	146.300000
269.089905	146.780000
269.182892	146.900000
269.275879	147.100000
269.368866	146.240000
269.461853	146.720000
269.554871	146.300000
269.647858	146.280000
269.740845	146.340000
269.833832	146.580000
269.926819	146.000000
270.019806	146.380000
270.112793	146.240000
270.205811	146.420000
270.298798	146.440000
270.391785	147.320000
270.484772	147.180000
270.577789	147.180000
270.670776	146.600000
270.763763	146.680000
270.856750	146.200000
270.949768	146.040000
271.042786	146.040000
271.135773	146.060000
271.228790	146.380000
271.321808	146.280000
271.414795	145.980000
271.507782	145.640000
271.600800	145.480000
271.693817	145.500000
271.786804	146.060000
271.879822	146.400000
271.972809	146.640000
272.065826	147.380000
272.158844	146.720000
272.251831	146.900000
272.344849	146.920000
272.437866	146.520000
272.530853	146.340000
272.623871	146.680000
272.716888	145.800000
272.809906	145.900000
272.902893	146.420000
272.995911	145.940000
273.088928	145.940000
273.181946	146.260000
273.274963	145.900000
273.367981	145.780000
273.460999	146.240000
273.554047	146.620000
273.647003	147.080000
273.740051	147.420000
273.833069	147.980000
273.926086	147.860000
274.019135	147.540000
274.112152	147.060000
274.205170	146.960000
274.298187	147.020000
274.391205	146.420000
274.484222	146.580000
274.577240	146.860000
274.670258	146.640000
274.763306	146.000000
274.856323	146.680000
274.949341	146.620000
275.042358	146.800000
275.135406	146.860000
275.228424	147.240000
275.321442	147.180000
275.414490	147.020000
275.507507	147.300000
275.600525	147.660000
275.693573	147.240000
275.786591	146.760000
275.879669	146.940000
275.972656	145.980000
276.065735	145.640000
276.158752	146.240000
276.251801	147.260000
276.344818	147.420000
276.437866	147.940000
276.530884	147.840000
276.623932	147.080000
276.716980	146.800000
276.809998	146.540000
276.903046	146.560000
276.996094	147.420000
277.089111	148.020000
277.182159	148.340000
277.275208	148.400000
277.368256	148.240000
277.461304	147.960000
277.554321	147.340000
277.647369	146.920000
277.740417	146.680000
277.833466	146.820000
277.926514	146.540000
278.019562	147.420000
278.112610	146.960000
278.205688	147.400000
278.298706	147.140000
278.391785	146.840000
278.484833	146.020000
278.577881	146.220000
278.670929	146.340000
278.763977	146.520000
278.857025	146.900000
278.950073	146.980000
279.043121	146.800000
279.136169	146.360000
279.229248	146.080000
279.322296	146.020000
279.415344	146.000000
279.508392	145.860000
279.601440	145.840000
279.694519	145.880000
279.787567	145.760000
279.880615	145.800000
279.973694	145.940000
280.066742	145.960000
280.159790	146.080000
280.252869	145.660000
280.345917	145.680000
280.438995	145.760000
280.532074	145.600000
280.625122	145.860000
280.718201	147.020000
280.811279	147.060000
280.904327	146.920000
280.997406	147.320000
281.090454	147.200000
281.183533	146.460000
281.276581	146.520000
281.369659	146.300000
281.462738	146.180000
281.555786	146.120000
281.648865	146.180000
281.741943	145.980000
281.835022	146.520000
281.928070	146.340000
282.021149	146.360000
282.114227	146.340000
282.207306	146.420000
282.300385	146.640000
282.393433	146.880000
282.486511	146.820000
282.579590	147.260000
282.672668	147.620000
282.765747	147.180000
282.858856	146.900000
282.951904	147.140000
283.045013	147.120000
283.138062	147.120000
283.231171	147.480000
283.324249	147.720000
283.417328	147.580000
283.510406	147.120000
283.603485	146.880000
283.696564	146.580000
283.789642	146.820000
283.882751	146.460000
283.975830	147.080000
284.068909	147.060000
284.161987	147.720000
284.255066	147.080000
284.348175	147.440000
284.441254	147.240000
284.534332	147.640000
284.627441	147.080000
284.720520	147.000000
284.813599	147.040000
284.906708	146.800000
284.999786	146.060000
285.092896	145.740000
285.185974	146.860000
285.279053	146.220000
285.372192	146.320000
285.465240	147.260000
285.558380	147.300000
285.651459	146.900000
285.744568	147.840000
285.837677	147.380000
285.930756	146.760000
286.023865	146.780000
286.116943	146.360000
286.210052	146.320000
286.303162	146.480000
286.396240	146.560000
286.489349	146.640000
286.582458	146.980000
286.675568	146.480000
286.768646	146.560000
286.861755	146.940000
286.954865	148.020000
287.047974	147.300000
287.141083	147.460000
287.234161	147.040000
287.327271	146.860000
287.420380	146.460000
287.513519	146.720000
287.606598	146.440000
287.699738	146.780000
287.792816	146.320000
287.885956	145.720000
287.979034	145.720000
288.072174	145.960000
288.165283	145.900000
288.258392	146.340000
288.351501	146.280000
288.444611	146.500000
288.537720	146.860000
288.630859	147.000000
288.723969	147.040000
288.817078	147.540000
288.910187	147.420000
289.003296	146.800000
289.096436	146.600000
289.189545	146.640000
289.282654	145.980000
289.375763	146.300000
289.468903	146.760000
289.562012	147.060000
289.655121	146.940000
289.748260	147.340000
289.841400	147.540000
289.934509	147.440000
290.027649	147.320000
290.120728	147.180000
290.213898	147.140000
290.306976	146.840000
290.400146	146.760000
290.493256	146.260000
290.586395	146.440000
290.679535	146.900000
290.772644	146.700000
290.865784	146.220000
290.958893	146.300000
291.052032	146.080000
291.145172	145.380000
291.238281	145.440000
291.331421	145.780000
291.424561	146.140000
291.517670	145.880000
291.610809	146.520000
291.703949	146.380000
291.797089	146.560000
291.890228	146.400000
291.983337	146.500000
292.076477	146.180000
292.169617	146.720000
292.262756	146.880000
292.355927	147.060000
292.449036	146.980000
292.542206	147.080000
292.635315	146.940000
292.728485	146.900000
292.821625	146.380000
292.914764	147.460000
293.007904	147.120000
293.101044	146.920000
293.194183	146.760000
293.287323	147.380000
293.380463	146.860000
293.473602	146.700000
293.566742	146.900000
293.659882	147.400000
293.753021	147.420000
293.846191	147.080000
293.939331	146.980000
294.032471	146.820000
294.125610	146.340000
294.218781	146.440000
294.311920	146.740000
294.405060	147.060000
294.498230	147.260000
294.591370	147.220000
294.684540	146.860000
294.777679	146.440000
294.870850	146.760000
294.963959	146.340000
295.057159	146.080000
295.150299	146.220000
295.243469	146.280000
295.336609	145.720000
295.429779	146.060000
295.522919	146.740000
295.616089	146.660000
295.709229	147.140000
295.802399	147.340000
295.895569	146.740000
295.988708	146.220000
296.081879	146.420000
296.175018	145.920000
296.268188	146.040000
296.361359	146.680000
296.454529	146.940000
296.547668	146.540000
296.640839	146.820000
296.734009	146.620000
296.827179	146.800000
296.920319	147.020000
297.013519	147.160000
297.106659	147.120000
297.199860	147.320000
297.292999	146.920000
297.386200	146.420000
297.479309	146.600000
297.572510	146.820000
297.665680	146.400000
297.758850	146.660000
297.852020	146.680000
297.945190	146.540000
298.038361	146.100000
298.131531	147.340000
298.224701	146.980000
298.317871	146.780000
298.411072	146.120000
298.504242	146.000000
298.597412	145.200000
298.690582	145.520000
298.783752	145.700000
298.876923	146.420000
298.970093	146.540000
299.063293	147.020000
299.156464	147.300000
299.249634	147.320000
299.342834	147.400000
299.436005	147.860000
299.529205	147.560000
299.622345	147.520000
299.715576	147.120000
299.808716	146.820000
299.901917	146.580000
299.995117	146.540000
300.088287	146.440000
300.181488	146.440000
300.274658	146.660000
300.367828	146.760000
300.461029	146.500000
300.554199	146.780000
300.647400	147.140000
300.740601	147.480000
300.833771	147.420000
300.926971	147.900000
301.020142	147.280000
301.113342	147.080000
301.206512	147.060000
301.299713	147.100000
301.392914	147.120000
301.486084	147.340000
301.579285	147.260000
301.672516	147.340000
301.765686	147.040000
301.858887	146.580000
301.952057	146.440000
302.045288	146.720000
302.138458	146.340000
302.231659	146.120000
302.324860	146.040000
302.418060	145.940000
302.511261	145.520000
302.604462	145.720000
302.697662	146.020000
302.790863	146.000000
302.884064	145.660000
302.977264	146.080000
303.070465	146.360000
303.163666	147.080000
303.256866	147.600000
303.350067	147.980000
303.443268	147.920000
303.536469	147.860000
303.629669	147.140000
303.722870	146.800000
303.816071	146.760000
303.909271	146.880000
304.002472	146.240000
304.095673	145.860000
304.188934	145.200000
304.282104	146.000000
304.375336	146.060000
304.468506	146.060000
304.561768	146.400000
304.654968	147.420000
304.748169	146.620000
304.841370	146.300000
304.934601	146.460000
305.027802	146.040000
305.121002	145.260000
305.214233	145.260000
305.307434	145.280000
305.400665	145.840000
305.493866	146.160000
305.587097	146.620000
305.680298	146.600000
305.773499	147.080000
305.866730	146.760000
305.959930	146.940000
306.053162	147.160000
306.146393	146.920000
306.239594	146.140000
306.332825	146.060000
306.426025	146.440000
306.519287	145.860000
306.612488	146.180000
306.705719	146.260000
306.798920	146.340000
306.892181	146.120000
306.985352	146.140000
307.078613	145.640000
307.171844	146.320000
307.265045	146.120000
307.358276	145.460000
307.451508	146.040000
307.544739	146.880000
307.637970	146.720000
307.731201	146.540000
307.824402	147.280000
307.917633	147.540000
308.010864	147.700000
308.104095	147.760000
308.197327	148.000000
308.290558	147.980000
308.383789	147.200000
308.477020	146.800000
308.570251	146.440000
308.663483	145.980000
308.756714	145.780000
308.849976	145.600000
308.943176	145.960000
309.036438	145.560000
309.129639	145.740000
309.222900	145.640000
309.316101	146.040000
309.409393	145.480000
309.502625	145.880000
309.595856	146.120000
309.689087	146.260000
309.782318	146.060000
309.875580	146.460000
309.968811	146.540000
310.062042	145.960000
310.155273	145.880000
310.248535	146.160000
310.341766	145.820000
310.434998	145.460000
310.528259	145.860000
310.621490	146.180000
310.714722	145.620000
310.807983	145.640000
310.901215	145.800000
310.994476	145.840000
311.087708	145.340000
311.181000	145.880000
311.274200	145.740000
311.367462	145.760000
311.460693	145.760000
311.553986	146.700000
311.647186	146.820000
311.740479	147.240000
311.833710	147.040000
311.926971	146.980000
312.020203	145.900000
312.113464	145.560000
312.206726	144.880000
312.299957	145.520000
312.393219	145.920000
312.486481	146.360000
312.579712	146.560000
312.672974	146.800000
312.766235	146.620000
312.859497	146.460000
312.952759	146.320000
313.045990	147.060000
313.139252	146.660000
313.232513	146.920000
313.325775	147.020000
313.419037	147.160000
313.512299	146.320000
313.605530	147.280000
313.698822	146.940000
313.792053	147.160000
313.885345	146.460000
313.978577	146.440000
314.071869	145.800000
314.165131	146.100000
314.258392	145.860000
314.351654	146.340000
314.444916	145.660000
314.538177	146.180000
314.631439	146.280000
314.724701	146.040000
314.817993	145.920000
314.911255	146.760000
315.004517	146.200000
315.097778	145.980000
315.191040	146.800000
315.284302	147.020000
315.377594	146.640000
315.470856	146.900000
315.564117	146.260000
315.657379	145.300000
315.750671	145.180000
315.843933	145.740000
315.937195	145.480000
316.030518	145.500000
316.123749	145.780000
316.217041	146.520000
316.310303	146.360000
316.403595	146.660000
316.496857	147.120000
316.590149	147.200000
316.683411	146.360000
316.776703	146.020000
316.869965	145.880000
316.963257	145.160000
317.056519	144.360000
317.149811	144.280000
317.243073	144.440000
317.336365	144.600000
317.429626	145.360000
317.522919	146.100000
317.616180	146.380000
317.709473	146.320000
317.802765	146.120000
317.896027	145.880000
317.989319	146.100000
318.082611	145.900000
318.175873	145.840000
318.269165	145.980000
318.362488	146.000000
318.455750	145.980000
318.549042	146.220000
318.642303	146.560000
318.735626	146.480000
318.828888	146.680000
318.922211	145.920000
319.015472	146.400000
319.108765	145.740000
319.202057	145.160000
319.295349	145.320000
319.388641	145.760000
319.481934	145.460000
319.575226	145.380000
319.668518	146.160000
319.761810	146.340000
319.855103	146.540000
319.948395	146.500000
320.041687	147.160000
320.134979	146.780000
320.228271	146.340000
320.321564	146.000000
320.414856	145.980000
320.508148	145.480000
320.601440	145.280000
320.694763	145.060000
320.788025	145.600000
320.881348	145.440000
320.974640	145.540000
321.067963	145.500000
321.161224	145.480000
321.254547	145.060000
321.347839	145.760000
321.441162	145.500000
321.534454	145.960000
321.627747	146.080000
321.721069	146.600000
321.814362	146.400000
321.907654	146.760000
322.000946	146.600000
322.094269	147.300000
322.187561	146.840000
322.280884	146.800000
322.374176	146.880000
322.467468	147.480000
322.560791	147.340000
322.654083	147.880000
322.747406	147.840000
322.840698	148.080000
322.934021	147.860000
323.027344	147.900000
323.120636	147.420000
323.213959	147.220000
323.307251	146.760000
323.400574	146.520000
323.493866	146.120000
323.587219	146.480000
323.680511	146.800000
323.773834	146.680000
323.867157	146.780000
323.960449	146.900000
324.053772	146.520000
324.147095	146.280000
324.240387	146.840000
324.333710	146.780000
324.427032	146.820000
324.520355	146.720000
324.613647	146.380000
324.706970	146.140000
324.800293	145.880000
324.893616	145.840000
324.986938	146.020000
325.080231	146.060000
325.173553	146.460000
325.266876	147.140000
325.360199	147.360000
325.453522	147.100000
325.546875	147.060000
325.640167	147.000000
325.733521	147.020000
325.826813	147.220000
325.920166	147.020000
326.013489	146.900000
326.106812	146.140000
326.200134	145.620000
326.293457	144.900000
326.386780	145.260000
326.480103	145.260000
326.573425	145.380000
326.666748	145.680000
326.760071	146.160000
326.853424	146.080000
326.946747	146.180000
327.040070	146.920000
327.133392	146.520000
327.226715	145.920000
327.320068	145.520000
327.413391	145.940000
327.506714	145.480000
327.600037	145.640000
327.693390	145.800000
327.786713	145.920000
327.880066	145.580000
327.973358	145.680000
328.066742	146.160000
328.160034	146.140000
328.253418	146.600000
328.346710	146.520000
328.440063	146.200000
328.533417	145.640000
328.626740	146.140000
328.720093	145.660000
328.813416	145.640000
328.906769	145.740000
329.000092	146.040000
329.093445	145.640000
329.186768	145.740000
329.280121	146.260000
329.373444	146.720000
329.466797	146.480000
329.560120	146.680000
329.653473	147.020000
329.746796	146.540000
329.840149	146.120000
329.933502	146.200000
330.026825	146.040000
330.120178	145.640000
330.213562	145.620000
330.306854	145.380000
330.400238	145.160000
330.493561	144.800000
330.586945	145.840000
330.680237	146.500000
330.773621	147.120000
330.866974	147.440000
330.960327	148.160000
331.053680	147.320000
331.147003	147.080000
331.240356	146.880000
331.333710	146.580000
331.427063	146.160000
331.520416	146.380000
331.613770	146.180000
331.707123	146.320000
331.800476	146.680000
331.893829	147.420000
331.987152	147.360000
332.080505	147.300000
332.173859	147.240000
332.267212	146.620000
332.360565	145.720000
332.453918	145.280000
332.547333	145.260000
332.640656	145.060000
332.734039	145.340000
332.827362	145.260000
332.920746	145.920000
333.014069	146.180000
333.107452	146.740000
333.200806	147.240000
333.294159	147.680000
333.387543	146.980000
333.480896	146.660000
333.574249	146.220000
333.667603	145.960000
333.760956	145.980000
333.854340	146.360000
333.947693	146.260000
334.041046	146.320000
334.134430	146.460000
334.227783	146.280000
334.321136	145.860000
334.414520	145.680000
334.507874	145.820000
334.601227	145.720000
334.694611	145.800000
334.787964	146.080000
334.881348	146.480000
334.974701	146.420000
335.068085	146.120000
335.161438	146.260000
335.254822	146.300000
335.348175	146.200000
335.441559	145.740000
335.534943	146.460000
335.628296	146.320000
335.721680	146.260000
335.815033	146.460000
335.908417	146.760000
336.001770	146.300000
336.095154	146.220000
336.188538	146.080000
336.281891	145.520000
336.375275	145.280000
336.468658	145.300000
336.562012	145.500000
336.655396	146.220000
336.748779	147.100000
336.842133	147.280000
336.935516	147.420000
337.028900	147.040000
337.122284	146.620000
337.215637	146.440000
337.309021	146.220000
337.402435	145.840000
337.495789	145.840000
337.589203	145.740000
337.682526	145.460000
337.775940	145.880000
337.869324	146.060000
337.962708	145.800000
338.056091	146.440000
338.149475	146.220000
338.242859	146.200000
338.336243	146.000000
338.429626	146.520000
338.523010	145.980000
338.616394	145.920000
338.709778	145.920000
338.803162	146.160000
338.896545	146.040000
338.989929	145.960000
339.083313	146.260000
339.176697	145.960000
339.270081	145.980000
339.363464	146.380000
339.456848	146.660000
339.550232	146.040000
339.643616	145.980000
339.737030	145.560000
339.830383	145.120000
339.923828	145.020000
340.017181	145.260000
340.110596	145.520000
340.203949	145.740000
340.297363	145.620000
340.390778	145.560000
340.484161	145.680000
340.577545	145.480000
340.670959	145.940000
340.764343	145.960000
340.857727	146.380000
340.951111	146.080000
341.044525	146.480000
341.137909	145.820000
341.231293	145.800000
341.324707	144.820000
341.418091	145.760000
341.511505	145.360000
341.604889	145.840000
341.698303	146.240000
341.791687	146.920000
341.885071	146.220000
341.978485	146.240000
342.071899	146.260000
342.165283	146.400000
342.258698	146.580000
342.352081	146.960000
342.445496	147.340000
342.538879	147.380000
342.632324	146.920000
342.725708	146.740000
342.819122	146.500000
342.912506	146.140000
343.005920	145.960000
343.099335	146.720000
343.192719	146.420000
343.286133	146.400000
343.379547	147.080000
343.472931	147.040000
343.566345	146.540000
343.659760	147.200000
343.753143	147.080000
343.846558	146.380000
343.939972	146.460000
344.033386	146.960000
344.126770	146.360000
344.220184	146.480000
344.313599	146.920000
344.407043	146.820000
344.500427	146.020000
344.593872	146.380000
344.687225	146.060000
344.780670	145.480000
344.874054	145.620000
344.967499	146.220000
345.060913	146.160000
345.154327	146.640000
345.247742	146.520000
345.341156	146.260000
345.434570	145.860000
345.527985	145.640000
345.621399	145.720000
345.714813	145.940000
345.808228	146.140000
345.901642	145.860000
345.995056	145.880000
346.088470	145.760000
346.181885	146.060000
346.275299	145.680000
346.368713	145.940000
346.462128	145.760000
346.555573	145.840000
346.648987	145.760000
346.742401	145.780000
346.835815	146.180000
346.929260	146.040000
347.022644	145.820000
347.116119	146.140000
347.209503	146.660000
347.302948	147.020000
347.396362	147.640000
347.489807	147.600000
347.583221	147.980000
347.676636	147.320000
347.770050	146.280000
347.863495	145.740000
347.956909	145.720000
348.050323	144.920000
348.143768	145.180000
348.237183	145.380000
348.330597	146.020000
348.424042	146.520000
348.517456	146.880000
348.610901	147.140000
348.704315	147.160000
348.797760	146.540000
348.891174	145.900000
348.984619	145.260000
349.078033	145.460000
349.171448	146.440000
349.264923	146.720000
349.358337	146.840000
349.451782	147.360000
349.545197	146.960000
349.638641	145.800000
349.732086	145.480000
349.825500	145.800000
349.918945	145.280000
350.012390	145.480000
350.105804	146.460000
350.199249	146.440000
350.292664	146.780000
350.386108	147.340000
350.479553	147.880000
350.572968	147.160000
350.666412	147.260000
350.759857	147.060000
350.853302	147.480000
350.946716	146.660000
351.040161	146.620000
351.133606	146.840000
351.227081	146.560000
351.320465	147.020000
351.413940	147.060000
351.507355	147.400000
351.600830	147.280000
351.694244	147.100000
351.787720	146.420000
351.881104	146.460000
351.974579	146.200000
352.067993	146.840000
352.161469	147.240000
352.254883	146.500000
352.348358	146.840000
352.441803	146.800000
352.535248	146.460000
352.628693	146.560000
352.722137	146.640000
352.815582	146.500000
352.909027	146.860000
353.002472	146.440000
353.095917	146.380000
353.189362	146.880000
353.282806	146.920000
353.376251	146.460000
353.469696	146.320000
353.563141	146.760000
353.656586	146.560000
353.750061	145.980000
353.843475	146.060000
353.936981	147.000000
354.030396	146.020000
354.123871	145.940000
354.217285	147.120000
354.310760	147.500000
354.404175	146.980000
354.497681	147.040000
354.591095	147.120000
354.684570	145.920000
354.777985	145.420000
354.871490	145.340000
354.964935	145.980000
355.058380	146.260000
355.151855	146.380000
355.245300	146.800000
355.338745	146.940000
355.432220	146.740000
355.525665	146.140000
355.619110	146.720000
355.712585	146.640000
355.806030	146.560000
355.899475	146.180000
355.992950	146.660000
356.086426	146.820000
356.179871	146.900000
356.273346	146.740000
356.366791	146.860000
356.460266	147.060000
356.553711	146.460000
356.647186	146.380000
356.740631	146.160000
356.834106	146.280000
356.927551	146.360000
357.021027	146.400000
357.114471	146.360000
357.207947	146.680000
357.301422	146.680000
357.394867	146.260000
357.488342	146.820000
357.581818	147.180000
357.675262	147.460000
357.768738	147.200000
357.862213	146.700000
357.955658	146.460000
358.049133	145.960000
358.142609	145.900000
358.236053	145.680000
358.329529	146.080000
358.423035	146.440000
358.516449	145.780000
358.609955	146.240000
358.703400	147.220000
358.796906	147.500000
358.890350	146.740000
358.983826	147.780000
359.077271	147.020000
359.170776	146.460000
359.264221	145.980000
359.357727	146.260000
359.451172	146.160000
359.544647	146.360000
359.638123	146.220000
359.731598	146.820000
359.825073	146.640000
359.918549	146.340000
360.012024	146.320000
360.105499	145.940000
360.198975	145.740000
360.292450	146.080000
360.385925	146.100000
360.479401	145.860000
360.572876	146.660000
360.666351	147.080000
360.759857	146.860000
360.853302	147.000000
360.946808	146.880000
361.040253	146.480000
361.133759	145.440000
361.227203	145.760000
361.320709	145.480000
361.414154	145.820000
361.507660	146.140000
361.601105	147.140000
361.694641	147.620000
361.788086	147.720000
361.881592	148.040000
361.975067	147.620000
362.068542	147.600000
362.162018	147.120000
362.255524	146.780000
362.348999	146.700000
362.442474	147.220000
362.535950	146.540000
362.629456	146.160000
362.722931	146.300000
362.816406	146.540000
362.909882	146.380000
363.003387	146.340000
363.096863	146.840000
363.190338	146.880000
363.283875	146.360000
363.377319	146.360000
363.470825	146.980000
363.564301	146.120000
363.657806	146.220000
363.751282	146.080000
363.844788	146.480000
363.938232	145.860000
364.031769	146.680000
364.125214	147.240000
364.218750	147.760000
364.312225	146.800000
364.405731	147.200000
364.499207	146.860000
364.592712	146.100000
364.686188	145.900000
364.779694	146.540000
364.873169	146.540000
364.966675	146.580000
365.060150	146.900000
365.153656	147.040000
365.247131	146.840000
365.340637	146.880000
365.434143	147.400000
365.527618	147.900000
365.621155	147.120000
365.714600	147.440000
365.808136	147.440000
365.901611	146.540000
365.995117	145.780000
366.088593	146.100000
366.182129	145.500000
366.275604	145.260000
366.369110	145.260000
366.462585	145.620000
366.556122	146.260000
366.649567	146.680000
366.743103	146.840000
366.836609	146.840000
366.930115	147.040000
367.023590	146.940000
367.117096	146.680000
367.210602	146.840000
367.304108	147.680000
367.397614	147.780000
367.491119	147.680000
367.584595	147.980000
367.678101	148.100000
367.771606	147.500000
367.865112	147.140000
367.958649	146.460000
368.052124	146.380000
368.145660	145.820000
368.239136	146.360000
368.332672	146.180000
368.426147	146.660000
368.519684	146.060000
368.613159	146.540000
368.706696	146.040000
368.800171	146.220000
368.893707	146.260000
368.987183	146.620000
369.080719	146.480000
369.174225	146.240000
369.267731	146.280000
369.361237	146.340000
369.454742	146.380000
369.548248	146.780000
369.641754	146.800000
369.735260	146.580000
369.828766	145.400000
369.922272	145.880000
370.015808	145.300000
370.109314	145.420000
370.202820	145.420000
370.296356	147.080000
370.389832	146.720000
370.483368	146.740000
370.576874	146.940000
370.670410	147.020000
370.763885	145.760000
370.857422	145.660000
370.950928	145.460000
371.044464	145.900000
371.137939	146.020000
371.231476	146.420000
371.324982	147.060000
371.418518	147.400000
371.512024	146.740000
371.605560	146.680000
371.699066	146.960000
371.792572	146.200000
371.886108	146.460000
371.979614	146.260000
372.073120	146.760000
372.166656	146.440000
372.260162	146.900000
372.353668	146.600000
372.447205	146.560000
372.540710	146.400000
372.634277	146.660000
372.727753	146.480000
372.821320	146.580000
372.914795	147.060000
373.008362	146.420000
373.101837	146.720000
373.195404	146.620000
373.288879	146.500000
373.382446	147.240000
373.475922	147.740000
373.569489	147.700000
373.662964	148.360000
373.756531	148.440000
373.850037	147.960000
373.943573	147.640000
374.037109	146.780000
374.130615	146.520000
374.224152	146.400000
374.317657	146.180000
374.411194	146.940000
374.504730	147.160000
374.598236	146.620000
374.691772	146.640000
374.785309	146.840000
374.878815	145.700000
374.972351	146.120000
375.065887	146.220000
375.159454	146.860000
375.252930	146.400000
375.346497	146.840000
375.440002	147.500000
375.533569	147.460000
375.627045	146.860000
375.720612	146.960000
375.814117	147.300000
375.907684	146.580000
376.001160	146.480000
376.094727	146.020000
376.188232	146.880000
376.281799	146.920000
376.375336	146.760000
376.468872	147.460000
376.562408	147.660000
376.655914	146.820000
376.749451	146.420000
376.842987	146.820000
376.936523	146.320000
377.030060	146.440000
377.123596	146.580000
377.217133	146.100000
377.310669	145.760000
377.404205	146.280000
377.497772	147.020000
377.591278	147.180000
377.684845	148.200000
377.778351	148.540000
377.871918	148.040000
377.965424	147.040000
378.058990	146.800000
378.152496	146.680000
378.246063	146.940000
378.339569	147.180000
378.433136	147.500000
378.526642	147.500000
378.620209	147.280000
378.713745	146.600000
378.807312	146.840000
378.900848	146.900000
378.994385	147.060000
379.087921	146.500000
379.181458	146.960000
379.274994	146.080000
379.368530	145.820000
379.462097	145.940000
379.555634	146.640000
379.649170	146.020000
379.742706	146.380000
379.836273	146.500000
379.929810	146.120000
380.023376	145.460000
380.116882	145.640000
380.210449	145.700000
380.303986	145.440000
380.397552	144.940000
380.491058	145.340000
380.584656	145.340000
380.678162	145.420000
380.771729	145.580000
380.865265	146.600000
380.958832	146.920000
381.052368	147.100000
381.145935	147.600000
381.239471	147.700000
381.333008	147.400000
381.426575	147.100000
381.520111	147.340000
381.613647	147.100000
381.707214	147.060000
381.800751	146.660000
381.894318	146.660000
381.987854	145.920000
382.081421	145.740000
382.174988	146.280000
382.268524	146.160000
382.362091	146.320000
382.455627	147.640000
382.549194	147.640000
382.642731	146.900000
382.736298	146.800000
382.829834	146.480000
382.923401	146.440000
383.016937	146.380000
383.110504	146.680000
383.204041	146.840000
383.297607	147.500000
383.391174	146.240000
383.484741	146.880000
383.578278	146.560000
383.671844	146.460000
383.765411	145.620000
383.858948	146.220000
383.952515	145.600000
384.046051	146.340000
384.139618	146.700000
384.233185	147.000000
384.326721	146.900000
384.420288	147.380000
384.513855	146.780000
384.607422	147.140000
384.700989	147.560000
384.794525	147.220000
384.888123	147.300000
384.981659	147.680000
385.075226	147.260000
385.168762	146.860000
385.262360	147.180000
385.355896	146.220000
385.449463	146.180000
385.542999	146.360000
385.636597	146.840000
385.730164	146.880000
385.823730	146.760000
385.917267	146.240000
386.010834	146.280000
386.104401	146.200000
386.197968	146.480000
386.291534	147.080000
386.385101	147.420000
386.478668	147.580000
386.572235	147.440000
386.665802	146.780000
386.759338	146.380000
386.852905	145.920000
386.946472	145.540000
387.040070	145.520000
387.133606	145.920000
387.227203	145.920000
387.320740	146.360000
387.414337	146.140000
387.507874	145.820000
387.601471	145.880000
387.695007	145.640000
387.788605	145.280000
387.882141	145.360000
387.975739	145.600000
388.069275	145.260000
388.162872	145.920000
388.256439	146.280000
388.350037	146.000000
388.443604	145.820000
388.537170	145.740000
388.630737	146.100000
388.724304	146.220000
388.817871	146.520000
388.911438	146.660000
389.005005	147.180000
389.098602	147.280000
389.192169	146.920000
389.285736	147.580000
389.379333	147.400000
389.472870	146.780000
389.566467	146.280000
389.660034	146.640000
389.753632	145.940000
389.847168	146.340000
389.940765	146.820000
390.034332	147.160000
390.127930	146.520000
390.221466	146.780000
390.315063	146.200000
390.408630	145.560000
390.502228	144.500000
390.595795	145.160000
390.689362	145.120000
390.782959	145.640000
390.876526	146.260000
390.970093	146.500000
391.063690	146.620000
391.157257	146.620000
391.250824	146.780000
391.344421	146.560000
391.437988	146.960000
391.531555	146.880000
391.625153	146.860000
391.718750	146.820000
391.812317	146.620000
391.905914	146.640000
391.999481	146.540000
392.093079	146.440000
392.186615	146.780000
392.280243	146.840000
392.373779	146.840000
392.467407	147.220000
392.560944	147.120000
392.654572	146.220000
392.748108	146.360000
392.841736	146.280000
392.935303	145.760000
393.028900	146.040000
393.122467	146.420000
393.216064	146.200000
393.309631	145.820000
393.403229	145.580000
393.496796	145.400000
393.590393	144.600000
393.683990	145.100000
393.777557	145.740000
393.871155	146.200000
393.964722	146.320000
394.058350	146.980000
394.151917	146.780000
394.245514	146.220000
394.339081	146.720000
394.432678	147.100000
394.526245	146.940000
394.619873	146.500000
394.713409	147.060000
394.807037	146.140000
394.900604	146.100000
394.994202	146.400000
395.087769	147.060000
395.181396	146.220000
395.274994	147.300000
395.368561	146.600000
395.462158	146.820000
395.555756	146.200000
395.649353	146.920000
395.742920	146.060000
395.836517	146.880000
395.930115	146.040000
396.023712	146.920000
396.117279	146.940000
396.210876	146.700000
396.304474	146.540000
396.398071	147.320000
396.491669	147.100000
396.585266	146.920000
396.678833	146.960000
396.772461	146.940000
396.866028	146.400000
396.959656	146.520000
397.053223	146.660000
397.146851	146.760000
397.240417	147.320000
397.334015	148.860000
397.427582	149.460000
397.521210	150.840000
397.614807	153.020000
397.708405	154.880000
397.802002	156.780000
397.895599	160.620000
397.989197	164.660000
398.082794	169.220000
398.176392	175.060000
398.269989	181.920000
398.363586	189.700000
398.457184	200.520000
398.550781	213.360000
398.644379	226.620000
398.737976	242.320000
398.831573	258.740000
398.925201	274.960000
399.018768	291.260000
399.112396	308.840000
399.205963	325.520000
399.299591	342.300000
399.393158	358.680000
399.486786	375.620000
399.580353	391.100000
399.673981	405.600000
399.767578	420.560000
399.861206	434.700000
399.954773	446.780000
400.048401	455.360000
400.141998	461.000000
400.235596	461.500000
400.329193	457.420000
400.422791	448.520000
400.516418	437.240000
400.610016	424.600000
400.703613	410.320000
400.797211	393.540000
400.890808	376.720000
400.984436	360.060000
401.078033	340.560000
401.171631	321.460000
401.265259	302.880000
401.358826	284.700000
401.452484	266.300000
401.546051	250.400000
401.639679	233.780000
401.733246	219.060000
401.826904	204.740000
401.920471	192.240000
402.014099	181.540000
402.107697	173.360000
402.201324	166.640000
402.294891	162.260000
402.388550	158.840000
402.482147	155.780000
402.575745	153.120000
402.669373	150.840000
402.762970	149.180000
402.856567	148.000000
402.950195	147.800000
403.043793	147.480000
403.137390	148.400000
403.231018	147.740000
403.324615	148.280000
403.418243	147.560000
403.511841	147.900000
403.605469	147.280000
403.699066	147.700000
403.792694	147.600000
403.886292	147.940000
403.979919	147.880000
404.073517	147.480000
404.167145	147.500000
404.260712	147.320000
404.354370	146.860000
404.447937	146.920000
404.541595	147.020000
404.635162	147.060000
404.728821	147.520000
404.822418	147.560000
404.916046	147.180000
405.009644	147.420000
405.103271	147.840000
405.196899	147.240000
405.290497	147.360000
405.384125	147.800000
405.477722	147.260000
405.571350	146.200000
405.664948	146.300000
405.758575	146.040000
405.852203	145.100000
405.945801	145.300000
406.039429	145.640000
406.133057	145.340000
406.226654	145.300000
406.320312	146.080000
406.413879	146.380000
406.507538	146.860000
406.601135	146.720000
406.694763	147.300000
406.788361	146.720000
406.882019	146.340000
406.975586	146.360000
407.069244	147.200000
407.162872	147.120000
407.256470	147.240000
407.350098	147.460000
407.443726	146.780000
407.537323	146.000000
407.630951	146.200000
407.724579	145.800000
407.818207	146.020000
407.911804	146.100000
408.005432	146.040000
408.099060	146.280000
408.192688	147.260000
408.286285	146.760000
408.379913	146.740000
408.473572	147.240000
408.567169	146.360000
408.660828	145.880000
408.754395	145.900000
408.848053	145.920000
408.941650	145.900000
409.035309	145.640000
409.128906	145.840000
409.222565	146.100000
409.316132	146.400000
409.409790	146.220000
409.503387	146.620000
409.597046	146.540000
409.690674	146.580000
409.784302	146.740000
409.877930	146.360000
409.971558	146.380000
410.065186	146.300000
410.158783	146.120000
410.252411	145.780000
410.346039	146.100000
410.439667	146.180000
410.533295	146.660000
410.626923	147.000000
410.720551	146.820000
410.814209	147.560000
410.907806	147.520000
411.001465	146.460000
411.095062	146.360000
411.188721	146.400000
411.282318	145.960000
411.375977	145.780000
411.469574	146.280000
411.563232	146.040000
411.656830	146.040000
411.750488	145.720000
411.844086	145.620000
411.937744	145.620000
412.031372	145.440000
412.125000	145.460000
412.218628	145.760000
412.312256	146.600000
412.405884	146.980000
412.499512	147.320000
412.593170	147.400000
412.686798	147.480000
412.780426	146.780000
412.874054	146.760000
412.967682	146.500000
413.061310	147.060000
413.154968	146.900000
413.248566	146.980000
413.342224	146.720000
413.435852	147.080000
413.529510	146.540000
413.623108	146.100000
413.716766	145.900000
413.810364	146.520000
413.904022	146.080000
413.997650	145.840000
414.091309	146.540000
414.184906	146.660000
414.278564	146.020000
414.372192	146.880000
414.465851	147.180000
414.559479	146.700000
414.653107	147.560000
414.746735	147.360000
414.840393	146.820000
414.934021	147.240000
415.027649	147.080000
415.121277	146.740000
415.214935	147.400000
415.308563	147.560000
415.402191	146.820000
415.495850	147.020000
415.589478	146.620000
415.683136	146.100000
415.776733	146.320000
415.870422	147.020000
415.964020	146.400000
416.057678	146.560000
416.151306	146.660000
416.244965	146.220000
416.338562	146.260000
416.432251	147.120000
416.525848	147.880000
416.619507	148.020000
416.713165	148.380000
416.806793	147.860000
416.900421	147.720000
416.994080	146.780000
417.087708	146.560000
417.181366	145.940000
417.274994	146.100000
417.368622	146.360000
417.462280	146.900000
417.555908	146.640000
417.649567	146.620000
417.743195	146.580000
417.836853	146.560000
417.930481	146.580000
418.024170	146.860000
418.117767	147.620000
418.211426	147.960000
418.305054	147.940000
418.398712	147.460000
418.492340	147.800000
418.585999	148.000000
418.679626	147.920000
418.773285	148.060000
418.866913	148.280000
418.960571	148.320000
419.054230	147.860000
419.147858	147.820000
419.241516	147.860000
419.335144	147.780000
419.428802	147.460000
419.522461	147.120000
419.616089	146.600000
419.709747	146.460000
419.803375	146.540000
419.897034	146.580000
419.990662	146.720000
420.084320	147.500000
420.177979	147.600000
420.271606	147.800000
420.365295	148.020000
420.458893	148.300000
420.552582	148.260000
420.646210	148.080000
420.739868	147.680000
420.833496	147.360000
420.927155	146.840000
421.020782	146.780000
421.114471	146.380000
421.208069	146.580000
421.301758	146.920000
421.395386	147.420000
421.489044	146.820000
421.582703	147.080000
421.676361	147.440000
421.769989	146.980000
421.863647	147.080000
421.957306	147.260000
422.050934	147.580000
422.144592	146.900000
422.238251	146.900000
422.331909	146.520000
422.425537	146.520000
422.519196	146.440000
422.612854	146.440000
422.706543	146.180000
422.800140	146.660000
422.893829	146.480000
422.987457	146.140000
423.081146	146.440000
423.174744	147.340000
423.268433	146.820000
423.362061	146.760000
423.455750	146.520000
423.549347	146.660000
423.643036	145.860000
423.736664	146.460000
423.830353	146.660000
423.924011	147.220000
424.017639	146.640000
424.111298	146.580000
424.204956	146.160000
424.298615	146.380000
424.392273	146.200000
424.485931	146.540000
424.579559	147.000000
424.673218	146.940000
424.766876	146.600000
424.860535	146.040000
424.954193	146.040000
425.047882	146.340000
425.141510	146.460000
425.235199	146.700000
425.328796	146.580000
425.422485	146.240000
425.516113	145.200000
425.609802	145.260000
425.703430	145.220000
425.797119	145.840000
425.890747	146.040000
425.984436	146.620000
426.078064	146.540000
426.171753	146.620000
426.265411	146.480000
426.359070	146.880000
426.452728	146.820000
426.546356	146.540000
426.640015	146.300000
426.733673	146.200000
426.827332	145.700000
426.920990	146.540000
427.014648	146.240000
427.108307	146.800000
427.201965	147.180000
427.295624	147.520000
427.389282	146.700000
427.482941	147.060000
427.576630	146.420000
427.670258	145.820000
427.763947	145.880000
427.857574	145.880000
427.951263	146.180000
428.044922	146.340000
428.138611	146.640000
428.232239	146.780000
428.325928	147.500000
428.419556	147.880000
428.513245	147.700000
428.606903	147.780000
428.700562	147.220000
428.794220	146.120000
428.887878	145.400000
428.981537	145.600000
429.075195	145.440000
429.168854	145.820000
429.262512	146.180000
429.356201	146.180000
429.449860	146.120000
429.543518	146.160000
429.637177	146.160000
429.730835	146.340000
429.824493	146.360000
429.918182	146.440000
430.011810	146.060000
430.105530	145.380000
430.199158	145.180000
430.292847	145.060000
430.386475	144.920000
430.480164	145.100000
430.573792	145.160000
430.667511	145.040000
430.761139	145.400000
430.854828	145.720000
430.948456	146.120000
431.042145	146.920000
431.135834	146.900000
431.229492	146.640000
431.323151	146.640000
431.416809	146.660000
431.510468	146.140000
431.604156	145.920000
431.697815	146.220000
431.791473	146.000000
431.885132	145.560000
431.978821	146.300000
432.072479	146.860000
432.166138	147.180000
432.259827	146.860000
432.353485	147.380000
432.447174	147.020000
432.540802	146.660000
432.634491	146.640000
432.728149	147.300000
432.821838	147.480000
432.915466	147.260000
433.009186	147.360000
433.102814	146.720000
433.196503	146.380000
433.290131	146.220000
433.383850	146.480000
433.477509	146.620000
433.571167	147.520000
433.664856	147.740000
433.758514	148.000000
433.852173	147.880000
433.945862	147.820000
434.039520	147.500000
434.133179	146.980000
434.226868	146.700000
434.320526	146.200000
434.414185	146.660000
434.507874	146.020000
434.601562	146.460000
434.695221	146.040000
434.788910	146.620000
434.882538	146.720000
434.976257	146.720000
435.069885	146.880000
435.163574	147.080000
435.257233	146.500000
435.350922	146.120000
435.444580	145.800000
435.538269	145.200000
435.631897	145.420000
435.725616	146.220000
435.819275	146.700000
435.912964	147.520000
436.006622	148.280000
436.100311	147.940000
436.193970	147.100000
436.287628	146.480000
436.381317	146.240000
436.474976	145.720000
436.568665	145.940000
436.662323	146.080000
436.756012	146.060000
436.849670	145.840000
436.943390	145.640000
437.037018	145.480000
437.130737	145.540000
437.224365	145.400000
437.318085	145.620000
437.411713	145.660000
437.505432	145.900000
437.599060	146.640000
437.692780	147.480000
437.786407	147.400000
437.880127	147.460000
437.973755	147.040000
438.067474	146.340000
438.161133	145.700000
438.254822	146.200000
438.348480	146.480000
438.442169	147.200000
438.535828	147.420000
438.629517	147.400000
438.723175	146.640000
438.816864	146.740000
438.910553	146.240000
439.004211	145.900000
439.097900	145.840000
439.191559	146.220000
439.285248	145.840000
439.378906	146.120000
439.472626	146.100000
439.566284	146.060000
439.659973	146.400000
439.753632	146.140000
439.847321	146.320000
439.940979	146.640000
440.034698	146.900000
440.128326	146.200000
440.222046	146.360000
440.315674	145.480000
440.409393	145.520000
440.503082	145.160000
440.596741	145.220000
440.690430	145.320000
440.784088	145.580000
440.877777	145.140000
440.971466	145.540000
441.065125	145.400000
441.158813	145.340000
441.252502	145.480000
441.346161	145.980000
441.439850	145.900000
441.533539	145.840000
441.627197	145.800000
441.720886	145.580000
441.814606	145.560000
441.908234	145.820000
442.001953	145.860000
442.095612	146.500000
442.189301	146.900000
442.282959	146.760000
442.376678	145.920000
442.470306	146.840000
442.564026	146.340000
442.657684	146.200000
442.751404	146.360000
442.845032	147.840000
442.938751	146.820000
443.032440	146.960000
443.126099	146.760000
443.219788	147.000000
443.313477	146.280000
443.407166	146.760000
443.500824	146.540000
443.594513	146.940000
443.688202	146.720000
443.781891	146.200000
443.875549	146.060000
443.969238	146.340000
444.062927	146.040000
444.156647	145.620000
444.250275	146.220000
444.343994	146.020000
444.437653	146.020000
444.531372	146.160000
444.625031	145.900000
444.718719	145.440000
444.812378	145.820000
444.906097	145.700000
444.999756	145.440000
445.093445	146.060000
445.187103	145.820000
445.280823	146.040000
445.374512	145.280000
445.468201	145.140000
445.561859	145.120000
445.655548	145.220000
445.749237	144.640000
445.842926	145.400000
445.936615	145.920000
446.030304	145.640000
446.123962	146.180000
446.217651	146.220000
446.311340	146.200000
446.405029	145.740000
446.498749	145.580000
446.592407	144.960000
446.686096	145.340000
446.779755	145.260000
446.873474	145.500000
446.967133	145.740000
447.060852	145.700000
447.154510	145.280000
447.248230	145.500000
447.341858	145.560000
447.435577	145.300000
447.529236	145.500000
447.622955	145.360000
447.716644	145.460000
447.810333	145.580000
447.904022	145.960000
447.997711	145.860000
448.091400	146.440000
448.185059	146.160000
448.278748	146.000000
448.372437	146.100000
448.466125	146.520000
448.559814	146.640000
448.653503	146.840000
448.747192	147.140000
448.840912	147.240000
448.934570	147.360000
449.028290	147.340000
449.121948	147.100000
449.215637	146.800000
449.309296	146.140000
449.403015	146.000000
449.496674	146.160000
449.590393	146.420000
449.684052	146.060000
449.777771	147.180000
449.871429	146.500000
449.965149	146.160000
450.058838	146.140000
450.152527	146.840000
450.246216	146.300000
450.339905	146.600000
450.433594	146.500000
450.527283	146.880000
450.620972	146.740000
450.714661	146.800000
450.808350	147.200000
450.902039	147.460000
450.995728	147.000000
451.089417	146.500000
451.183105	146.520000
451.276794	146.720000
451.370514	146.300000
451.464172	145.800000
451.557892	145.680000
451.651550	145.660000
451.745270	145.200000
451.838928	144.700000
451.932648	145.240000
452.026306	146.060000
452.120026	145.560000
452.213684	146.020000
452.307404	146.460000
452.401062	146.400000
452.494781	146.200000
452.588470	146.520000
452.682159	145.840000
452.775848	145.940000
452.869537	145.720000
452.963226	145.380000
453.056915	145.180000
453.150604	145.640000
453.244293	145.980000
453.337982	146.540000
453.431671	147.060000
453.525360	147.720000
453.619049	147.560000
453.712769	147.400000
453.806427	146.800000
453.900146	146.260000
453.993805	145.740000
454.087555	146.100000
454.181213	146.060000
454.274933	146.020000
454.368591	146.000000
454.462311	146.120000
454.555969	145.840000
454.649689	146.420000
454.743347	146.540000
454.837067	147.300000
454.930756	147.940000
455.024445	148.180000
455.118134	147.800000
455.211853	147.880000
455.305542	147.180000
455.399231	146.500000
455.492920	146.040000
455.586609	146.120000
455.680298	146.280000
455.773987	146.040000
455.867676	146.000000
455.961365	146.360000
456.055084	146.000000
456.148773	145.800000
456.242493	146.220000
456.336151	146.200000
456.429871	146.420000
456.523529	147.020000
456.617249	146.800000
456.710907	147.380000
456.804626	147.360000
456.898315	146.480000
456.992035	145.860000
457.085693	145.680000
457.179413	144.740000
457.273102	145.620000
457.366791	145.900000
457.460480	146.160000
457.554199	146.880000
457.647888	147.360000
457.741577	146.700000
457.835266	146.900000
457.928955	147.060000
458.022644	147.260000
458.116364	147.080000
458.210052	146.960000
458.303741	147.200000
458.397461	146.680000
458.491119	146.140000
458.584839	146.520000
458.678528	146.200000
458.772247	145.800000
458.865906	146.020000
458.959625	146.880000
459.053284	146.760000
459.147003	146.740000
459.240692	147.240000
459.334412	147.400000
459.428070	146.800000
459.521790	146.520000
459.615479	146.820000
459.709198	147.180000
459.802887	146.820000
459.896576	146.620000
459.990265	146.920000
460.083954	147.020000
460.177673	146.060000
460.271362	146.000000
460.365051	146.080000
460.458740	145.660000
460.552429	145.200000
460.646149	145.300000
460.739838	145.180000
460.833527	145.200000
460.927246	145.140000
461.020905	145.160000
461.114655	145.520000
461.208313	146.120000
461.302032	145.720000
461.395691	146.020000
461.489441	146.280000
461.583099	145.920000
461.676819	145.460000
461.770477	146.000000
461.864197	145.600000
461.957916	145.300000
462.051605	144.640000
462.145294	145.700000
462.238983	145.120000
462.332703	145.800000
462.426392	146.780000
462.520081	147.300000
462.613770	146.480000
462.707489	147.040000
462.801178	146.640000
462.894867	146.040000
462.988556	146.280000
463.082275	146.580000
463.175964	146.100000
463.269684	146.360000
463.363342	146.280000
463.457092	145.800000
463.550751	145.780000
463.644470	146.100000
463.738129	145.660000
463.831879	145.800000
463.925537	146.860000
464.019257	146.740000
464.112946	146.600000
464.206665	146.600000
464.300323	146.580000
464.394043	146.040000
464.487762	146.060000
464.581451	146.340000
464.675140	146.200000
464.768829	146.560000
464.862549	146.580000
464.956238	146.680000
465.049927	146.720000
465.143646	147.080000
465.237335	146.720000
465.331024	147.140000
465.424713	147.080000
465.518433	146.980000
465.612152	146.780000
465.705811	146.560000
465.799561	146.100000
465.893219	145.860000
465.986938	145.800000
466.080597	145.660000
466.174347	146.120000
466.268005	146.220000
466.361725	145.860000
466.455414	145.800000
466.549133	145.800000
466.642792	145.620000
466.736542	145.420000
466.830231	145.900000
466.923920	145.900000
467.017609	146.260000
467.111328	146.020000
467.205017	146.220000
467.298706	146.360000
467.392426	146.660000
467.486115	146.700000
467.579803	146.520000
467.673523	146.880000
467.767212	146.820000
467.860901	146.740000
467.954651	146.680000
468.048309	147.280000
468.142029	146.680000
468.235718	146.600000
468.329437	146.460000
468.423096	146.480000
468.516846	145.820000
468.610504	145.640000
468.704224	145.260000
468.797913	144.840000
468.891632	145.100000
468.985291	145.320000
469.079010	145.540000
469.172729	145.320000
469.266418	146.000000
469.360107	145.800000
469.453827	145.620000
469.547516	145.520000
469.641205	146.100000
469.734924	145.780000
469.828613	146.240000
469.922302	146.720000
470.016022	146.920000
470.109711	146.960000
470.203430	146.600000
470.297150	145.320000
470.390808	145.220000
470.484558	144.900000
470.578217	145.220000
470.671936	145.760000
470.765625	147.140000
470.859344	146.800000
470.953003	147.380000
471.046753	147.100000
471.140411	146.620000
471.234131	146.320000
471.327820	147.080000
471.421539	146.680000
471.515228	146.300000
471.608948	146.660000
471.702637	146.140000
471.796326	145.720000
471.890045	146.100000
471.983734	146.360000
472.077423	146.440000
472.171143	146.740000
472.264832	146.680000
472.358521	146.380000
472.452240	146.140000
472.545929	146.540000
472.639648	146.320000
472.733337	146.660000
472.827057	146.840000
472.920746	146.980000
473.014465	146.800000
473.108124	146.960000
473.201874	146.560000
473.295532	146.300000
473.389252	146.640000
473.482941	146.620000
473.576660	146.140000
473.670319	146.200000
473.764069	146.640000
473.857727	146.760000
473.951477	146.840000
474.045166	147.520000
474.138855	147.360000
474.232574	146.940000
474.326263	146.600000
474.419952	146.520000
474.513672	146.520000
474.607361	146.500000
474.701050	146.920000
474.794769	147.160000
474.888458	147.500000
474.982178	147.280000
475.075867	147.520000
475.169586	147.180000
475.263275	146.980000
475.356995	146.260000
475.450653	146.120000
475.544403	145.540000
475.638062	146.560000
475.731812	146.220000
475.825470	146.300000
475.919189	146.620000
476.012878	147.100000
476.106598	146.080000
476.200256	146.480000
476.294006	146.400000
476.387695	146.500000
476.481384	146.580000
476.575104	146.440000
476.668793	145.980000
476.762512	145.840000
476.856201	145.940000
476.949890	145.760000
477.043610	145.520000
477.137299	145.640000
477.230988	145.880000
477.324707	145.300000
477.418396	145.620000
477.512146	145.900000
477.605804	145.760000
477.699524	145.920000
477.793213	145.840000
477.886932	145.360000
477.980591	145.200000
478.074341	145.200000
478.167999	144.780000
478.261749	145.240000
478.355408	145.140000
478.449127	145.720000
478.542816	146.460000
478.636536	147.380000
478.730225	147.300000
478.823944	147.940000
478.917633	147.760000
479.011322	147.800000
479.105042	147.560000
479.198730	147.840000
479.292450	147.380000
479.386139	147.320000
479.479828	147.100000
479.573547	147.380000
479.667267	146.980000
479.760925	147.340000
479.854675	147.420000
479.948334	147.460000
480.042084	146.760000
480.135742	147.040000
480.229462	146.460000
480.323151	146.280000
480.416870	145.720000
480.510529	145.780000
480.604279	145.060000
480.697937	145.560000
480.791656	145.440000
480.885345	145.520000
480.979065	145.240000
481.072754	145.860000
481.166473	146.300000
481.260132	146.320000
481.353882	146.520000
481.447540	146.800000
481.541260	147.080000
481.635010	146.820000
481.728668	146.680000
481.822388	146.400000
481.916077	146.540000
482.009796	146.480000
482.103485	146.460000
482.197205	146.800000
482.290863	146.960000
482.384613	146.420000
482.478271	145.840000
482.571991	145.960000
482.665680	146.060000
482.759399	146.840000
482.853058	147.400000
482.946808	147.440000
483.040466	146.780000
483.134216	146.600000
483.227875	145.740000
483.321594	146.000000
483.415283	146.160000
483.509003	146.440000
483.602661	146.160000
483.696411	146.620000
483.790070	146.500000
483.883789	146.640000
483.977478	147.060000
484.071198	147.280000
484.164917	146.940000
484.258606	146.460000
484.352325	146.480000
484.445984	146.240000
484.539734	146.220000
484.633392	145.860000
484.727142	146.280000
484.820801	146.020000
484.914520	146.120000
485.008209	146.240000
485.101929	146.960000
485.195587	146.600000
485.289337	146.720000
485.382996	146.340000
485.476715	146.340000
485.570404	146.640000
485.664124	146.640000
485.757782	147.180000
485.851532	146.940000
485.945190	146.820000
486.038910	146.660000
486.132599	147.040000
486.226318	146.260000
486.319977	146.700000
486.413727	147.240000
486.507446	146.760000
486.601105	146.020000
486.694855	145.720000
486.788513	145.400000
486.882233	145.020000
486.975922	145.080000
487.069641	145.260000
487.163300	145.380000
487.257050	146.580000
487.350708	146.440000
487.444427	146.480000
487.538116	146.500000
487.631836	146.580000
487.725494	145.520000
487.819214	145.620000
487.912903	145.400000
488.006622	146.160000
488.100281	146.720000
488.194031	147.100000
488.287689	147.380000
488.381409	148.200000
488.475098	147.780000
488.568817	147.640000
488.662476	147.160000
488.756226	146.760000
488.849945	145.720000
488.943604	145.600000
489.037354	145.580000
489.131012	145.720000
489.224731	145.640000
489.318390	145.860000
489.412140	146.040000
489.505798	145.960000
489.599518	145.800000
489.693207	146.080000
489.786926	145.880000
489.880585	145.580000
489.974335	145.920000
490.067993	147.080000
490.161713	147.340000
490.255371	148.160000
490.349121	148.220000
490.442780	147.760000
490.536499	146.400000
490.630188	146.260000
490.723907	145.560000
490.817566	146.000000
490.911285	146.240000
491.004974	146.440000
491.098694	145.940000
491.192413	146.840000
491.286102	146.620000
491.379822	146.660000
491.473480	147.100000
491.567200	147.380000
491.660889	146.620000
491.754608	146.720000
491.848267	146.560000
491.941986	146.240000
492.035675	146.160000
492.129395	146.440000
492.223053	146.000000
492.316772	146.120000
492.410461	145.860000
492.504181	145.940000
492.597839	145.720000
492.691559	146.080000
492.785248	146.180000
492.878967	146.720000
492.972626	146.460000
493.066345	146.320000
493.160034	145.720000
493.253754	145.520000
493.347412	145.040000
493.441132	145.500000
493.534882	146.080000
493.628540	146.420000
493.722260	146.560000
493.815918	146.880000
493.909668	147.160000
494.003326	147.360000
494.097046	147.320000
494.190704	147.240000
494.284454	147.480000
494.378113	147.440000
494.471832	146.840000
494.565491	146.820000
494.659210	146.860000
494.752899	146.460000
494.846619	145.920000
494.940277	146.120000
495.033997	146.260000
495.127686	145.820000
495.221405	145.840000
495.315063	146.060000
495.408783	146.120000
495.502441	146.180000
495.596191	146.440000
495.689850	146.420000
495.783569	146.500000
495.877228	146.560000
495.970947	146.120000
496.064697	146.160000
496.158356	146.580000
496.252075	146.460000
496.345734	146.040000
496.439453	146.940000
496.533142	146.980000
496.626862	147.380000
496.720520	147.520000
496.814240	147.680000
496.907898	147.240000
497.001617	147.280000
497.095306	146.100000
497.189026	145.940000
497.282684	146.000000
497.376404	146.160000
497.470062	146.100000
497.563782	146.680000
497.657471	146.940000
497.751190	146.640000
497.844849	146.340000
497.938568	146.620000
498.032227	146.400000
498.125946	146.040000
498.219635	146.020000
498.313354	146.260000
498.407074	145.840000
498.500732	145.980000
498.594452	146.560000
498.688110	146.440000
498.781830	146.120000
498.875519	146.180000
498.969238	146.080000
499.062897	145.220000
499.156616	145.860000
499.250275	145.960000
499.343994	145.680000
499.437653	145.700000
499.531372	146.160000
499.625061	146.500000
499.718781	146.500000
499.812439	147.100000
499.906158	147.140000
499.999817	146.860000
500.093536	146.100000
500.187195	146.160000
500.280914	146.000000
500.374573	146.020000
500.468323	145.820000
500.561981	146.180000
500.655701	145.860000
500.749420	145.540000
500.843079	145.860000
500.936798	146.220000
501.030457	146.660000
501.124176	147.320000
501.217834	147.600000
501.311554	147.440000
501.405212	147.200000
501.498962	146.440000
501.592621	146.180000
501.686340	146.300000
501.779999	146.380000
501.873718	146.620000
501.967377	146.880000
502.061096	146.900000
502.154755	146.580000
502.248474	146.760000
502.342133	146.980000
502.435852	146.980000
502.529510	147.560000
502.623230	148.520000
502.716888	147.760000
502.810608	147.700000
502.904266	148.060000
502.997986	147.440000
503.091705	146.480000
503.185364	146.560000
503.279083	146.240000
503.372772	146.100000
503.466492	145.800000
503.560150	146.020000
503.653870	146.500000
503.747528	146.600000
503.841248	146.440000
503.934906	146.760000
504.028625	146.640000
504.122284	146.980000
504.216003	147.500000
504.309662	147.100000
504.403381	147.460000
504.497040	147.480000
504.590759	146.820000
504.684418	146.620000
504.778137	147.540000
504.871796	147.560000
504.965515	147.300000
505.059174	147.680000
505.152893	147.240000
505.246521	146.040000
505.340240	145.540000
505.433899	145.800000
505.527618	145.640000
505.621338	146.040000
505.714996	146.080000
505.808716	145.980000
505.902374	146.500000
505.996094	146.580000
506.089752	146.440000
506.183472	146.940000
506.277130	147.200000
506.370850	146.660000
506.464508	146.420000
506.558228	146.560000
506.651886	146.260000
506.745605	146.500000
506.839264	146.520000
506.932983	146.940000
507.026611	146.680000
507.120331	147.340000
507.213989	146.520000
507.307709	146.640000
507.401367	146.660000
507.495087	147.240000
507.588745	146.800000
507.682465	147.940000
507.776123	147.680000
507.869843	147.400000
507.963531	147.160000
508.057190	147.280000
508.150909	146.280000
508.244568	146.460000
508.338287	146.220000
508.431946	145.800000
508.525665	145.440000
508.619324	145.680000
508.713013	145.960000
508.806671	146.420000
508.900391	147.460000
508.994049	147.640000
509.087769	147.300000
509.181427	147.200000
509.275146	146.520000
509.368774	145.760000
509.462494	145.620000
509.556152	145.780000
509.649872	145.940000
509.743530	146.300000
509.837250	146.260000
509.930878	146.240000
510.024597	146.440000
510.118256	146.080000
510.211975	146.140000
510.305695	146.000000
510.399353	146.620000
510.493042	146.880000
510.586700	147.140000
510.680420	147.480000
510.774078	147.420000
510.867798	147.320000
510.961426	146.780000
511.055145	146.480000
511.148804	146.120000
511.242523	146.660000
511.336151	146.880000
511.429871	147.520000
511.523529	147.320000
511.617249	146.980000
511.710876	146.520000
511.804596	145.880000
511.898254	145.540000
511.991974	145.880000
512.085632	145.980000
512.179321	146.220000
512.272949	146.760000
512.366699	147.300000
512.460327	147.100000
512.554077	147.980000
512.647766	147.800000
512.741394	147.260000
512.835144	147.100000
512.928772	147.100000
513.022461	146.620000
513.116150	146.400000
513.209839	146.840000
513.303467	146.320000
513.397217	146.100000
513.490845	145.940000
513.584595	145.880000
513.678223	145.520000
513.771912	145.240000
513.865601	145.800000
513.959290	145.820000
514.052917	146.100000
514.146667	146.900000
514.240295	147.400000
514.333984	147.440000
514.427673	147.220000
514.521362	147.560000
514.614990	146.520000
514.708740	146.460000
514.802368	146.460000
514.896057	146.760000
514.989746	147.080000
515.083435	147.240000
515.177124	147.380000
515.270752	147.160000
515.364502	146.980000
515.458130	146.900000
515.551819	146.840000
515.645508	146.520000
515.739197	146.260000
515.832825	146.120000
515.926575	145.440000
516.020203	145.700000
516.113892	146.300000
516.207520	146.380000
516.301270	146.600000
516.394897	146.920000
516.488586	147.260000
516.582275	147.000000
516.675964	146.600000
516.769592	146.460000
516.863281	147.220000
516.956970	147.360000
517.050659	147.000000
517.144287	147.220000
517.238037	147.480000
517.331665	146.340000
517.425354	145.700000
517.519043	145.740000
517.612732	146.240000
517.706421	146.120000
517.800049	146.180000
517.893738	145.980000
517.987427	146.080000
518.081116	145.720000
518.174744	145.160000
518.268433	145.400000
518.362122	146.360000
518.455811	146.580000
518.549438	147.040000
518.643127	148.180000
518.736816	147.940000
518.830505	147.200000
518.924133	147.160000
519.017822	147.140000
519.111511	146.320000
519.205200	146.900000
519.298828	146.940000
519.392517	146.460000
519.486206	146.520000
519.579895	146.360000
519.673523	145.900000
519.767212	146.180000
519.860901	146.760000
519.954590	146.340000
520.048279	146.540000
520.141907	146.520000
520.235596	147.000000
520.329224	147.220000
520.422974	147.420000
520.516602	147.520000
520.610291	147.380000
520.703918	147.100000
520.797607	146.560000
520.891296	146.420000
520.984985	146.740000
521.078613	147.340000
521.172302	146.720000
521.265930	148.020000
521.359680	148.420000
521.453308	148.360000
521.546997	148.100000
521.640625	148.440000
521.734314	147.300000
521.827942	147.060000
521.921692	147.260000
522.015320	147.320000
522.109009	146.920000
522.202698	146.900000
522.296326	146.920000
522.390015	146.920000
522.483704	146.860000
522.577393	147.140000
522.671021	147.000000
522.764709	146.460000
522.858337	146.660000
522.952026	146.440000
523.045654	147.120000
523.139404	147.620000
523.233032	147.960000
523.326721	147.700000
523.420349	147.880000
523.514038	147.340000
523.607666	147.560000
523.701355	147.180000
523.795044	146.860000
523.888733	146.840000
523.982361	147.120000
524.076050	146.460000
524.169678	147.320000
524.263367	147.340000
524.356995	147.180000
524.450684	146.760000
524.544373	146.720000
524.638062	146.600000
524.731750	146.680000
524.825378	146.900000
524.919067	146.460000
525.012695	146.600000
525.106384	146.020000
525.200012	146.200000
525.293701	145.880000
525.387329	146.560000
525.481018	146.660000
525.574646	147.260000
525.668396	147.040000
525.762024	147.320000
525.855713	147.500000
525.949341	147.240000
526.043030	147.180000
526.136658	146.960000
526.230347	146.660000
526.323975	146.180000
526.417664	146.200000
526.511292	146.200000
526.604980	146.680000
526.698608	146.900000
526.792297	147.000000
526.885925	147.440000
526.979614	147.440000
527.073303	147.180000
527.166931	147.020000
527.260620	147.480000
527.354309	147.500000
527.447998	147.120000
527.541626	147.200000
527.635315	147.420000
527.728943	147.520000
527.822632	147.500000
527.916260	147.500000
528.009949	147.680000
528.103577	147.400000
528.197266	146.840000
528.290894	146.720000
528.384583	146.460000
528.478210	146.320000
528.571899	146.760000
528.665527	147.040000
528.759216	147.180000
528.852844	148.020000
528.946533	148.000000
529.040161	147.700000
529.133850	147.500000
529.227478	147.720000
529.321167	147.720000
529.414856	148.160000
529.508484	148.680000
529.602173	148.400000
529.695801	148.020000
529.789490	147.800000
529.883057	147.480000
529.976746	147.420000
530.070374	147.960000
530.164062	147.540000
530.257690	147.940000
530.351379	147.960000
530.445007	147.600000
530.538696	146.840000
530.632324	147.740000
530.726013	147.560000
530.819641	147.380000
530.913330	147.580000
531.006958	147.800000
531.100647	147.060000
531.194275	146.600000
531.287964	146.480000
531.381592	146.180000
531.475220	146.220000
531.568848	146.360000
531.662537	146.120000
531.756226	146.480000
531.849854	146.760000
531.943542	146.820000
532.037170	146.500000
532.130859	147.140000
532.224487	146.720000
532.318176	146.040000
532.411804	146.720000
532.505432	147.120000
532.599060	146.940000
532.692749	146.960000
532.786377	147.880000
532.880066	146.860000
532.973694	146.440000
533.067383	146.420000
533.161011	146.620000
533.254639	146.180000
533.348267	146.100000
533.441956	146.400000
533.535583	146.280000
533.629272	146.100000
533.722900	145.760000
533.816589	146.440000
533.910156	146.980000
534.003845	146.820000
534.097534	147.420000
534.191162	148.140000
534.284851	148.080000
534.378479	147.540000
534.472107	147.840000
534.565735	147.240000
534.659424	147.340000
534.753052	147.400000
534.846741	147.400000
534.940369	147.720000
535.033997	147.820000
535.127625	147.400000
535.221313	147.640000
535.314941	147.640000
535.408630	146.760000
535.502197	146.880000
535.595886	146.800000
535.689514	146.260000
535.783203	146.580000
535.876831	147.240000
535.970459	147.320000
536.064087	147.280000
536.157776	147.360000
536.251404	147.120000
536.345093	146.700000
536.438721	146.400000
536.532349	146.400000
536.626038	146.120000
536.719666	146.540000
536.813293	146.320000
536.906921	146.380000
537.000610	146.740000
537.094238	147.000000
537.187866	146.760000
537.281494	146.900000
537.375183	147.200000
537.468811	146.800000
537.562439	146.700000
537.656067	146.500000
537.749756	146.700000
537.843384	147.080000
537.937012	147.260000
538.030640	147.240000
538.124329	147.040000
538.217896	147.540000
538.311584	147.300000
538.405212	147.180000
538.498901	147.400000
538.592468	148.420000
538.686157	147.540000
538.779785	146.600000
538.873413	146.600000
538.967102	146.200000
539.060730	145.180000
539.154358	145.780000
539.247986	146.420000
539.341675	146.480000
539.435242	146.820000
539.528931	147.360000
539.622559	146.920000
539.716187	147.400000
539.809814	147.240000
539.903503	147.280000
539.997070	147.240000
540.090759	147.540000
540.184387	147.100000
540.278015	147.320000
540.371643	147.440000
540.465332	146.960000
540.558899	146.720000
540.652588	146.760000
540.746216	146.700000
540.839844	146.680000
540.933472	146.820000
541.027100	146.600000
541.120728	146.680000
541.214417	147.040000
541.308044	147.320000
541.401672	147.240000
541.495300	147.340000
541.588928	147.040000
541.682617	146.500000
541.776184	146.020000
541.869873	146.200000
541.963440	146.220000
542.057129	146.220000
542.150757	146.480000
542.244385	146.400000
542.338013	146.200000
542.431641	146.400000
542.525269	146.460000
542.618958	146.800000
542.712524	147.020000
542.806213	147.180000
542.899780	147.140000
542.993469	147.000000
543.087036	146.600000
543.180725	146.240000
543.274292	146.380000
543.367981	146.640000
543.461548	146.920000
543.555237	146.580000
543.648926	147.140000
543.742493	147.460000
543.836182	147.180000
543.929749	147.000000
544.023437	147.280000
544.117004	147.060000
544.210693	147.060000
544.304260	147.140000
544.397949	147.060000
544.491516	147.360000
544.585205	147.160000
544.678772	146.360000
544.772461	146.940000
544.866028	146.940000
544.959717	146.800000
545.053284	146.620000
545.146973	147.040000
545.240540	146.760000
545.334229	147.340000
545.427795	147.040000
545.521423	147.440000
545.615051	147.300000
545.708679	147.440000
545.802307	147.240000
545.895935	148.020000
545.989624	148.640000
546.083191	148.520000
546.176880	148.440000
546.270447	147.980000
546.364136	148.040000
546.457703	147.280000
546.551331	147.520000
546.644958	147.360000
546.738586	147.780000
546.832214	147.180000
546.925842	147.260000
547.019409	147.240000
547.113098	147.020000
547.206665	146.700000
547.300354	146.820000
547.393921	147.260000
547.487549	147.760000
547.581177	147.720000
547.674805	147.760000
547.768433	147.100000
547.862061	146.840000
547.955627	145.740000
548.049316	146.100000
548.142883	146.320000
548.236572	146.880000
548.330139	146.980000
548.423767	147.260000
548.517456	147.180000
548.611023	147.420000
548.704651	146.960000
548.798279	146.540000
548.891907	147.040000
548.985474	146.640000
549.079163	146.400000
549.172729	146.360000
549.266357	146.260000
549.359985	145.920000
549.453613	145.460000
549.547180	145.240000
549.640869	146.180000
549.734436	145.920000
549.828064	146.340000
549.921631	146.800000
550.015320	146.880000
550.108887	146.840000
550.202515	147.300000
550.296143	146.940000
550.389771	147.300000
550.483337	147.120000
550.576965	146.720000
550.670593	146.960000
550.764221	147.060000
550.857849	146.640000
550.951477	146.380000
551.045105	146.160000
551.138672	145.860000
551.232300	145.260000
551.325928	145.860000
551.419556	146.180000
551.513123	146.060000
551.606750	146.000000
551.700378	146.480000
551.794006	146.240000
551.887573	145.980000
551.981201	146.620000
552.074768	146.620000
552.168457	146.320000
552.262024	146.860000
552.355652	147.140000
552.449219	147.140000
552.542847	147.200000
552.636475	147.140000
552.730103	146.280000
552.823669	146.160000
552.917297	145.760000
553.010864	145.820000
553.104553	146.220000
553.198181	146.120000
553.291748	146.720000
553.385376	146.860000
553.478943	146.640000
553.572571	146.500000
553.666199	146.600000
553.759827	146.020000
553.853394	145.440000
553.947021	145.660000
554.040588	145.960000
554.134216	146.200000
554.227783	146.800000
554.321411	147.760000
554.415039	147.280000
554.508667	147.180000
554.602234	147.580000
554.695862	146.840000
554.789429	146.180000
554.883057	146.460000
554.976624	146.060000
555.070251	145.700000
555.163818	145.480000
555.257507	145.720000
555.351074	145.660000
555.444702	146.880000
555.538330	146.600000
555.631897	147.460000
555.725525	147.400000
555.819092	147.580000
555.912720	146.500000
556.006287	147.020000
556.099915	146.260000
556.193481	146.420000
556.287109	146.380000
556.380676	146.220000
556.474304	146.020000
556.567871	146.560000
556.661499	145.940000
556.755066	146.060000
556.848694	146.420000
556.942261	146.320000
557.035889	146.420000
557.129517	146.780000
557.223145	146.900000
557.316711	147.000000
557.410339	146.980000
557.503906	146.360000
557.597473	146.500000
557.691040	146.260000
557.784668	146.120000
557.878296	146.200000
557.971863	146.740000
558.065491	147.100000
558.159058	146.880000
558.252686	147.460000
558.346252	147.980000
558.439880	147.440000
558.533447	146.840000
558.627075	146.680000
558.720642	146.180000
558.814270	145.800000
558.907837	145.880000
559.001465	145.740000
559.095032	146.540000
559.188660	146.540000
559.282227	145.940000
559.375854	146.720000
559.469360	146.640000
559.562988	146.800000
559.656555	146.880000
559.750183	147.260000
559.843750	147.120000
559.937378	147.460000
560.030945	146.940000
560.124573	0.000000
560.218140	0.000000
560.311707	0.000000
560.405334	0.000000
560.498901	0.000000
560.592529	0.000000
560.686096	0.000000
560.779724	0.000000
560.873291	0.000000
560.966858	0.000000
561.060425	0.000000
561.154053	0.000000
561.247620	0.000000
561.341248	0.000000
561.434814	0.000000
561.528381	0.000000
561.621948	0.000000
561.715576	0.000000
561.809143	0.000000
561.902771	0.000000
561.996277	0.000000
562.089905	0.000000
562.183472	0.000000
562.277100	0.000000
