Model Number: SPM-002-B   
Serial Number: 70087108
Firmware Version: 004.15.4
Exposure Time: 100000.000000us
Data Taken on: 11-12-2020 19:38:59.280
Wavelength	Amplitude
221.570786	0.000000
221.663406	0.000000
221.756027	0.000000
221.848648	0.000000
221.941269	0.000000
222.033905	0.000000
222.126526	0.000000
222.219162	0.000000
222.311798	0.000000
222.404419	0.000000
222.497055	0.000000
222.589676	0.000000
222.682312	0.000000
222.774933	0.000000
222.867569	0.000000
222.960205	0.000000
223.052841	0.000000
223.145462	0.000000
223.238098	0.000000
223.330734	0.000000
223.423386	0.000000
223.516022	0.000000
223.608658	0.000000
223.701309	0.000000
223.793945	0.000000
223.886581	0.000000
223.979218	0.000000
224.071869	0.000000
224.164505	0.000000
224.257156	0.000000
224.349792	0.000000
224.442444	0.000000
224.535095	0.000000
224.627747	0.000000
224.720398	0.000000
224.813034	0.000000
224.905685	0.000000
224.998337	145.720000
225.090988	145.240000
225.183640	145.260000
225.276291	145.160000
225.368942	145.740000
225.461594	146.200000
225.554245	146.260000
225.646912	146.120000
225.739578	146.340000
225.832230	146.520000
225.924896	145.780000
226.017548	146.340000
226.110199	146.960000
226.202866	146.300000
226.295532	145.740000
226.388184	145.640000
226.480850	144.740000
226.573517	144.320000
226.666168	144.680000
226.758835	145.060000
226.851501	145.740000
226.944183	146.060000
227.036850	145.500000
227.129517	145.440000
227.222183	145.560000
227.314850	145.440000
227.407516	145.880000
227.500198	146.920000
227.592865	146.720000
227.685532	146.120000
227.778214	146.060000
227.870880	146.100000
227.963562	146.460000
228.056229	146.880000
228.148926	147.040000
228.241592	147.560000
228.334274	147.140000
228.426956	146.500000
228.519638	146.640000
228.612305	146.520000
228.704987	146.160000
228.797668	146.500000
228.890350	146.240000
228.983032	145.640000
229.075714	146.320000
229.168396	146.140000
229.261108	145.340000
229.353790	145.500000
229.446472	145.600000
229.539169	145.100000
229.631851	145.040000
229.724533	145.680000
229.817230	146.080000
229.909912	147.140000
230.002609	147.400000
230.095306	147.180000
230.187988	147.220000
230.280685	146.860000
230.373383	145.640000
230.466095	145.120000
230.558792	145.500000
230.651474	145.540000
230.744171	145.420000
230.836868	145.560000
230.929581	146.080000
231.022278	146.100000
231.114975	145.920000
231.207672	145.760000
231.300369	146.220000
231.393082	146.180000
231.485779	146.100000
231.578506	146.080000
231.671204	146.580000
231.763916	146.480000
231.856613	146.160000
231.949326	146.360000
232.042023	146.240000
232.134735	146.120000
232.227448	145.740000
232.320160	146.240000
232.412872	145.780000
232.505585	146.800000
232.598297	147.000000
232.691010	147.040000
232.783722	146.660000
232.876450	147.640000
232.969162	147.040000
233.061874	146.480000
233.154587	146.380000
233.247314	146.680000
233.340027	145.540000
233.432739	145.500000
233.525467	145.400000
233.618179	145.540000
233.710907	145.260000
233.803635	146.200000
233.896347	146.080000
233.989090	146.860000
234.081818	146.860000
234.174545	146.920000
234.267258	146.260000
234.359985	146.620000
234.452713	146.100000
234.545441	145.780000
234.638168	145.700000
234.730896	146.140000
234.823639	145.840000
234.916367	146.320000
235.009094	146.680000
235.101822	146.480000
235.194580	146.400000
235.287308	146.220000
235.380051	145.700000
235.472778	146.120000
235.565521	146.500000
235.658249	145.780000
235.750992	146.000000
235.843719	146.140000
235.936462	146.160000
236.029205	145.860000
236.121948	145.960000
236.214691	146.080000
236.307449	146.680000
236.400192	146.280000
236.492935	146.160000
236.585678	146.840000
236.678421	146.940000
236.771164	146.480000
236.863907	147.320000
236.956665	147.760000
237.049408	149.140000
237.142151	148.700000
237.234909	149.360000
237.327652	148.460000
237.420410	147.860000
237.513153	146.560000
237.605927	146.660000
237.698669	146.020000
237.791428	145.580000
237.884186	146.380000
237.976944	145.840000
238.069702	145.940000
238.162445	145.440000
238.255203	145.920000
238.347961	145.980000
238.440720	146.080000
238.533478	146.060000
238.626266	146.320000
238.719025	146.540000
238.811783	146.320000
238.904541	146.360000
238.997314	146.300000
239.090073	145.820000
239.182831	145.920000
239.275604	146.720000
239.368362	146.600000
239.461136	146.880000
239.553909	146.940000
239.646667	146.600000
239.739441	145.880000
239.832214	146.300000
239.925003	146.180000
240.017761	146.960000
240.110535	147.480000
240.203308	147.320000
240.296082	147.160000
240.388855	146.880000
240.481628	146.900000
240.574417	146.820000
240.667191	146.920000
240.759964	146.680000
240.852737	146.740000
240.945526	146.420000
241.038315	146.100000
241.131088	146.020000
241.223877	146.080000
241.316650	145.760000
241.409439	145.600000
241.502228	145.200000
241.595001	145.680000
241.687790	145.840000
241.780579	146.140000
241.873367	146.500000
241.966141	147.040000
242.058929	146.360000
242.151718	146.480000
242.244507	147.000000
242.337311	146.180000
242.430099	146.300000
242.522903	146.560000
242.615692	146.040000
242.708481	145.740000
242.801270	146.660000
242.894073	146.520000
242.986862	146.240000
243.079651	146.960000
243.172455	146.760000
243.265244	146.460000
243.358063	145.860000
243.450867	146.520000
243.543655	146.040000
243.636459	146.260000
243.729263	146.600000
243.822067	147.180000
243.914856	147.060000
244.007660	147.260000
244.100464	147.300000
244.193268	146.620000
244.286072	146.700000
244.378876	146.280000
244.471680	146.000000
244.564499	146.100000
244.657318	147.040000
244.750122	146.980000
244.842926	146.700000
244.935745	147.100000
245.028549	146.500000
245.121368	145.900000
245.214172	145.980000
245.306992	146.280000
245.399796	145.780000
245.492615	146.160000
245.585434	146.100000
245.678253	145.880000
245.771072	145.840000
245.863892	146.260000
245.956711	146.520000
246.049530	146.460000
246.142349	146.300000
246.235168	146.300000
246.327988	146.960000
246.420807	146.460000
246.513626	146.600000
246.606445	146.500000
246.699280	146.640000
246.792099	145.940000
246.884918	145.920000
246.977753	145.780000
247.070587	145.820000
247.163422	145.660000
247.256241	145.480000
247.349075	145.700000
247.441895	145.680000
247.534729	145.960000
247.627563	145.800000
247.720383	146.420000
247.813217	146.400000
247.906052	146.340000
247.998886	146.460000
248.091736	146.440000
248.184570	146.220000
248.277405	146.220000
248.370239	147.000000
248.463074	147.660000
248.555908	148.000000
248.648743	147.500000
248.741592	147.560000
248.834427	146.840000
248.927261	145.760000
249.020111	146.300000
249.112946	147.200000
249.205795	146.840000
249.298630	147.180000
249.391495	147.360000
249.484344	146.960000
249.577179	146.680000
249.670029	147.060000
249.762878	147.220000
249.855728	147.380000
249.948563	146.940000
250.041412	146.360000
250.134262	146.520000
250.227112	146.700000
250.319962	146.880000
250.412827	147.240000
250.505692	147.460000
250.598541	147.200000
250.691391	146.620000
250.784241	146.300000
250.877106	146.400000
250.969955	146.040000
251.062805	146.660000
251.155670	146.940000
251.248520	146.840000
251.341385	147.040000
251.434235	147.100000
251.527100	146.480000
251.619965	146.380000
251.712814	147.100000
251.805695	146.920000
251.898560	147.100000
251.991425	147.500000
252.084290	147.400000
252.177155	146.620000
252.270020	146.160000
252.362885	146.320000
252.455750	146.140000
252.548615	146.060000
252.641479	146.200000
252.734360	146.100000
252.827240	145.760000
252.920105	145.740000
253.012970	145.740000
253.105850	146.020000
253.198715	146.140000
253.291595	146.240000
253.384460	145.920000
253.477341	145.660000
253.570221	145.440000
253.663086	145.460000
253.755966	146.160000
253.848846	146.580000
253.941727	147.240000
254.034592	147.200000
254.127472	146.660000
254.220367	146.340000
254.313248	146.280000
254.406128	145.580000
254.499008	145.760000
254.591904	146.960000
254.684784	147.160000
254.777664	147.060000
254.870544	147.200000
254.963440	147.300000
255.056335	146.980000
255.149216	146.560000
255.242111	146.900000
255.334991	147.200000
255.427887	147.100000
255.520767	147.040000
255.613663	147.400000
255.706558	146.980000
255.799438	146.920000
255.892334	146.720000
255.985229	146.880000
256.078125	146.520000
256.171021	146.620000
256.263916	147.120000
256.356812	147.500000
256.449707	147.320000
256.542603	147.040000
256.635498	147.460000
256.728394	146.940000
256.821289	146.660000
256.914215	146.960000
257.007080	147.480000
257.100006	147.060000
257.192932	147.200000
257.285828	147.320000
257.378723	146.940000
257.471619	146.680000
257.564545	146.340000
257.657440	146.560000
257.750336	146.980000
257.843262	146.620000
257.936157	147.600000
258.029053	147.900000
258.121979	147.780000
258.214874	147.140000
258.307800	147.280000
258.400696	146.340000
258.493622	146.600000
258.586517	145.880000
258.679443	146.280000
258.772339	146.100000
258.865265	145.780000
258.958160	144.960000
259.051086	145.880000
259.144012	145.820000
259.236938	146.640000
259.329834	147.240000
259.422791	147.560000
259.515717	147.060000
259.608612	146.620000
259.701538	146.640000
259.794464	146.280000
259.887390	145.940000
259.980316	145.980000
260.073212	145.880000
260.166138	144.820000
260.259064	145.180000
260.351990	145.840000
260.444916	145.840000
260.537842	146.320000
260.630768	147.060000
260.723694	146.800000
260.816620	146.780000
260.909546	146.680000
261.002472	146.320000
261.095398	145.920000
261.188354	146.280000
261.281281	146.040000
261.374207	146.400000
261.467133	147.020000
261.560089	147.320000
261.653015	146.480000
261.745972	147.160000
261.838867	147.080000
261.931824	147.120000
262.024780	146.820000
262.117706	147.380000
262.210663	147.220000
262.303589	146.960000
262.396515	146.600000
262.489471	147.280000
262.582397	147.100000
262.675354	146.380000
262.768280	146.660000
262.861237	146.660000
262.954163	146.480000
263.047119	146.660000
263.140045	146.660000
263.233002	146.360000
263.325958	146.260000
263.418884	145.600000
263.511841	145.600000
263.604797	145.700000
263.697723	145.960000
263.790680	146.120000
263.883636	146.820000
263.976593	146.560000
264.069550	146.840000
264.162476	146.460000
264.255463	146.380000
264.348419	145.900000
264.441376	146.200000
264.534332	145.760000
264.627289	145.900000
264.720245	146.180000
264.813202	145.920000
264.906158	146.020000
264.999115	146.400000
265.092072	146.440000
265.185028	146.760000
265.277985	146.920000
265.370941	146.620000
265.463898	146.520000
265.556854	146.300000
265.649811	145.340000
265.742798	145.600000
265.835754	145.880000
265.928711	146.180000
266.021667	146.220000
266.114655	146.780000
266.207611	147.200000
266.300568	146.820000
266.393585	146.300000
266.486511	146.800000
266.579498	145.940000
266.672485	145.540000
266.765442	145.520000
266.858429	146.240000
266.951385	145.520000
267.044342	145.960000
267.137329	145.840000
267.230316	145.880000
267.323273	145.480000
267.416260	146.420000
267.509216	146.040000
267.602203	146.140000
267.695160	146.640000
267.788147	146.560000
267.881134	145.740000
267.974091	146.300000
268.067078	145.860000
268.160065	145.380000
268.253052	145.460000
268.346008	145.720000
268.438995	145.360000
268.531982	145.860000
268.624969	145.640000
268.717987	146.040000
268.810944	146.140000
268.903961	146.340000
268.996948	146.100000
269.089905	146.840000
269.182892	146.440000
269.275879	146.420000
269.368866	146.000000
269.461853	146.000000
269.554871	145.520000
269.647858	145.380000
269.740845	145.980000
269.833832	146.520000
269.926819	146.340000
270.019806	146.400000
270.112793	146.080000
270.205811	145.840000
270.298798	145.640000
270.391785	146.200000
270.484772	145.880000
270.577789	146.240000
270.670776	145.560000
270.763763	145.700000
270.856750	145.880000
270.949768	145.980000
271.042786	145.860000
271.135773	146.120000
271.228790	146.340000
271.321808	145.660000
271.414795	145.360000
271.507782	145.400000
271.600800	145.040000
271.693817	145.020000
271.786804	145.640000
271.879822	146.060000
271.972809	146.080000
272.065826	146.840000
272.158844	146.340000
272.251831	146.940000
272.344849	147.080000
272.437866	146.820000
272.530853	146.600000
272.623871	147.160000
272.716888	145.980000
272.809906	145.920000
272.902893	146.060000
272.995911	145.540000
273.088928	145.260000
273.181946	145.440000
273.274963	145.340000
273.367981	145.320000
273.460999	145.800000
273.554047	146.180000
273.647003	146.880000
273.740051	146.820000
273.833069	147.300000
273.926086	147.280000
274.019135	146.740000
274.112152	146.000000
274.205170	146.460000
274.298187	146.520000
274.391205	146.220000
274.484222	146.400000
274.577240	146.500000
274.670258	146.160000
274.763306	145.620000
274.856323	145.940000
274.949341	145.980000
275.042358	146.420000
275.135406	146.060000
275.228424	146.240000
275.321442	146.120000
275.414490	145.880000
275.507507	146.040000
275.600525	146.620000
275.693573	146.500000
275.786591	146.140000
275.879669	146.280000
275.972656	145.760000
276.065735	145.560000
276.158752	146.060000
276.251801	146.840000
276.344818	147.040000
276.437866	147.120000
276.530884	146.720000
276.623932	145.840000
276.716980	145.640000
276.809998	145.700000
276.903046	145.800000
276.996094	146.880000
277.089111	147.900000
277.182159	148.300000
277.275208	147.840000
277.368256	147.460000
277.461304	146.700000
277.554321	145.940000
277.647369	145.520000
277.740417	145.720000
277.833466	145.900000
277.926514	145.940000
278.019562	146.840000
278.112610	146.440000
278.205688	146.600000
278.298706	146.580000
278.391785	146.400000
278.484833	145.760000
278.577881	145.640000
278.670929	145.700000
278.763977	146.260000
278.857025	146.780000
278.950073	146.640000
279.043121	146.660000
279.136169	146.380000
279.229248	145.600000
279.322296	145.480000
279.415344	145.400000
279.508392	145.500000
279.601440	145.680000
279.694519	145.760000
279.787567	145.320000
279.880615	145.160000
279.973694	145.180000
280.066742	145.180000
280.159790	145.360000
280.252869	145.220000
280.345917	145.580000
280.438995	145.560000
280.532074	145.420000
280.625122	145.800000
280.718201	147.000000
280.811279	147.020000
280.904327	147.240000
280.997406	147.500000
281.090454	147.480000
281.183533	146.860000
281.276581	146.820000
281.369659	146.600000
281.462738	146.620000
281.555786	146.540000
281.648865	146.340000
281.741943	146.380000
281.835022	146.880000
281.928070	146.680000
282.021149	146.740000
282.114227	146.540000
282.207306	146.420000
282.300385	146.620000
282.393433	146.940000
282.486511	146.680000
282.579590	147.540000
282.672668	147.680000
282.765747	147.180000
282.858856	146.580000
282.951904	146.500000
283.045013	146.260000
283.138062	146.400000
283.231171	146.340000
283.324249	147.300000
283.417328	147.340000
283.510406	146.700000
283.603485	146.680000
283.696564	146.940000
283.789642	146.340000
283.882751	146.320000
283.975830	147.280000
284.068909	146.700000
284.161987	147.180000
284.255066	146.780000
284.348175	146.620000
284.441254	146.220000
284.534332	146.760000
284.627441	145.800000
284.720520	145.740000
284.813599	145.780000
284.906708	145.680000
284.999786	145.300000
285.092896	145.140000
285.185974	146.180000
285.279053	145.940000
285.372192	146.280000
285.465240	146.980000
285.558380	147.400000
285.651459	146.880000
285.744568	147.900000
285.837677	147.480000
285.930756	147.220000
286.023865	147.120000
286.116943	146.880000
286.210052	146.620000
286.303162	146.600000
286.396240	146.500000
286.489349	146.100000
286.582458	146.500000
286.675568	146.280000
286.768646	146.260000
286.861755	146.040000
286.954865	147.160000
287.047974	146.400000
287.141083	146.200000
287.234161	145.680000
287.327271	145.600000
287.420380	145.560000
287.513519	145.580000
287.606598	145.620000
287.699738	146.160000
287.792816	146.520000
287.885956	146.340000
287.979034	146.640000
288.072174	146.680000
288.165283	146.400000
288.258392	146.600000
288.351501	145.900000
288.444611	146.340000
288.537720	146.780000
288.630859	146.900000
288.723969	146.620000
288.817078	147.120000
288.910187	147.000000
289.003296	146.400000
289.096436	146.060000
289.189545	145.900000
289.282654	145.280000
289.375763	145.420000
289.468903	145.540000
289.562012	146.120000
289.655121	146.140000
289.748260	146.340000
289.841400	146.580000
289.934509	146.600000
290.027649	146.600000
290.120728	146.560000
290.213898	146.960000
290.306976	146.680000
290.400146	146.640000
290.493256	146.080000
290.586395	146.480000
290.679535	146.480000
290.772644	146.040000
290.865784	145.180000
290.958893	145.180000
291.052032	144.940000
291.145172	144.880000
291.238281	144.640000
291.331421	145.300000
291.424561	145.880000
291.517670	145.700000
291.610809	145.740000
291.703949	145.860000
291.797089	146.060000
291.890228	145.600000
291.983337	145.620000
292.076477	145.500000
292.169617	145.560000
292.262756	145.440000
292.355927	145.520000
292.449036	145.360000
292.542206	145.220000
292.635315	145.840000
292.728485	146.140000
292.821625	145.960000
292.914764	147.240000
293.007904	147.360000
293.101044	147.080000
293.194183	146.860000
293.287323	147.120000
293.380463	146.200000
293.473602	146.000000
293.566742	146.140000
293.659882	146.700000
293.753021	146.900000
293.846191	146.820000
293.939331	146.640000
294.032471	146.340000
294.125610	145.860000
294.218781	146.160000
294.311920	146.820000
294.405060	147.020000
294.498230	147.300000
294.591370	147.260000
294.684540	146.300000
294.777679	145.660000
294.870850	145.940000
294.963959	145.440000
295.057159	145.440000
295.150299	146.280000
295.243469	146.280000
295.336609	145.980000
295.429779	146.300000
295.522919	146.700000
295.616089	146.620000
295.709229	147.300000
295.802399	147.580000
295.895569	147.220000
295.988708	146.920000
296.081879	146.820000
296.175018	145.720000
296.268188	145.780000
296.361359	146.340000
296.454529	146.240000
296.547668	146.120000
296.640839	146.660000
296.734009	146.000000
296.827179	145.900000
296.920319	146.080000
297.013519	145.860000
297.106659	145.660000
297.199860	146.200000
297.292999	146.120000
297.386200	145.860000
297.479309	146.020000
297.572510	146.100000
297.665680	145.840000
297.758850	146.000000
297.852020	146.000000
297.945190	145.880000
298.038361	145.800000
298.131531	146.600000
298.224701	146.080000
298.317871	146.100000
298.411072	145.600000
298.504242	145.480000
298.597412	144.900000
298.690582	145.340000
298.783752	145.080000
298.876923	145.800000
298.970093	146.020000
299.063293	146.300000
299.156464	146.380000
299.249634	146.900000
299.342834	147.020000
299.436005	147.140000
299.529205	146.900000
299.622345	147.020000
299.715576	146.180000
299.808716	145.960000
299.901917	146.060000
299.995117	146.400000
300.088287	146.500000
300.181488	146.700000
300.274658	146.620000
300.367828	146.560000
300.461029	146.200000
300.554199	146.100000
300.647400	146.300000
300.740601	146.700000
300.833771	146.540000
300.926971	146.820000
301.020142	146.320000
301.113342	146.480000
301.206512	146.160000
301.299713	146.220000
301.392914	146.100000
301.486084	146.860000
301.579285	146.740000
301.672516	147.040000
301.765686	147.180000
301.858887	146.980000
301.952057	146.440000
302.045288	146.340000
302.138458	145.800000
302.231659	145.340000
302.324860	145.460000
302.418060	145.200000
302.511261	145.300000
302.604462	146.200000
302.697662	146.100000
302.790863	145.960000
302.884064	145.960000
302.977264	146.240000
303.070465	146.000000
303.163666	146.500000
303.256866	146.640000
303.350067	146.500000
303.443268	146.260000
303.536469	146.240000
303.629669	145.780000
303.722870	145.660000
303.816071	145.520000
303.909271	145.440000
304.002472	144.520000
304.095673	144.640000
304.188934	144.220000
304.282104	145.300000
304.375336	145.560000
304.468506	146.040000
304.561768	146.000000
304.654968	146.600000
304.748169	146.020000
304.841370	145.620000
304.934601	145.680000
305.027802	145.540000
305.121002	145.400000
305.214233	145.340000
305.307434	145.420000
305.400665	146.180000
305.493866	146.100000
305.587097	146.240000
305.680298	146.120000
305.773499	146.320000
305.866730	145.460000
305.959930	146.160000
306.053162	146.380000
306.146393	146.160000
306.239594	145.880000
306.332825	146.300000
306.426025	146.360000
306.519287	145.820000
306.612488	146.200000
306.705719	146.100000
306.798920	146.000000
306.892181	145.120000
306.985352	145.020000
307.078613	144.400000
307.171844	145.080000
307.265045	144.580000
307.358276	144.620000
307.451508	145.080000
307.544739	145.860000
307.637970	145.440000
307.731201	145.320000
307.824402	146.100000
307.917633	146.280000
308.010864	146.380000
308.104095	146.560000
308.197327	147.040000
308.290558	146.780000
308.383789	145.960000
308.477020	145.700000
308.570251	145.380000
308.663483	145.200000
308.756714	145.040000
308.849976	145.540000
308.943176	146.040000
309.036438	145.900000
309.129639	145.940000
309.222900	145.980000
309.316101	145.780000
309.409393	145.340000
309.502625	145.300000
309.595856	145.240000
309.689087	145.280000
309.782318	145.540000
309.875580	145.260000
309.968811	145.520000
310.062042	145.440000
310.155273	145.340000
310.248535	145.440000
310.341766	145.400000
310.434998	145.100000
310.528259	144.940000
310.621490	145.120000
310.714722	144.560000
310.807983	144.700000
310.901215	144.800000
310.994476	145.000000
311.087708	144.700000
311.181000	145.160000
311.274200	144.920000
311.367462	145.040000
311.460693	145.000000
311.553986	146.140000
311.647186	146.240000
311.740479	146.980000
311.833710	146.880000
311.926971	146.780000
312.020203	145.360000
312.113464	145.080000
312.206726	144.360000
312.299957	144.560000
312.393219	145.160000
312.486481	145.660000
312.579712	145.840000
312.672974	146.320000
312.766235	146.240000
312.859497	145.880000
312.952759	145.860000
313.045990	146.360000
313.139252	145.640000
313.232513	146.040000
313.325775	146.100000
313.419037	145.740000
313.512299	144.880000
313.605530	145.800000
313.698822	145.660000
313.792053	145.500000
313.885345	145.560000
313.978577	145.860000
314.071869	145.120000
314.165131	145.280000
314.258392	145.640000
314.351654	145.980000
314.444916	145.520000
314.538177	146.320000
314.631439	146.480000
314.724701	146.060000
314.817993	145.800000
314.911255	146.040000
315.004517	145.280000
315.097778	144.980000
315.191040	145.820000
315.284302	146.140000
315.377594	145.960000
315.470856	146.080000
315.564117	145.580000
315.657379	144.780000
315.750671	144.480000
315.843933	144.940000
315.937195	144.560000
316.030518	144.600000
316.123749	144.500000
316.217041	145.280000
316.310303	145.240000
316.403595	146.100000
316.496857	146.620000
316.590149	147.000000
316.683411	146.100000
316.776703	146.060000
316.869965	145.460000
316.963257	145.020000
317.056519	144.520000
317.149811	144.580000
317.243073	144.340000
317.336365	144.660000
317.429626	144.840000
317.522919	145.380000
317.616180	145.500000
317.709473	145.320000
317.802765	145.320000
317.896027	145.300000
317.989319	145.700000
318.082611	145.760000
318.175873	145.760000
318.269165	145.960000
318.362488	146.360000
318.455750	145.860000
318.549042	146.360000
318.642303	147.140000
318.735626	146.920000
318.828888	146.660000
318.922211	146.240000
319.015472	146.760000
319.108765	146.280000
319.202057	145.760000
319.295349	145.840000
319.388641	146.020000
319.481934	145.020000
319.575226	144.820000
319.668518	145.240000
319.761810	145.340000
319.855103	145.320000
319.948395	145.580000
320.041687	145.900000
320.134979	145.980000
320.228271	145.700000
320.321564	145.920000
320.414856	145.800000
320.508148	145.280000
320.601440	144.980000
320.694763	145.020000
320.788025	145.720000
320.881348	145.660000
320.974640	145.820000
321.067963	145.700000
321.161224	145.920000
321.254547	144.920000
321.347839	145.820000
321.441162	145.580000
321.534454	145.920000
321.627747	145.380000
321.721069	145.980000
321.814362	145.360000
321.907654	145.560000
322.000946	145.160000
322.094269	146.040000
322.187561	145.860000
322.280884	146.160000
322.374176	146.520000
322.467468	147.100000
322.560791	146.740000
322.654083	147.060000
322.747406	146.780000
322.840698	146.860000
322.934021	147.200000
323.027344	147.240000
323.120636	146.760000
323.213959	146.900000
323.307251	146.360000
323.400574	145.800000
323.493866	145.300000
323.587219	145.480000
323.680511	145.600000
323.773834	145.820000
323.867157	146.000000
323.960449	146.680000
324.053772	146.600000
324.147095	146.380000
324.240387	146.720000
324.333710	146.820000
324.427032	146.460000
324.520355	146.700000
324.613647	146.300000
324.706970	145.880000
324.800293	145.840000
324.893616	146.160000
324.986938	146.220000
325.080231	146.220000
325.173553	146.760000
325.266876	147.060000
325.360199	146.720000
325.453522	146.040000
325.546875	146.180000
325.640167	146.200000
325.733521	146.140000
325.826813	146.100000
325.920166	146.060000
326.013489	145.820000
326.106812	144.960000
326.200134	144.640000
326.293457	144.340000
326.386780	144.780000
326.480103	144.820000
326.573425	144.960000
326.666748	145.020000
326.760071	145.540000
326.853424	145.240000
326.946747	145.660000
327.040070	146.400000
327.133392	146.100000
327.226715	145.480000
327.320068	145.220000
327.413391	145.520000
327.506714	144.820000
327.600037	145.080000
327.693390	145.600000
327.786713	145.760000
327.880066	145.400000
327.973358	145.880000
328.066742	145.960000
328.160034	145.900000
328.253418	146.520000
328.346710	146.300000
328.440063	145.800000
328.533417	145.440000
328.626740	145.680000
328.720093	145.300000
328.813416	145.040000
328.906769	145.400000
329.000092	145.780000
329.093445	145.620000
329.186768	145.300000
329.280121	146.020000
329.373444	146.320000
329.466797	146.400000
329.560120	146.720000
329.653473	147.120000
329.746796	146.400000
329.840149	145.960000
329.933502	145.980000
330.026825	145.580000
330.120178	145.320000
330.213562	145.600000
330.306854	145.740000
330.400238	145.600000
330.493561	145.380000
330.586945	146.340000
330.680237	146.520000
330.773621	146.720000
330.866974	146.680000
330.960327	147.160000
331.053680	146.380000
331.147003	146.260000
331.240356	146.060000
331.333710	145.900000
331.427063	145.480000
331.520416	145.520000
331.613770	145.380000
331.707123	145.480000
331.800476	145.520000
331.893829	146.360000
331.987152	146.920000
332.080505	147.220000
332.173859	147.400000
332.267212	147.020000
332.360565	146.480000
332.453918	145.780000
332.547333	145.500000
332.640656	145.360000
332.734039	145.600000
332.827362	145.520000
332.920746	146.000000
333.014069	146.380000
333.107452	146.740000
333.200806	147.200000
333.294159	147.440000
333.387543	146.780000
333.480896	146.300000
333.574249	146.040000
333.667603	145.880000
333.760956	145.700000
333.854340	145.940000
333.947693	146.020000
334.041046	146.080000
334.134430	146.180000
334.227783	145.980000
334.321136	145.800000
334.414520	145.880000
334.507874	145.900000
334.601227	145.760000
334.694611	145.900000
334.787964	146.180000
334.881348	146.460000
334.974701	146.320000
335.068085	146.120000
335.161438	146.420000
335.254822	146.000000
335.348175	145.720000
335.441559	145.460000
335.534943	146.120000
335.628296	145.940000
335.721680	146.160000
335.815033	146.460000
335.908417	146.840000
336.001770	146.660000
336.095154	146.300000
336.188538	146.180000
336.281891	145.540000
336.375275	144.860000
336.468658	144.600000
336.562012	144.840000
336.655396	145.180000
336.748779	145.860000
336.842133	146.520000
336.935516	146.660000
337.028900	146.540000
337.122284	146.400000
337.215637	146.300000
337.309021	146.000000
337.402435	145.400000
337.495789	145.240000
337.589203	145.460000
337.682526	144.920000
337.775940	145.180000
337.869324	145.660000
337.962708	145.520000
338.056091	145.880000
338.149475	145.940000
338.242859	145.840000
338.336243	145.820000
338.429626	146.140000
338.523010	145.660000
338.616394	146.140000
338.709778	146.540000
338.803162	146.640000
338.896545	146.740000
338.989929	146.640000
339.083313	146.480000
339.176697	145.860000
339.270081	145.680000
339.363464	145.760000
339.456848	145.980000
339.550232	145.280000
339.643616	145.220000
339.737030	145.360000
339.830383	145.200000
339.923828	145.200000
340.017181	145.840000
340.110596	145.840000
340.203949	145.700000
340.297363	145.540000
340.390778	145.400000
340.484161	145.380000
340.577545	145.620000
340.670959	145.860000
340.764343	146.040000
340.857727	146.180000
340.951111	145.640000
341.044525	145.840000
341.137909	145.320000
341.231293	145.240000
341.324707	144.780000
341.418091	145.580000
341.511505	145.080000
341.604889	145.420000
341.698303	145.800000
341.791687	146.140000
341.885071	145.680000
341.978485	145.580000
342.071899	145.580000
342.165283	145.480000
342.258698	145.720000
342.352081	146.380000
342.445496	147.000000
342.538879	146.880000
342.632324	146.440000
342.725708	146.240000
342.819122	145.260000
342.912506	145.060000
343.005920	145.040000
343.099335	145.880000
343.192719	146.060000
343.286133	146.500000
343.379547	146.760000
343.472931	147.100000
343.566345	146.600000
343.659760	146.860000
343.753143	146.780000
343.846558	146.500000
343.939972	146.200000
344.033386	146.580000
344.126770	146.020000
344.220184	146.320000
344.313599	146.240000
344.407043	146.400000
344.500427	145.760000
344.593872	146.300000
344.687225	145.940000
344.780670	145.780000
344.874054	145.500000
344.967499	146.280000
345.060913	146.060000
345.154327	145.860000
345.247742	145.840000
345.341156	146.020000
345.434570	145.300000
345.527985	145.260000
345.621399	145.580000
345.714813	145.560000
345.808228	145.480000
345.901642	145.040000
345.995056	144.420000
346.088470	144.560000
346.181885	144.740000
346.275299	144.580000
346.368713	144.960000
346.462128	144.980000
346.555573	144.840000
346.648987	145.240000
346.742401	145.360000
346.835815	145.740000
346.929260	145.760000
347.022644	145.720000
347.116119	145.560000
347.209503	145.540000
347.302948	146.320000
347.396362	146.980000
347.489807	147.040000
347.583221	147.440000
347.676636	146.960000
347.770050	145.480000
347.863495	145.080000
347.956909	144.860000
348.050323	144.040000
348.143768	144.400000
348.237183	144.560000
348.330597	144.980000
348.424042	145.700000
348.517456	146.260000
348.610901	146.740000
348.704315	146.860000
348.797760	146.140000
348.891174	145.440000
348.984619	144.760000
349.078033	144.820000
349.171448	145.400000
349.264923	145.420000
349.358337	145.520000
349.451782	145.880000
349.545197	145.260000
349.638641	144.760000
349.732086	144.660000
349.825500	145.080000
349.918945	144.960000
350.012390	145.520000
350.105804	145.860000
350.199249	146.200000
350.292664	146.460000
350.386108	146.460000
350.479553	146.900000
350.572968	146.620000
350.666412	146.780000
350.759857	146.400000
350.853302	146.740000
350.946716	145.940000
351.040161	146.240000
351.133606	146.000000
351.227081	145.540000
351.320465	146.360000
351.413940	146.320000
351.507355	146.320000
351.600830	146.500000
351.694244	146.620000
351.787720	145.840000
351.881104	145.780000
351.974579	145.580000
352.067993	146.440000
352.161469	146.300000
352.254883	145.620000
352.348358	145.900000
352.441803	145.800000
352.535248	145.060000
352.628693	145.720000
352.722137	146.060000
352.815582	145.960000
352.909027	146.060000
353.002472	146.180000
353.095917	145.780000
353.189362	146.160000
353.282806	146.360000
353.376251	146.140000
353.469696	145.800000
353.563141	146.460000
353.656586	146.060000
353.750061	145.340000
353.843475	145.580000
353.936981	146.000000
354.030396	145.180000
354.123871	145.240000
354.217285	146.260000
354.310760	146.500000
354.404175	146.340000
354.497681	146.220000
354.591095	146.400000
354.684570	145.360000
354.777985	144.960000
354.871490	144.660000
354.964935	145.020000
355.058380	144.940000
355.151855	145.120000
355.245300	145.800000
355.338745	146.380000
355.432220	146.540000
355.525665	145.840000
355.619110	146.340000
355.712585	145.880000
355.806030	145.340000
355.899475	144.680000
355.992950	145.520000
356.086426	145.780000
356.179871	145.540000
356.273346	145.640000
356.366791	146.100000
356.460266	146.080000
356.553711	145.560000
356.647186	145.940000
356.740631	145.720000
356.834106	145.820000
356.927551	145.940000
357.021027	146.180000
357.114471	146.020000
357.207947	146.460000
357.301422	146.660000
357.394867	146.500000
357.488342	146.660000
357.581818	146.800000
357.675262	147.000000
357.768738	146.680000
357.862213	146.340000
357.955658	146.260000
358.049133	146.060000
358.142609	145.960000
358.236053	145.720000
358.329529	145.820000
358.423035	145.760000
358.516449	145.060000
358.609955	145.460000
358.703400	145.960000
358.796906	146.000000
358.890350	145.360000
358.983826	146.040000
359.077271	144.820000
359.170776	144.680000
359.264221	144.460000
359.357727	144.960000
359.451172	145.380000
359.544647	145.960000
359.638123	145.760000
359.731598	146.100000
359.825073	146.360000
359.918549	146.140000
360.012024	146.200000
360.105499	145.840000
360.198975	145.900000
360.292450	145.780000
360.385925	145.640000
360.479401	145.500000
360.572876	146.220000
360.666351	146.660000
360.759857	146.540000
360.853302	146.320000
360.946808	145.880000
361.040253	145.740000
361.133759	144.840000
361.227203	145.120000
361.320709	144.980000
361.414154	145.780000
361.507660	145.920000
361.601105	146.500000
361.694641	146.660000
361.788086	146.780000
361.881592	146.680000
361.975067	146.280000
362.068542	146.680000
362.162018	146.440000
362.255524	146.020000
362.348999	145.940000
362.442474	146.220000
362.535950	145.520000
362.629456	145.260000
362.722931	145.580000
362.816406	145.900000
362.909882	146.000000
363.003387	145.820000
363.096863	146.480000
363.190338	146.460000
363.283875	145.820000
363.377319	145.700000
363.470825	146.360000
363.564301	145.480000
363.657806	145.900000
363.751282	145.740000
363.844788	146.480000
363.938232	146.040000
364.031769	146.700000
364.125214	146.520000
364.218750	147.380000
364.312225	145.980000
364.405731	146.200000
364.499207	145.740000
364.592712	145.620000
364.686188	145.300000
364.779694	145.740000
364.873169	145.560000
364.966675	145.620000
365.060150	145.560000
365.153656	146.000000
365.247131	145.920000
365.340637	146.000000
365.434143	146.560000
365.527618	146.760000
365.621155	145.800000
365.714600	146.060000
365.808136	146.160000
365.901611	145.200000
365.995117	144.900000
366.088593	145.160000
366.182129	144.840000
366.275604	144.540000
366.369110	144.700000
366.462585	145.000000
366.556122	145.760000
366.649567	146.120000
366.743103	146.440000
366.836609	146.440000
366.930115	146.380000
367.023590	145.920000
367.117096	145.920000
367.210602	145.620000
367.304108	146.440000
367.397614	147.100000
367.491119	147.400000
367.584595	147.360000
367.678101	147.580000
367.771606	147.120000
367.865112	146.320000
367.958649	145.520000
368.052124	145.200000
368.145660	145.140000
368.239136	145.320000
368.332672	145.580000
368.426147	145.800000
368.519684	145.900000
368.613159	145.840000
368.706696	145.360000
368.800171	145.240000
368.893707	145.300000
368.987183	145.220000
369.080719	145.420000
369.174225	145.420000
369.267731	145.620000
369.361237	145.520000
369.454742	145.640000
369.548248	145.920000
369.641754	146.040000
369.735260	145.680000
369.828766	145.380000
369.922272	145.820000
370.015808	145.300000
370.109314	144.900000
370.202820	144.860000
370.296356	145.720000
370.389832	145.280000
370.483368	145.080000
370.576874	145.380000
370.670410	145.840000
370.763885	144.920000
370.857422	144.900000
370.950928	144.980000
371.044464	145.860000
371.137939	145.700000
371.231476	146.200000
371.324982	146.820000
371.418518	147.200000
371.512024	146.680000
371.605560	146.700000
371.699066	146.880000
371.792572	146.260000
371.886108	146.100000
371.979614	145.920000
372.073120	146.340000
372.166656	146.140000
372.260162	146.380000
372.353668	146.500000
372.447205	146.140000
372.540710	145.860000
372.634277	145.440000
372.727753	145.260000
372.821320	145.220000
372.914795	145.340000
373.008362	144.940000
373.101837	145.220000
373.195404	145.360000
373.288879	145.260000
373.382446	146.380000
373.475922	146.620000
373.569489	147.380000
373.662964	147.620000
373.756531	147.500000
373.850037	147.300000
373.943573	147.000000
374.037109	145.800000
374.130615	145.940000
374.224152	146.200000
374.317657	145.320000
374.411194	146.220000
374.504730	146.560000
374.598236	146.140000
374.691772	145.880000
374.785309	146.160000
374.878815	144.900000
374.972351	145.040000
375.065887	144.960000
375.159454	145.720000
375.252930	145.560000
375.346497	146.260000
375.440002	146.800000
375.533569	146.800000
375.627045	145.880000
375.720612	145.940000
375.814117	146.060000
375.907684	145.620000
376.001160	145.420000
376.094727	145.280000
376.188232	145.880000
376.281799	146.140000
376.375336	146.020000
376.468872	146.860000
376.562408	147.360000
376.655914	146.640000
376.749451	146.480000
376.842987	146.640000
376.936523	146.200000
377.030060	146.100000
377.123596	146.620000
377.217133	146.020000
377.310669	146.040000
377.404205	146.500000
377.497772	146.840000
377.591278	146.640000
377.684845	147.440000
377.778351	147.800000
377.871918	147.280000
377.965424	146.860000
378.058990	146.760000
378.152496	146.200000
378.246063	146.240000
378.339569	146.260000
378.433136	146.160000
378.526642	146.080000
378.620209	146.000000
378.713745	145.540000
378.807312	146.200000
378.900848	146.240000
378.994385	146.800000
379.087921	146.540000
379.181458	146.740000
379.274994	145.740000
379.368530	145.780000
379.462097	145.480000
379.555634	146.260000
379.649170	145.680000
379.742706	145.800000
379.836273	145.880000
379.929810	145.680000
380.023376	145.240000
380.116882	145.280000
380.210449	145.560000
380.303986	145.380000
380.397552	144.900000
380.491058	144.940000
380.584656	144.960000
380.678162	145.020000
380.771729	145.060000
380.865265	145.820000
380.958832	145.940000
381.052368	146.180000
381.145935	146.240000
381.239471	146.540000
381.333008	146.560000
381.426575	146.480000
381.520111	146.760000
381.613647	146.860000
381.707214	146.360000
381.800751	145.680000
381.894318	145.740000
381.987854	145.320000
382.081421	145.160000
382.174988	145.600000
382.268524	145.860000
382.362091	146.000000
382.455627	146.780000
382.549194	146.380000
382.642731	145.920000
382.736298	145.700000
382.829834	145.580000
382.923401	145.420000
383.016937	145.800000
383.110504	146.440000
383.204041	146.520000
383.297607	146.740000
383.391174	145.800000
383.484741	146.160000
383.578278	145.440000
383.671844	145.480000
383.765411	144.780000
383.858948	145.560000
383.952515	145.400000
384.046051	146.100000
384.139618	146.080000
384.233185	146.460000
384.326721	146.220000
384.420288	146.500000
384.513855	146.160000
384.607422	146.620000
384.700989	147.200000
384.794525	147.060000
384.888123	146.680000
384.981659	146.960000
385.075226	146.520000
385.168762	145.760000
385.262360	145.840000
385.355896	145.260000
385.449463	144.880000
385.542999	145.060000
385.636597	145.980000
385.730164	146.440000
385.823730	146.520000
385.917267	146.380000
386.010834	146.420000
386.104401	145.880000
386.197968	145.900000
386.291534	146.180000
386.385101	146.360000
386.478668	146.720000
386.572235	146.480000
386.665802	145.920000
386.759338	145.840000
386.852905	145.800000
386.946472	145.260000
387.040070	145.560000
387.133606	145.660000
387.227203	145.680000
387.320740	146.000000
387.414337	145.920000
387.507874	145.800000
387.601471	146.040000
387.695007	145.800000
387.788605	145.480000
387.882141	145.800000
387.975739	145.800000
388.069275	145.500000
388.162872	146.080000
388.256439	146.080000
388.350037	145.820000
388.443604	145.660000
388.537170	145.700000
388.630737	145.800000
388.724304	145.940000
388.817871	145.820000
388.911438	146.080000
389.005005	146.320000
389.098602	146.380000
389.192169	146.240000
389.285736	146.720000
389.379333	146.480000
389.472870	146.080000
389.566467	145.920000
389.660034	145.860000
389.753632	145.360000
389.847168	145.880000
389.940765	145.900000
390.034332	145.920000
390.127930	145.820000
390.221466	146.080000
390.315063	145.600000
390.408630	145.360000
390.502228	144.840000
390.595795	145.360000
390.689362	145.460000
390.782959	146.080000
390.876526	146.640000
390.970093	146.760000
391.063690	146.820000
391.157257	146.820000
391.250824	146.800000
391.344421	146.620000
391.437988	146.900000
391.531555	146.860000
391.625153	146.860000
391.718750	146.780000
391.812317	146.560000
391.905914	146.280000
391.999481	146.260000
392.093079	146.220000
392.186615	146.160000
392.280243	146.100000
392.373779	146.160000
392.467407	146.480000
392.560944	146.340000
392.654572	145.900000
392.748108	146.260000
392.841736	146.500000
392.935303	145.940000
393.028900	145.980000
393.122467	146.360000
393.216064	146.040000
393.309631	145.320000
393.403229	144.980000
393.496796	144.540000
393.590393	143.880000
393.683990	143.960000
393.777557	144.680000
393.871155	145.240000
393.964722	146.120000
394.058350	146.340000
394.151917	146.320000
394.245514	146.020000
394.339081	146.200000
394.432678	146.080000
394.526245	146.080000
394.619873	145.980000
394.713409	146.160000
394.807037	145.820000
394.900604	146.040000
394.994202	146.240000
395.087769	146.600000
395.181396	146.060000
395.274994	146.680000
395.368561	145.760000
395.462158	145.880000
395.555756	145.460000
395.649353	146.080000
395.742920	145.200000
395.836517	146.200000
395.930115	145.440000
396.023712	145.860000
396.117279	146.080000
396.210876	146.000000
396.304474	145.560000
396.398071	146.060000
396.491669	146.380000
396.585266	145.940000
396.678833	146.160000
396.772461	146.520000
396.866028	146.600000
396.959656	146.540000
397.053223	146.840000
397.146851	147.100000
397.240417	147.600000
397.334015	148.740000
397.427582	149.220000
397.521210	150.400000
397.614807	152.160000
397.708405	153.860000
397.802002	156.180000
397.895599	160.160000
397.989197	164.600000
398.082794	169.620000
398.176392	176.300000
398.269989	183.260000
398.363586	191.940000
398.457184	202.580000
398.550781	215.400000
398.644379	228.700000
398.737976	244.480000
398.831573	261.000000
398.925201	277.980000
399.018768	295.000000
399.112396	311.960000
399.205963	328.200000
399.299591	344.240000
399.393158	359.800000
399.486786	374.900000
399.580353	390.080000
399.673981	404.440000
399.767578	418.480000
399.861206	432.080000
399.954773	444.380000
400.048401	452.980000
400.141998	457.660000
400.235596	457.820000
400.329193	452.160000
400.422791	441.860000
400.516418	428.580000
400.610016	414.360000
400.703613	398.700000
400.797211	381.020000
400.890808	363.780000
400.984436	346.460000
401.078033	327.660000
401.171631	308.660000
401.265259	290.940000
401.358826	273.560000
401.452484	256.080000
401.546051	241.420000
401.639679	225.920000
401.733246	212.880000
401.826904	199.920000
401.920471	188.980000
402.014099	178.840000
402.107697	171.640000
402.201324	165.620000
402.294891	161.240000
402.388550	158.080000
402.482147	155.560000
402.575745	153.140000
402.669373	150.760000
402.762970	149.240000
402.856567	148.160000
402.950195	147.440000
403.043793	147.160000
403.137390	147.420000
403.231018	146.660000
403.324615	147.380000
403.418243	146.500000
403.511841	146.860000
403.605469	146.640000
403.699066	147.300000
403.792694	147.040000
403.886292	147.600000
403.979919	147.300000
404.073517	146.920000
404.167145	146.740000
404.260712	146.220000
404.354370	145.800000
404.447937	145.800000
404.541595	146.040000
404.635162	146.040000
404.728821	146.580000
404.822418	146.620000
404.916046	146.240000
405.009644	146.800000
405.103271	146.960000
405.196899	146.540000
405.290497	146.900000
405.384125	147.400000
405.477722	146.440000
405.571350	146.340000
405.664948	146.580000
405.758575	145.980000
405.852203	145.700000
405.945801	146.280000
406.039429	146.100000
406.133057	145.580000
406.226654	145.780000
406.320312	145.780000
406.413879	145.780000
406.507538	146.200000
406.601135	146.040000
406.694763	146.380000
406.788361	146.060000
406.882019	145.700000
406.975586	145.700000
407.069244	146.220000
407.162872	146.060000
407.256470	146.240000
407.350098	146.100000
407.443726	145.660000
407.537323	145.160000
407.630951	145.500000
407.724579	145.280000
407.818207	145.940000
407.911804	145.820000
408.005432	146.140000
408.099060	146.100000
408.192688	146.560000
408.286285	146.080000
408.379913	146.000000
408.473572	146.000000
408.567169	145.400000
408.660828	145.280000
408.754395	145.120000
408.848053	145.120000
408.941650	145.240000
409.035309	145.120000
409.128906	144.900000
409.222565	145.340000
409.316132	145.840000
409.409790	145.680000
409.503387	145.920000
409.597046	146.140000
409.690674	146.020000
409.784302	145.820000
409.877930	145.760000
409.971558	146.020000
410.065186	145.980000
410.158783	145.880000
410.252411	145.760000
410.346039	146.120000
410.439667	146.040000
410.533295	146.120000
410.626923	146.320000
410.720551	146.240000
410.814209	146.540000
410.907806	146.740000
411.001465	146.440000
411.095062	146.400000
411.188721	146.480000
411.282318	145.900000
411.375977	145.460000
411.469574	145.420000
411.563232	145.340000
411.656830	145.100000
411.750488	144.640000
411.844086	144.500000
411.937744	144.880000
412.031372	144.860000
412.125000	144.960000
412.218628	145.500000
412.312256	146.260000
412.405884	146.360000
412.499512	146.180000
412.593170	146.380000
412.686798	146.480000
412.780426	145.860000
412.874054	145.900000
412.967682	145.980000
413.061310	146.600000
413.154968	146.540000
413.248566	146.760000
413.342224	146.640000
413.435852	146.700000
413.529510	145.960000
413.623108	145.660000
413.716766	145.440000
413.810364	145.680000
413.904022	145.300000
413.997650	145.400000
414.091309	146.180000
414.184906	146.460000
414.278564	146.120000
414.372192	146.920000
414.465851	147.140000
414.559479	146.580000
414.653107	147.280000
414.746735	147.200000
414.840393	146.960000
414.934021	147.000000
415.027649	146.460000
415.121277	146.080000
415.214935	146.360000
415.308563	146.260000
415.402191	145.540000
415.495850	145.900000
415.589478	145.340000
415.683136	145.260000
415.776733	145.460000
415.870422	146.220000
415.964020	146.160000
416.057678	146.440000
416.151306	146.400000
416.244965	146.240000
416.338562	146.060000
416.432251	146.500000
416.525848	147.240000
416.619507	147.520000
416.713165	147.820000
416.806793	147.460000
416.900421	147.360000
416.994080	146.360000
417.087708	145.860000
417.181366	145.180000
417.274994	145.260000
417.368622	145.440000
417.462280	146.120000
417.555908	146.200000
417.649567	146.400000
417.743195	146.680000
417.836853	146.200000
417.930481	146.100000
418.024170	146.240000
418.117767	146.500000
418.211426	146.780000
418.305054	147.300000
418.398712	147.000000
418.492340	147.140000
418.585999	147.460000
418.679626	147.400000
418.773285	147.120000
418.866913	147.580000
418.960571	147.580000
419.054230	147.260000
419.147858	147.140000
419.241516	147.260000
419.335144	146.800000
419.428802	146.740000
419.522461	146.640000
419.616089	146.320000
419.709747	146.620000
419.803375	146.640000
419.897034	146.560000
419.990662	146.640000
420.084320	147.400000
420.177979	147.320000
420.271606	147.340000
420.365295	147.520000
420.458893	147.420000
420.552582	147.360000
420.646210	147.300000
420.739868	147.060000
420.833496	146.640000
420.927155	146.400000
421.020782	145.900000
421.114471	145.340000
421.208069	145.540000
421.301758	145.880000
421.395386	146.200000
421.489044	145.900000
421.582703	146.320000
421.676361	146.580000
421.769989	146.440000
421.863647	146.680000
421.957306	147.280000
422.050934	147.400000
422.144592	147.060000
422.238251	146.880000
422.331909	146.420000
422.425537	145.940000
422.519196	145.660000
422.612854	145.620000
422.706543	145.260000
422.800140	145.840000
422.893829	145.820000
422.987457	145.540000
423.081146	145.620000
423.174744	146.580000
423.268433	145.880000
423.362061	145.540000
423.455750	145.660000
423.549347	145.700000
423.643036	144.680000
423.736664	145.400000
423.830353	145.960000
423.924011	146.180000
424.017639	145.720000
424.111298	146.140000
424.204956	145.720000
424.298615	145.680000
424.392273	145.520000
424.485931	146.000000
424.579559	146.080000
424.673218	145.880000
424.766876	145.540000
424.860535	145.200000
424.954193	144.800000
425.047882	145.200000
425.141510	145.120000
425.235199	145.200000
425.328796	145.120000
425.422485	145.200000
425.516113	144.580000
425.609802	144.840000
425.703430	145.160000
425.797119	145.560000
425.890747	145.720000
425.984436	145.800000
426.078064	145.640000
426.171753	145.680000
426.265411	145.440000
426.359070	145.700000
426.452728	145.800000
426.546356	145.820000
426.640015	145.400000
426.733673	145.340000
426.827332	144.840000
426.920990	145.540000
427.014648	144.920000
427.108307	145.200000
427.201965	145.720000
427.295624	145.940000
427.389282	145.020000
427.482941	145.980000
427.576630	145.960000
427.670258	145.480000
427.763947	145.600000
427.857574	145.820000
427.951263	145.500000
428.044922	145.420000
428.138611	145.420000
428.232239	145.680000
428.325928	146.080000
428.419556	146.540000
428.513245	146.200000
428.606903	146.300000
428.700562	145.560000
428.794220	144.720000
428.887878	143.980000
428.981537	144.320000
429.075195	144.320000
429.168854	145.340000
429.262512	145.700000
429.356201	146.080000
429.449860	145.920000
429.543518	146.020000
429.637177	145.780000
429.730835	145.560000
429.824493	145.260000
429.918182	145.720000
430.011810	145.320000
430.105530	144.800000
430.199158	145.120000
430.292847	145.000000
430.386475	144.700000
430.480164	144.860000
430.573792	144.560000
430.667511	144.500000
430.761139	144.700000
430.854828	144.840000
430.948456	144.760000
431.042145	145.440000
431.135834	145.300000
431.229492	145.500000
431.323151	145.460000
431.416809	145.520000
431.510468	145.220000
431.604156	145.160000
431.697815	145.180000
431.791473	145.000000
431.885132	144.900000
431.978821	145.280000
432.072479	145.640000
432.166138	146.020000
432.259827	145.780000
432.353485	146.020000
432.447174	145.960000
432.540802	145.940000
432.634491	145.760000
432.728149	146.040000
432.821838	146.580000
432.915466	146.300000
433.009186	146.120000
433.102814	145.720000
433.196503	145.860000
433.290131	145.860000
433.383850	146.100000
433.477509	146.460000
433.571167	147.320000
433.664856	147.580000
433.758514	147.660000
433.852173	147.340000
433.945862	146.960000
434.039520	146.520000
434.133179	145.980000
434.226868	145.520000
434.320526	145.020000
434.414185	145.680000
434.507874	145.620000
434.601562	146.120000
434.695221	146.020000
434.788910	146.460000
434.882538	145.960000
434.976257	145.640000
435.069885	145.400000
435.163574	145.600000
435.257233	145.620000
435.350922	145.720000
435.444580	145.360000
435.538269	145.260000
435.631897	145.460000
435.725616	146.060000
435.819275	146.480000
435.912964	147.200000
436.006622	147.700000
436.100311	147.560000
436.193970	146.760000
436.287628	146.560000
436.381317	146.260000
436.474976	145.560000
436.568665	145.300000
436.662323	145.800000
436.756012	145.560000
436.849670	145.360000
436.943390	145.620000
437.037018	145.600000
437.130737	145.240000
437.224365	144.920000
437.318085	145.160000
437.411713	145.100000
437.505432	145.840000
437.599060	146.600000
437.692780	147.540000
437.786407	147.560000
437.880127	147.580000
437.973755	147.160000
438.067474	146.600000
438.161133	145.980000
438.254822	146.340000
438.348480	146.140000
438.442169	146.900000
438.535828	147.160000
438.629517	146.840000
438.723175	145.980000
438.816864	146.580000
438.910553	145.440000
439.004211	145.240000
439.097900	145.160000
439.191559	145.620000
439.285248	144.800000
439.378906	145.180000
439.472626	145.220000
439.566284	145.360000
439.659973	145.460000
439.753632	145.680000
439.847321	146.140000
439.940979	146.000000
440.034698	146.220000
440.128326	145.880000
440.222046	145.620000
440.315674	144.700000
440.409393	144.960000
440.503082	144.740000
440.596741	145.200000
440.690430	145.780000
440.784088	145.880000
440.877777	145.180000
440.971466	145.280000
441.065125	144.840000
441.158813	144.520000
441.252502	144.720000
441.346161	145.320000
441.439850	145.560000
441.533539	145.620000
441.627197	145.840000
441.720886	145.680000
441.814606	145.780000
441.908234	146.060000
442.001953	146.000000
442.095612	146.000000
442.189301	146.280000
442.282959	146.220000
442.376678	145.320000
442.470306	146.120000
442.564026	146.100000
442.657684	146.080000
442.751404	145.820000
442.845032	147.100000
442.938751	146.040000
443.032440	146.200000
443.126099	145.900000
443.219788	146.420000
443.313477	145.980000
443.407166	146.580000
443.500824	146.620000
443.594513	146.920000
443.688202	146.660000
443.781891	145.660000
443.875549	145.360000
443.969238	145.460000
444.062927	145.500000
444.156647	145.480000
444.250275	146.580000
444.343994	146.740000
444.437653	146.500000
444.531372	146.500000
444.625031	146.180000
444.718719	145.560000
444.812378	145.380000
444.906097	145.280000
444.999756	144.880000
445.093445	145.020000
445.187103	145.280000
445.280823	146.000000
445.374512	145.620000
445.468201	145.760000
445.561859	145.720000
445.655548	145.520000
445.749237	144.780000
445.842926	145.140000
445.936615	145.500000
446.030304	145.440000
446.123962	145.580000
446.217651	145.520000
446.311340	145.560000
446.405029	145.280000
446.498749	145.380000
446.592407	145.200000
446.686096	145.500000
446.779755	145.760000
446.873474	145.720000
446.967133	145.800000
447.060852	145.820000
447.154510	145.840000
447.248230	145.580000
447.341858	145.680000
447.435577	145.360000
447.529236	145.080000
447.622955	144.860000
447.716644	144.960000
447.810333	145.040000
447.904022	145.580000
447.997711	145.760000
448.091400	146.180000
448.185059	146.120000
448.278748	146.360000
448.372437	145.980000
448.466125	146.160000
448.559814	145.900000
448.653503	146.280000
448.747192	146.180000
448.840912	146.620000
448.934570	146.700000
449.028290	146.980000
449.121948	146.460000
449.215637	146.000000
449.309296	145.460000
449.403015	145.820000
449.496674	145.640000
449.590393	145.800000
449.684052	145.660000
449.777771	146.540000
449.871429	145.340000
449.965149	145.380000
450.058838	145.520000
450.152527	146.180000
450.246216	145.700000
450.339905	146.500000
450.433594	146.220000
450.527283	146.920000
450.620972	146.400000
450.714661	146.560000
450.808350	146.560000
450.902039	146.740000
450.995728	146.100000
451.089417	145.960000
451.183105	145.680000
451.276794	146.080000
451.370514	145.740000
451.464172	144.940000
451.557892	145.120000
451.651550	145.580000
451.745270	145.000000
451.838928	144.680000
451.932648	145.400000
452.026306	145.840000
452.120026	145.020000
452.213684	145.100000
452.307404	145.400000
452.401062	145.400000
452.494781	145.260000
452.588470	145.660000
452.682159	145.440000
452.775848	145.820000
452.869537	145.280000
452.963226	144.860000
453.056915	144.780000
453.150604	145.060000
453.244293	144.920000
453.337982	145.880000
453.431671	146.480000
453.525360	146.860000
453.619049	146.700000
453.712769	146.780000
453.806427	145.960000
453.900146	145.380000
453.993805	145.160000
454.087555	145.920000
454.181213	145.700000
454.274933	145.700000
454.368591	145.740000
454.462311	145.280000
454.555969	144.800000
454.649689	145.440000
454.743347	145.400000
454.837067	146.360000
454.930756	147.060000
455.024445	147.080000
455.118134	146.640000
455.211853	146.820000
455.305542	145.900000
455.399231	145.840000
455.492920	145.680000
455.586609	145.800000
455.680298	146.080000
455.773987	146.120000
455.867676	145.960000
455.961365	146.120000
456.055084	145.940000
456.148773	145.740000
456.242493	145.660000
456.336151	145.540000
456.429871	145.480000
456.523529	146.060000
456.617249	145.940000
456.710907	146.700000
456.804626	146.820000
456.898315	146.480000
456.992035	146.220000
457.085693	145.960000
457.179413	145.160000
457.273102	145.720000
457.366791	145.920000
457.460480	146.060000
457.554199	146.780000
457.647888	147.020000
457.741577	146.440000
457.835266	146.320000
457.928955	146.260000
458.022644	146.540000
458.116364	146.960000
458.210052	146.840000
458.303741	147.140000
458.397461	146.740000
458.491119	145.920000
458.584839	145.500000
458.678528	145.240000
458.772247	145.040000
458.865906	145.380000
458.959625	146.760000
459.053284	146.860000
459.147003	147.060000
459.240692	147.660000
459.334412	147.400000
459.428070	146.220000
459.521790	146.040000
459.615479	145.800000
459.709198	146.120000
459.802887	145.960000
459.896576	146.080000
459.990265	146.300000
460.083954	146.740000
460.177673	145.900000
460.271362	146.100000
460.365051	146.040000
460.458740	145.700000
460.552429	145.120000
460.646149	144.860000
460.739838	144.520000
460.833527	144.660000
460.927246	144.860000
461.020905	145.300000
461.114655	145.560000
461.208313	146.100000
461.302032	145.540000
461.395691	145.620000
461.489441	145.340000
461.583099	145.200000
461.676819	144.700000
461.770477	145.300000
461.864197	144.720000
461.957916	144.860000
462.051605	144.380000
462.145294	145.220000
462.238983	144.740000
462.332703	145.520000
462.426392	146.000000
462.520081	146.580000
462.613770	145.840000
462.707489	146.140000
462.801178	145.840000
462.894867	145.440000
462.988556	145.540000
463.082275	145.780000
463.175964	145.500000
463.269684	145.720000
463.363342	145.740000
463.457092	145.240000
463.550751	145.640000
463.644470	145.880000
463.738129	145.840000
463.831879	145.840000
463.925537	146.620000
464.019257	146.200000
464.112946	146.200000
464.206665	145.980000
464.300323	145.860000
464.394043	145.420000
464.487762	145.480000
464.581451	145.640000
464.675140	145.700000
464.768829	146.060000
464.862549	146.020000
464.956238	146.080000
465.049927	146.120000
465.143646	146.260000
465.237335	145.880000
465.331024	146.580000
465.424713	146.520000
465.518433	146.380000
465.612152	146.240000
465.705811	146.460000
465.799561	145.700000
465.893219	145.540000
465.986938	145.580000
466.080597	145.120000
466.174347	145.420000
466.268005	145.880000
466.361725	146.000000
466.455414	145.660000
466.549133	145.680000
466.642792	145.440000
466.736542	144.840000
466.830231	145.080000
466.923920	145.420000
467.017609	145.760000
467.111328	145.540000
467.205017	145.760000
467.298706	145.400000
467.392426	145.480000
467.486115	145.960000
467.579803	145.620000
467.673523	146.060000
467.767212	146.340000
467.860901	146.260000
467.954651	146.180000
468.048309	146.920000
468.142029	146.780000
468.235718	146.420000
468.329437	146.080000
468.423096	145.960000
468.516846	145.420000
468.610504	145.100000
468.704224	145.080000
468.797913	145.160000
468.891632	145.160000
468.985291	145.280000
469.079010	145.520000
469.172729	145.140000
469.266418	145.620000
469.360107	145.520000
469.453827	145.320000
469.547516	145.260000
469.641205	145.980000
469.734924	145.960000
469.828613	146.500000
469.922302	146.680000
470.016022	146.800000
470.109711	146.600000
470.203430	146.220000
470.297150	145.160000
470.390808	145.560000
470.484558	145.180000
470.578217	145.640000
470.671936	146.200000
470.765625	147.120000
470.859344	146.560000
470.953003	146.960000
471.046753	146.400000
471.140411	145.540000
471.234131	145.380000
471.327820	146.240000
471.421539	146.240000
471.515228	146.140000
471.608948	146.640000
471.702637	146.180000
471.796326	145.460000
471.890045	145.360000
471.983734	145.800000
472.077423	145.600000
472.171143	145.760000
472.264832	145.740000
472.358521	145.640000
472.452240	145.220000
472.545929	145.780000
472.639648	145.880000
472.733337	146.380000
472.827057	146.440000
472.920746	146.320000
473.014465	146.440000
473.108124	146.460000
473.201874	146.640000
473.295532	146.480000
473.389252	147.080000
473.482941	147.060000
473.576660	146.900000
473.670319	146.220000
473.764069	146.480000
473.857727	146.480000
473.951477	146.260000
474.045166	146.640000
474.138855	146.620000
474.232574	146.520000
474.326263	146.420000
474.419952	146.600000
474.513672	146.380000
474.607361	146.460000
474.701050	146.620000
474.794769	146.800000
474.888458	146.760000
474.982178	147.040000
475.075867	147.160000
475.169586	146.840000
475.263275	146.520000
475.356995	146.100000
475.450653	145.500000
475.544403	145.240000
475.638062	146.060000
475.731812	145.700000
475.825470	145.500000
475.919189	145.660000
476.012878	146.060000
476.106598	144.960000
476.200256	145.680000
476.294006	145.640000
476.387695	145.840000
476.481384	145.720000
476.575104	146.000000
476.668793	145.260000
476.762512	145.060000
476.856201	145.200000
476.949890	144.700000
477.043610	144.520000
477.137299	144.720000
477.230988	145.480000
477.324707	145.260000
477.418396	145.920000
477.512146	146.240000
477.605804	146.160000
477.699524	146.240000
477.793213	145.800000
477.886932	145.460000
477.980591	145.280000
478.074341	145.520000
478.167999	144.780000
478.261749	145.420000
478.355408	145.460000
478.449127	145.840000
478.542816	146.520000
478.636536	147.240000
478.730225	147.120000
478.823944	147.540000
478.917633	147.440000
479.011322	147.040000
479.105042	146.560000
479.198730	146.540000
479.292450	146.000000
479.386139	146.280000
479.479828	146.240000
479.573547	146.880000
479.667267	146.820000
479.760925	147.180000
479.854675	147.220000
479.948334	147.420000
480.042084	146.520000
480.135742	146.720000
480.229462	146.260000
480.323151	145.980000
480.416870	145.180000
480.510529	145.380000
480.604279	144.780000
480.697937	145.580000
480.791656	144.820000
480.885345	144.880000
480.979065	144.980000
481.072754	145.560000
481.166473	145.720000
481.260132	145.880000
481.353882	146.040000
481.447540	145.940000
481.541260	145.700000
481.635010	144.980000
481.728668	145.000000
481.822388	144.960000
481.916077	145.100000
482.009796	144.920000
482.103485	145.340000
482.197205	145.920000
482.290863	146.320000
482.384613	146.200000
482.478271	146.280000
482.571991	145.880000
482.665680	145.760000
482.759399	146.100000
482.853058	146.520000
482.946808	146.180000
483.040466	146.100000
483.134216	146.060000
483.227875	145.220000
483.321594	145.240000
483.415283	145.700000
483.509003	145.800000
483.602661	145.420000
483.696411	145.900000
483.790070	146.300000
483.883789	146.180000
483.977478	146.300000
484.071198	146.640000
484.164917	146.200000
484.258606	145.200000
484.352325	145.480000
484.445984	145.580000
484.539734	145.300000
484.633392	145.080000
484.727142	145.740000
484.820801	145.460000
484.914520	145.280000
485.008209	145.800000
485.101929	146.380000
485.195587	145.900000
485.289337	146.380000
485.382996	146.540000
485.476715	146.620000
485.570404	146.840000
485.664124	146.720000
485.757782	146.960000
485.851532	146.700000
485.945190	146.340000
486.038910	146.300000
486.132599	147.100000
486.226318	146.220000
486.319977	146.040000
486.413727	146.660000
486.507446	146.200000
486.601105	145.160000
486.694855	145.120000
486.788513	145.240000
486.882233	144.740000
486.975922	144.720000
487.069641	145.240000
487.163300	145.520000
487.257050	146.420000
487.350708	146.240000
487.444427	146.020000
487.538116	145.800000
487.631836	145.600000
487.725494	144.980000
487.819214	145.020000
487.912903	145.020000
488.006622	145.540000
488.100281	146.040000
488.194031	146.000000
488.287689	146.360000
488.381409	147.260000
488.475098	146.760000
488.568817	146.600000
488.662476	146.440000
488.756226	145.980000
488.849945	144.980000
488.943604	145.280000
489.037354	145.360000
489.131012	145.240000
489.224731	145.280000
489.318390	145.460000
489.412140	145.360000
489.505798	145.180000
489.599518	145.000000
489.693207	145.380000
489.786926	145.400000
489.880585	145.360000
489.974335	145.700000
490.067993	147.060000
490.161713	147.020000
490.255371	147.900000
490.349121	148.000000
490.442780	147.620000
490.536499	146.380000
490.630188	146.500000
490.723907	145.720000
490.817566	145.660000
490.911285	145.920000
491.004974	145.460000
491.098694	144.960000
491.192413	145.700000
491.286102	145.480000
491.379822	145.320000
491.473480	146.460000
491.567200	146.420000
491.660889	145.660000
491.754608	146.200000
491.848267	146.080000
491.941986	145.740000
492.035675	146.100000
492.129395	146.440000
492.223053	146.040000
492.316772	146.360000
492.410461	146.200000
492.504181	145.860000
492.597839	145.400000
492.691559	145.480000
492.785248	145.460000
492.878967	145.440000
492.972626	145.200000
493.066345	145.520000
493.160034	145.240000
493.253754	144.920000
493.347412	144.680000
493.441132	145.160000
493.534882	145.560000
493.628540	145.900000
493.722260	146.260000
493.815918	146.800000
493.909668	147.180000
494.003326	147.060000
494.097046	146.820000
494.190704	146.240000
494.284454	146.200000
494.378113	145.840000
494.471832	145.520000
494.565491	145.340000
494.659210	145.780000
494.752899	145.620000
494.846619	145.420000
494.940277	145.780000
495.033997	145.720000
495.127686	145.180000
495.221405	144.900000
495.315063	144.960000
495.408783	144.860000
495.502441	145.120000
495.596191	145.340000
495.689850	145.220000
495.783569	145.600000
495.877228	145.660000
495.970947	145.660000
496.064697	145.840000
496.158356	146.840000
496.252075	146.660000
496.345734	146.200000
496.439453	146.820000
496.533142	147.000000
496.626862	147.100000
496.720520	146.980000
496.814240	147.360000
496.907898	147.000000
497.001617	147.100000
497.095306	146.160000
497.189026	146.180000
497.282684	146.180000
497.376404	146.340000
497.470062	146.060000
497.563782	146.220000
497.657471	146.040000
497.751190	145.880000
497.844849	145.440000
497.938568	145.520000
498.032227	145.580000
498.125946	145.720000
498.219635	145.400000
498.313354	145.660000
498.407074	145.300000
498.500732	145.420000
498.594452	145.800000
498.688110	145.820000
498.781830	145.560000
498.875519	145.620000
498.969238	145.560000
499.062897	145.240000
499.156616	145.940000
499.250275	145.940000
499.343994	145.760000
499.437653	145.880000
499.531372	146.140000
499.625061	146.340000
499.718781	146.860000
499.812439	147.180000
499.906158	146.840000
499.999817	146.460000
500.093536	145.640000
500.187195	145.100000
500.280914	145.240000
500.374573	145.560000
500.468323	145.160000
500.561981	145.620000
500.655701	145.300000
500.749420	145.180000
500.843079	145.240000
500.936798	145.940000
501.030457	146.180000
501.124176	146.660000
501.217834	146.620000
501.311554	146.620000
501.405212	146.180000
501.498962	145.240000
501.592621	145.180000
501.686340	145.600000
501.779999	145.540000
501.873718	145.780000
501.967377	146.220000
502.061096	146.400000
502.154755	145.740000
502.248474	145.640000
502.342133	145.460000
502.435852	145.520000
502.529510	146.020000
502.623230	146.760000
502.716888	146.360000
502.810608	146.560000
502.904266	147.200000
502.997986	146.740000
503.091705	146.200000
503.185364	146.400000
503.279083	146.700000
503.372772	146.300000
503.466492	145.900000
503.560150	145.940000
503.653870	146.380000
503.747528	145.760000
503.841248	145.520000
503.934906	145.960000
504.028625	145.880000
504.122284	145.760000
504.216003	146.680000
504.309662	146.260000
504.403381	146.180000
504.497040	146.380000
504.590759	146.120000
504.684418	146.040000
504.778137	146.860000
504.871796	147.200000
504.965515	146.860000
505.059174	146.820000
505.152893	146.000000
505.246521	145.380000
505.340240	144.820000
505.433899	145.220000
505.527618	145.460000
505.621338	145.780000
505.714996	145.740000
505.808716	145.900000
505.902374	146.020000
505.996094	145.820000
506.089752	145.660000
506.183472	145.520000
506.277130	145.420000
506.370850	145.100000
506.464508	145.160000
506.558228	145.180000
506.651886	145.340000
506.745605	145.640000
506.839264	145.740000
506.932983	145.700000
507.026611	145.520000
507.120331	146.140000
507.213989	145.660000
507.307709	145.700000
507.401367	146.320000
507.495087	147.300000
507.588745	146.520000
507.682465	147.300000
507.776123	146.880000
507.869843	146.380000
507.963531	145.800000
508.057190	146.220000
508.150909	145.340000
508.244568	146.040000
508.338287	145.920000
508.431946	145.780000
508.525665	145.780000
508.619324	146.060000
508.713013	145.960000
508.806671	146.440000
508.900391	147.240000
508.994049	147.420000
509.087769	147.200000
509.181427	147.180000
509.275146	146.400000
509.368774	145.580000
509.462494	145.340000
509.556152	145.360000
509.649872	145.820000
509.743530	146.280000
509.837250	146.580000
509.930878	146.360000
510.024597	146.360000
510.118256	145.640000
510.211975	145.580000
510.305695	145.240000
510.399353	145.640000
510.493042	146.280000
510.586700	146.600000
510.680420	147.160000
510.774078	147.060000
510.867798	147.180000
510.961426	146.480000
511.055145	146.240000
511.148804	145.660000
511.242523	146.280000
511.336151	145.900000
511.429871	146.440000
511.523529	146.400000
511.617249	145.940000
511.710876	145.620000
511.804596	145.640000
511.898254	145.400000
511.991974	145.920000
512.085632	146.240000
512.179321	146.140000
512.272949	146.580000
512.366699	147.040000
512.460327	146.660000
512.554077	147.480000
512.647766	147.140000
512.741394	146.900000
512.835144	147.220000
512.928772	146.880000
513.022461	146.560000
513.116150	146.780000
513.209839	147.160000
513.303467	146.220000
513.397217	146.240000
513.490845	145.580000
513.584595	145.320000
513.678223	144.760000
513.771912	144.260000
513.865601	144.500000
513.959290	144.600000
514.052917	144.920000
514.146667	145.660000
514.240295	146.320000
514.333984	146.360000
514.427673	146.440000
514.521362	147.120000
514.614990	146.260000
514.708740	146.180000
514.802368	146.340000
514.896057	146.400000
514.989746	146.540000
515.083435	146.640000
515.177124	146.960000
515.270752	146.380000
515.364502	146.360000
515.458130	146.020000
515.551819	145.720000
515.645508	145.440000
515.739197	145.900000
515.832825	145.920000
515.926575	145.420000
516.020203	145.860000
516.113892	146.380000
516.207520	146.160000
516.301270	146.240000
516.394897	146.380000
516.488586	147.020000
516.582275	146.600000
516.675964	145.760000
516.769592	145.580000
516.863281	146.200000
516.956970	145.920000
517.050659	145.860000
517.144287	146.720000
517.238037	146.700000
517.331665	146.000000
517.425354	145.500000
517.519043	145.420000
517.612732	145.280000
517.706421	145.420000
517.800049	145.220000
517.893738	145.100000
517.987427	145.020000
518.081116	144.900000
518.174744	144.440000
518.268433	144.820000
518.362122	145.800000
518.455811	145.620000
518.549438	146.260000
518.643127	147.340000
518.736816	146.900000
518.830505	145.900000
518.924133	146.200000
519.017822	146.100000
519.111511	145.500000
519.205200	146.300000
519.298828	146.660000
519.392517	146.260000
519.486206	146.480000
519.579895	146.560000
519.673523	146.160000
519.767212	146.040000
519.860901	146.720000
519.954590	146.140000
520.048279	145.700000
520.141907	145.740000
520.235596	146.640000
520.329224	146.780000
520.422974	147.160000
520.516602	147.560000
520.610291	147.040000
520.703918	146.580000
520.797607	146.080000
520.891296	145.980000
520.984985	145.880000
521.078613	146.760000
521.172302	145.800000
521.265930	146.700000
521.359680	147.100000
521.453308	146.900000
521.546997	146.520000
521.640625	147.120000
521.734314	146.360000
521.827942	145.840000
521.921692	146.300000
522.015320	146.380000
522.109009	146.140000
522.202698	146.180000
522.296326	146.280000
522.390015	146.380000
522.483704	146.220000
522.577393	145.940000
522.671021	145.760000
522.764709	145.500000
522.858337	145.940000
522.952026	146.020000
523.045654	146.880000
523.139404	147.620000
523.233032	147.900000
523.326721	147.260000
523.420349	147.220000
523.514038	146.840000
523.607666	146.960000
523.701355	146.340000
523.795044	146.260000
523.888733	146.380000
523.982361	146.680000
524.076050	145.680000
524.169678	146.480000
524.263367	146.260000
524.356995	145.820000
524.450684	145.280000
524.544373	145.440000
524.638062	145.160000
524.731750	145.300000
524.825378	145.480000
524.919067	145.460000
525.012695	145.400000
525.106384	145.060000
525.200012	145.500000
525.293701	145.460000
525.387329	145.960000
525.481018	146.360000
525.574646	147.160000
525.668396	146.880000
525.762024	147.460000
525.855713	147.340000
525.949341	146.700000
526.043030	146.760000
526.136658	146.620000
526.230347	145.940000
526.323975	145.540000
526.417664	145.980000
526.511292	145.520000
526.604980	145.840000
526.698608	145.880000
526.792297	146.020000
526.885925	146.140000
526.979614	146.220000
527.073303	145.860000
527.166931	146.280000
527.260620	146.460000
527.354309	146.520000
527.447998	146.360000
527.541626	146.140000
527.635315	146.020000
527.728943	146.440000
527.822632	146.560000
527.916260	146.880000
528.009949	147.420000
528.103577	147.240000
528.197266	146.560000
528.290894	146.440000
528.384583	146.240000
528.478210	146.320000
528.571899	146.440000
528.665527	146.920000
528.759216	146.840000
528.852844	147.060000
528.946533	146.900000
529.040161	147.200000
529.133850	146.740000
529.227478	146.920000
529.321167	147.100000
529.414856	147.340000
529.508484	147.480000
529.602173	147.400000
529.695801	147.080000
529.789490	146.600000
529.883057	146.280000
529.976746	146.200000
530.070374	146.840000
530.164062	146.940000
530.257690	147.340000
530.351379	147.360000
530.445007	147.140000
530.538696	146.420000
530.632324	146.360000
530.726013	146.260000
530.819641	146.560000
530.913330	146.560000
531.006958	146.580000
531.100647	146.740000
531.194275	146.560000
531.287964	146.060000
531.381592	145.960000
531.475220	146.240000
531.568848	146.040000
531.662537	145.920000
531.756226	146.560000
531.849854	146.560000
531.943542	146.600000
532.037170	146.380000
532.130859	147.000000
532.224487	146.140000
532.318176	145.720000
532.411804	146.140000
532.505432	146.580000
532.599060	146.080000
532.692749	146.240000
532.786377	146.900000
532.880066	146.160000
532.973694	145.620000
533.067383	145.700000
533.161011	146.040000
533.254639	145.680000
533.348267	145.940000
533.441956	146.620000
533.535583	146.080000
533.629272	145.920000
533.722900	145.360000
533.816589	145.540000
533.910156	145.480000
534.003845	145.400000
534.097534	145.500000
534.191162	146.660000
534.284851	146.520000
534.378479	146.180000
534.472107	146.360000
534.565735	146.240000
534.659424	146.260000
534.753052	146.260000
534.846741	146.040000
534.940369	146.660000
535.033997	146.920000
535.127625	146.380000
535.221313	147.060000
535.314941	147.320000
535.408630	147.000000
535.502197	147.160000
535.595886	146.940000
535.689514	146.160000
535.783203	146.500000
535.876831	147.060000
535.970459	146.840000
536.064087	147.000000
536.157776	147.180000
536.251404	147.020000
536.345093	146.600000
536.438721	146.460000
536.532349	146.820000
536.626038	146.640000
536.719666	146.720000
536.813293	146.300000
536.906921	146.520000
537.000610	146.620000
537.094238	146.520000
537.187866	146.440000
537.281494	146.740000
537.375183	146.680000
537.468811	146.300000
537.562439	146.400000
537.656067	146.360000
537.749756	146.520000
537.843384	147.080000
537.937012	147.260000
538.030640	147.020000
538.124329	147.180000
538.217896	147.480000
538.311584	147.120000
538.405212	146.940000
538.498901	147.220000
538.592468	147.640000
538.686157	146.820000
538.779785	146.020000
538.873413	145.760000
538.967102	145.720000
539.060730	144.820000
539.154358	145.240000
539.247986	145.960000
539.341675	146.220000
539.435242	146.300000
539.528931	146.920000
539.622559	146.640000
539.716187	146.940000
539.809814	146.940000
539.903503	146.820000
539.997070	146.700000
540.090759	146.660000
540.184387	146.440000
540.278015	146.860000
540.371643	147.000000
540.465332	147.000000
540.558899	146.820000
540.652588	146.700000
540.746216	146.240000
540.839844	146.500000
540.933472	146.360000
541.027100	146.580000
541.120728	146.360000
541.214417	146.540000
541.308044	146.560000
541.401672	146.240000
541.495300	145.960000
541.588928	145.920000
541.682617	145.480000
541.776184	145.200000
541.869873	145.520000
541.963440	145.980000
542.057129	146.120000
542.150757	146.680000
542.244385	146.300000
542.338013	146.000000
542.431641	145.720000
542.525269	145.240000
542.618958	145.200000
542.712524	145.600000
542.806213	145.380000
542.899780	145.780000
542.993469	146.120000
543.087036	145.840000
543.180725	145.320000
543.274292	145.860000
543.367981	145.840000
543.461548	146.180000
543.555237	146.200000
543.648926	146.780000
543.742493	147.220000
543.836182	146.980000
543.929749	146.820000
544.023437	146.880000
544.117004	146.880000
544.210693	146.500000
544.304260	146.780000
544.397949	146.540000
544.491516	146.820000
544.585205	146.500000
544.678772	146.360000
544.772461	146.400000
544.866028	146.440000
544.959717	146.440000
545.053284	146.680000
545.146973	146.880000
545.240540	146.840000
545.334229	147.580000
545.427795	147.640000
545.521423	147.580000
545.615051	147.440000
545.708679	148.020000
545.802307	147.840000
545.895935	147.940000
545.989624	148.800000
546.083191	148.760000
546.176880	148.260000
546.270447	147.640000
546.364136	147.860000
546.457703	147.100000
546.551331	147.260000
546.644958	147.360000
546.738586	147.600000
546.832214	146.800000
546.925842	146.640000
547.019409	146.740000
547.113098	146.240000
547.206665	146.020000
547.300354	146.140000
547.393921	146.660000
547.487549	146.700000
547.581177	146.540000
547.674805	146.660000
547.768433	146.240000
547.862061	145.700000
547.955627	144.940000
548.049316	145.640000
548.142883	145.960000
548.236572	146.760000
548.330139	147.120000
548.423767	147.260000
548.517456	147.200000
548.611023	147.560000
548.704651	146.940000
548.798279	146.640000
548.891907	147.280000
548.985474	146.840000
549.079163	146.460000
549.172729	146.520000
549.266357	146.280000
549.359985	146.300000
549.453613	145.980000
549.547180	145.840000
549.640869	146.300000
549.734436	146.320000
549.828064	146.080000
549.921631	146.240000
550.015320	145.660000
550.108887	145.840000
550.202515	145.920000
550.296143	145.480000
550.389771	145.420000
550.483337	146.100000
550.576965	145.740000
550.670593	146.120000
550.764221	146.260000
550.857849	146.300000
550.951477	145.460000
551.045105	145.200000
551.138672	145.060000
551.232300	144.860000
551.325928	145.520000
551.419556	146.320000
551.513123	146.460000
551.606750	146.000000
551.700378	146.420000
551.794006	146.040000
551.887573	145.760000
551.981201	146.060000
552.074768	146.360000
552.168457	146.100000
552.262024	146.680000
552.355652	146.380000
552.449219	146.540000
552.542847	146.780000
552.636475	146.540000
552.730103	145.640000
552.823669	145.580000
552.917297	145.020000
553.010864	144.860000
553.104553	145.420000
553.198181	145.320000
553.291748	146.000000
553.385376	146.340000
553.478943	146.260000
553.572571	145.960000
553.666199	146.240000
553.759827	145.800000
553.853394	145.360000
553.947021	145.460000
554.040588	145.540000
554.134216	145.880000
554.227783	146.540000
554.321411	147.140000
554.415039	146.760000
554.508667	146.860000
554.602234	147.040000
554.695862	146.160000
554.789429	145.820000
554.883057	146.040000
554.976624	146.020000
555.070251	145.640000
555.163818	145.660000
555.257507	145.640000
555.351074	145.920000
555.444702	146.800000
555.538330	146.480000
555.631897	147.160000
555.725525	147.300000
555.819092	147.120000
555.912720	146.100000
556.006287	146.640000
556.099915	146.140000
556.193481	146.120000
556.287109	146.440000
556.380676	146.540000
556.474304	146.480000
556.567871	147.000000
556.661499	146.540000
556.755066	146.200000
556.848694	145.820000
556.942261	145.480000
557.035889	145.480000
557.129517	146.040000
557.223145	146.340000
557.316711	146.800000
557.410339	147.060000
557.503906	146.620000
557.597473	146.660000
557.691040	146.180000
557.784668	146.260000
557.878296	146.340000
557.971863	146.740000
558.065491	146.880000
558.159058	146.980000
558.252686	147.500000
558.346252	147.820000
558.439880	147.020000
558.533447	146.400000
558.627075	146.060000
558.720642	145.480000
558.814270	145.020000
558.907837	145.460000
559.001465	145.340000
559.095032	146.380000
559.188660	146.540000
559.282227	146.040000
559.375854	146.460000
559.469360	146.600000
559.562988	146.380000
559.656555	146.140000
559.750183	146.400000
559.843750	146.540000
559.937378	146.660000
560.030945	146.500000
560.124573	0.000000
560.218140	0.000000
560.311707	0.000000
560.405334	0.000000
560.498901	0.000000
560.592529	0.000000
560.686096	0.000000
560.779724	0.000000
560.873291	0.000000
560.966858	0.000000
561.060425	0.000000
561.154053	0.000000
561.247620	0.000000
561.341248	0.000000
561.434814	0.000000
561.528381	0.000000
561.621948	0.000000
561.715576	0.000000
561.809143	0.000000
561.902771	0.000000
561.996277	0.000000
562.089905	0.000000
562.183472	0.000000
562.277100	0.000000
