Model Number: SPM-002-B   
Serial Number: 70087108
Firmware Version: 004.15.4
Exposure Time: 100000.000000us
Data Taken on: 11-12-2020 19:39:10.543
Wavelength	Amplitude
221.570786	0.000000
221.663406	0.000000
221.756027	0.000000
221.848648	0.000000
221.941269	0.000000
222.033905	0.000000
222.126526	0.000000
222.219162	0.000000
222.311798	0.000000
222.404419	0.000000
222.497055	0.000000
222.589676	0.000000
222.682312	0.000000
222.774933	0.000000
222.867569	0.000000
222.960205	0.000000
223.052841	0.000000
223.145462	0.000000
223.238098	0.000000
223.330734	0.000000
223.423386	0.000000
223.516022	0.000000
223.608658	0.000000
223.701309	0.000000
223.793945	0.000000
223.886581	0.000000
223.979218	0.000000
224.071869	0.000000
224.164505	0.000000
224.257156	0.000000
224.349792	0.000000
224.442444	0.000000
224.535095	0.000000
224.627747	0.000000
224.720398	0.000000
224.813034	0.000000
224.905685	0.000000
224.998337	145.300000
225.090988	145.280000
225.183640	145.260000
225.276291	145.260000
225.368942	145.420000
225.461594	146.100000
225.554245	146.320000
225.646912	146.220000
225.739578	146.700000
225.832230	147.100000
225.924896	146.100000
226.017548	146.380000
226.110199	146.940000
226.202866	146.180000
226.295532	145.840000
226.388184	145.820000
226.480850	145.220000
226.573517	144.980000
226.666168	145.520000
226.758835	146.140000
226.851501	147.100000
226.944183	147.180000
227.036850	146.540000
227.129517	146.540000
227.222183	146.280000
227.314850	145.920000
227.407516	146.120000
227.500198	147.120000
227.592865	146.800000
227.685532	146.660000
227.778214	146.400000
227.870880	146.820000
227.963562	146.880000
228.056229	146.940000
228.148926	146.720000
228.241592	147.540000
228.334274	146.920000
228.426956	146.440000
228.519638	146.760000
228.612305	146.440000
228.704987	146.220000
228.797668	146.160000
228.890350	146.000000
228.983032	145.320000
229.075714	146.160000
229.168396	145.860000
229.261108	145.700000
229.353790	146.040000
229.446472	146.300000
229.539169	145.840000
229.631851	145.220000
229.724533	145.520000
229.817230	145.320000
229.909912	146.380000
230.002609	146.520000
230.095306	146.640000
230.187988	146.700000
230.280685	146.680000
230.373383	145.220000
230.466095	145.380000
230.558792	145.880000
230.651474	145.680000
230.744171	145.720000
230.836868	146.100000
230.929581	145.940000
231.022278	146.060000
231.114975	146.080000
231.207672	145.780000
231.300369	146.240000
231.393082	146.440000
231.485779	146.120000
231.578506	146.280000
231.671204	146.520000
231.763916	146.320000
231.856613	146.140000
231.949326	146.380000
232.042023	146.220000
232.134735	146.180000
232.227448	146.000000
232.320160	146.400000
232.412872	146.400000
232.505585	147.100000
232.598297	147.540000
232.691010	147.460000
232.783722	146.840000
232.876450	146.980000
232.969162	146.520000
233.061874	145.760000
233.154587	145.600000
233.247314	146.200000
233.340027	145.660000
233.432739	145.900000
233.525467	145.940000
233.618179	146.200000
233.710907	145.640000
233.803635	146.260000
233.896347	145.800000
233.989090	146.760000
234.081818	146.700000
234.174545	147.000000
234.267258	146.520000
234.359985	146.720000
234.452713	146.220000
234.545441	146.000000
234.638168	145.780000
234.730896	146.320000
234.823639	146.280000
234.916367	146.580000
235.009094	146.880000
235.101822	146.980000
235.194580	146.400000
235.287308	146.520000
235.380051	145.960000
235.472778	146.140000
235.565521	146.380000
235.658249	146.140000
235.750992	146.020000
235.843719	146.220000
235.936462	146.100000
236.029205	145.560000
236.121948	145.560000
236.214691	146.000000
236.307449	146.520000
236.400192	146.260000
236.492935	146.320000
236.585678	146.780000
236.678421	146.700000
236.771164	146.320000
236.863907	146.720000
236.956665	146.860000
237.049408	148.300000
237.142151	147.740000
237.234909	148.340000
237.327652	148.080000
237.420410	147.720000
237.513153	146.600000
237.605927	146.600000
237.698669	146.000000
237.791428	145.560000
237.884186	146.160000
237.976944	145.720000
238.069702	146.020000
238.162445	145.660000
238.255203	146.180000
238.347961	146.300000
238.440720	146.240000
238.533478	146.280000
238.626266	146.020000
238.719025	146.240000
238.811783	146.220000
238.904541	146.180000
238.997314	145.880000
239.090073	145.860000
239.182831	145.640000
239.275604	146.080000
239.368362	145.940000
239.461136	146.160000
239.553909	146.440000
239.646667	146.520000
239.739441	146.080000
239.832214	146.280000
239.925003	146.380000
240.017761	147.120000
240.110535	147.560000
240.203308	146.960000
240.296082	147.180000
240.388855	147.020000
240.481628	146.700000
240.574417	146.520000
240.667191	147.020000
240.759964	146.620000
240.852737	146.440000
240.945526	146.000000
241.038315	145.620000
241.131088	145.620000
241.223877	145.900000
241.316650	145.560000
241.409439	145.820000
241.502228	145.540000
241.595001	146.020000
241.687790	146.120000
241.780579	146.480000
241.873367	146.680000
241.966141	147.100000
242.058929	146.380000
242.151718	146.200000
242.244507	146.600000
242.337311	146.060000
242.430099	146.460000
242.522903	146.620000
242.615692	146.420000
242.708481	146.420000
242.801270	147.020000
242.894073	146.580000
242.986862	146.660000
243.079651	147.380000
243.172455	146.960000
243.265244	146.860000
243.358063	146.240000
243.450867	146.540000
243.543655	146.220000
243.636459	146.280000
243.729263	146.520000
243.822067	146.940000
243.914856	147.060000
244.007660	147.100000
244.100464	147.180000
244.193268	146.500000
244.286072	146.560000
244.378876	146.040000
244.471680	145.780000
244.564499	146.020000
244.657318	146.900000
244.750122	147.040000
244.842926	146.580000
244.935745	146.840000
245.028549	146.340000
245.121368	145.880000
245.214172	146.000000
245.306992	146.680000
245.399796	146.420000
245.492615	146.460000
245.585434	146.120000
245.678253	145.780000
245.771072	145.620000
245.863892	145.740000
245.956711	146.160000
246.049530	146.040000
246.142349	145.780000
246.235168	145.780000
246.327988	146.280000
246.420807	146.180000
246.513626	146.480000
246.606445	146.520000
246.699280	146.320000
246.792099	145.900000
246.884918	145.520000
246.977753	145.120000
247.070587	145.580000
247.163422	145.560000
247.256241	145.560000
247.349075	146.080000
247.441895	146.380000
247.534729	146.220000
247.627563	146.060000
247.720383	146.560000
247.813217	146.220000
247.906052	146.180000
247.998886	146.140000
248.091736	146.360000
248.184570	145.900000
248.277405	145.980000
248.370239	146.980000
248.463074	147.620000
248.555908	148.000000
248.648743	147.700000
248.741592	147.960000
248.834427	147.180000
248.927261	146.200000
249.020111	146.180000
249.112946	146.760000
249.205795	146.300000
249.298630	146.260000
249.391495	146.660000
249.484344	146.400000
249.577179	146.220000
249.670029	146.320000
249.762878	146.720000
249.855728	146.760000
249.948563	146.460000
250.041412	146.120000
250.134262	146.560000
250.227112	146.420000
250.319962	146.480000
250.412827	146.580000
250.505692	146.540000
250.598541	146.340000
250.691391	146.120000
250.784241	146.000000
250.877106	146.320000
250.969955	146.000000
251.062805	146.580000
251.155670	146.920000
251.248520	146.720000
251.341385	146.880000
251.434235	147.060000
251.527100	146.740000
251.619965	146.300000
251.712814	146.780000
251.805695	146.580000
251.898560	146.780000
251.991425	146.820000
252.084290	147.120000
252.177155	146.560000
252.270020	146.300000
252.362885	146.120000
252.455750	146.060000
252.548615	145.480000
252.641479	145.660000
252.734360	145.880000
252.827240	145.860000
252.920105	145.640000
253.012970	145.820000
253.105850	145.500000
253.198715	144.940000
253.291595	145.220000
253.384460	144.680000
253.477341	144.480000
253.570221	144.860000
253.663086	145.100000
253.755966	145.340000
253.848846	145.680000
253.941727	146.220000
254.034592	146.400000
254.127472	146.100000
254.220367	146.100000
254.313248	146.500000
254.406128	145.940000
254.499008	146.080000
254.591904	146.860000
254.684784	147.180000
254.777664	147.140000
254.870544	147.140000
254.963440	146.900000
255.056335	146.740000
255.149216	146.580000
255.242111	146.700000
255.334991	147.300000
255.427887	147.660000
255.520767	147.720000
255.613663	147.440000
255.706558	146.720000
255.799438	146.280000
255.892334	145.860000
255.985229	145.780000
256.078125	146.080000
256.171021	146.300000
256.263916	146.780000
256.356812	147.000000
256.449707	147.020000
256.542603	146.480000
256.635498	147.300000
256.728394	147.040000
256.821289	146.940000
256.914215	147.360000
257.007080	147.860000
257.100006	147.740000
257.192932	148.080000
257.285828	148.280000
257.378723	147.960000
257.471619	147.620000
257.564545	146.800000
257.657440	146.820000
257.750336	146.920000
257.843262	146.480000
257.936157	147.580000
258.029053	148.200000
258.121979	147.780000
258.214874	147.520000
258.307800	147.460000
258.400696	146.340000
258.493622	146.160000
258.586517	146.100000
258.679443	146.420000
258.772339	146.300000
258.865265	146.300000
258.958160	145.900000
259.051086	146.620000
259.144012	146.020000
259.236938	147.040000
259.329834	147.140000
259.422791	147.220000
259.515717	146.020000
259.608612	146.220000
259.701538	145.960000
259.794464	145.760000
259.887390	145.620000
259.980316	146.120000
260.073212	145.580000
260.166138	144.740000
260.259064	145.280000
260.351990	146.060000
260.444916	145.780000
260.537842	146.720000
260.630768	147.500000
260.723694	147.240000
260.816620	146.820000
260.909546	146.900000
261.002472	146.280000
261.095398	145.680000
261.188354	145.580000
261.281281	145.400000
261.374207	145.520000
261.467133	146.240000
261.560089	146.680000
261.653015	146.620000
261.745972	147.220000
261.838867	147.840000
261.931824	147.640000
262.024780	147.200000
262.117706	147.460000
262.210663	147.460000
262.303589	146.960000
262.396515	147.200000
262.489471	148.080000
262.582397	147.980000
262.675354	147.120000
262.768280	147.300000
262.861237	147.180000
262.954163	146.860000
263.047119	147.100000
263.140045	147.300000
263.233002	147.100000
263.325958	147.000000
263.418884	146.500000
263.511841	146.320000
263.604797	146.460000
263.697723	146.340000
263.790680	146.420000
263.883636	147.180000
263.976593	147.000000
264.069550	147.240000
264.162476	147.300000
264.255463	147.120000
264.348419	146.820000
264.441376	146.980000
264.534332	146.320000
264.627289	146.460000
264.720245	146.600000
264.813202	145.840000
264.906158	146.120000
264.999115	146.820000
265.092072	146.680000
265.185028	147.120000
265.277985	147.660000
265.370941	147.180000
265.463898	146.940000
265.556854	146.640000
265.649811	145.540000
265.742798	145.500000
265.835754	145.720000
265.928711	145.740000
266.021667	146.040000
266.114655	146.740000
266.207611	146.800000
266.300568	146.160000
266.393585	146.040000
266.486511	146.200000
266.579498	145.240000
266.672485	145.400000
266.765442	145.460000
266.858429	146.060000
266.951385	145.720000
267.044342	146.320000
267.137329	146.260000
267.230316	146.680000
267.323273	145.840000
267.416260	146.460000
267.509216	146.480000
267.602203	146.100000
267.695160	146.280000
267.788147	146.600000
267.881134	145.860000
267.974091	145.880000
268.067078	146.140000
268.160065	145.820000
268.253052	145.400000
268.346008	145.560000
268.438995	145.380000
268.531982	145.300000
268.624969	145.220000
268.717987	145.940000
268.810944	146.060000
268.903961	146.060000
268.996948	145.800000
269.089905	146.540000
269.182892	146.380000
269.275879	146.720000
269.368866	146.460000
269.461853	146.840000
269.554871	146.180000
269.647858	146.040000
269.740845	146.320000
269.833832	146.860000
269.926819	146.700000
270.019806	147.080000
270.112793	146.940000
270.205811	146.880000
270.298798	146.660000
270.391785	147.280000
270.484772	146.720000
270.577789	146.800000
270.670776	146.160000
270.763763	146.160000
270.856750	145.720000
270.949768	145.640000
271.042786	145.800000
271.135773	146.320000
271.228790	146.600000
271.321808	146.440000
271.414795	146.380000
271.507782	145.960000
271.600800	145.300000
271.693817	145.120000
271.786804	145.260000
271.879822	145.700000
271.972809	145.940000
272.065826	146.480000
272.158844	146.220000
272.251831	146.960000
272.344849	146.780000
272.437866	146.580000
272.530853	146.680000
272.623871	146.940000
272.716888	145.980000
272.809906	146.440000
272.902893	146.380000
272.995911	145.820000
273.088928	146.080000
273.181946	146.200000
273.274963	145.620000
273.367981	145.800000
273.460999	145.920000
273.554047	146.040000
273.647003	146.720000
273.740051	147.080000
273.833069	147.200000
273.926086	147.540000
274.019135	147.180000
274.112152	146.580000
274.205170	146.400000
274.298187	146.680000
274.391205	146.180000
274.484222	146.180000
274.577240	146.320000
274.670258	146.360000
274.763306	146.380000
274.856323	146.720000
274.949341	146.520000
275.042358	146.820000
275.135406	146.660000
275.228424	146.600000
275.321442	146.440000
275.414490	146.380000
275.507507	146.380000
275.600525	146.960000
275.693573	146.720000
275.786591	146.540000
275.879669	147.000000
275.972656	146.540000
276.065735	146.020000
276.158752	146.380000
276.251801	146.960000
276.344818	146.620000
276.437866	147.020000
276.530884	146.980000
276.623932	146.460000
276.716980	146.500000
276.809998	146.660000
276.903046	146.420000
276.996094	147.200000
277.089111	147.760000
277.182159	148.140000
277.275208	147.960000
277.368256	148.140000
277.461304	147.620000
277.554321	146.780000
277.647369	146.540000
277.740417	146.600000
277.833466	146.300000
277.926514	146.160000
278.019562	146.940000
278.112610	146.420000
278.205688	146.400000
278.298706	146.560000
278.391785	146.580000
278.484833	146.240000
278.577881	145.880000
278.670929	146.400000
278.763977	146.220000
278.857025	146.600000
278.950073	146.480000
279.043121	146.660000
279.136169	146.220000
279.229248	146.280000
279.322296	145.820000
279.415344	145.620000
279.508392	145.540000
279.601440	145.560000
279.694519	145.380000
279.787567	145.560000
279.880615	145.480000
279.973694	145.520000
280.066742	145.700000
280.159790	145.940000
280.252869	145.260000
280.345917	145.760000
280.438995	145.760000
280.532074	145.320000
280.625122	145.780000
280.718201	147.020000
280.811279	146.640000
280.904327	146.760000
280.997406	146.960000
281.090454	146.540000
281.183533	145.840000
281.276581	145.920000
281.369659	145.740000
281.462738	145.820000
281.555786	145.900000
281.648865	146.100000
281.741943	146.120000
281.835022	146.760000
281.928070	146.300000
282.021149	146.080000
282.114227	145.760000
282.207306	145.860000
282.300385	146.040000
282.393433	146.500000
282.486511	146.440000
282.579590	146.980000
282.672668	147.160000
282.765747	146.680000
282.858856	146.560000
282.951904	146.820000
283.045013	146.860000
283.138062	147.060000
283.231171	147.320000
283.324249	147.880000
283.417328	147.980000
283.510406	147.500000
283.603485	147.120000
283.696564	146.840000
283.789642	146.420000
283.882751	146.200000
283.975830	147.040000
284.068909	146.780000
284.161987	147.300000
284.255066	146.980000
284.348175	146.780000
284.441254	146.240000
284.534332	146.900000
284.627441	146.620000
284.720520	146.420000
284.813599	146.940000
284.906708	146.940000
284.999786	146.260000
285.092896	145.720000
285.185974	146.800000
285.279053	146.240000
285.372192	146.320000
285.465240	146.960000
285.558380	146.840000
285.651459	146.020000
285.744568	146.860000
285.837677	146.240000
285.930756	146.160000
286.023865	146.440000
286.116943	146.340000
286.210052	146.040000
286.303162	146.160000
286.396240	146.160000
286.489349	145.980000
286.582458	146.400000
286.675568	146.160000
286.768646	146.280000
286.861755	146.300000
286.954865	147.100000
287.047974	146.420000
287.141083	146.060000
287.234161	146.000000
287.327271	145.540000
287.420380	145.660000
287.513519	145.740000
287.606598	145.980000
287.699738	146.180000
287.792816	146.260000
287.885956	145.880000
287.979034	145.780000
288.072174	146.060000
288.165283	145.820000
288.258392	146.000000
288.351501	145.500000
288.444611	145.800000
288.537720	145.860000
288.630859	145.940000
288.723969	146.200000
288.817078	146.600000
288.910187	146.720000
289.003296	146.460000
289.096436	146.100000
289.189545	145.740000
289.282654	145.380000
289.375763	145.620000
289.468903	145.960000
289.562012	146.460000
289.655121	146.560000
289.748260	146.840000
289.841400	147.460000
289.934509	147.160000
290.027649	147.220000
290.120728	147.340000
290.213898	147.360000
290.306976	146.560000
290.400146	146.700000
290.493256	146.580000
290.586395	146.720000
290.679535	146.960000
290.772644	146.920000
290.865784	146.140000
290.958893	146.020000
291.052032	145.360000
291.145172	145.200000
291.238281	144.740000
291.331421	145.020000
291.424561	145.400000
291.517670	145.360000
291.610809	145.380000
291.703949	145.460000
291.797089	145.580000
291.890228	145.260000
291.983337	145.380000
292.076477	145.340000
292.169617	145.840000
292.262756	146.020000
292.355927	145.780000
292.449036	145.720000
292.542206	145.540000
292.635315	145.720000
292.728485	145.960000
292.821625	146.000000
292.914764	147.180000
293.007904	147.240000
293.101044	147.080000
293.194183	146.980000
293.287323	147.480000
293.380463	146.800000
293.473602	146.800000
293.566742	147.000000
293.659882	147.500000
293.753021	147.520000
293.846191	147.320000
293.939331	146.980000
294.032471	146.800000
294.125610	146.080000
294.218781	146.220000
294.311920	146.660000
294.405060	146.980000
294.498230	147.060000
294.591370	147.260000
294.684540	146.260000
294.777679	145.660000
294.870850	145.920000
294.963959	145.620000
295.057159	145.360000
295.150299	146.120000
295.243469	146.320000
295.336609	145.460000
295.429779	145.460000
295.522919	145.860000
295.616089	145.640000
295.709229	145.940000
295.802399	146.120000
295.895569	145.860000
295.988708	145.760000
296.081879	146.000000
296.175018	145.660000
296.268188	145.880000
296.361359	146.580000
296.454529	146.640000
296.547668	146.760000
296.640839	146.880000
296.734009	146.980000
296.827179	147.100000
296.920319	147.340000
297.013519	147.160000
297.106659	147.140000
297.199860	147.120000
297.292999	146.760000
297.386200	146.480000
297.479309	146.140000
297.572510	146.200000
297.665680	145.880000
297.758850	145.880000
297.852020	145.660000
297.945190	145.880000
298.038361	145.280000
298.131531	146.260000
298.224701	146.020000
298.317871	145.720000
298.411072	145.220000
298.504242	145.440000
298.597412	145.060000
298.690582	145.460000
298.783752	145.720000
298.876923	146.220000
298.970093	146.460000
299.063293	146.560000
299.156464	146.960000
299.249634	147.340000
299.342834	147.660000
299.436005	147.920000
299.529205	147.520000
299.622345	147.220000
299.715576	146.520000
299.808716	146.200000
299.901917	146.220000
299.995117	146.840000
300.088287	146.700000
300.181488	146.860000
300.274658	146.440000
300.367828	145.960000
300.461029	145.560000
300.554199	145.760000
300.647400	146.000000
300.740601	146.680000
300.833771	146.900000
300.926971	147.120000
301.020142	146.680000
301.113342	146.480000
301.206512	146.340000
301.299713	146.480000
301.392914	146.380000
301.486084	146.640000
301.579285	146.700000
301.672516	147.040000
301.765686	146.860000
301.858887	146.900000
301.952057	146.660000
302.045288	146.500000
302.138458	146.240000
302.231659	146.200000
302.324860	145.840000
302.418060	145.680000
302.511261	145.800000
302.604462	145.880000
302.697662	145.740000
302.790863	145.620000
302.884064	145.440000
302.977264	145.540000
303.070465	145.740000
303.163666	146.480000
303.256866	146.840000
303.350067	147.320000
303.443268	147.460000
303.536469	147.340000
303.629669	146.560000
303.722870	146.720000
303.816071	146.440000
303.909271	146.120000
304.002472	145.520000
304.095673	145.520000
304.188934	144.880000
304.282104	145.900000
304.375336	146.180000
304.468506	146.060000
304.561768	145.940000
304.654968	146.720000
304.748169	145.920000
304.841370	145.660000
304.934601	146.240000
305.027802	146.100000
305.121002	145.460000
305.214233	145.660000
305.307434	145.740000
305.400665	146.060000
305.493866	146.320000
305.587097	146.860000
305.680298	146.460000
305.773499	146.820000
305.866730	146.340000
305.959930	146.700000
306.053162	146.560000
306.146393	146.340000
306.239594	145.540000
306.332825	145.720000
306.426025	145.740000
306.519287	145.380000
306.612488	145.940000
306.705719	146.100000
306.798920	146.180000
306.892181	145.960000
306.985352	145.620000
307.078613	144.900000
307.171844	145.400000
307.265045	145.040000
307.358276	144.760000
307.451508	145.480000
307.544739	146.080000
307.637970	145.340000
307.731201	145.180000
307.824402	145.780000
307.917633	145.720000
308.010864	145.960000
308.104095	146.800000
308.197327	147.000000
308.290558	146.880000
308.383789	146.480000
308.477020	146.220000
308.570251	145.420000
308.663483	145.100000
308.756714	144.880000
308.849976	145.260000
308.943176	145.800000
309.036438	146.020000
309.129639	146.100000
309.222900	146.040000
309.316101	146.060000
309.409393	145.220000
309.502625	145.160000
309.595856	145.380000
309.689087	145.860000
309.782318	145.760000
309.875580	145.940000
309.968811	146.340000
310.062042	146.240000
310.155273	146.080000
310.248535	146.240000
310.341766	146.100000
310.434998	145.660000
310.528259	145.500000
310.621490	145.500000
310.714722	145.200000
310.807983	145.680000
310.901215	145.960000
310.994476	146.220000
311.087708	145.780000
311.181000	146.080000
311.274200	145.480000
311.367462	145.400000
311.460693	144.980000
311.553986	145.760000
311.647186	145.920000
311.740479	146.540000
311.833710	146.200000
311.926971	146.700000
312.020203	145.720000
312.113464	145.460000
312.206726	145.140000
312.299957	145.500000
312.393219	145.460000
312.486481	145.920000
312.579712	145.860000
312.672974	145.960000
312.766235	145.960000
312.859497	146.120000
312.952759	146.240000
313.045990	147.020000
313.139252	146.560000
313.232513	146.880000
313.325775	146.780000
313.419037	146.400000
313.512299	145.480000
313.605530	146.460000
313.698822	146.340000
313.792053	146.380000
313.885345	146.160000
313.978577	146.540000
314.071869	145.540000
314.165131	145.800000
314.258392	146.080000
314.351654	146.300000
314.444916	145.720000
314.538177	146.400000
314.631439	146.300000
314.724701	146.100000
314.817993	146.220000
314.911255	146.560000
315.004517	145.900000
315.097778	145.520000
315.191040	145.700000
315.284302	146.140000
315.377594	145.720000
315.470856	146.040000
315.564117	146.020000
315.657379	145.500000
315.750671	145.040000
315.843933	145.860000
315.937195	145.480000
316.030518	145.400000
316.123749	145.540000
316.217041	146.060000
316.310303	145.700000
316.403595	146.160000
316.496857	146.480000
316.590149	146.720000
316.683411	146.240000
316.776703	146.040000
316.869965	145.820000
316.963257	145.640000
317.056519	144.880000
317.149811	144.840000
317.243073	144.960000
317.336365	144.960000
317.429626	145.180000
317.522919	146.160000
317.616180	146.060000
317.709473	145.840000
317.802765	146.080000
317.896027	146.100000
317.989319	146.080000
318.082611	146.080000
318.175873	145.980000
318.269165	145.980000
318.362488	145.880000
318.455750	145.400000
318.549042	145.740000
318.642303	146.540000
318.735626	146.020000
318.828888	146.420000
318.922211	146.020000
319.015472	146.480000
319.108765	145.780000
319.202057	145.780000
319.295349	145.340000
319.388641	145.620000
319.481934	145.140000
319.575226	144.840000
319.668518	145.260000
319.761810	145.680000
319.855103	145.800000
319.948395	146.040000
320.041687	146.460000
320.134979	146.280000
320.228271	145.840000
320.321564	145.640000
320.414856	145.620000
320.508148	145.240000
320.601440	145.160000
320.694763	145.000000
320.788025	145.800000
320.881348	145.860000
320.974640	146.140000
321.067963	145.820000
321.161224	146.080000
321.254547	145.060000
321.347839	145.340000
321.441162	144.900000
321.534454	145.300000
321.627747	145.040000
321.721069	145.960000
321.814362	145.680000
321.907654	146.100000
322.000946	146.260000
322.094269	146.900000
322.187561	146.300000
322.280884	146.540000
322.374176	146.620000
322.467468	147.060000
322.560791	146.820000
322.654083	147.240000
322.747406	147.240000
322.840698	147.660000
322.934021	147.720000
323.027344	147.920000
323.120636	147.560000
323.213959	147.160000
323.307251	146.520000
323.400574	146.020000
323.493866	145.280000
323.587219	145.560000
323.680511	145.820000
323.773834	146.080000
323.867157	146.060000
323.960449	146.660000
324.053772	146.540000
324.147095	146.160000
324.240387	146.540000
324.333710	146.460000
324.427032	146.380000
324.520355	146.020000
324.613647	145.780000
324.706970	145.340000
324.800293	145.620000
324.893616	145.860000
324.986938	146.140000
325.080231	146.360000
325.173553	146.760000
325.266876	147.020000
325.360199	147.020000
325.453522	146.660000
325.546875	146.360000
325.640167	146.180000
325.733521	146.160000
325.826813	146.300000
325.920166	146.480000
326.013489	146.460000
326.106812	145.940000
326.200134	145.300000
326.293457	144.420000
326.386780	144.620000
326.480103	145.060000
326.573425	144.940000
326.666748	145.120000
326.760071	145.660000
326.853424	145.440000
326.946747	145.120000
327.040070	146.260000
327.133392	145.960000
327.226715	145.240000
327.320068	145.200000
327.413391	145.880000
327.506714	145.060000
327.600037	145.240000
327.693390	145.820000
327.786713	145.840000
327.880066	145.480000
327.973358	145.760000
328.066742	146.140000
328.160034	146.260000
328.253418	146.620000
328.346710	146.300000
328.440063	145.820000
328.533417	145.880000
328.626740	145.880000
328.720093	145.520000
328.813416	145.400000
328.906769	145.460000
329.000092	145.160000
329.093445	144.920000
329.186768	144.920000
329.280121	145.560000
329.373444	146.120000
329.466797	146.160000
329.560120	146.420000
329.653473	146.600000
329.746796	146.080000
329.840149	145.720000
329.933502	145.700000
330.026825	145.180000
330.120178	145.300000
330.213562	145.500000
330.306854	145.580000
330.400238	145.920000
330.493561	145.940000
330.586945	146.360000
330.680237	146.560000
330.773621	146.640000
330.866974	146.540000
330.960327	147.100000
331.053680	146.460000
331.147003	146.400000
331.240356	146.620000
331.333710	146.720000
331.427063	146.300000
331.520416	146.180000
331.613770	145.980000
331.707123	146.020000
331.800476	145.780000
331.893829	146.640000
331.987152	147.300000
332.080505	147.320000
332.173859	146.920000
332.267212	146.820000
332.360565	146.160000
332.453918	145.720000
332.547333	145.680000
332.640656	145.860000
332.734039	145.860000
332.827362	145.780000
332.920746	145.960000
333.014069	146.340000
333.107452	146.560000
333.200806	146.900000
333.294159	147.000000
333.387543	146.560000
333.480896	146.120000
333.574249	145.840000
333.667603	145.340000
333.760956	145.700000
333.854340	146.100000
333.947693	146.100000
334.041046	146.300000
334.134430	146.420000
334.227783	145.980000
334.321136	145.840000
334.414520	145.760000
334.507874	145.860000
334.601227	145.840000
334.694611	145.600000
334.787964	145.580000
334.881348	145.900000
334.974701	145.460000
335.068085	145.420000
335.161438	146.100000
335.254822	146.000000
335.348175	145.820000
335.441559	145.760000
335.534943	146.560000
335.628296	146.200000
335.721680	146.200000
335.815033	146.400000
335.908417	146.940000
336.001770	146.740000
336.095154	146.640000
336.188538	146.540000
336.281891	146.300000
336.375275	145.620000
336.468658	145.200000
336.562012	145.360000
336.655396	145.840000
336.748779	146.220000
336.842133	146.620000
336.935516	146.800000
337.028900	146.320000
337.122284	146.040000
337.215637	146.260000
337.309021	146.140000
337.402435	145.800000
337.495789	145.980000
337.589203	145.860000
337.682526	145.200000
337.775940	145.420000
337.869324	145.720000
337.962708	145.480000
338.056091	146.060000
338.149475	145.940000
338.242859	146.060000
338.336243	145.700000
338.429626	146.180000
338.523010	145.540000
338.616394	145.600000
338.709778	145.460000
338.803162	145.920000
338.896545	145.740000
338.989929	145.600000
339.083313	145.660000
339.176697	145.260000
339.270081	145.020000
339.363464	145.500000
339.456848	146.020000
339.550232	145.600000
339.643616	145.440000
339.737030	145.400000
339.830383	145.020000
339.923828	145.120000
340.017181	145.080000
340.110596	145.700000
340.203949	145.700000
340.297363	145.440000
340.390778	145.320000
340.484161	145.960000
340.577545	145.620000
340.670959	145.600000
340.764343	145.700000
340.857727	145.600000
340.951111	144.840000
341.044525	145.240000
341.137909	144.620000
341.231293	144.700000
341.324707	144.420000
341.418091	145.440000
341.511505	145.040000
341.604889	145.900000
341.698303	146.100000
341.791687	146.320000
341.885071	145.840000
341.978485	145.780000
342.071899	145.740000
342.165283	146.040000
342.258698	146.240000
342.352081	146.820000
342.445496	147.420000
342.538879	147.220000
342.632324	146.680000
342.725708	146.700000
342.819122	146.220000
342.912506	145.820000
343.005920	145.980000
343.099335	146.660000
343.192719	146.640000
343.286133	146.580000
343.379547	146.900000
343.472931	146.900000
343.566345	146.020000
343.659760	146.160000
343.753143	146.120000
343.846558	145.700000
343.939972	145.680000
344.033386	146.680000
344.126770	146.560000
344.220184	146.700000
344.313599	147.180000
344.407043	147.340000
344.500427	146.440000
344.593872	146.640000
344.687225	146.640000
344.780670	145.940000
344.874054	145.260000
344.967499	145.940000
345.060913	145.680000
345.154327	145.260000
345.247742	145.660000
345.341156	146.020000
345.434570	145.620000
345.527985	145.620000
345.621399	146.060000
345.714813	145.740000
345.808228	145.980000
345.901642	145.460000
345.995056	145.160000
346.088470	145.120000
346.181885	145.280000
346.275299	144.840000
346.368713	145.320000
346.462128	145.000000
346.555573	144.880000
346.648987	145.120000
346.742401	145.080000
346.835815	145.560000
346.929260	145.420000
347.022644	145.360000
347.116119	145.320000
347.209503	145.840000
347.302948	146.340000
347.396362	147.180000
347.489807	147.420000
347.583221	148.020000
347.676636	147.600000
347.770050	146.180000
347.863495	145.540000
347.956909	145.540000
348.050323	144.760000
348.143768	144.960000
348.237183	145.040000
348.330597	145.820000
348.424042	146.180000
348.517456	146.560000
348.610901	146.760000
348.704315	146.980000
348.797760	146.440000
348.891174	145.700000
348.984619	144.880000
349.078033	144.980000
349.171448	145.680000
349.264923	145.780000
349.358337	145.660000
349.451782	146.260000
349.545197	145.600000
349.638641	144.780000
349.732086	144.480000
349.825500	145.340000
349.918945	144.800000
350.012390	145.560000
350.105804	145.940000
350.199249	146.100000
350.292664	146.220000
350.386108	146.440000
350.479553	146.700000
350.572968	146.440000
350.666412	146.680000
350.759857	146.200000
350.853302	146.820000
350.946716	145.940000
351.040161	146.200000
351.133606	146.060000
351.227081	145.700000
351.320465	146.200000
351.413940	146.560000
351.507355	146.600000
351.600830	147.000000
351.694244	147.020000
351.787720	146.360000
351.881104	146.400000
351.974579	146.280000
352.067993	146.640000
352.161469	146.820000
352.254883	146.420000
352.348358	146.160000
352.441803	146.040000
352.535248	145.380000
352.628693	145.940000
352.722137	146.100000
352.815582	146.200000
352.909027	146.420000
353.002472	146.640000
353.095917	146.140000
353.189362	146.160000
353.282806	146.260000
353.376251	146.080000
353.469696	145.360000
353.563141	145.700000
353.656586	145.560000
353.750061	145.100000
353.843475	145.220000
353.936981	145.980000
354.030396	145.440000
354.123871	145.700000
354.217285	146.660000
354.310760	146.760000
354.404175	146.600000
354.497681	146.460000
354.591095	146.220000
354.684570	145.220000
354.777985	144.980000
354.871490	144.480000
354.964935	145.180000
355.058380	145.480000
355.151855	145.300000
355.245300	145.620000
355.338745	146.400000
355.432220	146.060000
355.525665	145.400000
355.619110	146.260000
355.712585	146.040000
355.806030	145.640000
355.899475	145.400000
355.992950	146.060000
356.086426	146.120000
356.179871	146.240000
356.273346	146.400000
356.366791	146.720000
356.460266	146.840000
356.553711	146.000000
356.647186	145.860000
356.740631	145.580000
356.834106	145.280000
356.927551	145.380000
357.021027	145.820000
357.114471	145.920000
357.207947	146.040000
357.301422	146.720000
357.394867	146.120000
357.488342	146.380000
357.581818	146.300000
357.675262	146.560000
357.768738	145.940000
357.862213	145.600000
357.955658	145.780000
358.049133	145.840000
358.142609	145.920000
358.236053	145.960000
358.329529	146.300000
358.423035	146.140000
358.516449	145.780000
358.609955	145.820000
358.703400	146.360000
358.796906	146.620000
358.890350	146.040000
358.983826	146.260000
359.077271	145.540000
359.170776	145.300000
359.264221	145.020000
359.357727	145.680000
359.451172	146.080000
359.544647	146.500000
359.638123	146.240000
359.731598	146.680000
359.825073	146.520000
359.918549	146.160000
360.012024	146.280000
360.105499	145.900000
360.198975	145.680000
360.292450	145.560000
360.385925	145.620000
360.479401	145.220000
360.572876	145.680000
360.666351	146.060000
360.759857	145.980000
360.853302	145.920000
360.946808	145.460000
361.040253	145.420000
361.133759	144.920000
361.227203	145.320000
361.320709	145.140000
361.414154	145.720000
361.507660	146.120000
361.601105	146.640000
361.694641	147.060000
361.788086	147.240000
361.881592	147.680000
361.975067	147.400000
362.068542	147.580000
362.162018	146.880000
362.255524	146.400000
362.348999	146.180000
362.442474	146.380000
362.535950	145.500000
362.629456	145.540000
362.722931	145.700000
362.816406	146.100000
362.909882	146.260000
363.003387	146.180000
363.096863	146.260000
363.190338	146.260000
363.283875	145.700000
363.377319	145.600000
363.470825	146.320000
363.564301	145.820000
363.657806	145.980000
363.751282	145.940000
363.844788	146.540000
363.938232	146.000000
364.031769	146.860000
364.125214	147.440000
364.218750	147.860000
364.312225	146.340000
364.405731	146.520000
364.499207	146.040000
364.592712	145.540000
364.686188	145.100000
364.779694	145.740000
364.873169	145.540000
364.966675	145.340000
365.060150	145.440000
365.153656	145.840000
365.247131	145.900000
365.340637	146.320000
365.434143	147.140000
365.527618	147.040000
365.621155	146.200000
365.714600	146.000000
365.808136	145.940000
365.901611	144.720000
365.995117	144.640000
366.088593	145.100000
366.182129	145.140000
366.275604	145.100000
366.369110	145.620000
366.462585	145.600000
366.556122	146.200000
366.649567	146.280000
366.743103	146.280000
366.836609	146.120000
366.930115	146.440000
367.023590	146.360000
367.117096	146.440000
367.210602	146.280000
367.304108	147.140000
367.397614	147.620000
367.491119	147.540000
367.584595	147.300000
367.678101	147.760000
367.771606	146.880000
367.865112	146.060000
367.958649	145.400000
368.052124	145.540000
368.145660	145.420000
368.239136	146.140000
368.332672	146.340000
368.426147	146.760000
368.519684	146.480000
368.613159	146.600000
368.706696	146.260000
368.800171	146.300000
368.893707	146.080000
368.987183	146.200000
369.080719	145.980000
369.174225	145.740000
369.267731	145.800000
369.361237	145.840000
369.454742	145.680000
369.548248	146.100000
369.641754	145.920000
369.735260	145.460000
369.828766	144.760000
369.922272	145.720000
370.015808	145.240000
370.109314	145.200000
370.202820	145.220000
370.296356	146.700000
370.389832	145.900000
370.483368	145.420000
370.576874	145.500000
370.670410	146.080000
370.763885	145.300000
370.857422	145.340000
370.950928	145.880000
371.044464	146.860000
371.137939	146.720000
371.231476	146.980000
371.324982	147.440000
371.418518	147.280000
371.512024	146.480000
371.605560	146.120000
371.699066	145.800000
371.792572	145.500000
371.886108	145.740000
371.979614	145.680000
372.073120	146.340000
372.166656	146.560000
372.260162	146.960000
372.353668	146.760000
372.447205	146.600000
372.540710	146.140000
372.634277	146.220000
372.727753	146.120000
372.821320	146.060000
372.914795	146.000000
373.008362	146.200000
373.101837	145.860000
373.195404	145.400000
373.288879	145.480000
373.382446	146.360000
373.475922	146.340000
373.569489	147.000000
373.662964	147.780000
373.756531	147.600000
373.850037	147.440000
373.943573	147.160000
374.037109	146.240000
374.130615	146.220000
374.224152	146.600000
374.317657	146.140000
374.411194	147.000000
374.504730	146.980000
374.598236	146.300000
374.691772	145.880000
374.785309	146.100000
374.878815	145.320000
374.972351	145.980000
375.065887	146.300000
375.159454	147.060000
375.252930	146.820000
375.346497	147.160000
375.440002	147.520000
375.533569	147.280000
375.627045	146.520000
375.720612	146.560000
375.814117	146.540000
375.907684	146.000000
376.001160	145.940000
376.094727	145.580000
376.188232	146.200000
376.281799	146.220000
376.375336	145.960000
376.468872	146.580000
376.562408	147.180000
376.655914	146.400000
376.749451	146.220000
376.842987	146.660000
376.936523	146.080000
377.030060	145.820000
377.123596	146.300000
377.217133	145.820000
377.310669	145.660000
377.404205	146.000000
377.497772	146.460000
377.591278	146.140000
377.684845	147.400000
377.778351	147.520000
377.871918	147.260000
377.965424	146.380000
378.058990	146.300000
378.152496	145.320000
378.246063	145.340000
378.339569	145.740000
378.433136	145.980000
378.526642	146.120000
378.620209	146.120000
378.713745	145.520000
378.807312	145.760000
378.900848	146.040000
378.994385	145.960000
379.087921	145.540000
379.181458	146.220000
379.274994	145.140000
379.368530	144.820000
379.462097	145.120000
379.555634	145.960000
379.649170	145.240000
379.742706	145.500000
379.836273	146.080000
379.929810	145.800000
380.023376	145.140000
380.116882	145.580000
380.210449	145.480000
380.303986	144.940000
380.397552	144.660000
380.491058	145.140000
380.584656	144.940000
380.678162	145.400000
380.771729	145.840000
380.865265	146.840000
380.958832	147.000000
381.052368	147.140000
381.145935	147.480000
381.239471	147.840000
381.333008	147.440000
381.426575	147.140000
381.520111	147.440000
381.613647	147.300000
381.707214	146.860000
381.800751	146.140000
381.894318	146.440000
381.987854	145.920000
382.081421	145.380000
382.174988	145.360000
382.268524	145.580000
382.362091	145.340000
382.455627	146.360000
382.549194	146.340000
382.642731	145.960000
382.736298	145.900000
382.829834	145.880000
382.923401	145.960000
383.016937	146.220000
383.110504	146.420000
383.204041	146.580000
383.297607	146.780000
383.391174	145.920000
383.484741	146.640000
383.578278	146.160000
383.671844	145.800000
383.765411	145.240000
383.858948	145.640000
383.952515	145.100000
384.046051	145.700000
384.139618	146.280000
384.233185	146.400000
384.326721	146.240000
384.420288	146.640000
384.513855	146.540000
384.607422	146.620000
384.700989	147.080000
384.794525	146.780000
384.888123	146.560000
384.981659	147.020000
385.075226	146.300000
385.168762	145.780000
385.262360	146.100000
385.355896	145.100000
385.449463	144.780000
385.542999	145.200000
385.636597	146.140000
385.730164	146.180000
385.823730	146.360000
385.917267	146.160000
386.010834	146.280000
386.104401	145.860000
386.197968	146.100000
386.291534	146.760000
386.385101	146.820000
386.478668	147.020000
386.572235	146.860000
386.665802	146.320000
386.759338	145.900000
386.852905	145.800000
386.946472	145.740000
387.040070	145.860000
387.133606	145.960000
387.227203	145.940000
387.320740	146.460000
387.414337	146.020000
387.507874	145.960000
387.601471	146.180000
387.695007	145.880000
387.788605	145.440000
387.882141	145.780000
387.975739	145.880000
388.069275	145.560000
388.162872	146.080000
388.256439	145.720000
388.350037	145.340000
388.443604	145.240000
388.537170	145.180000
388.630737	145.440000
388.724304	146.200000
388.817871	146.300000
388.911438	146.220000
389.005005	146.460000
389.098602	146.440000
389.192169	145.940000
389.285736	146.340000
389.379333	146.280000
389.472870	145.420000
389.566467	145.320000
389.660034	145.620000
389.753632	145.260000
389.847168	145.760000
389.940765	146.480000
390.034332	146.720000
390.127930	145.800000
390.221466	145.800000
390.315063	144.840000
390.408630	144.120000
390.502228	142.940000
390.595795	143.820000
390.689362	144.160000
390.782959	144.940000
390.876526	145.860000
390.970093	146.520000
391.063690	146.980000
391.157257	146.900000
391.250824	147.200000
391.344421	146.500000
391.437988	146.580000
391.531555	146.580000
391.625153	146.300000
391.718750	146.040000
391.812317	146.280000
391.905914	146.040000
391.999481	145.920000
392.093079	146.220000
392.186615	146.320000
392.280243	146.420000
392.373779	146.700000
392.467407	146.620000
392.560944	146.420000
392.654572	146.060000
392.748108	145.860000
392.841736	146.020000
392.935303	145.620000
393.028900	145.660000
393.122467	145.880000
393.216064	146.100000
393.309631	145.200000
393.403229	145.100000
393.496796	144.860000
393.590393	144.080000
393.683990	144.360000
393.777557	145.360000
393.871155	145.380000
393.964722	146.080000
394.058350	146.520000
394.151917	146.340000
394.245514	145.960000
394.339081	146.380000
394.432678	146.360000
394.526245	146.340000
394.619873	145.960000
394.713409	146.140000
394.807037	145.900000
394.900604	145.520000
394.994202	145.680000
395.087769	146.060000
395.181396	145.580000
395.274994	146.260000
395.368561	145.660000
395.462158	145.780000
395.555756	145.340000
395.649353	146.080000
395.742920	145.560000
395.836517	146.720000
395.930115	146.040000
396.023712	146.680000
396.117279	146.660000
396.210876	146.280000
396.304474	146.080000
396.398071	146.400000
396.491669	146.480000
396.585266	146.340000
396.678833	146.720000
396.772461	146.820000
396.866028	147.120000
396.959656	147.380000
397.053223	147.560000
397.146851	147.280000
397.240417	147.460000
397.334015	148.360000
397.427582	148.860000
397.521210	150.380000
397.614807	152.400000
397.708405	154.860000
397.802002	157.520000
397.895599	161.840000
397.989197	165.840000
398.082794	171.320000
398.176392	178.140000
398.269989	186.240000
398.363586	195.320000
398.457184	207.820000
398.550781	222.580000
398.644379	237.880000
398.737976	255.600000
398.831573	274.680000
398.925201	293.200000
399.018768	311.540000
399.112396	331.280000
399.205963	349.740000
399.299591	368.040000
399.393158	386.020000
399.486786	404.720000
399.580353	421.460000
399.673981	437.800000
399.767578	454.920000
399.861206	470.700000
399.954773	484.700000
400.048401	494.140000
400.141998	499.700000
400.235596	498.460000
400.329193	491.160000
400.422791	477.960000
400.516418	462.720000
400.610016	445.820000
400.703613	427.560000
400.797211	408.340000
400.890808	388.700000
400.984436	369.200000
401.078033	347.760000
401.171631	326.640000
401.265259	306.300000
401.358826	287.460000
401.452484	268.340000
401.546051	251.680000
401.639679	234.540000
401.733246	219.580000
401.826904	205.000000
401.920471	192.500000
402.014099	181.620000
402.107697	173.900000
402.201324	167.600000
402.294891	162.860000
402.388550	159.580000
402.482147	156.660000
402.575745	153.700000
402.669373	151.040000
402.762970	149.080000
402.856567	147.820000
402.950195	147.260000
403.043793	146.920000
403.137390	147.660000
403.231018	147.080000
403.324615	147.480000
403.418243	146.740000
403.511841	146.820000
403.605469	146.260000
403.699066	146.720000
403.792694	146.620000
403.886292	146.920000
403.979919	146.640000
404.073517	146.320000
404.167145	146.600000
404.260712	146.400000
404.354370	146.260000
404.447937	146.560000
404.541595	147.040000
404.635162	147.000000
404.728821	147.040000
404.822418	146.760000
404.916046	146.600000
405.009644	146.540000
405.103271	146.760000
405.196899	146.440000
405.290497	146.740000
405.384125	146.920000
405.477722	146.480000
405.571350	145.840000
405.664948	146.160000
405.758575	145.960000
405.852203	145.540000
405.945801	146.100000
406.039429	146.140000
406.133057	145.500000
406.226654	145.420000
406.320312	145.480000
406.413879	145.060000
406.507538	145.480000
406.601135	145.600000
406.694763	146.340000
406.788361	146.260000
406.882019	146.180000
406.975586	146.320000
407.069244	146.500000
407.162872	146.180000
407.256470	146.200000
407.350098	146.180000
407.443726	145.580000
407.537323	145.600000
407.630951	145.740000
407.724579	145.600000
407.818207	146.160000
407.911804	146.060000
408.005432	145.700000
408.099060	145.800000
408.192688	146.240000
408.286285	145.820000
408.379913	145.700000
408.473572	146.080000
408.567169	145.560000
408.660828	145.320000
408.754395	145.000000
408.848053	145.200000
408.941650	145.460000
409.035309	145.420000
409.128906	145.420000
409.222565	145.980000
409.316132	146.260000
409.409790	145.640000
409.503387	145.580000
409.597046	145.560000
409.690674	145.480000
409.784302	145.520000
409.877930	145.700000
409.971558	145.940000
410.065186	146.000000
410.158783	145.600000
410.252411	145.340000
410.346039	145.580000
410.439667	145.520000
410.533295	145.520000
410.626923	145.980000
410.720551	145.900000
410.814209	146.340000
410.907806	146.400000
411.001465	145.920000
411.095062	146.100000
411.188721	146.260000
411.282318	145.940000
411.375977	145.680000
411.469574	146.180000
411.563232	145.540000
411.656830	145.440000
411.750488	144.960000
411.844086	144.940000
411.937744	145.020000
412.031372	145.140000
412.125000	145.160000
412.218628	145.500000
412.312256	146.380000
412.405884	146.740000
412.499512	146.700000
412.593170	147.180000
412.686798	147.380000
412.780426	146.580000
412.874054	146.540000
412.967682	146.760000
413.061310	146.760000
413.154968	146.640000
413.248566	146.860000
413.342224	146.480000
413.435852	146.580000
413.529510	145.800000
413.623108	145.520000
413.716766	145.360000
413.810364	145.740000
413.904022	145.040000
413.997650	145.320000
414.091309	145.880000
414.184906	145.540000
414.278564	145.100000
414.372192	145.820000
414.465851	145.800000
414.559479	145.140000
414.653107	146.140000
414.746735	146.320000
414.840393	146.340000
414.934021	146.940000
415.027649	147.000000
415.121277	146.640000
415.214935	146.920000
415.308563	146.880000
415.402191	146.080000
415.495850	146.100000
415.589478	145.740000
415.683136	145.320000
415.776733	145.600000
415.870422	146.080000
415.964020	145.660000
416.057678	145.880000
416.151306	146.080000
416.244965	145.640000
416.338562	145.820000
416.432251	146.720000
416.525848	147.420000
416.619507	147.500000
416.713165	147.920000
416.806793	147.680000
416.900421	147.060000
416.994080	146.200000
417.087708	146.140000
417.181366	145.540000
417.274994	145.620000
417.368622	146.320000
417.462280	146.960000
417.555908	146.720000
417.649567	146.880000
417.743195	146.700000
417.836853	146.380000
417.930481	146.540000
418.024170	146.700000
418.117767	147.140000
418.211426	147.200000
418.305054	147.500000
418.398712	146.600000
418.492340	146.600000
418.585999	146.600000
418.679626	146.700000
418.773285	146.500000
418.866913	147.040000
418.960571	147.280000
419.054230	147.340000
419.147858	147.400000
419.241516	147.420000
419.335144	147.180000
419.428802	146.760000
419.522461	146.320000
419.616089	146.140000
419.709747	145.980000
419.803375	145.880000
419.897034	145.920000
419.990662	145.960000
420.084320	146.360000
420.177979	146.600000
420.271606	146.860000
420.365295	147.220000
420.458893	147.460000
420.552582	147.340000
420.646210	147.240000
420.739868	146.980000
420.833496	146.780000
420.927155	146.260000
421.020782	146.020000
421.114471	145.540000
421.208069	145.780000
421.301758	145.880000
421.395386	146.080000
421.489044	145.860000
421.582703	146.000000
421.676361	146.220000
421.769989	145.820000
421.863647	146.360000
421.957306	146.540000
422.050934	146.900000
422.144592	146.560000
422.238251	146.340000
422.331909	145.900000
422.425537	145.800000
422.519196	145.640000
422.612854	145.460000
422.706543	145.360000
422.800140	145.480000
422.893829	145.220000
422.987457	144.960000
423.081146	144.920000
423.174744	145.700000
423.268433	145.460000
423.362061	145.360000
423.455750	145.220000
423.549347	145.600000
423.643036	145.100000
423.736664	145.720000
423.830353	146.220000
423.924011	146.760000
424.017639	146.180000
424.111298	146.060000
424.204956	145.520000
424.298615	145.400000
424.392273	145.080000
424.485931	145.360000
424.579559	145.780000
424.673218	145.660000
424.766876	145.600000
424.860535	145.580000
424.954193	145.220000
425.047882	145.340000
425.141510	145.400000
425.235199	145.480000
425.328796	145.120000
425.422485	145.260000
425.516113	144.800000
425.609802	144.700000
425.703430	144.600000
425.797119	144.840000
425.890747	144.860000
425.984436	144.740000
426.078064	144.940000
426.171753	145.000000
426.265411	144.880000
426.359070	145.120000
426.452728	145.220000
426.546356	145.100000
426.640015	145.080000
426.733673	145.080000
426.827332	144.880000
426.920990	145.520000
427.014648	145.160000
427.108307	145.360000
427.201965	146.500000
427.295624	146.680000
427.389282	145.860000
427.482941	146.660000
427.576630	146.580000
427.670258	145.500000
427.763947	145.400000
427.857574	145.880000
427.951263	145.440000
428.044922	145.200000
428.138611	145.360000
428.232239	145.860000
428.325928	146.100000
428.419556	146.560000
428.513245	146.420000
428.606903	146.360000
428.700562	145.660000
428.794220	145.040000
428.887878	144.460000
428.981537	144.820000
429.075195	144.840000
429.168854	145.260000
429.262512	145.240000
429.356201	145.500000
429.449860	145.320000
429.543518	145.160000
429.637177	145.360000
429.730835	145.740000
429.824493	145.560000
429.918182	145.880000
430.011810	145.760000
430.105530	144.980000
430.199158	145.060000
430.292847	144.900000
430.386475	144.680000
430.480164	144.880000
430.573792	144.900000
430.667511	144.660000
430.761139	145.040000
430.854828	145.540000
430.948456	145.440000
431.042145	146.120000
431.135834	146.160000
431.229492	146.140000
431.323151	145.840000
431.416809	145.920000
431.510468	145.800000
431.604156	145.500000
431.697815	145.140000
431.791473	144.960000
431.885132	144.800000
431.978821	145.040000
432.072479	145.800000
432.166138	146.400000
432.259827	146.220000
432.353485	146.560000
432.447174	146.720000
432.540802	146.180000
432.634491	146.060000
432.728149	146.500000
432.821838	146.940000
432.915466	146.180000
433.009186	146.300000
433.102814	145.800000
433.196503	145.200000
433.290131	144.940000
433.383850	145.460000
433.477509	145.300000
433.571167	146.240000
433.664856	147.000000
433.758514	147.420000
433.852173	147.200000
433.945862	147.100000
434.039520	146.560000
434.133179	145.900000
434.226868	145.200000
434.320526	144.540000
434.414185	145.260000
434.507874	145.160000
434.601562	145.400000
434.695221	145.460000
434.788910	145.960000
434.882538	145.820000
434.976257	145.440000
435.069885	145.440000
435.163574	145.580000
435.257233	145.200000
435.350922	145.020000
435.444580	145.320000
435.538269	145.340000
435.631897	145.480000
435.725616	146.140000
435.819275	146.680000
435.912964	147.220000
436.006622	147.480000
436.100311	147.100000
436.193970	146.600000
436.287628	145.960000
436.381317	145.480000
436.474976	144.940000
436.568665	144.600000
436.662323	144.600000
436.756012	144.800000
436.849670	144.660000
436.943390	144.840000
437.037018	145.240000
437.130737	145.240000
437.224365	144.840000
437.318085	145.280000
437.411713	145.260000
437.505432	145.660000
437.599060	146.600000
437.692780	147.280000
437.786407	146.940000
437.880127	146.680000
437.973755	146.240000
438.067474	145.500000
438.161133	145.240000
438.254822	145.500000
438.348480	145.540000
438.442169	146.340000
438.535828	146.620000
438.629517	146.140000
438.723175	145.940000
438.816864	146.640000
438.910553	146.000000
439.004211	145.960000
439.097900	145.780000
439.191559	145.760000
439.285248	145.080000
439.378906	145.160000
439.472626	145.060000
439.566284	145.540000
439.659973	145.920000
439.753632	145.940000
439.847321	146.220000
439.940979	146.180000
440.034698	146.120000
440.128326	145.260000
440.222046	145.200000
440.315674	144.580000
440.409393	144.760000
440.503082	144.680000
440.596741	145.540000
440.690430	145.900000
440.784088	146.080000
440.877777	145.800000
440.971466	145.780000
441.065125	145.240000
441.158813	145.020000
441.252502	144.900000
441.346161	144.860000
441.439850	145.300000
441.533539	145.060000
441.627197	145.460000
441.720886	145.280000
441.814606	145.760000
441.908234	145.760000
442.001953	145.860000
442.095612	145.760000
442.189301	146.380000
442.282959	146.240000
442.376678	145.620000
442.470306	146.240000
442.564026	145.960000
442.657684	145.980000
442.751404	145.900000
442.845032	147.040000
442.938751	146.600000
443.032440	146.820000
443.126099	146.260000
443.219788	146.560000
443.313477	145.940000
443.407166	146.320000
443.500824	146.200000
443.594513	146.640000
443.688202	146.280000
443.781891	145.660000
443.875549	144.980000
443.969238	144.980000
444.062927	145.000000
444.156647	144.780000
444.250275	145.500000
444.343994	145.880000
444.437653	145.940000
444.531372	145.700000
444.625031	145.640000
444.718719	144.880000
444.812378	144.940000
444.906097	144.700000
444.999756	144.200000
445.093445	144.400000
445.187103	144.780000
445.280823	145.280000
445.374512	144.920000
445.468201	145.460000
445.561859	145.460000
445.655548	145.640000
445.749237	145.000000
445.842926	145.600000
445.936615	146.120000
446.030304	145.940000
446.123962	146.260000
446.217651	146.180000
446.311340	146.420000
446.405029	145.840000
446.498749	145.840000
446.592407	145.260000
446.686096	145.720000
446.779755	145.460000
446.873474	145.560000
446.967133	146.060000
447.060852	145.680000
447.154510	145.500000
447.248230	145.500000
447.341858	145.220000
447.435577	144.340000
447.529236	144.520000
447.622955	144.220000
447.716644	144.440000
447.810333	144.760000
447.904022	145.500000
447.997711	145.600000
448.091400	146.020000
448.185059	145.640000
448.278748	145.960000
448.372437	145.500000
448.466125	145.900000
448.559814	145.680000
448.653503	146.340000
448.747192	146.220000
448.840912	146.920000
448.934570	146.820000
449.028290	147.240000
449.121948	146.560000
449.215637	146.280000
449.309296	145.680000
449.403015	145.680000
449.496674	145.320000
449.590393	145.400000
449.684052	145.340000
449.777771	146.260000
449.871429	145.620000
449.965149	145.480000
450.058838	145.760000
450.152527	146.420000
450.246216	146.040000
450.339905	146.340000
450.433594	146.080000
450.527283	146.920000
450.620972	146.460000
450.714661	146.280000
450.808350	146.560000
450.902039	146.940000
450.995728	145.960000
451.089417	145.300000
451.183105	145.280000
451.276794	145.780000
451.370514	145.400000
451.464172	144.680000
451.557892	145.060000
451.651550	145.460000
451.745270	144.800000
451.838928	144.540000
451.932648	145.480000
452.026306	145.980000
452.120026	145.280000
452.213684	145.820000
452.307404	146.240000
452.401062	146.060000
452.494781	146.160000
452.588470	146.480000
452.682159	145.740000
452.775848	145.740000
452.869537	145.460000
452.963226	145.060000
453.056915	144.940000
453.150604	145.320000
453.244293	145.560000
453.337982	145.940000
453.431671	146.180000
453.525360	146.820000
453.619049	146.880000
453.712769	146.840000
453.806427	146.500000
453.900146	146.140000
453.993805	145.320000
454.087555	145.700000
454.181213	145.720000
454.274933	145.540000
454.368591	145.600000
454.462311	145.800000
454.555969	145.280000
454.649689	145.860000
454.743347	146.000000
454.837067	146.680000
454.930756	147.140000
455.024445	147.380000
455.118134	146.800000
455.211853	146.960000
455.305542	146.260000
455.399231	145.680000
455.492920	145.360000
455.586609	145.340000
455.680298	145.500000
455.773987	145.260000
455.867676	145.580000
455.961365	145.880000
456.055084	145.840000
456.148773	145.540000
456.242493	145.820000
456.336151	145.720000
456.429871	146.140000
456.523529	146.280000
456.617249	146.020000
456.710907	146.700000
456.804626	146.620000
456.898315	145.600000
456.992035	145.540000
457.085693	145.560000
457.179413	144.360000
457.273102	145.160000
457.366791	145.600000
457.460480	145.720000
457.554199	146.880000
457.647888	147.640000
457.741577	146.920000
457.835266	147.000000
457.928955	147.300000
458.022644	147.140000
458.116364	147.220000
458.210052	146.960000
458.303741	147.000000
458.397461	146.460000
458.491119	145.620000
458.584839	145.200000
458.678528	145.020000
458.772247	144.480000
458.865906	144.460000
458.959625	145.320000
459.053284	145.340000
459.147003	145.480000
459.240692	146.340000
459.334412	146.300000
459.428070	145.920000
459.521790	145.780000
459.615479	145.600000
459.709198	145.760000
459.802887	145.700000
459.896576	145.160000
459.990265	145.560000
460.083954	146.140000
460.177673	145.380000
460.271362	145.620000
460.365051	145.960000
460.458740	145.780000
460.552429	145.140000
460.646149	144.960000
460.739838	144.220000
460.833527	144.220000
460.927246	143.840000
461.020905	143.880000
461.114655	144.320000
461.208313	144.820000
461.302032	144.380000
461.395691	144.620000
461.489441	144.900000
461.583099	144.620000
461.676819	144.620000
461.770477	145.460000
461.864197	145.560000
461.957916	145.320000
462.051605	144.980000
462.145294	145.660000
462.238983	145.080000
462.332703	145.500000
462.426392	146.200000
462.520081	146.520000
462.613770	145.880000
462.707489	146.380000
462.801178	145.740000
462.894867	145.500000
462.988556	145.560000
463.082275	145.780000
463.175964	145.060000
463.269684	145.300000
463.363342	145.140000
463.457092	144.700000
463.550751	144.660000
463.644470	144.880000
463.738129	144.660000
463.831879	145.020000
463.925537	145.780000
464.019257	145.880000
464.112946	145.880000
464.206665	145.960000
464.300323	145.600000
464.394043	145.360000
464.487762	145.440000
464.581451	145.720000
464.675140	145.720000
464.768829	145.960000
464.862549	146.020000
464.956238	146.200000
465.049927	146.080000
465.143646	146.460000
465.237335	145.840000
465.331024	146.380000
465.424713	145.960000
465.518433	145.940000
465.612152	145.480000
465.705811	145.980000
465.799561	145.560000
465.893219	145.640000
465.986938	145.560000
466.080597	145.440000
466.174347	145.500000
466.268005	145.580000
466.361725	145.440000
466.455414	145.520000
466.549133	145.980000
466.642792	145.960000
466.736542	145.680000
466.830231	145.560000
466.923920	145.260000
467.017609	144.880000
467.111328	144.380000
467.205017	144.260000
467.298706	144.320000
467.392426	144.960000
467.486115	145.180000
467.579803	145.340000
467.673523	145.660000
467.767212	145.900000
467.860901	145.720000
467.954651	145.960000
468.048309	146.200000
468.142029	146.120000
468.235718	146.320000
468.329437	145.840000
468.423096	145.500000
468.516846	145.140000
468.610504	144.980000
468.704224	144.440000
468.797913	144.660000
468.891632	145.100000
468.985291	145.260000
469.079010	145.420000
469.172729	145.100000
469.266418	145.420000
469.360107	145.260000
469.453827	145.380000
469.547516	145.420000
469.641205	146.280000
469.734924	146.160000
469.828613	146.380000
469.922302	146.360000
470.016022	146.060000
470.109711	145.720000
470.203430	145.420000
470.297150	144.580000
470.390808	144.860000
470.484558	145.060000
470.578217	145.040000
470.671936	145.520000
470.765625	146.580000
470.859344	146.160000
470.953003	146.520000
471.046753	146.500000
471.140411	146.000000
471.234131	145.640000
471.327820	146.260000
471.421539	146.000000
471.515228	145.820000
471.608948	146.060000
471.702637	145.820000
471.796326	145.520000
471.890045	145.580000
471.983734	145.620000
472.077423	145.340000
472.171143	145.540000
472.264832	145.260000
472.358521	145.100000
472.452240	145.160000
472.545929	145.920000
472.639648	145.820000
472.733337	146.480000
472.827057	146.720000
472.920746	146.820000
473.014465	146.700000
473.108124	146.700000
473.201874	146.640000
473.295532	146.040000
473.389252	146.220000
473.482941	146.160000
473.576660	146.020000
473.670319	145.280000
473.764069	145.940000
473.857727	145.980000
473.951477	146.100000
474.045166	146.560000
474.138855	146.800000
474.232574	146.420000
474.326263	146.260000
474.419952	146.160000
474.513672	145.840000
474.607361	145.960000
474.701050	146.360000
474.794769	146.420000
474.888458	146.740000
474.982178	146.740000
475.075867	146.800000
475.169586	146.380000
475.263275	146.340000
475.356995	146.020000
475.450653	145.900000
475.544403	145.700000
475.638062	146.260000
475.731812	145.920000
475.825470	145.500000
475.919189	145.800000
476.012878	145.880000
476.106598	145.260000
476.200256	145.740000
476.294006	145.900000
476.387695	145.600000
476.481384	145.400000
476.575104	145.560000
476.668793	145.360000
476.762512	144.740000
476.856201	145.300000
476.949890	145.320000
477.043610	144.880000
477.137299	144.540000
477.230988	145.580000
477.324707	145.020000
477.418396	145.560000
477.512146	145.680000
477.605804	145.700000
477.699524	145.380000
477.793213	145.360000
477.886932	145.060000
477.980591	145.040000
478.074341	144.920000
478.167999	144.360000
478.261749	144.420000
478.355408	144.240000
478.449127	145.040000
478.542816	146.220000
478.636536	146.980000
478.730225	146.980000
478.823944	147.160000
478.917633	146.580000
479.011322	146.380000
479.105042	146.220000
479.198730	146.600000
479.292450	146.200000
479.386139	146.540000
479.479828	146.340000
479.573547	146.540000
479.667267	146.460000
479.760925	146.640000
479.854675	146.580000
479.948334	146.320000
480.042084	145.660000
480.135742	145.620000
480.229462	145.160000
480.323151	145.240000
480.416870	144.700000
480.510529	145.080000
480.604279	144.620000
480.697937	145.680000
480.791656	145.120000
480.885345	145.340000
480.979065	145.220000
481.072754	145.880000
481.166473	145.960000
481.260132	146.040000
481.353882	146.080000
481.447540	146.100000
481.541260	145.840000
481.635010	144.920000
481.728668	145.080000
481.822388	145.200000
481.916077	145.340000
482.009796	145.380000
482.103485	146.140000
482.197205	146.320000
482.290863	146.300000
482.384613	146.020000
482.478271	145.640000
482.571991	145.460000
482.665680	145.440000
482.759399	146.140000
482.853058	146.540000
482.946808	146.680000
483.040466	146.180000
483.134216	146.160000
483.227875	145.140000
483.321594	145.460000
483.415283	145.440000
483.509003	145.660000
483.602661	145.160000
483.696411	146.040000
483.790070	145.780000
483.883789	145.840000
483.977478	146.180000
484.071198	146.360000
484.164917	145.660000
484.258606	144.880000
484.352325	145.260000
484.445984	145.160000
484.539734	145.140000
484.633392	144.960000
484.727142	145.980000
484.820801	145.740000
484.914520	145.500000
485.008209	145.880000
485.101929	146.380000
485.195587	145.660000
485.289337	145.480000
485.382996	145.860000
485.476715	145.960000
485.570404	146.420000
485.664124	146.700000
485.757782	147.340000
485.851532	146.880000
485.945190	146.320000
486.038910	146.060000
486.132599	146.360000
486.226318	145.580000
486.319977	145.780000
486.413727	146.380000
486.507446	145.880000
486.601105	145.220000
486.694855	144.960000
486.788513	144.660000
486.882233	144.520000
486.975922	144.860000
487.069641	144.940000
487.163300	145.240000
487.257050	146.400000
487.350708	146.000000
487.444427	145.740000
487.538116	145.860000
487.631836	145.580000
487.725494	144.980000
487.819214	145.020000
487.912903	145.200000
488.006622	145.580000
488.100281	146.120000
488.194031	145.740000
488.287689	146.320000
488.381409	146.940000
488.475098	146.620000
488.568817	146.740000
488.662476	146.560000
488.756226	145.840000
488.849945	144.540000
488.943604	144.760000
489.037354	144.780000
489.131012	144.640000
489.224731	144.600000
489.318390	144.880000
489.412140	144.500000
489.505798	144.220000
489.599518	144.160000
489.693207	144.600000
489.786926	144.620000
489.880585	144.840000
489.974335	144.960000
490.067993	146.280000
490.161713	146.600000
490.255371	147.320000
490.349121	147.380000
490.442780	147.280000
490.536499	146.080000
490.630188	145.820000
490.723907	145.220000
490.817566	145.240000
490.911285	145.240000
491.004974	145.440000
491.098694	145.020000
491.192413	145.680000
491.286102	145.420000
491.379822	145.660000
491.473480	146.100000
491.567200	146.420000
491.660889	145.920000
491.754608	146.000000
491.848267	145.780000
491.941986	145.480000
492.035675	145.360000
492.129395	145.480000
492.223053	145.540000
492.316772	145.780000
492.410461	145.680000
492.504181	145.620000
492.597839	145.440000
492.691559	145.600000
492.785248	145.640000
492.878967	146.060000
492.972626	146.060000
493.066345	146.500000
493.160034	146.060000
493.253754	145.820000
493.347412	144.960000
493.441132	145.160000
493.534882	145.360000
493.628540	145.620000
493.722260	145.840000
493.815918	146.620000
493.909668	146.920000
494.003326	147.020000
494.097046	146.980000
494.190704	146.580000
494.284454	146.460000
494.378113	146.440000
494.471832	145.900000
494.565491	145.660000
494.659210	146.000000
494.752899	145.840000
494.846619	145.460000
494.940277	145.720000
495.033997	145.820000
495.127686	145.320000
495.221405	145.580000
495.315063	145.680000
495.408783	145.580000
495.502441	145.820000
495.596191	146.080000
495.689850	145.560000
495.783569	146.020000
495.877228	145.840000
495.970947	145.600000
496.064697	145.640000
496.158356	146.560000
496.252075	146.120000
496.345734	146.400000
496.439453	147.160000
496.533142	147.220000
496.626862	147.280000
496.720520	147.420000
496.814240	147.280000
496.907898	146.720000
497.001617	146.820000
497.095306	146.140000
497.189026	146.340000
497.282684	146.320000
497.376404	146.840000
497.470062	146.280000
497.563782	146.300000
497.657471	145.900000
497.751190	145.620000
497.844849	145.040000
497.938568	145.760000
498.032227	145.940000
498.125946	145.920000
498.219635	146.080000
498.313354	146.440000
498.407074	145.940000
498.500732	145.980000
498.594452	146.080000
498.688110	145.740000
498.781830	145.160000
498.875519	145.180000
498.969238	144.720000
499.062897	144.740000
499.156616	145.380000
499.250275	145.640000
499.343994	145.260000
499.437653	145.480000
499.531372	145.600000
499.625061	146.000000
499.718781	146.280000
499.812439	147.120000
499.906158	147.100000
499.999817	146.780000
500.093536	146.040000
500.187195	146.100000
500.280914	145.780000
500.374573	145.760000
500.468323	145.700000
500.561981	145.980000
500.655701	145.520000
500.749420	145.380000
500.843079	145.680000
500.936798	145.820000
501.030457	145.940000
501.124176	146.080000
501.217834	146.060000
501.311554	145.740000
501.405212	145.580000
501.498962	145.020000
501.592621	144.920000
501.686340	145.340000
501.779999	145.460000
501.873718	145.880000
501.967377	146.440000
502.061096	146.620000
502.154755	146.080000
502.248474	146.220000
502.342133	146.020000
502.435852	145.560000
502.529510	146.000000
502.623230	146.720000
502.716888	145.980000
502.810608	146.060000
502.904266	146.580000
502.997986	145.860000
503.091705	145.240000
503.185364	145.600000
503.279083	145.420000
503.372772	145.140000
503.466492	145.180000
503.560150	145.420000
503.653870	145.820000
503.747528	145.740000
503.841248	145.700000
503.934906	146.100000
504.028625	145.520000
504.122284	145.640000
504.216003	146.420000
504.309662	146.240000
504.403381	145.900000
504.497040	146.160000
504.590759	145.760000
504.684418	145.660000
504.778137	146.080000
504.871796	146.280000
504.965515	146.260000
505.059174	146.520000
505.152893	145.600000
505.246521	144.980000
505.340240	144.920000
505.433899	145.060000
505.527618	144.920000
505.621338	145.680000
505.714996	145.660000
505.808716	145.380000
505.902374	145.840000
505.996094	145.800000
506.089752	145.140000
506.183472	145.340000
506.277130	145.700000
506.370850	145.220000
506.464508	145.120000
506.558228	145.640000
506.651886	145.620000
506.745605	145.620000
506.839264	145.800000
506.932983	145.960000
507.026611	145.780000
507.120331	145.960000
507.213989	145.580000
507.307709	145.720000
507.401367	145.920000
507.495087	146.580000
507.588745	146.300000
507.682465	147.380000
507.776123	147.180000
507.869843	147.200000
507.963531	146.680000
508.057190	147.140000
508.150909	146.040000
508.244568	146.020000
508.338287	145.300000
508.431946	144.840000
508.525665	144.440000
508.619324	144.420000
508.713013	144.800000
508.806671	145.320000
508.900391	146.340000
508.994049	146.540000
509.087769	146.460000
509.181427	146.420000
509.275146	146.160000
509.368774	145.160000
509.462494	145.200000
509.556152	145.460000
509.649872	145.700000
509.743530	146.000000
509.837250	146.600000
509.930878	146.520000
510.024597	146.320000
510.118256	146.020000
510.211975	145.820000
510.305695	145.460000
510.399353	145.760000
510.493042	146.380000
510.586700	146.560000
510.680420	147.120000
510.774078	146.980000
510.867798	147.060000
510.961426	146.520000
511.055145	146.160000
511.148804	145.860000
511.242523	146.360000
511.336151	146.380000
511.429871	146.660000
511.523529	146.580000
511.617249	146.220000
511.710876	145.900000
511.804596	145.380000
511.898254	145.220000
511.991974	145.660000
512.085632	145.520000
512.179321	145.820000
512.272949	146.020000
512.366699	146.360000
512.460327	146.080000
512.554077	147.080000
512.647766	146.780000
512.741394	146.800000
512.835144	147.120000
512.928772	146.920000
513.022461	146.500000
513.116150	146.560000
513.209839	146.860000
513.303467	146.220000
513.397217	146.040000
513.490845	145.700000
513.584595	145.420000
513.678223	144.860000
513.771912	144.120000
513.865601	144.300000
513.959290	144.100000
514.052917	144.300000
514.146667	144.940000
514.240295	145.980000
514.333984	146.440000
514.427673	146.520000
514.521362	147.000000
514.614990	146.360000
514.708740	146.300000
514.802368	146.160000
514.896057	146.400000
514.989746	146.820000
515.083435	147.160000
515.177124	147.140000
515.270752	146.680000
515.364502	146.340000
515.458130	146.000000
515.551819	145.480000
515.645508	145.260000
515.739197	145.440000
515.832825	145.700000
515.926575	145.160000
516.020203	145.660000
516.113892	146.180000
516.207520	146.240000
516.301270	146.320000
516.394897	146.460000
516.488586	146.840000
516.582275	146.740000
516.675964	146.020000
516.769592	145.880000
516.863281	146.560000
516.956970	146.580000
517.050659	146.260000
517.144287	146.860000
517.238037	146.980000
517.331665	146.280000
517.425354	145.660000
517.519043	145.400000
517.612732	145.760000
517.706421	145.420000
517.800049	145.080000
517.893738	144.980000
517.987427	145.560000
518.081116	145.120000
518.174744	144.920000
518.268433	145.240000
518.362122	145.980000
518.455811	145.600000
518.549438	146.320000
518.643127	147.560000
518.736816	147.180000
518.830505	146.620000
518.924133	146.500000
519.017822	146.420000
519.111511	145.800000
519.205200	146.520000
519.298828	146.440000
519.392517	146.360000
519.486206	146.160000
519.579895	146.340000
519.673523	146.020000
519.767212	145.860000
519.860901	146.460000
519.954590	146.180000
520.048279	145.640000
520.141907	145.640000
520.235596	146.720000
520.329224	146.500000
520.422974	146.780000
520.516602	147.040000
520.610291	146.920000
520.703918	146.520000
520.797607	146.140000
520.891296	145.760000
520.984985	145.780000
521.078613	146.520000
521.172302	145.780000
521.265930	146.940000
521.359680	147.520000
521.453308	147.520000
521.546997	146.900000
521.640625	147.280000
521.734314	146.280000
521.827942	146.040000
521.921692	146.020000
522.015320	146.280000
522.109009	146.040000
522.202698	145.960000
522.296326	145.780000
522.390015	146.180000
522.483704	146.120000
522.577393	146.120000
522.671021	146.240000
522.764709	146.200000
522.858337	146.520000
522.952026	146.360000
523.045654	146.960000
523.139404	147.300000
523.233032	147.540000
523.326721	146.820000
523.420349	146.720000
523.514038	146.060000
523.607666	146.620000
523.701355	146.020000
523.795044	146.080000
523.888733	146.380000
523.982361	147.140000
524.076050	146.220000
524.169678	146.640000
524.263367	146.680000
524.356995	146.360000
524.450684	145.600000
524.544373	145.520000
524.638062	145.580000
524.731750	145.820000
524.825378	145.780000
524.919067	145.640000
525.012695	145.780000
525.106384	145.400000
525.200012	145.280000
525.293701	145.200000
525.387329	145.840000
525.481018	145.800000
525.574646	146.380000
525.668396	146.140000
525.762024	146.500000
525.855713	146.700000
525.949341	146.400000
526.043030	145.920000
526.136658	145.900000
526.230347	145.400000
526.323975	144.660000
526.417664	144.820000
526.511292	145.140000
526.604980	145.480000
526.698608	145.620000
526.792297	145.840000
526.885925	146.140000
526.979614	146.440000
527.073303	145.940000
527.166931	146.000000
527.260620	146.380000
527.354309	146.580000
527.447998	146.240000
527.541626	146.560000
527.635315	146.700000
527.728943	147.180000
527.822632	147.240000
527.916260	147.120000
528.009949	147.320000
528.103577	147.180000
528.197266	146.040000
528.290894	145.780000
528.384583	145.660000
528.478210	145.660000
528.571899	145.820000
528.665527	146.480000
528.759216	146.640000
528.852844	147.180000
528.946533	146.980000
529.040161	146.920000
529.133850	146.480000
529.227478	146.420000
529.321167	146.860000
529.414856	147.280000
529.508484	147.680000
529.602173	147.720000
529.695801	147.660000
529.789490	147.160000
529.883057	146.760000
529.976746	146.820000
530.070374	147.340000
530.164062	147.180000
530.257690	147.460000
530.351379	147.260000
530.445007	147.040000
530.538696	146.260000
530.632324	146.880000
530.726013	146.480000
530.819641	146.860000
530.913330	146.980000
531.006958	147.120000
531.100647	146.480000
531.194275	146.220000
531.287964	145.520000
531.381592	144.880000
531.475220	145.100000
531.568848	145.400000
531.662537	145.360000
531.756226	146.180000
531.849854	146.480000
531.943542	146.520000
532.037170	145.960000
532.130859	146.300000
532.224487	145.660000
532.318176	145.260000
532.411804	145.600000
532.505432	146.040000
532.599060	145.780000
532.692749	145.980000
532.786377	146.880000
532.880066	146.220000
532.973694	145.800000
533.067383	145.840000
533.161011	145.920000
533.254639	145.460000
533.348267	145.480000
533.441956	145.780000
533.535583	145.600000
533.629272	145.660000
533.722900	145.500000
533.816589	145.720000
533.910156	146.200000
534.003845	146.220000
534.097534	146.360000
534.191162	146.800000
534.284851	146.920000
534.378479	146.560000
534.472107	146.680000
534.565735	146.620000
534.659424	146.700000
534.753052	146.900000
534.846741	146.640000
534.940369	147.260000
535.033997	146.980000
535.127625	146.920000
535.221313	147.200000
535.314941	147.200000
535.408630	146.460000
535.502197	146.780000
535.595886	146.380000
535.689514	145.860000
535.783203	146.540000
535.876831	147.040000
535.970459	147.140000
536.064087	147.000000
536.157776	147.080000
536.251404	146.620000
536.345093	146.400000
536.438721	146.320000
536.532349	146.780000
536.626038	146.540000
536.719666	146.920000
536.813293	146.760000
536.906921	146.600000
537.000610	146.560000
537.094238	146.860000
537.187866	146.520000
537.281494	146.400000
537.375183	146.480000
537.468811	146.380000
537.562439	146.180000
537.656067	146.320000
537.749756	146.500000
537.843384	146.920000
537.937012	147.080000
538.030640	147.000000
538.124329	147.060000
538.217896	147.280000
538.311584	146.980000
538.405212	146.460000
538.498901	146.600000
538.592468	146.860000
538.686157	146.220000
538.779785	145.560000
538.873413	145.860000
538.967102	145.660000
539.060730	145.100000
539.154358	145.700000
539.247986	146.280000
539.341675	146.600000
539.435242	146.480000
539.528931	146.520000
539.622559	145.900000
539.716187	146.540000
539.809814	146.080000
539.903503	146.460000
539.997070	146.040000
540.090759	146.160000
540.184387	145.440000
540.278015	146.060000
540.371643	146.040000
540.465332	146.580000
540.558899	146.860000
540.652588	147.100000
540.746216	146.420000
540.839844	146.740000
540.933472	146.680000
541.027100	146.680000
541.120728	146.660000
541.214417	147.240000
541.308044	147.400000
541.401672	147.020000
541.495300	146.760000
541.588928	146.400000
541.682617	146.040000
541.776184	145.220000
541.869873	145.680000
541.963440	146.060000
542.057129	146.240000
542.150757	146.460000
542.244385	146.480000
542.338013	146.180000
542.431641	145.760000
542.525269	145.500000
542.618958	145.540000
542.712524	145.920000
542.806213	145.660000
542.899780	146.080000
542.993469	146.180000
543.087036	145.820000
543.180725	145.260000
543.274292	145.840000
543.367981	145.920000
543.461548	146.300000
543.555237	146.120000
543.648926	146.940000
543.742493	147.340000
543.836182	147.220000
543.929749	146.860000
544.023437	147.140000
544.117004	146.840000
544.210693	146.640000
544.304260	146.420000
544.397949	146.520000
544.491516	146.800000
544.585205	146.760000
544.678772	146.040000
544.772461	146.520000
544.866028	146.180000
544.959717	146.200000
545.053284	145.740000
545.146973	146.440000
545.240540	146.540000
545.334229	147.180000
545.427795	147.220000
545.521423	147.780000
545.615051	147.660000
545.708679	147.840000
545.802307	147.560000
545.895935	147.660000
545.989624	148.180000
546.083191	147.900000
546.176880	147.420000
546.270447	147.380000
546.364136	147.460000
546.457703	146.740000
546.551331	146.800000
546.644958	147.000000
546.738586	147.140000
546.832214	146.360000
546.925842	146.460000
547.019409	146.740000
547.113098	145.980000
547.206665	145.620000
547.300354	145.880000
547.393921	145.780000
547.487549	145.800000
547.581177	145.940000
547.674805	145.880000
547.768433	145.340000
547.862061	145.420000
547.955627	144.580000
548.049316	145.340000
548.142883	145.660000
548.236572	146.240000
548.330139	146.600000
548.423767	147.020000
548.517456	146.840000
548.611023	146.900000
548.704651	146.420000
548.798279	146.260000
548.891907	146.580000
548.985474	146.160000
549.079163	146.420000
549.172729	146.620000
549.266357	145.940000
549.359985	145.740000
549.453613	145.400000
549.547180	144.960000
549.640869	145.280000
549.734436	145.360000
549.828064	145.660000
549.921631	146.160000
550.015320	146.000000
550.108887	146.480000
550.202515	146.820000
550.296143	146.280000
550.389771	146.160000
550.483337	146.100000
550.576965	145.360000
550.670593	145.520000
550.764221	145.900000
550.857849	145.720000
550.951477	145.500000
551.045105	145.360000
551.138672	145.160000
551.232300	144.680000
551.325928	145.320000
551.419556	145.780000
551.513123	146.040000
551.606750	145.760000
551.700378	146.340000
551.794006	146.060000
551.887573	146.040000
551.981201	146.580000
552.074768	146.760000
552.168457	146.360000
552.262024	146.960000
552.355652	146.880000
552.449219	147.280000
552.542847	147.460000
552.636475	147.320000
552.730103	146.420000
552.823669	146.260000
552.917297	145.160000
553.010864	145.180000
553.104553	145.520000
553.198181	145.440000
553.291748	145.940000
553.385376	146.460000
553.478943	146.160000
553.572571	146.200000
553.666199	146.700000
553.759827	146.340000
553.853394	145.940000
553.947021	146.280000
554.040588	146.280000
554.134216	146.220000
554.227783	146.860000
554.321411	147.340000
554.415039	146.800000
554.508667	146.980000
554.602234	147.160000
554.695862	146.320000
554.789429	145.860000
554.883057	146.120000
554.976624	145.760000
555.070251	145.160000
555.163818	145.320000
555.257507	145.280000
555.351074	145.360000
555.444702	146.400000
555.538330	146.360000
555.631897	146.600000
555.725525	146.800000
555.819092	146.640000
555.912720	145.500000
556.006287	146.140000
556.099915	146.060000
556.193481	145.960000
556.287109	146.260000
556.380676	146.080000
556.474304	145.940000
556.567871	145.940000
556.661499	145.460000
556.755066	145.380000
556.848694	145.720000
556.942261	145.440000
557.035889	145.560000
557.129517	145.920000
557.223145	146.020000
557.316711	146.040000
557.410339	146.300000
557.503906	145.980000
557.597473	146.460000
557.691040	146.220000
557.784668	146.100000
557.878296	146.040000
557.971863	146.380000
558.065491	146.300000
558.159058	146.280000
558.252686	147.000000
558.346252	147.400000
558.439880	146.960000
558.533447	146.420000
558.627075	145.900000
558.720642	145.340000
558.814270	145.140000
558.907837	145.120000
559.001465	145.120000
559.095032	145.860000
559.188660	146.000000
559.282227	145.400000
559.375854	146.080000
559.469360	145.900000
559.562988	146.340000
559.656555	146.080000
559.750183	146.460000
559.843750	146.680000
559.937378	146.980000
560.030945	146.580000
560.124573	0.000000
560.218140	0.000000
560.311707	0.000000
560.405334	0.000000
560.498901	0.000000
560.592529	0.000000
560.686096	0.000000
560.779724	0.000000
560.873291	0.000000
560.966858	0.000000
561.060425	0.000000
561.154053	0.000000
561.247620	0.000000
561.341248	0.000000
561.434814	0.000000
561.528381	0.000000
561.621948	0.000000
561.715576	0.000000
561.809143	0.000000
561.902771	0.000000
561.996277	0.000000
562.089905	0.000000
562.183472	0.000000
562.277100	0.000000
