Model Number: SPM-002-B   
Serial Number: 70087108
Firmware Version: 004.15.4
Exposure Time: 100000.000000us
Data Taken on: 11-12-2020 19:39:49.963
Wavelength	Amplitude
221.570786	0.000000
221.663406	0.000000
221.756027	0.000000
221.848648	0.000000
221.941269	0.000000
222.033905	0.000000
222.126526	0.000000
222.219162	0.000000
222.311798	0.000000
222.404419	0.000000
222.497055	0.000000
222.589676	0.000000
222.682312	0.000000
222.774933	0.000000
222.867569	0.000000
222.960205	0.000000
223.052841	0.000000
223.145462	0.000000
223.238098	0.000000
223.330734	0.000000
223.423386	0.000000
223.516022	0.000000
223.608658	0.000000
223.701309	0.000000
223.793945	0.000000
223.886581	0.000000
223.979218	0.000000
224.071869	0.000000
224.164505	0.000000
224.257156	0.000000
224.349792	0.000000
224.442444	0.000000
224.535095	0.000000
224.627747	0.000000
224.720398	0.000000
224.813034	0.000000
224.905685	0.000000
224.998337	145.560000
225.090988	145.500000
225.183640	145.620000
225.276291	145.540000
225.368942	145.920000
225.461594	146.480000
225.554245	146.740000
225.646912	146.660000
225.739578	146.920000
225.832230	147.380000
225.924896	146.380000
226.017548	146.400000
226.110199	146.840000
226.202866	146.340000
226.295532	145.920000
226.388184	146.040000
226.480850	145.620000
226.573517	144.980000
226.666168	145.000000
226.758835	145.300000
226.851501	146.060000
226.944183	146.520000
227.036850	146.320000
227.129517	146.560000
227.222183	146.640000
227.314850	146.600000
227.407516	146.560000
227.500198	147.620000
227.592865	147.240000
227.685532	146.940000
227.778214	146.600000
227.870880	147.000000
227.963562	146.840000
228.056229	147.320000
228.148926	147.500000
228.241592	147.980000
228.334274	147.200000
228.426956	147.060000
228.519638	146.960000
228.612305	146.540000
228.704987	146.540000
228.797668	146.820000
228.890350	146.260000
228.983032	145.720000
229.075714	146.180000
229.168396	145.680000
229.261108	145.040000
229.353790	145.000000
229.446472	145.460000
229.539169	145.100000
229.631851	144.900000
229.724533	145.540000
229.817230	145.900000
229.909912	146.440000
230.002609	146.600000
230.095306	146.660000
230.187988	146.680000
230.280685	146.640000
230.373383	145.800000
230.466095	145.840000
230.558792	146.280000
230.651474	146.220000
230.744171	146.040000
230.836868	146.020000
230.929581	146.080000
231.022278	146.080000
231.114975	146.240000
231.207672	146.240000
231.300369	146.600000
231.393082	146.560000
231.485779	146.100000
231.578506	145.800000
231.671204	145.840000
231.763916	145.440000
231.856613	145.160000
231.949326	145.460000
232.042023	145.580000
232.134735	145.620000
232.227448	145.620000
232.320160	146.080000
232.412872	146.000000
232.505585	146.640000
232.598297	147.140000
232.691010	147.180000
232.783722	146.740000
232.876450	147.480000
232.969162	146.960000
233.061874	146.220000
233.154587	145.980000
233.247314	146.280000
233.340027	145.280000
233.432739	145.580000
233.525467	145.320000
233.618179	145.800000
233.710907	145.480000
233.803635	145.820000
233.896347	145.500000
233.989090	146.600000
234.081818	146.400000
234.174545	146.740000
234.267258	146.200000
234.359985	146.200000
234.452713	145.860000
234.545441	145.740000
234.638168	145.600000
234.730896	146.440000
234.823639	146.360000
234.916367	146.320000
235.009094	146.480000
235.101822	146.380000
235.194580	145.860000
235.287308	145.980000
235.380051	145.700000
235.472778	146.060000
235.565521	146.280000
235.658249	146.080000
235.750992	146.140000
235.843719	146.260000
235.936462	146.240000
236.029205	145.800000
236.121948	146.000000
236.214691	146.220000
236.307449	147.000000
236.400192	146.860000
236.492935	146.800000
236.585678	146.860000
236.678421	147.180000
236.771164	146.720000
236.863907	146.960000
236.956665	147.280000
237.049408	148.700000
237.142151	147.820000
237.234909	148.320000
237.327652	148.240000
237.420410	148.000000
237.513153	147.160000
237.605927	147.220000
237.698669	146.520000
237.791428	145.800000
237.884186	146.440000
237.976944	145.760000
238.069702	146.020000
238.162445	145.440000
238.255203	145.740000
238.347961	145.960000
238.440720	146.280000
238.533478	146.060000
238.626266	146.220000
238.719025	146.520000
238.811783	145.740000
238.904541	145.300000
238.997314	145.440000
239.090073	145.500000
239.182831	145.580000
239.275604	146.660000
239.368362	146.740000
239.461136	146.760000
239.553909	146.660000
239.646667	146.400000
239.739441	145.680000
239.832214	145.920000
239.925003	145.880000
240.017761	146.700000
240.110535	147.400000
240.203308	146.980000
240.296082	147.200000
240.388855	147.300000
240.481628	147.140000
240.574417	146.880000
240.667191	147.500000
240.759964	147.020000
240.852737	146.820000
240.945526	146.540000
241.038315	146.400000
241.131088	146.280000
241.223877	146.600000
241.316650	146.340000
241.409439	146.820000
241.502228	146.360000
241.595001	146.480000
241.687790	146.160000
241.780579	146.420000
241.873367	146.220000
241.966141	146.820000
242.058929	146.400000
242.151718	146.840000
242.244507	147.220000
242.337311	146.560000
242.430099	146.660000
242.522903	147.100000
242.615692	146.420000
242.708481	146.120000
242.801270	147.040000
242.894073	146.880000
242.986862	146.460000
243.079651	147.120000
243.172455	146.900000
243.265244	146.520000
243.358063	145.740000
243.450867	146.260000
243.543655	146.100000
243.636459	146.360000
243.729263	146.760000
243.822067	147.220000
243.914856	147.480000
244.007660	147.600000
244.100464	147.660000
244.193268	146.880000
244.286072	146.820000
244.378876	146.140000
244.471680	145.780000
244.564499	145.900000
244.657318	146.580000
244.750122	146.960000
244.842926	146.600000
244.935745	147.020000
245.028549	146.600000
245.121368	146.260000
245.214172	146.000000
245.306992	146.520000
245.399796	146.240000
245.492615	146.200000
245.585434	146.020000
245.678253	146.080000
245.771072	145.980000
245.863892	146.240000
245.956711	146.660000
246.049530	146.420000
246.142349	146.060000
246.235168	146.120000
246.327988	146.380000
246.420807	145.880000
246.513626	146.480000
246.606445	146.500000
246.699280	146.360000
246.792099	146.140000
246.884918	146.200000
246.977753	145.560000
247.070587	145.700000
247.163422	145.720000
247.256241	145.540000
247.349075	145.900000
247.441895	146.060000
247.534729	146.180000
247.627563	145.840000
247.720383	146.340000
247.813217	146.000000
247.906052	146.000000
247.998886	146.000000
248.091736	146.260000
248.184570	145.820000
248.277405	146.120000
248.370239	146.840000
248.463074	147.620000
248.555908	147.800000
248.648743	147.720000
248.741592	147.720000
248.834427	146.880000
248.927261	145.640000
249.020111	145.800000
249.112946	146.700000
249.205795	146.560000
249.298630	146.980000
249.391495	147.360000
249.484344	147.380000
249.577179	146.740000
249.670029	146.560000
249.762878	146.940000
249.855728	147.140000
249.948563	146.860000
250.041412	146.420000
250.134262	147.040000
250.227112	147.020000
250.319962	146.980000
250.412827	146.940000
250.505692	146.760000
250.598541	146.240000
250.691391	145.940000
250.784241	145.900000
250.877106	145.880000
250.969955	145.540000
251.062805	145.940000
251.155670	146.500000
251.248520	146.400000
251.341385	146.480000
251.434235	146.940000
251.527100	146.800000
251.619965	146.080000
251.712814	146.680000
251.805695	146.720000
251.898560	146.900000
251.991425	146.860000
252.084290	146.920000
252.177155	146.040000
252.270020	145.840000
252.362885	145.840000
252.455750	145.980000
252.548615	145.780000
252.641479	145.760000
252.734360	145.880000
252.827240	145.720000
252.920105	145.740000
253.012970	145.960000
253.105850	146.020000
253.198715	145.880000
253.291595	146.140000
253.384460	145.940000
253.477341	145.720000
253.570221	146.020000
253.663086	145.960000
253.755966	146.640000
253.848846	146.460000
253.941727	146.780000
254.034592	146.560000
254.127472	146.160000
254.220367	145.840000
254.313248	146.100000
254.406128	145.700000
254.499008	145.900000
254.591904	146.880000
254.684784	147.240000
254.777664	147.140000
254.870544	146.940000
254.963440	146.680000
255.056335	146.560000
255.149216	145.960000
255.242111	146.500000
255.334991	147.040000
255.427887	147.600000
255.520767	147.280000
255.613663	147.500000
255.706558	146.900000
255.799438	147.000000
255.892334	146.320000
255.985229	146.600000
256.078125	146.020000
256.171021	145.980000
256.263916	146.000000
256.356812	146.440000
256.449707	146.300000
256.542603	146.300000
256.635498	147.120000
256.728394	146.840000
256.821289	146.620000
256.914215	147.060000
257.007080	147.460000
257.100006	146.820000
257.192932	147.300000
257.285828	147.640000
257.378723	147.160000
257.471619	147.000000
257.564545	146.880000
257.657440	146.620000
257.750336	146.820000
257.843262	146.520000
257.936157	147.580000
258.029053	147.700000
258.121979	147.600000
258.214874	147.160000
258.307800	147.160000
258.400696	146.000000
258.493622	146.100000
258.586517	145.700000
258.679443	146.380000
258.772339	145.980000
258.865265	145.900000
258.958160	145.320000
259.051086	146.060000
259.144012	145.480000
259.236938	146.520000
259.329834	146.660000
259.422791	146.920000
259.515717	146.380000
259.608612	146.180000
259.701538	146.000000
259.794464	145.780000
259.887390	145.680000
259.980316	145.580000
260.073212	145.400000
260.166138	144.680000
260.259064	145.140000
260.351990	145.780000
260.444916	145.800000
260.537842	146.360000
260.630768	147.220000
260.723694	147.060000
260.816620	146.600000
260.909546	146.580000
261.002472	146.160000
261.095398	145.440000
261.188354	145.360000
261.281281	145.140000
261.374207	145.200000
261.467133	145.680000
261.560089	145.980000
261.653015	145.700000
261.745972	146.580000
261.838867	146.920000
261.931824	147.020000
262.024780	146.660000
262.117706	147.560000
262.210663	147.120000
262.303589	146.900000
262.396515	146.700000
262.489471	147.640000
262.582397	147.000000
262.675354	146.780000
262.768280	146.900000
262.861237	146.880000
262.954163	146.580000
263.047119	146.640000
263.140045	146.440000
263.233002	146.360000
263.325958	146.300000
263.418884	145.780000
263.511841	145.840000
263.604797	145.700000
263.697723	145.980000
263.790680	146.360000
263.883636	146.780000
263.976593	146.440000
264.069550	146.820000
264.162476	146.240000
264.255463	145.960000
264.348419	146.120000
264.441376	146.600000
264.534332	146.260000
264.627289	146.740000
264.720245	147.020000
264.813202	146.340000
264.906158	146.360000
264.999115	146.600000
265.092072	146.200000
265.185028	146.380000
265.277985	146.480000
265.370941	146.400000
265.463898	146.260000
265.556854	146.080000
265.649811	145.120000
265.742798	145.320000
265.835754	145.140000
265.928711	145.520000
266.021667	145.700000
266.114655	146.040000
266.207611	146.620000
266.300568	146.100000
266.393585	145.600000
266.486511	145.960000
266.579498	145.480000
266.672485	145.100000
266.765442	145.080000
266.858429	146.080000
266.951385	145.600000
267.044342	145.900000
267.137329	145.740000
267.230316	146.420000
267.323273	145.640000
267.416260	146.240000
267.509216	146.260000
267.602203	146.240000
267.695160	146.660000
267.788147	146.680000
267.881134	146.260000
267.974091	146.540000
268.067078	146.460000
268.160065	145.980000
268.253052	145.860000
268.346008	145.660000
268.438995	145.300000
268.531982	145.500000
268.624969	145.140000
268.717987	145.780000
268.810944	145.640000
268.903961	145.780000
268.996948	145.540000
269.089905	146.380000
269.182892	146.100000
269.275879	146.760000
269.368866	146.520000
269.461853	146.720000
269.554871	146.420000
269.647858	146.600000
269.740845	146.900000
269.833832	147.300000
269.926819	146.820000
270.019806	146.820000
270.112793	146.200000
270.205811	146.140000
270.298798	145.880000
270.391785	146.660000
270.484772	146.380000
270.577789	146.720000
270.670776	146.180000
270.763763	146.360000
270.856750	145.880000
270.949768	145.640000
271.042786	145.780000
271.135773	145.860000
271.228790	146.080000
271.321808	145.780000
271.414795	145.420000
271.507782	145.280000
271.600800	144.800000
271.693817	144.560000
271.786804	145.440000
271.879822	146.200000
271.972809	146.060000
272.065826	146.780000
272.158844	146.800000
272.251831	146.820000
272.344849	146.560000
272.437866	146.380000
272.530853	146.560000
272.623871	146.520000
272.716888	145.520000
272.809906	146.080000
272.902893	146.120000
272.995911	145.520000
273.088928	145.620000
273.181946	146.240000
273.274963	145.500000
273.367981	145.660000
273.460999	145.700000
273.554047	145.940000
273.647003	146.500000
273.740051	146.580000
273.833069	146.640000
273.926086	146.820000
274.019135	146.600000
274.112152	146.320000
274.205170	146.440000
274.298187	146.680000
274.391205	146.260000
274.484222	146.120000
274.577240	145.900000
274.670258	145.740000
274.763306	145.460000
274.856323	146.200000
274.949341	146.420000
275.042358	146.760000
275.135406	146.720000
275.228424	146.900000
275.321442	146.620000
275.414490	146.320000
275.507507	146.400000
275.600525	147.220000
275.693573	146.740000
275.786591	146.600000
275.879669	146.600000
275.972656	146.560000
276.065735	146.220000
276.158752	146.900000
276.251801	147.660000
276.344818	147.940000
276.437866	147.660000
276.530884	147.660000
276.623932	147.140000
276.716980	146.800000
276.809998	146.900000
276.903046	146.620000
276.996094	146.960000
277.089111	147.600000
277.182159	148.260000
277.275208	147.840000
277.368256	148.200000
277.461304	148.000000
277.554321	146.940000
277.647369	146.240000
277.740417	146.400000
277.833466	146.100000
277.926514	145.700000
278.019562	146.480000
278.112610	146.260000
278.205688	146.440000
278.298706	146.640000
278.391785	146.360000
278.484833	145.900000
278.577881	145.660000
278.670929	145.480000
278.763977	145.420000
278.857025	145.820000
278.950073	145.960000
279.043121	146.120000
279.136169	146.140000
279.229248	145.780000
279.322296	146.000000
279.415344	145.980000
279.508392	145.800000
279.601440	145.680000
279.694519	146.120000
279.787567	145.820000
279.880615	146.120000
279.973694	146.180000
280.066742	146.020000
280.159790	146.080000
280.252869	145.800000
280.345917	145.680000
280.438995	146.000000
280.532074	146.440000
280.625122	146.680000
280.718201	147.760000
280.811279	147.800000
280.904327	147.200000
280.997406	147.440000
281.090454	147.180000
281.183533	146.120000
281.276581	146.160000
281.369659	146.180000
281.462738	145.760000
281.555786	145.800000
281.648865	146.400000
281.741943	146.040000
281.835022	146.960000
281.928070	146.960000
282.021149	146.580000
282.114227	146.060000
282.207306	146.340000
282.300385	146.360000
282.393433	146.480000
282.486511	146.980000
282.579590	147.360000
282.672668	147.660000
282.765747	146.880000
282.858856	146.520000
282.951904	146.400000
283.045013	146.700000
283.138062	146.600000
283.231171	146.940000
283.324249	147.580000
283.417328	147.520000
283.510406	147.040000
283.603485	146.960000
283.696564	146.720000
283.789642	146.580000
283.882751	146.120000
283.975830	146.700000
284.068909	146.180000
284.161987	146.760000
284.255066	146.260000
284.348175	146.860000
284.441254	146.640000
284.534332	147.260000
284.627441	146.820000
284.720520	146.520000
284.813599	146.100000
284.906708	145.800000
284.999786	145.000000
285.092896	144.620000
285.185974	145.760000
285.279053	145.560000
285.372192	145.960000
285.465240	146.820000
285.558380	147.160000
285.651459	146.660000
285.744568	147.600000
285.837677	147.180000
285.930756	147.060000
286.023865	146.860000
286.116943	146.500000
286.210052	146.180000
286.303162	146.040000
286.396240	145.920000
286.489349	145.740000
286.582458	146.220000
286.675568	146.180000
286.768646	146.280000
286.861755	146.420000
286.954865	147.520000
287.047974	146.900000
287.141083	146.340000
287.234161	146.340000
287.327271	146.020000
287.420380	145.960000
287.513519	146.000000
287.606598	146.380000
287.699738	146.580000
287.792816	146.540000
287.885956	146.160000
287.979034	146.260000
288.072174	146.040000
288.165283	146.000000
288.258392	146.520000
288.351501	146.080000
288.444611	146.400000
288.537720	146.940000
288.630859	146.680000
288.723969	146.400000
288.817078	146.980000
288.910187	146.960000
289.003296	146.240000
289.096436	146.180000
289.189545	146.100000
289.282654	145.360000
289.375763	145.500000
289.468903	146.200000
289.562012	146.480000
289.655121	146.380000
289.748260	146.480000
289.841400	146.540000
289.934509	146.280000
290.027649	146.620000
290.120728	146.560000
290.213898	146.800000
290.306976	146.820000
290.400146	146.800000
290.493256	146.280000
290.586395	146.340000
290.679535	146.480000
290.772644	146.300000
290.865784	145.680000
290.958893	145.480000
291.052032	145.400000
291.145172	145.500000
291.238281	144.920000
291.331421	145.360000
291.424561	146.040000
291.517670	145.820000
291.610809	145.920000
291.703949	146.220000
291.797089	146.340000
291.890228	145.600000
291.983337	145.840000
292.076477	145.380000
292.169617	145.560000
292.262756	145.600000
292.355927	145.640000
292.449036	145.560000
292.542206	145.800000
292.635315	146.000000
292.728485	146.360000
292.821625	146.280000
292.914764	147.360000
293.007904	147.480000
293.101044	147.560000
293.194183	147.080000
293.287323	147.360000
293.380463	146.820000
293.473602	146.440000
293.566742	146.400000
293.659882	146.880000
293.753021	147.280000
293.846191	146.800000
293.939331	146.780000
294.032471	146.600000
294.125610	146.180000
294.218781	146.280000
294.311920	146.840000
294.405060	147.080000
294.498230	146.980000
294.591370	147.040000
294.684540	146.260000
294.777679	145.760000
294.870850	146.260000
294.963959	146.140000
295.057159	145.800000
295.150299	146.260000
295.243469	146.200000
295.336609	145.500000
295.429779	145.920000
295.522919	146.560000
295.616089	146.400000
295.709229	147.200000
295.802399	147.480000
295.895569	147.000000
295.988708	146.560000
296.081879	146.940000
296.175018	145.940000
296.268188	145.700000
296.361359	146.400000
296.454529	146.720000
296.547668	146.340000
296.640839	146.920000
296.734009	146.860000
296.827179	146.640000
296.920319	146.700000
297.013519	146.620000
297.106659	146.560000
297.199860	146.720000
297.292999	146.620000
297.386200	146.320000
297.479309	146.480000
297.572510	146.440000
297.665680	145.920000
297.758850	146.060000
297.852020	145.820000
297.945190	145.580000
298.038361	145.200000
298.131531	146.500000
298.224701	145.980000
298.317871	145.960000
298.411072	145.720000
298.504242	145.680000
298.597412	144.600000
298.690582	144.860000
298.783752	145.100000
298.876923	145.480000
298.970093	145.860000
299.063293	146.560000
299.156464	146.900000
299.249634	147.140000
299.342834	147.160000
299.436005	147.560000
299.529205	147.260000
299.622345	147.400000
299.715576	146.580000
299.808716	146.560000
299.901917	145.960000
299.995117	146.480000
300.088287	146.160000
300.181488	146.100000
300.274658	146.100000
300.367828	146.320000
300.461029	145.620000
300.554199	145.820000
300.647400	146.300000
300.740601	146.680000
300.833771	146.380000
300.926971	146.900000
301.020142	146.120000
301.113342	146.100000
301.206512	145.940000
301.299713	146.520000
301.392914	146.260000
301.486084	147.020000
301.579285	146.960000
301.672516	147.320000
301.765686	146.900000
301.858887	146.580000
301.952057	146.300000
302.045288	146.580000
302.138458	145.980000
302.231659	146.020000
302.324860	146.060000
302.418060	145.620000
302.511261	145.340000
302.604462	145.800000
302.697662	145.560000
302.790863	145.460000
302.884064	145.640000
302.977264	145.680000
303.070465	145.680000
303.163666	146.220000
303.256866	146.820000
303.350067	146.960000
303.443268	146.880000
303.536469	146.860000
303.629669	146.460000
303.722870	146.460000
303.816071	146.060000
303.909271	146.320000
304.002472	145.580000
304.095673	145.440000
304.188934	144.500000
304.282104	145.860000
304.375336	145.660000
304.468506	145.680000
304.561768	145.640000
304.654968	146.600000
304.748169	145.560000
304.841370	145.640000
304.934601	146.240000
305.027802	145.980000
305.121002	145.460000
305.214233	145.740000
305.307434	145.680000
305.400665	146.060000
305.493866	146.000000
305.587097	146.360000
305.680298	146.080000
305.773499	146.520000
305.866730	145.980000
305.959930	146.660000
306.053162	146.820000
306.146393	146.700000
306.239594	145.960000
306.332825	145.880000
306.426025	146.280000
306.519287	145.640000
306.612488	145.940000
306.705719	146.200000
306.798920	146.460000
306.892181	145.900000
306.985352	145.580000
307.078613	144.860000
307.171844	145.340000
307.265045	144.880000
307.358276	144.560000
307.451508	145.180000
307.544739	146.120000
307.637970	145.580000
307.731201	145.520000
307.824402	146.000000
307.917633	146.220000
308.010864	146.220000
308.104095	146.780000
308.197327	147.140000
308.290558	147.220000
308.383789	146.780000
308.477020	146.180000
308.570251	145.240000
308.663483	144.820000
308.756714	144.600000
308.849976	144.300000
308.943176	145.300000
309.036438	145.740000
309.129639	145.740000
309.222900	145.580000
309.316101	145.880000
309.409393	144.800000
309.502625	144.420000
309.595856	144.580000
309.689087	144.680000
309.782318	144.820000
309.875580	145.180000
309.968811	145.280000
310.062042	145.280000
310.155273	145.320000
310.248535	145.720000
310.341766	145.540000
310.434998	145.540000
310.528259	145.460000
310.621490	145.600000
310.714722	145.000000
310.807983	145.220000
310.901215	145.140000
310.994476	145.280000
311.087708	144.740000
311.181000	144.980000
311.274200	144.560000
311.367462	144.780000
311.460693	144.720000
311.553986	145.800000
311.647186	145.760000
311.740479	146.600000
311.833710	146.300000
311.926971	146.140000
312.020203	145.100000
312.113464	145.020000
312.206726	144.340000
312.299957	145.080000
312.393219	145.820000
312.486481	146.220000
312.579712	146.400000
312.672974	146.440000
312.766235	146.040000
312.859497	145.600000
312.952759	145.720000
313.045990	146.280000
313.139252	146.060000
313.232513	146.380000
313.325775	146.260000
313.419037	145.780000
313.512299	144.840000
313.605530	145.480000
313.698822	145.620000
313.792053	145.880000
313.885345	145.700000
313.978577	146.020000
314.071869	145.580000
314.165131	145.340000
314.258392	145.740000
314.351654	146.160000
314.444916	145.660000
314.538177	146.160000
314.631439	146.540000
314.724701	146.040000
314.817993	145.980000
314.911255	146.540000
315.004517	146.000000
315.097778	145.540000
315.191040	145.780000
315.284302	146.000000
315.377594	145.560000
315.470856	145.640000
315.564117	145.460000
315.657379	145.020000
315.750671	144.680000
315.843933	145.340000
315.937195	145.100000
316.030518	145.040000
316.123749	145.380000
316.217041	146.400000
316.310303	146.200000
316.403595	146.700000
316.496857	147.280000
316.590149	147.280000
316.683411	146.120000
316.776703	145.780000
316.869965	145.460000
316.963257	145.000000
317.056519	144.320000
317.149811	144.640000
317.243073	144.680000
317.336365	144.900000
317.429626	145.020000
317.522919	145.620000
317.616180	145.440000
317.709473	145.160000
317.802765	144.980000
317.896027	145.220000
317.989319	145.620000
318.082611	145.640000
318.175873	145.840000
318.269165	146.040000
318.362488	145.800000
318.455750	145.340000
318.549042	145.900000
318.642303	146.380000
318.735626	146.180000
318.828888	146.200000
318.922211	145.860000
319.015472	146.400000
319.108765	145.800000
319.202057	145.600000
319.295349	145.940000
319.388641	146.360000
319.481934	145.560000
319.575226	145.440000
319.668518	145.500000
319.761810	145.280000
319.855103	145.440000
319.948395	145.600000
320.041687	146.080000
320.134979	146.260000
320.228271	146.220000
320.321564	145.560000
320.414856	145.580000
320.508148	145.120000
320.601440	144.860000
320.694763	144.780000
320.788025	145.920000
320.881348	146.000000
320.974640	146.380000
321.067963	146.320000
321.161224	146.220000
321.254547	145.260000
321.347839	145.580000
321.441162	145.020000
321.534454	145.380000
321.627747	145.480000
321.721069	146.260000
321.814362	146.060000
321.907654	146.420000
322.000946	146.400000
322.094269	147.000000
322.187561	146.340000
322.280884	146.540000
322.374176	146.340000
322.467468	147.060000
322.560791	146.940000
322.654083	147.480000
322.747406	147.500000
322.840698	147.900000
322.934021	147.440000
323.027344	147.480000
323.120636	147.100000
323.213959	146.940000
323.307251	146.720000
323.400574	146.260000
323.493866	145.620000
323.587219	145.800000
323.680511	145.980000
323.773834	146.180000
323.867157	146.600000
323.960449	146.880000
324.053772	146.780000
324.147095	146.660000
324.240387	146.920000
324.333710	147.100000
324.427032	147.420000
324.520355	147.120000
324.613647	146.520000
324.706970	146.460000
324.800293	146.060000
324.893616	146.160000
324.986938	146.720000
325.080231	146.700000
325.173553	146.740000
325.266876	147.440000
325.360199	147.280000
325.453522	146.740000
325.546875	146.760000
325.640167	146.840000
325.733521	146.840000
325.826813	146.920000
325.920166	146.960000
326.013489	147.020000
326.106812	146.160000
326.200134	145.580000
326.293457	144.660000
326.386780	144.940000
326.480103	144.820000
326.573425	144.920000
326.666748	145.040000
326.760071	145.780000
326.853424	145.580000
326.946747	145.860000
327.040070	146.900000
327.133392	146.580000
327.226715	145.980000
327.320068	145.540000
327.413391	145.920000
327.506714	144.940000
327.600037	145.000000
327.693390	145.340000
327.786713	145.700000
327.880066	145.320000
327.973358	145.780000
328.066742	146.300000
328.160034	146.480000
328.253418	146.920000
328.346710	146.840000
328.440063	146.260000
328.533417	145.860000
328.626740	146.000000
328.720093	145.480000
328.813416	145.120000
328.906769	145.560000
329.000092	145.700000
329.093445	145.300000
329.186768	145.340000
329.280121	146.020000
329.373444	146.120000
329.466797	145.840000
329.560120	146.220000
329.653473	146.540000
329.746796	145.960000
329.840149	145.760000
329.933502	145.860000
330.026825	145.380000
330.120178	145.140000
330.213562	145.300000
330.306854	145.540000
330.400238	145.680000
330.493561	145.640000
330.586945	146.080000
330.680237	146.300000
330.773621	146.300000
330.866974	146.480000
330.960327	146.820000
331.053680	146.180000
331.147003	146.380000
331.240356	146.640000
331.333710	146.500000
331.427063	145.900000
331.520416	146.300000
331.613770	146.100000
331.707123	145.940000
331.800476	145.900000
331.893829	147.140000
331.987152	147.220000
332.080505	147.060000
332.173859	146.920000
332.267212	146.580000
332.360565	145.720000
332.453918	145.340000
332.547333	145.400000
332.640656	145.300000
332.734039	145.360000
332.827362	145.760000
332.920746	146.140000
333.014069	146.340000
333.107452	147.020000
333.200806	147.480000
333.294159	147.360000
333.387543	146.940000
333.480896	146.640000
333.574249	146.160000
333.667603	145.780000
333.760956	145.960000
333.854340	146.000000
333.947693	146.160000
334.041046	146.360000
334.134430	146.820000
334.227783	146.120000
334.321136	146.000000
334.414520	145.640000
334.507874	145.480000
334.601227	145.080000
334.694611	145.380000
334.787964	145.780000
334.881348	146.180000
334.974701	146.060000
335.068085	145.940000
335.161438	146.180000
335.254822	145.920000
335.348175	146.000000
335.441559	145.740000
335.534943	146.380000
335.628296	146.000000
335.721680	145.700000
335.815033	145.700000
335.908417	146.320000
336.001770	146.300000
336.095154	146.360000
336.188538	146.580000
336.281891	145.940000
336.375275	145.300000
336.468658	144.820000
336.562012	144.900000
336.655396	145.280000
336.748779	146.100000
336.842133	146.100000
336.935516	146.260000
337.028900	146.040000
337.122284	145.980000
337.215637	145.680000
337.309021	145.940000
337.402435	145.560000
337.495789	145.740000
337.589203	145.640000
337.682526	145.600000
337.775940	145.940000
337.869324	146.460000
337.962708	146.220000
338.056091	146.540000
338.149475	146.200000
338.242859	145.740000
338.336243	145.480000
338.429626	145.700000
338.523010	145.240000
338.616394	145.280000
338.709778	145.700000
338.803162	145.740000
338.896545	145.880000
338.989929	145.840000
339.083313	146.140000
339.176697	145.840000
339.270081	145.860000
339.363464	146.180000
339.456848	146.340000
339.550232	145.980000
339.643616	145.820000
339.737030	145.620000
339.830383	145.520000
339.923828	145.580000
340.017181	145.820000
340.110596	146.020000
340.203949	146.020000
340.297363	145.540000
340.390778	145.560000
340.484161	145.280000
340.577545	145.220000
340.670959	145.420000
340.764343	145.440000
340.857727	145.280000
340.951111	145.120000
341.044525	145.320000
341.137909	144.760000
341.231293	144.860000
341.324707	144.740000
341.418091	145.940000
341.511505	146.020000
341.604889	146.700000
341.698303	147.240000
341.791687	147.240000
341.885071	146.340000
341.978485	146.060000
342.071899	146.540000
342.165283	146.300000
342.258698	146.980000
342.352081	147.420000
342.445496	147.860000
342.538879	147.140000
342.632324	146.740000
342.725708	146.260000
342.819122	145.600000
342.912506	145.260000
343.005920	145.060000
343.099335	146.080000
343.192719	146.000000
343.286133	146.100000
343.379547	146.380000
343.472931	146.620000
343.566345	145.720000
343.659760	146.000000
343.753143	145.980000
343.846558	145.340000
343.939972	145.040000
344.033386	145.720000
344.126770	145.260000
344.220184	145.580000
344.313599	146.160000
344.407043	146.540000
344.500427	145.940000
344.593872	146.940000
344.687225	146.420000
344.780670	146.140000
344.874054	145.920000
344.967499	146.240000
345.060913	145.840000
345.154327	146.300000
345.247742	145.980000
345.341156	145.960000
345.434570	145.400000
345.527985	145.080000
345.621399	145.020000
345.714813	145.240000
345.808228	145.360000
345.901642	145.220000
345.995056	145.060000
346.088470	145.160000
346.181885	145.380000
346.275299	145.240000
346.368713	145.440000
346.462128	145.200000
346.555573	145.180000
346.648987	144.920000
346.742401	145.100000
346.835815	145.540000
346.929260	145.380000
347.022644	145.200000
347.116119	145.460000
347.209503	145.300000
347.302948	146.040000
347.396362	146.920000
347.489807	147.080000
347.583221	147.540000
347.676636	147.620000
347.770050	146.160000
347.863495	145.540000
347.956909	145.440000
348.050323	144.760000
348.143768	144.740000
348.237183	145.000000
348.330597	145.620000
348.424042	146.240000
348.517456	146.600000
348.610901	146.660000
348.704315	146.720000
348.797760	146.000000
348.891174	145.000000
348.984619	144.540000
349.078033	145.060000
349.171448	145.280000
349.264923	145.400000
349.358337	145.720000
349.451782	145.720000
349.545197	144.900000
349.638641	144.580000
349.732086	144.220000
349.825500	144.620000
349.918945	144.680000
350.012390	145.420000
350.105804	145.960000
350.199249	146.460000
350.292664	146.480000
350.386108	146.660000
350.479553	146.860000
350.572968	146.420000
350.666412	146.460000
350.759857	146.440000
350.853302	146.680000
350.946716	146.100000
351.040161	146.080000
351.133606	146.140000
351.227081	145.900000
351.320465	146.480000
351.413940	146.640000
351.507355	146.980000
351.600830	146.980000
351.694244	146.600000
351.787720	146.240000
351.881104	146.080000
351.974579	145.780000
352.067993	146.360000
352.161469	146.660000
352.254883	145.940000
352.348358	145.860000
352.441803	145.880000
352.535248	145.420000
352.628693	145.900000
352.722137	146.020000
352.815582	146.260000
352.909027	146.320000
353.002472	146.180000
353.095917	145.900000
353.189362	146.200000
353.282806	146.180000
353.376251	146.180000
353.469696	145.920000
353.563141	146.420000
353.656586	146.060000
353.750061	145.620000
353.843475	145.460000
353.936981	146.000000
354.030396	145.240000
354.123871	145.280000
354.217285	146.060000
354.310760	146.600000
354.404175	146.600000
354.497681	146.320000
354.591095	146.460000
354.684570	145.800000
354.777985	145.080000
354.871490	144.580000
354.964935	145.280000
355.058380	145.280000
355.151855	145.140000
355.245300	145.820000
355.338745	146.180000
355.432220	146.460000
355.525665	146.080000
355.619110	146.560000
355.712585	146.340000
355.806030	146.200000
355.899475	145.380000
355.992950	146.180000
356.086426	146.360000
356.179871	146.160000
356.273346	146.280000
356.366791	146.820000
356.460266	146.720000
356.553711	146.240000
356.647186	146.440000
356.740631	146.220000
356.834106	145.940000
356.927551	146.020000
357.021027	146.140000
357.114471	146.400000
357.207947	146.620000
357.301422	146.700000
357.394867	146.540000
357.488342	146.880000
357.581818	146.300000
357.675262	146.580000
357.768738	146.560000
357.862213	145.860000
357.955658	145.460000
358.049133	145.620000
358.142609	145.380000
358.236053	145.300000
358.329529	145.640000
358.423035	145.940000
358.516449	145.720000
358.609955	145.940000
358.703400	146.500000
358.796906	146.760000
358.890350	146.420000
358.983826	146.740000
359.077271	146.140000
359.170776	145.780000
359.264221	145.740000
359.357727	145.900000
359.451172	146.380000
359.544647	146.640000
359.638123	146.300000
359.731598	146.380000
359.825073	146.140000
359.918549	145.700000
360.012024	146.000000
360.105499	145.740000
360.198975	145.620000
360.292450	146.120000
360.385925	145.960000
360.479401	145.400000
360.572876	145.900000
360.666351	145.940000
360.759857	145.600000
360.853302	145.780000
360.946808	145.440000
361.040253	145.260000
361.133759	144.940000
361.227203	144.980000
361.320709	144.700000
361.414154	145.360000
361.507660	145.800000
361.601105	146.280000
361.694641	146.980000
361.788086	146.960000
361.881592	147.300000
361.975067	146.760000
362.068542	147.160000
362.162018	146.520000
362.255524	146.400000
362.348999	146.340000
362.442474	146.500000
362.535950	145.460000
362.629456	145.360000
362.722931	145.180000
362.816406	145.140000
362.909882	145.700000
363.003387	146.040000
363.096863	146.340000
363.190338	146.460000
363.283875	146.120000
363.377319	145.640000
363.470825	145.820000
363.564301	145.060000
363.657806	145.480000
363.751282	145.320000
363.844788	145.900000
363.938232	145.380000
364.031769	146.440000
364.125214	146.700000
364.218750	147.440000
364.312225	146.560000
364.405731	146.740000
364.499207	145.920000
364.592712	145.480000
364.686188	145.080000
364.779694	145.420000
364.873169	145.540000
364.966675	145.540000
365.060150	145.400000
365.153656	145.700000
365.247131	145.500000
365.340637	145.760000
365.434143	146.360000
365.527618	146.780000
365.621155	145.900000
365.714600	145.880000
365.808136	145.920000
365.901611	145.060000
365.995117	144.820000
366.088593	144.880000
366.182129	144.800000
366.275604	144.660000
366.369110	144.880000
366.462585	144.800000
366.556122	145.600000
366.649567	145.740000
366.743103	145.900000
366.836609	145.760000
366.930115	146.180000
367.023590	146.100000
367.117096	146.120000
367.210602	146.020000
367.304108	146.840000
367.397614	147.140000
367.491119	147.160000
367.584595	147.560000
367.678101	147.660000
367.771606	147.080000
367.865112	146.540000
367.958649	145.560000
368.052124	145.140000
368.145660	144.780000
368.239136	145.740000
368.332672	145.820000
368.426147	146.580000
368.519684	146.520000
368.613159	146.880000
368.706696	146.180000
368.800171	145.680000
368.893707	145.620000
368.987183	145.760000
369.080719	145.920000
369.174225	145.700000
369.267731	146.540000
369.361237	146.420000
369.454742	146.480000
369.548248	146.680000
369.641754	146.320000
369.735260	145.800000
369.828766	145.240000
369.922272	145.640000
370.015808	145.200000
370.109314	145.360000
370.202820	145.360000
370.296356	146.440000
370.389832	145.960000
370.483368	145.800000
370.576874	145.920000
370.670410	146.260000
370.763885	145.300000
370.857422	145.340000
370.950928	145.400000
371.044464	146.080000
371.137939	146.120000
371.231476	146.620000
371.324982	147.060000
371.418518	147.100000
371.512024	146.720000
371.605560	146.220000
371.699066	146.380000
371.792572	145.860000
371.886108	146.220000
371.979614	146.080000
372.073120	146.920000
372.166656	146.660000
372.260162	146.980000
372.353668	146.740000
372.447205	146.380000
372.540710	146.020000
372.634277	145.940000
372.727753	145.780000
372.821320	145.780000
372.914795	146.340000
373.008362	146.000000
373.101837	146.000000
373.195404	145.900000
373.288879	145.720000
373.382446	146.060000
373.475922	146.100000
373.569489	146.700000
373.662964	147.180000
373.756531	147.120000
373.850037	147.080000
373.943573	147.140000
374.037109	146.320000
374.130615	146.360000
374.224152	146.680000
374.317657	146.180000
374.411194	146.720000
374.504730	146.920000
374.598236	146.360000
374.691772	146.080000
374.785309	146.320000
374.878815	145.380000
374.972351	145.820000
375.065887	145.820000
375.159454	146.540000
375.252930	146.060000
375.346497	146.640000
375.440002	146.860000
375.533569	146.900000
375.627045	146.020000
375.720612	146.340000
375.814117	146.520000
375.907684	146.100000
376.001160	146.120000
376.094727	145.780000
376.188232	146.340000
376.281799	146.400000
376.375336	146.420000
376.468872	146.960000
376.562408	147.200000
376.655914	146.400000
376.749451	146.100000
376.842987	146.280000
376.936523	145.800000
377.030060	146.180000
377.123596	146.820000
377.217133	146.400000
377.310669	146.060000
377.404205	146.360000
377.497772	146.680000
377.591278	146.180000
377.684845	146.840000
377.778351	147.140000
377.871918	146.780000
377.965424	146.300000
378.058990	146.300000
378.152496	146.080000
378.246063	146.200000
378.339569	146.780000
378.433136	146.860000
378.526642	146.940000
378.620209	147.120000
378.713745	146.920000
378.807312	147.020000
378.900848	146.780000
378.994385	147.180000
379.087921	146.700000
379.181458	146.800000
379.274994	145.780000
379.368530	145.840000
379.462097	145.980000
379.555634	146.400000
379.649170	145.760000
379.742706	146.100000
379.836273	146.280000
379.929810	145.440000
380.023376	144.980000
380.116882	145.040000
380.210449	145.200000
380.303986	144.880000
380.397552	144.760000
380.491058	145.040000
380.584656	145.140000
380.678162	145.080000
380.771729	145.520000
380.865265	146.380000
380.958832	146.540000
381.052368	147.120000
381.145935	147.560000
381.239471	147.580000
381.333008	147.380000
381.426575	147.300000
381.520111	147.320000
381.613647	147.260000
381.707214	146.900000
381.800751	146.200000
381.894318	146.160000
381.987854	145.420000
382.081421	145.140000
382.174988	145.180000
382.268524	145.120000
382.362091	145.020000
382.455627	146.060000
382.549194	145.780000
382.642731	145.040000
382.736298	145.400000
382.829834	145.120000
382.923401	145.320000
383.016937	145.720000
383.110504	146.740000
383.204041	146.960000
383.297607	147.300000
383.391174	146.200000
383.484741	146.800000
383.578278	146.420000
383.671844	146.020000
383.765411	145.340000
383.858948	146.060000
383.952515	145.460000
384.046051	145.780000
384.139618	146.340000
384.233185	146.800000
384.326721	146.340000
384.420288	146.640000
384.513855	146.760000
384.607422	146.800000
384.700989	147.180000
384.794525	147.020000
384.888123	146.960000
384.981659	146.920000
385.075226	146.220000
385.168762	145.780000
385.262360	146.240000
385.355896	145.080000
385.449463	144.800000
385.542999	145.400000
385.636597	146.020000
385.730164	146.140000
385.823730	146.580000
385.917267	146.240000
386.010834	146.220000
386.104401	145.880000
386.197968	145.880000
386.291534	146.520000
386.385101	146.860000
386.478668	147.100000
386.572235	147.220000
386.665802	146.660000
386.759338	145.960000
386.852905	145.720000
386.946472	145.380000
387.040070	145.260000
387.133606	145.380000
387.227203	145.460000
387.320740	145.820000
387.414337	145.860000
387.507874	146.040000
387.601471	146.200000
387.695007	146.120000
387.788605	146.040000
387.882141	146.020000
387.975739	145.860000
388.069275	145.280000
388.162872	145.580000
388.256439	145.720000
388.350037	145.500000
388.443604	145.380000
388.537170	145.900000
388.630737	146.500000
388.724304	146.340000
388.817871	146.220000
388.911438	146.400000
389.005005	146.480000
389.098602	146.420000
389.192169	146.240000
389.285736	146.580000
389.379333	146.440000
389.472870	146.060000
389.566467	145.580000
389.660034	145.760000
389.753632	145.360000
389.847168	145.700000
389.940765	146.060000
390.034332	146.300000
390.127930	146.080000
390.221466	146.260000
390.315063	145.840000
390.408630	145.120000
390.502228	144.540000
390.595795	144.740000
390.689362	144.920000
390.782959	145.400000
390.876526	146.060000
390.970093	145.940000
391.063690	146.240000
391.157257	146.300000
391.250824	146.500000
391.344421	146.120000
391.437988	146.760000
391.531555	146.720000
391.625153	146.480000
391.718750	146.280000
391.812317	146.460000
391.905914	145.780000
391.999481	145.780000
392.093079	145.820000
392.186615	146.080000
392.280243	146.020000
392.373779	146.460000
392.467407	146.800000
392.560944	146.960000
392.654572	146.440000
392.748108	146.320000
392.841736	146.480000
392.935303	146.000000
393.028900	145.860000
393.122467	145.880000
393.216064	145.900000
393.309631	145.460000
393.403229	145.020000
393.496796	144.900000
393.590393	144.300000
393.683990	144.640000
393.777557	145.040000
393.871155	145.480000
393.964722	145.920000
394.058350	146.240000
394.151917	146.220000
394.245514	146.140000
394.339081	146.360000
394.432678	146.540000
394.526245	147.060000
394.619873	146.380000
394.713409	146.060000
394.807037	145.860000
394.900604	145.560000
394.994202	145.260000
395.087769	145.800000
395.181396	145.820000
395.274994	146.580000
395.368561	146.020000
395.462158	146.420000
395.555756	146.280000
395.649353	146.820000
395.742920	145.960000
395.836517	146.820000
395.930115	145.860000
396.023712	145.880000
396.117279	146.020000
396.210876	145.960000
396.304474	145.660000
396.398071	146.140000
396.491669	146.560000
396.585266	146.180000
396.678833	146.160000
396.772461	146.420000
396.866028	146.300000
396.959656	146.340000
397.053223	146.840000
397.146851	146.880000
397.240417	147.180000
397.334015	148.420000
397.427582	148.900000
397.521210	150.100000
397.614807	152.280000
397.708405	154.320000
397.802002	156.640000
397.895599	160.600000
397.989197	164.480000
398.082794	169.480000
398.176392	176.000000
398.269989	183.180000
398.363586	191.800000
398.457184	202.780000
398.550781	215.600000
398.644379	229.060000
398.737976	245.480000
398.831573	262.360000
398.925201	279.520000
399.018768	297.380000
399.112396	315.880000
399.205963	333.420000
399.299591	351.400000
399.393158	368.900000
399.486786	386.520000
399.580353	403.200000
399.673981	419.300000
399.767578	436.020000
399.861206	452.520000
399.954773	466.340000
400.048401	476.820000
400.141998	483.520000
400.235596	484.300000
400.329193	479.380000
400.422791	469.140000
400.516418	455.960000
400.610016	441.680000
400.703613	426.340000
400.797211	407.740000
400.890808	389.740000
400.984436	372.480000
401.078033	352.960000
401.171631	332.640000
401.265259	314.020000
401.358826	295.920000
401.452484	276.960000
401.546051	259.560000
401.639679	241.920000
401.733246	226.440000
401.826904	211.060000
401.920471	197.420000
402.014099	185.760000
402.107697	176.920000
402.201324	169.600000
402.294891	164.540000
402.388550	160.840000
402.482147	157.700000
402.575745	154.660000
402.669373	152.100000
402.762970	150.060000
402.856567	148.880000
402.950195	148.060000
403.043793	147.780000
403.137390	148.280000
403.231018	147.520000
403.324615	147.580000
403.418243	146.900000
403.511841	146.940000
403.605469	146.360000
403.699066	146.780000
403.792694	146.880000
403.886292	147.240000
403.979919	146.980000
404.073517	146.920000
404.167145	147.140000
404.260712	146.960000
404.354370	146.680000
404.447937	147.180000
404.541595	147.120000
404.635162	147.460000
404.728821	147.700000
404.822418	147.600000
404.916046	147.020000
405.009644	147.120000
405.103271	146.900000
405.196899	146.320000
405.290497	146.480000
405.384125	147.020000
405.477722	146.600000
405.571350	146.300000
405.664948	146.620000
405.758575	146.260000
405.852203	145.520000
405.945801	145.880000
406.039429	145.780000
406.133057	145.380000
406.226654	145.360000
406.320312	145.840000
406.413879	145.840000
406.507538	146.280000
406.601135	146.060000
406.694763	146.640000
406.788361	146.280000
406.882019	145.840000
406.975586	145.820000
407.069244	146.540000
407.162872	146.560000
407.256470	146.500000
407.350098	146.600000
407.443726	146.080000
407.537323	145.320000
407.630951	145.380000
407.724579	145.360000
407.818207	145.800000
407.911804	145.800000
408.005432	146.140000
408.099060	146.240000
408.192688	146.300000
408.286285	145.920000
408.379913	145.860000
408.473572	145.900000
408.567169	145.160000
408.660828	145.120000
408.754395	145.100000
408.848053	145.100000
408.941650	145.300000
409.035309	145.280000
409.128906	145.660000
409.222565	145.820000
409.316132	146.280000
409.409790	145.960000
409.503387	145.940000
409.597046	145.720000
409.690674	145.960000
409.784302	145.520000
409.877930	145.320000
409.971558	145.700000
410.065186	145.820000
410.158783	145.440000
410.252411	145.680000
410.346039	146.020000
410.439667	145.880000
410.533295	146.220000
410.626923	146.700000
410.720551	146.360000
410.814209	146.940000
410.907806	147.420000
411.001465	146.540000
411.095062	146.480000
411.188721	146.640000
411.282318	146.160000
411.375977	145.580000
411.469574	146.000000
411.563232	145.560000
411.656830	145.620000
411.750488	145.240000
411.844086	144.940000
411.937744	145.220000
412.031372	145.160000
412.125000	145.320000
412.218628	145.560000
412.312256	146.640000
412.405884	146.980000
412.499512	147.060000
412.593170	147.040000
412.686798	147.340000
412.780426	146.540000
412.874054	146.280000
412.967682	146.200000
413.061310	146.820000
413.154968	146.700000
413.248566	146.960000
413.342224	146.560000
413.435852	146.980000
413.529510	146.040000
413.623108	145.740000
413.716766	145.780000
413.810364	146.240000
413.904022	145.880000
413.997650	145.780000
414.091309	146.660000
414.184906	146.560000
414.278564	146.000000
414.372192	146.400000
414.465851	146.620000
414.559479	145.920000
414.653107	146.580000
414.746735	146.800000
414.840393	146.580000
414.934021	146.760000
415.027649	146.280000
415.121277	146.100000
415.214935	146.500000
415.308563	146.740000
415.402191	146.200000
415.495850	146.440000
415.589478	146.020000
415.683136	145.620000
415.776733	145.520000
415.870422	146.380000
415.964020	146.060000
416.057678	146.520000
416.151306	146.600000
416.244965	146.500000
416.338562	146.260000
416.432251	147.000000
416.525848	147.040000
416.619507	147.220000
416.713165	147.780000
416.806793	147.460000
416.900421	147.320000
416.994080	146.640000
417.087708	146.680000
417.181366	146.020000
417.274994	146.300000
417.368622	146.520000
417.462280	147.200000
417.555908	146.880000
417.649567	146.800000
417.743195	146.860000
417.836853	146.920000
417.930481	146.720000
418.024170	146.880000
418.117767	147.320000
418.211426	147.420000
418.305054	147.440000
418.398712	147.040000
418.492340	146.940000
418.585999	147.160000
418.679626	147.120000
418.773285	147.280000
418.866913	147.840000
418.960571	147.980000
419.054230	147.820000
419.147858	147.960000
419.241516	147.620000
419.335144	146.820000
419.428802	146.640000
419.522461	146.260000
419.616089	145.480000
419.709747	145.580000
419.803375	146.060000
419.897034	145.800000
419.990662	145.760000
420.084320	146.440000
420.177979	146.280000
420.271606	146.100000
420.365295	146.660000
420.458893	147.020000
420.552582	147.160000
420.646210	147.540000
420.739868	147.220000
420.833496	146.760000
420.927155	146.240000
421.020782	145.860000
421.114471	145.040000
421.208069	145.480000
421.301758	145.700000
421.395386	145.940000
421.489044	145.840000
421.582703	146.260000
421.676361	146.780000
421.769989	146.560000
421.863647	146.780000
421.957306	147.140000
422.050934	147.440000
422.144592	146.980000
422.238251	146.900000
422.331909	146.440000
422.425537	146.280000
422.519196	146.220000
422.612854	145.960000
422.706543	145.540000
422.800140	145.920000
422.893829	145.580000
422.987457	145.000000
423.081146	145.040000
423.174744	146.120000
423.268433	145.720000
423.362061	145.640000
423.455750	145.700000
423.549347	145.520000
423.643036	144.740000
423.736664	145.280000
423.830353	145.300000
423.924011	145.600000
424.017639	145.520000
424.111298	145.840000
424.204956	145.560000
424.298615	145.680000
424.392273	145.480000
424.485931	145.840000
424.579559	146.020000
424.673218	145.940000
424.766876	146.300000
424.860535	146.040000
424.954193	145.700000
425.047882	146.000000
425.141510	146.100000
425.235199	145.720000
425.328796	145.680000
425.422485	145.720000
425.516113	144.800000
425.609802	144.660000
425.703430	145.000000
425.797119	145.080000
425.890747	145.200000
425.984436	145.480000
426.078064	145.680000
426.171753	145.400000
426.265411	145.040000
426.359070	145.280000
426.452728	145.140000
426.546356	145.220000
426.640015	144.920000
426.733673	145.300000
426.827332	144.800000
426.920990	145.420000
427.014648	144.720000
427.108307	145.120000
427.201965	145.420000
427.295624	145.780000
427.389282	145.080000
427.482941	145.440000
427.576630	145.580000
427.670258	145.120000
427.763947	145.000000
427.857574	145.500000
427.951263	145.480000
428.044922	145.040000
428.138611	145.260000
428.232239	145.620000
428.325928	145.740000
428.419556	146.240000
428.513245	146.460000
428.606903	146.520000
428.700562	146.100000
428.794220	145.340000
428.887878	144.540000
428.981537	144.700000
429.075195	144.880000
429.168854	145.280000
429.262512	145.820000
429.356201	146.160000
429.449860	145.980000
429.543518	145.920000
429.637177	145.940000
429.730835	145.640000
429.824493	145.760000
429.918182	145.920000
430.011810	145.200000
430.105530	144.340000
430.199158	144.620000
430.292847	144.460000
430.386475	144.300000
430.480164	144.480000
430.573792	144.560000
430.667511	144.620000
430.761139	144.820000
430.854828	145.340000
430.948456	145.940000
431.042145	146.840000
431.135834	146.400000
431.229492	146.540000
431.323151	146.580000
431.416809	146.120000
431.510468	145.840000
431.604156	145.940000
431.697815	145.660000
431.791473	144.760000
431.885132	144.500000
431.978821	144.840000
432.072479	145.260000
432.166138	145.700000
432.259827	145.840000
432.353485	146.660000
432.447174	146.500000
432.540802	146.260000
432.634491	146.160000
432.728149	146.660000
432.821838	146.840000
432.915466	146.560000
433.009186	146.700000
433.102814	145.980000
433.196503	145.640000
433.290131	145.440000
433.383850	145.760000
433.477509	145.540000
433.571167	146.720000
433.664856	147.040000
433.758514	147.100000
433.852173	146.920000
433.945862	146.900000
434.039520	146.380000
434.133179	145.700000
434.226868	145.520000
434.320526	144.780000
434.414185	145.620000
434.507874	145.000000
434.601562	145.640000
434.695221	145.300000
434.788910	145.940000
434.882538	145.620000
434.976257	145.900000
435.069885	145.920000
435.163574	146.160000
435.257233	145.840000
435.350922	145.420000
435.444580	145.040000
435.538269	144.780000
435.631897	144.960000
435.725616	145.860000
435.819275	146.540000
435.912964	147.220000
436.006622	147.640000
436.100311	147.720000
436.193970	146.760000
436.287628	146.360000
436.381317	146.000000
436.474976	145.740000
436.568665	145.280000
436.662323	145.700000
436.756012	145.460000
436.849670	145.240000
436.943390	145.100000
437.037018	145.040000
437.130737	144.760000
437.224365	144.580000
437.318085	144.920000
437.411713	145.160000
437.505432	145.480000
437.599060	145.940000
437.692780	147.020000
437.786407	146.980000
437.880127	146.660000
437.973755	146.380000
438.067474	145.920000
438.161133	145.160000
438.254822	145.740000
438.348480	145.900000
438.442169	146.540000
438.535828	146.980000
438.629517	146.700000
438.723175	145.980000
438.816864	146.160000
438.910553	145.820000
439.004211	145.400000
439.097900	145.180000
439.191559	145.380000
439.285248	145.140000
439.378906	145.340000
439.472626	145.400000
439.566284	145.420000
439.659973	145.580000
439.753632	145.600000
439.847321	146.000000
439.940979	146.100000
440.034698	146.540000
440.128326	145.900000
440.222046	145.780000
440.315674	144.880000
440.409393	145.140000
440.503082	144.860000
440.596741	145.380000
440.690430	145.440000
440.784088	145.380000
440.877777	144.680000
440.971466	144.940000
441.065125	144.500000
441.158813	144.520000
441.252502	144.520000
441.346161	145.200000
441.439850	145.700000
441.533539	145.880000
441.627197	145.980000
441.720886	146.120000
441.814606	146.200000
441.908234	146.060000
442.001953	146.160000
442.095612	146.080000
442.189301	146.560000
442.282959	146.580000
442.376678	145.720000
442.470306	146.260000
442.564026	146.140000
442.657684	145.720000
442.751404	145.380000
442.845032	146.780000
442.938751	146.360000
443.032440	146.560000
443.126099	146.440000
443.219788	146.740000
443.313477	146.160000
443.407166	146.400000
443.500824	146.320000
443.594513	146.500000
443.688202	146.200000
443.781891	145.540000
443.875549	145.180000
443.969238	145.200000
444.062927	145.420000
444.156647	145.480000
444.250275	145.880000
444.343994	146.280000
444.437653	146.440000
444.531372	146.200000
444.625031	145.920000
444.718719	145.720000
444.812378	145.380000
444.906097	145.280000
444.999756	144.880000
445.093445	145.320000
445.187103	145.400000
445.280823	145.960000
445.374512	145.540000
445.468201	145.720000
445.561859	145.640000
445.655548	145.640000
445.749237	145.120000
445.842926	145.520000
445.936615	146.340000
446.030304	146.100000
446.123962	146.560000
446.217651	146.260000
446.311340	146.000000
446.405029	145.000000
446.498749	144.800000
446.592407	144.280000
446.686096	144.460000
446.779755	144.880000
446.873474	145.560000
446.967133	145.960000
447.060852	145.760000
447.154510	145.820000
447.248230	145.500000
447.341858	145.620000
447.435577	145.340000
447.529236	145.520000
447.622955	145.300000
447.716644	145.260000
447.810333	144.780000
447.904022	145.260000
447.997711	145.040000
448.091400	145.720000
448.185059	146.260000
448.278748	146.600000
448.372437	146.060000
448.466125	146.460000
448.559814	146.340000
448.653503	146.540000
448.747192	146.760000
448.840912	147.360000
448.934570	147.400000
449.028290	147.740000
449.121948	146.880000
449.215637	146.340000
449.309296	146.060000
449.403015	146.020000
449.496674	145.960000
449.590393	146.320000
449.684052	146.280000
449.777771	146.860000
449.871429	146.320000
449.965149	145.960000
450.058838	146.160000
450.152527	146.680000
450.246216	146.040000
450.339905	146.540000
450.433594	146.280000
450.527283	146.640000
450.620972	146.000000
450.714661	146.180000
450.808350	146.000000
450.902039	146.380000
450.995728	145.820000
451.089417	145.600000
451.183105	145.660000
451.276794	146.520000
451.370514	145.660000
451.464172	145.040000
451.557892	145.400000
451.651550	145.280000
451.745270	144.420000
451.838928	144.520000
451.932648	145.280000
452.026306	145.660000
452.120026	145.300000
452.213684	145.780000
452.307404	146.120000
452.401062	145.940000
452.494781	145.740000
452.588470	145.940000
452.682159	145.380000
452.775848	145.400000
452.869537	145.040000
452.963226	145.040000
453.056915	144.780000
453.150604	144.980000
453.244293	145.240000
453.337982	146.060000
453.431671	146.200000
453.525360	147.040000
453.619049	147.020000
453.712769	147.060000
453.806427	146.420000
453.900146	146.000000
453.993805	145.440000
454.087555	145.940000
454.181213	145.600000
454.274933	145.760000
454.368591	146.040000
454.462311	146.080000
454.555969	145.700000
454.649689	146.940000
454.743347	146.520000
454.837067	146.860000
454.930756	147.340000
455.024445	147.480000
455.118134	146.460000
455.211853	146.860000
455.305542	146.360000
455.399231	146.060000
455.492920	146.000000
455.586609	145.940000
455.680298	146.100000
455.773987	145.760000
455.867676	145.720000
455.961365	145.800000
456.055084	145.920000
456.148773	145.500000
456.242493	145.900000
456.336151	145.660000
456.429871	145.620000
456.523529	145.940000
456.617249	146.080000
456.710907	146.560000
456.804626	146.920000
456.898315	146.340000
456.992035	145.980000
457.085693	145.760000
457.179413	145.160000
457.273102	145.740000
457.366791	146.160000
457.460480	146.180000
457.554199	146.760000
457.647888	146.780000
457.741577	145.960000
457.835266	145.980000
457.928955	146.460000
458.022644	146.460000
458.116364	147.000000
458.210052	147.160000
458.303741	147.340000
458.397461	146.640000
458.491119	146.120000
458.584839	145.780000
458.678528	145.280000
458.772247	144.960000
458.865906	145.000000
458.959625	145.860000
459.053284	146.100000
459.147003	146.120000
459.240692	146.520000
459.334412	146.700000
459.428070	146.020000
459.521790	145.640000
459.615479	145.900000
459.709198	146.240000
459.802887	145.660000
459.896576	145.640000
459.990265	145.880000
460.083954	146.100000
460.177673	145.320000
460.271362	145.800000
460.365051	145.800000
460.458740	145.500000
460.552429	145.000000
460.646149	145.080000
460.739838	144.700000
460.833527	144.940000
460.927246	144.620000
461.020905	144.760000
461.114655	145.060000
461.208313	145.500000
461.302032	144.960000
461.395691	145.500000
461.489441	145.540000
461.583099	145.420000
461.676819	145.300000
461.770477	146.000000
461.864197	145.400000
461.957916	145.560000
462.051605	144.840000
462.145294	145.540000
462.238983	144.820000
462.332703	145.780000
462.426392	146.160000
462.520081	146.480000
462.613770	145.760000
462.707489	146.080000
462.801178	145.500000
462.894867	145.120000
462.988556	145.300000
463.082275	145.500000
463.175964	145.200000
463.269684	145.700000
463.363342	145.500000
463.457092	144.880000
463.550751	145.240000
463.644470	145.560000
463.738129	145.180000
463.831879	145.200000
463.925537	146.160000
464.019257	146.000000
464.112946	145.800000
464.206665	145.560000
464.300323	145.560000
464.394043	145.040000
464.487762	145.000000
464.581451	145.360000
464.675140	145.440000
464.768829	145.640000
464.862549	146.060000
464.956238	146.020000
465.049927	146.100000
465.143646	146.120000
465.237335	145.980000
465.331024	146.260000
465.424713	145.800000
465.518433	145.920000
465.612152	145.820000
465.705811	146.120000
465.799561	145.460000
465.893219	145.460000
465.986938	145.060000
466.080597	144.940000
466.174347	144.940000
466.268005	145.080000
466.361725	145.240000
466.455414	145.360000
466.549133	145.300000
466.642792	145.460000
466.736542	145.320000
466.830231	145.580000
466.923920	145.500000
467.017609	145.860000
467.111328	145.240000
467.205017	145.420000
467.298706	145.520000
467.392426	145.560000
467.486115	145.660000
467.579803	145.720000
467.673523	146.020000
467.767212	145.880000
467.860901	146.160000
467.954651	146.400000
468.048309	146.760000
468.142029	146.500000
468.235718	146.380000
468.329437	145.760000
468.423096	145.340000
468.516846	145.140000
468.610504	144.980000
468.704224	144.640000
468.797913	144.780000
468.891632	145.060000
468.985291	144.980000
469.079010	144.960000
469.172729	144.700000
469.266418	145.340000
469.360107	145.180000
469.453827	145.080000
469.547516	145.340000
469.641205	145.980000
469.734924	145.840000
469.828613	146.320000
469.922302	146.660000
470.016022	146.760000
470.109711	146.700000
470.203430	146.240000
470.297150	145.180000
470.390808	145.440000
470.484558	145.000000
470.578217	145.260000
470.671936	145.880000
470.765625	146.760000
470.859344	146.140000
470.953003	146.400000
471.046753	145.960000
471.140411	145.260000
471.234131	145.280000
471.327820	145.800000
471.421539	145.720000
471.515228	145.400000
471.608948	145.640000
471.702637	145.040000
471.796326	144.740000
471.890045	145.080000
471.983734	145.420000
472.077423	145.360000
472.171143	145.720000
472.264832	145.620000
472.358521	145.200000
472.452240	145.060000
472.545929	145.500000
472.639648	145.820000
472.733337	146.200000
472.827057	146.600000
472.920746	146.680000
473.014465	146.780000
473.108124	146.560000
473.201874	146.440000
473.295532	146.140000
473.389252	146.700000
473.482941	146.520000
473.576660	146.020000
473.670319	146.060000
473.764069	146.140000
473.857727	146.040000
473.951477	146.220000
474.045166	147.280000
474.138855	146.900000
474.232574	147.040000
474.326263	147.200000
474.419952	147.420000
474.513672	147.000000
474.607361	146.900000
474.701050	147.040000
474.794769	147.100000
474.888458	146.840000
474.982178	146.560000
475.075867	146.940000
475.169586	146.720000
475.263275	146.380000
475.356995	146.520000
475.450653	146.640000
475.544403	146.400000
475.638062	147.180000
475.731812	146.720000
475.825470	146.100000
475.919189	145.880000
476.012878	146.340000
476.106598	145.260000
476.200256	146.140000
476.294006	146.180000
476.387695	146.620000
476.481384	146.480000
476.575104	146.940000
476.668793	146.080000
476.762512	146.000000
476.856201	146.100000
476.949890	145.660000
477.043610	145.280000
477.137299	145.620000
477.230988	145.860000
477.324707	145.380000
477.418396	146.160000
477.512146	146.020000
477.605804	145.760000
477.699524	145.780000
477.793213	145.660000
477.886932	145.100000
477.980591	145.060000
478.074341	144.880000
478.167999	144.260000
478.261749	144.380000
478.355408	144.360000
478.449127	145.060000
478.542816	146.200000
478.636536	146.900000
478.730225	147.080000
478.823944	147.600000
478.917633	147.400000
479.011322	147.180000
479.105042	147.340000
479.198730	147.400000
479.292450	147.000000
479.386139	147.280000
479.479828	146.940000
479.573547	146.980000
479.667267	146.900000
479.760925	146.900000
479.854675	146.740000
479.948334	146.900000
480.042084	146.340000
480.135742	146.500000
480.229462	146.040000
480.323151	145.700000
480.416870	145.140000
480.510529	145.300000
480.604279	144.840000
480.697937	145.340000
480.791656	145.440000
480.885345	145.240000
480.979065	145.240000
481.072754	145.920000
481.166473	146.260000
481.260132	146.260000
481.353882	146.600000
481.447540	146.380000
481.541260	146.020000
481.635010	145.360000
481.728668	145.000000
481.822388	144.980000
481.916077	145.240000
482.009796	145.080000
482.103485	145.480000
482.197205	145.880000
482.290863	146.140000
482.384613	146.140000
482.478271	145.780000
482.571991	145.660000
482.665680	145.520000
482.759399	146.100000
482.853058	146.280000
482.946808	146.740000
483.040466	146.780000
483.134216	146.560000
483.227875	145.800000
483.321594	146.180000
483.415283	146.200000
483.509003	146.000000
483.602661	145.720000
483.696411	145.900000
483.790070	145.440000
483.883789	145.240000
483.977478	145.620000
484.071198	146.000000
484.164917	145.960000
484.258606	145.800000
484.352325	146.200000
484.445984	146.160000
484.539734	146.080000
484.633392	145.440000
484.727142	145.900000
484.820801	145.480000
484.914520	145.380000
485.008209	145.880000
485.101929	146.500000
485.195587	146.120000
485.289337	146.260000
485.382996	146.200000
485.476715	145.880000
485.570404	146.240000
485.664124	146.300000
485.757782	146.720000
485.851532	146.460000
485.945190	146.380000
486.038910	146.340000
486.132599	146.580000
486.226318	145.880000
486.319977	145.820000
486.413727	146.340000
486.507446	145.940000
486.601105	145.320000
486.694855	145.220000
486.788513	145.200000
486.882233	144.920000
486.975922	144.900000
487.069641	144.760000
487.163300	144.820000
487.257050	145.960000
487.350708	145.540000
487.444427	145.700000
487.538116	145.980000
487.631836	145.820000
487.725494	145.200000
487.819214	145.260000
487.912903	144.880000
488.006622	145.320000
488.100281	145.700000
488.194031	145.400000
488.287689	145.880000
488.381409	146.780000
488.475098	146.140000
488.568817	146.260000
488.662476	146.000000
488.756226	145.540000
488.849945	144.380000
488.943604	144.960000
489.037354	145.100000
489.131012	145.340000
489.224731	145.240000
489.318390	145.480000
489.412140	145.180000
489.505798	145.080000
489.599518	144.940000
489.693207	145.320000
489.786926	145.220000
489.880585	145.280000
489.974335	145.520000
490.067993	146.460000
490.161713	146.300000
490.255371	147.060000
490.349121	147.140000
490.442780	146.720000
490.536499	145.760000
490.630188	145.980000
490.723907	145.220000
490.817566	145.340000
490.911285	145.480000
491.004974	145.600000
491.098694	145.020000
491.192413	145.980000
491.286102	145.600000
491.379822	145.600000
491.473480	145.780000
491.567200	146.100000
491.660889	145.380000
491.754608	145.740000
491.848267	145.580000
491.941986	145.420000
492.035675	145.660000
492.129395	145.840000
492.223053	145.520000
492.316772	145.860000
492.410461	146.020000
492.504181	145.780000
492.597839	145.660000
492.691559	145.660000
492.785248	145.680000
492.878967	145.620000
492.972626	145.540000
493.066345	145.660000
493.160034	145.340000
493.253754	145.040000
493.347412	144.740000
493.441132	144.860000
493.534882	145.200000
493.628540	145.840000
493.722260	146.280000
493.815918	146.700000
493.909668	146.940000
494.003326	147.280000
494.097046	146.920000
494.190704	146.640000
494.284454	146.680000
494.378113	146.660000
494.471832	146.120000
494.565491	145.900000
494.659210	145.700000
494.752899	145.420000
494.846619	144.960000
494.940277	144.880000
495.033997	145.100000
495.127686	145.040000
495.221405	144.940000
495.315063	145.500000
495.408783	145.560000
495.502441	146.020000
495.596191	146.240000
495.689850	146.040000
495.783569	145.960000
495.877228	146.000000
495.970947	145.640000
496.064697	145.700000
496.158356	146.780000
496.252075	146.660000
496.345734	146.340000
496.439453	147.180000
496.533142	147.240000
496.626862	147.020000
496.720520	147.040000
496.814240	147.300000
496.907898	146.560000
497.001617	146.520000
497.095306	145.760000
497.189026	145.720000
497.282684	145.940000
497.376404	146.420000
497.470062	146.120000
497.563782	146.480000
497.657471	146.220000
497.751190	145.880000
497.844849	145.060000
497.938568	145.440000
498.032227	145.140000
498.125946	145.440000
498.219635	145.080000
498.313354	145.560000
498.407074	144.980000
498.500732	145.460000
498.594452	145.620000
498.688110	145.880000
498.781830	145.360000
498.875519	145.500000
498.969238	145.280000
499.062897	145.220000
499.156616	145.560000
499.250275	146.020000
499.343994	146.120000
499.437653	146.000000
499.531372	146.000000
499.625061	146.740000
499.718781	146.660000
499.812439	147.260000
499.906158	147.480000
499.999817	147.520000
500.093536	146.620000
500.187195	146.760000
500.280914	146.280000
500.374573	146.220000
500.468323	145.640000
500.561981	145.800000
500.655701	145.320000
500.749420	145.460000
500.843079	145.640000
500.936798	146.160000
501.030457	146.540000
501.124176	146.960000
501.217834	147.020000
501.311554	146.880000
501.405212	146.420000
501.498962	145.720000
501.592621	145.840000
501.686340	145.900000
501.779999	146.180000
501.873718	146.520000
501.967377	146.860000
502.061096	146.940000
502.154755	146.460000
502.248474	146.560000
502.342133	147.040000
502.435852	146.960000
502.529510	147.320000
502.623230	147.980000
502.716888	147.220000
502.810608	146.740000
502.904266	146.940000
502.997986	146.260000
503.091705	145.820000
503.185364	145.800000
503.279083	146.320000
503.372772	145.800000
503.466492	145.860000
503.560150	145.860000
503.653870	146.200000
503.747528	145.560000
503.841248	145.880000
503.934906	145.920000
504.028625	145.520000
504.122284	145.860000
504.216003	146.480000
504.309662	146.060000
504.403381	146.260000
504.497040	146.640000
504.590759	146.140000
504.684418	146.000000
504.778137	146.680000
504.871796	146.840000
504.965515	146.940000
505.059174	147.340000
505.152893	146.920000
505.246521	146.340000
505.340240	145.800000
505.433899	145.840000
505.527618	145.820000
505.621338	145.940000
505.714996	145.860000
505.808716	145.940000
505.902374	146.460000
505.996094	146.680000
506.089752	146.680000
506.183472	146.880000
506.277130	147.200000
506.370850	146.700000
506.464508	146.220000
506.558228	146.080000
506.651886	146.000000
506.745605	145.900000
506.839264	146.040000
506.932983	146.160000
507.026611	146.000000
507.120331	146.260000
507.213989	145.700000
507.307709	145.400000
507.401367	145.880000
507.495087	146.840000
507.588745	146.420000
507.682465	147.540000
507.776123	147.760000
507.869843	147.420000
507.963531	147.100000
508.057190	148.040000
508.150909	146.880000
508.244568	146.900000
508.338287	146.440000
508.431946	146.040000
508.525665	145.400000
508.619324	145.740000
508.713013	145.560000
508.806671	146.040000
508.900391	146.680000
508.994049	146.760000
509.087769	146.660000
509.181427	146.800000
509.275146	146.380000
509.368774	145.800000
509.462494	145.800000
509.556152	145.960000
509.649872	146.460000
509.743530	147.080000
509.837250	147.000000
509.930878	147.080000
510.024597	147.040000
510.118256	146.460000
510.211975	145.940000
510.305695	146.100000
510.399353	146.260000
510.493042	146.300000
510.586700	146.720000
510.680420	147.220000
510.774078	147.020000
510.867798	147.040000
510.961426	146.620000
511.055145	146.080000
511.148804	145.860000
511.242523	146.120000
511.336151	145.840000
511.429871	146.400000
511.523529	146.640000
511.617249	146.380000
511.710876	146.400000
511.804596	146.180000
511.898254	146.040000
511.991974	146.220000
512.085632	146.120000
512.179321	146.060000
512.272949	146.560000
512.366699	146.780000
512.460327	146.300000
512.554077	147.140000
512.647766	147.040000
512.741394	146.740000
512.835144	147.060000
512.928772	146.960000
513.022461	146.620000
513.116150	146.620000
513.209839	147.000000
513.303467	146.400000
513.397217	146.400000
513.490845	146.160000
513.584595	145.960000
513.678223	145.380000
513.771912	144.820000
513.865601	145.100000
513.959290	144.860000
514.052917	145.000000
514.146667	145.720000
514.240295	146.380000
514.333984	146.580000
514.427673	146.560000
514.521362	146.720000
514.614990	146.140000
514.708740	146.340000
514.802368	146.320000
514.896057	146.460000
514.989746	147.200000
515.083435	147.200000
515.177124	147.000000
515.270752	146.600000
515.364502	146.760000
515.458130	146.480000
515.551819	146.240000
515.645508	146.200000
515.739197	146.340000
515.832825	146.200000
515.926575	145.800000
516.020203	146.300000
516.113892	146.760000
516.207520	146.740000
516.301270	146.560000
516.394897	146.600000
516.488586	146.920000
516.582275	146.740000
516.675964	146.160000
516.769592	146.280000
516.863281	146.640000
516.956970	146.860000
517.050659	146.460000
517.144287	146.880000
517.238037	147.040000
517.331665	146.420000
517.425354	145.460000
517.519043	145.580000
517.612732	145.880000
517.706421	145.440000
517.800049	145.500000
517.893738	145.420000
517.987427	145.240000
518.081116	145.040000
518.174744	145.260000
518.268433	145.380000
518.362122	146.260000
518.455811	146.460000
518.549438	147.080000
518.643127	147.820000
518.736816	147.560000
518.830505	146.720000
518.924133	146.580000
519.017822	146.260000
519.111511	145.440000
519.205200	146.060000
519.298828	146.220000
519.392517	146.060000
519.486206	146.540000
519.579895	146.900000
519.673523	146.500000
519.767212	146.660000
519.860901	147.260000
519.954590	146.540000
520.048279	146.080000
520.141907	145.840000
520.235596	146.620000
520.329224	146.920000
520.422974	147.200000
520.516602	147.540000
520.610291	147.500000
520.703918	147.120000
520.797607	146.540000
520.891296	146.220000
520.984985	146.380000
521.078613	146.760000
521.172302	146.260000
521.265930	147.160000
521.359680	147.840000
521.453308	147.560000
521.546997	147.680000
521.640625	147.800000
521.734314	146.940000
521.827942	146.600000
521.921692	147.100000
522.015320	147.020000
522.109009	146.820000
522.202698	146.680000
522.296326	146.620000
522.390015	146.440000
522.483704	146.120000
522.577393	146.240000
522.671021	146.140000
522.764709	145.720000
522.858337	145.980000
522.952026	146.240000
523.045654	146.980000
523.139404	147.740000
523.233032	148.120000
523.326721	147.680000
523.420349	147.740000
523.514038	146.900000
523.607666	146.900000
523.701355	146.520000
523.795044	146.700000
523.888733	146.680000
523.982361	147.200000
524.076050	146.700000
524.169678	147.200000
524.263367	147.040000
524.356995	146.680000
524.450684	146.240000
524.544373	146.080000
524.638062	146.140000
524.731750	146.280000
524.825378	146.760000
524.919067	146.460000
525.012695	146.880000
525.106384	146.580000
525.200012	146.460000
525.293701	145.900000
525.387329	146.360000
525.481018	146.100000
525.574646	146.340000
525.668396	146.360000
525.762024	146.940000
525.855713	147.120000
525.949341	146.600000
526.043030	146.560000
526.136658	146.280000
526.230347	146.120000
526.323975	145.460000
526.417664	145.620000
526.511292	145.700000
526.604980	146.020000
526.698608	146.000000
526.792297	146.240000
526.885925	146.720000
526.979614	146.580000
527.073303	146.420000
527.166931	146.260000
527.260620	146.700000
527.354309	146.980000
527.447998	146.920000
527.541626	146.700000
527.635315	146.760000
527.728943	146.880000
527.822632	146.800000
527.916260	146.920000
528.009949	147.480000
528.103577	147.640000
528.197266	147.060000
528.290894	147.000000
528.384583	146.840000
528.478210	146.360000
528.571899	146.600000
528.665527	147.080000
528.759216	147.240000
528.852844	147.460000
528.946533	147.480000
529.040161	147.220000
529.133850	146.740000
529.227478	146.440000
529.321167	146.900000
529.414856	147.660000
529.508484	147.880000
529.602173	147.760000
529.695801	147.620000
529.789490	146.900000
529.883057	146.340000
529.976746	146.420000
530.070374	146.880000
530.164062	147.000000
530.257690	147.120000
530.351379	147.240000
530.445007	146.980000
530.538696	146.540000
530.632324	146.620000
530.726013	146.520000
530.819641	146.380000
530.913330	146.060000
531.006958	146.120000
531.100647	146.120000
531.194275	146.340000
531.287964	146.060000
531.381592	146.180000
531.475220	146.540000
531.568848	146.440000
531.662537	146.060000
531.756226	146.720000
531.849854	146.580000
531.943542	146.620000
532.037170	146.180000
532.130859	146.700000
532.224487	146.080000
532.318176	145.820000
532.411804	146.000000
532.505432	146.380000
532.599060	145.800000
532.692749	145.740000
532.786377	146.300000
532.880066	145.520000
532.973694	145.120000
533.067383	145.420000
533.161011	145.480000
533.254639	145.220000
533.348267	145.300000
533.441956	145.560000
533.535583	145.240000
533.629272	145.380000
533.722900	145.100000
533.816589	145.160000
533.910156	145.400000
534.003845	145.320000
534.097534	146.080000
534.191162	146.920000
534.284851	147.300000
534.378479	147.360000
534.472107	147.320000
534.565735	146.620000
534.659424	146.260000
534.753052	146.060000
534.846741	145.300000
534.940369	145.880000
535.033997	145.800000
535.127625	145.880000
535.221313	146.360000
535.314941	146.640000
535.408630	145.940000
535.502197	146.260000
535.595886	146.260000
535.689514	145.740000
535.783203	146.300000
535.876831	147.140000
535.970459	147.160000
536.064087	146.740000
536.157776	146.960000
536.251404	146.700000
536.345093	146.280000
536.438721	145.740000
536.532349	145.980000
536.626038	145.700000
536.719666	145.940000
536.813293	145.620000
536.906921	145.840000
537.000610	146.120000
537.094238	146.340000
537.187866	146.360000
537.281494	146.620000
537.375183	146.860000
537.468811	146.700000
537.562439	146.540000
537.656067	146.200000
537.749756	146.000000
537.843384	146.400000
537.937012	146.220000
538.030640	145.980000
538.124329	146.120000
538.217896	146.580000
538.311584	146.420000
538.405212	146.600000
538.498901	146.700000
538.592468	147.220000
538.686157	146.620000
538.779785	145.800000
538.873413	145.520000
538.967102	145.480000
539.060730	144.660000
539.154358	145.460000
539.247986	146.020000
539.341675	146.140000
539.435242	146.200000
539.528931	146.680000
539.622559	145.680000
539.716187	146.080000
539.809814	146.000000
539.903503	145.900000
539.997070	145.560000
540.090759	146.120000
540.184387	145.820000
540.278015	146.480000
540.371643	146.820000
540.465332	146.780000
540.558899	146.480000
540.652588	146.260000
540.746216	145.820000
540.839844	145.960000
540.933472	146.080000
541.027100	146.340000
541.120728	146.740000
541.214417	146.980000
541.308044	147.180000
541.401672	147.040000
541.495300	146.780000
541.588928	146.380000
541.682617	145.900000
541.776184	145.400000
541.869873	145.980000
541.963440	146.240000
542.057129	146.160000
542.150757	146.420000
542.244385	146.240000
542.338013	145.480000
542.431641	145.240000
542.525269	145.520000
542.618958	145.720000
542.712524	145.920000
542.806213	146.160000
542.899780	146.400000
542.993469	146.100000
543.087036	145.740000
543.180725	145.520000
543.274292	145.760000
543.367981	146.080000
543.461548	146.380000
543.555237	146.220000
543.648926	146.720000
543.742493	147.180000
543.836182	146.820000
543.929749	146.420000
544.023437	146.640000
544.117004	146.420000
544.210693	146.140000
544.304260	146.380000
544.397949	146.360000
544.491516	146.640000
544.585205	146.640000
544.678772	146.260000
544.772461	146.620000
544.866028	146.700000
544.959717	146.540000
545.053284	146.240000
545.146973	146.500000
545.240540	146.180000
545.334229	146.800000
545.427795	147.020000
545.521423	147.160000
545.615051	147.120000
545.708679	147.820000
545.802307	147.520000
545.895935	147.420000
545.989624	148.360000
546.083191	148.240000
546.176880	147.560000
546.270447	147.220000
546.364136	147.600000
546.457703	146.860000
546.551331	147.220000
546.644958	147.280000
546.738586	147.620000
546.832214	147.060000
546.925842	146.860000
547.019409	146.880000
547.113098	146.860000
547.206665	146.360000
547.300354	146.520000
547.393921	147.140000
547.487549	146.940000
547.581177	146.340000
547.674805	146.580000
547.768433	145.720000
547.862061	145.480000
547.955627	145.060000
548.049316	145.740000
548.142883	146.060000
548.236572	146.880000
548.330139	146.860000
548.423767	146.920000
548.517456	146.720000
548.611023	146.780000
548.704651	146.260000
548.798279	146.260000
548.891907	146.720000
548.985474	146.540000
549.079163	146.440000
549.172729	146.360000
549.266357	146.040000
549.359985	145.880000
549.453613	145.620000
549.547180	145.420000
549.640869	145.840000
549.734436	145.780000
549.828064	146.060000
549.921631	146.240000
550.015320	145.700000
550.108887	145.940000
550.202515	146.160000
550.296143	145.580000
550.389771	145.940000
550.483337	146.560000
550.576965	146.500000
550.670593	146.600000
550.764221	146.920000
550.857849	146.580000
550.951477	146.220000
551.045105	146.060000
551.138672	146.080000
551.232300	145.460000
551.325928	145.860000
551.419556	146.060000
551.513123	145.900000
551.606750	145.560000
551.700378	145.980000
551.794006	145.540000
551.887573	145.460000
551.981201	145.780000
552.074768	145.700000
552.168457	145.300000
552.262024	146.400000
552.355652	146.480000
552.449219	146.960000
552.542847	147.100000
552.636475	147.260000
552.730103	146.260000
552.823669	146.120000
552.917297	145.340000
553.010864	145.480000
553.104553	145.660000
553.198181	145.420000
553.291748	145.880000
553.385376	146.240000
553.478943	146.060000
553.572571	146.140000
553.666199	146.400000
553.759827	146.040000
553.853394	145.840000
553.947021	145.940000
554.040588	146.060000
554.134216	146.060000
554.227783	146.600000
554.321411	147.100000
554.415039	146.520000
554.508667	146.220000
554.602234	146.500000
554.695862	145.840000
554.789429	145.280000
554.883057	145.980000
554.976624	146.220000
555.070251	146.020000
555.163818	145.980000
555.257507	146.340000
555.351074	146.380000
555.444702	147.440000
555.538330	147.260000
555.631897	147.680000
555.725525	147.420000
555.819092	147.300000
555.912720	145.780000
556.006287	146.140000
556.099915	145.960000
556.193481	145.920000
556.287109	146.120000
556.380676	146.180000
556.474304	146.120000
556.567871	146.380000
556.661499	146.100000
556.755066	146.040000
556.848694	146.060000
556.942261	146.120000
557.035889	145.900000
557.129517	146.100000
557.223145	146.200000
557.316711	146.480000
557.410339	146.520000
557.503906	146.620000
557.597473	146.860000
557.691040	146.800000
557.784668	146.940000
557.878296	147.020000
557.971863	147.180000
558.065491	147.220000
558.159058	146.860000
558.252686	147.600000
558.346252	147.840000
558.439880	147.280000
558.533447	146.880000
558.627075	146.640000
558.720642	145.700000
558.814270	145.160000
558.907837	145.320000
559.001465	145.080000
559.095032	146.000000
559.188660	146.140000
559.282227	145.820000
559.375854	146.540000
559.469360	146.500000
559.562988	146.580000
559.656555	146.500000
559.750183	147.060000
559.843750	146.640000
559.937378	147.040000
560.030945	146.520000
560.124573	0.000000
560.218140	0.000000
560.311707	0.000000
560.405334	0.000000
560.498901	0.000000
560.592529	0.000000
560.686096	0.000000
560.779724	0.000000
560.873291	0.000000
560.966858	0.000000
561.060425	0.000000
561.154053	0.000000
561.247620	0.000000
561.341248	0.000000
561.434814	0.000000
561.528381	0.000000
561.621948	0.000000
561.715576	0.000000
561.809143	0.000000
561.902771	0.000000
561.996277	0.000000
562.089905	0.000000
562.183472	0.000000
562.277100	0.000000
