Model Number: SPM-002-B   
Serial Number: 70087108
Firmware Version: 004.15.4
Exposure Time: 100000.000000us
Data Taken on: 11-12-2020 19:40:00.846
Wavelength	Amplitude
221.570786	0.000000
221.663406	0.000000
221.756027	0.000000
221.848648	0.000000
221.941269	0.000000
222.033905	0.000000
222.126526	0.000000
222.219162	0.000000
222.311798	0.000000
222.404419	0.000000
222.497055	0.000000
222.589676	0.000000
222.682312	0.000000
222.774933	0.000000
222.867569	0.000000
222.960205	0.000000
223.052841	0.000000
223.145462	0.000000
223.238098	0.000000
223.330734	0.000000
223.423386	0.000000
223.516022	0.000000
223.608658	0.000000
223.701309	0.000000
223.793945	0.000000
223.886581	0.000000
223.979218	0.000000
224.071869	0.000000
224.164505	0.000000
224.257156	0.000000
224.349792	0.000000
224.442444	0.000000
224.535095	0.000000
224.627747	0.000000
224.720398	0.000000
224.813034	0.000000
224.905685	0.000000
224.998337	146.260000
225.090988	146.040000
225.183640	145.900000
225.276291	145.260000
225.368942	145.720000
225.461594	146.180000
225.554245	146.380000
225.646912	146.300000
225.739578	147.380000
225.832230	147.520000
225.924896	146.380000
226.017548	146.620000
226.110199	147.160000
226.202866	146.120000
226.295532	146.180000
226.388184	146.560000
226.480850	146.100000
226.573517	145.720000
226.666168	146.100000
226.758835	146.400000
226.851501	146.960000
226.944183	146.880000
227.036850	146.540000
227.129517	146.540000
227.222183	146.460000
227.314850	146.240000
227.407516	146.800000
227.500198	147.600000
227.592865	147.300000
227.685532	146.940000
227.778214	146.760000
227.870880	146.980000
227.963562	147.120000
228.056229	147.500000
228.148926	147.580000
228.241592	148.260000
228.334274	147.680000
228.426956	147.560000
228.519638	147.680000
228.612305	146.980000
228.704987	147.100000
228.797668	147.300000
228.890350	146.680000
228.983032	145.980000
229.075714	146.880000
229.168396	146.240000
229.261108	145.980000
229.353790	146.020000
229.446472	146.320000
229.539169	146.300000
229.631851	146.080000
229.724533	146.160000
229.817230	146.620000
229.909912	147.740000
230.002609	147.380000
230.095306	147.560000
230.187988	147.900000
230.280685	147.600000
230.373383	146.260000
230.466095	146.400000
230.558792	146.660000
230.651474	146.380000
230.744171	146.000000
230.836868	146.300000
230.929581	146.460000
231.022278	146.280000
231.114975	146.400000
231.207672	146.580000
231.300369	146.800000
231.393082	146.640000
231.485779	146.360000
231.578506	146.120000
231.671204	146.300000
231.763916	146.140000
231.856613	146.060000
231.949326	146.360000
232.042023	146.400000
232.134735	146.640000
232.227448	146.460000
232.320160	146.640000
232.412872	146.600000
232.505585	147.300000
232.598297	147.500000
232.691010	147.340000
232.783722	147.000000
232.876450	147.620000
232.969162	147.000000
233.061874	146.140000
233.154587	146.040000
233.247314	146.540000
233.340027	145.800000
233.432739	146.300000
233.525467	146.580000
233.618179	147.040000
233.710907	146.540000
233.803635	147.100000
233.896347	146.660000
233.989090	147.360000
234.081818	147.420000
234.174545	147.540000
234.267258	146.960000
234.359985	147.140000
234.452713	146.700000
234.545441	146.360000
234.638168	146.300000
234.730896	146.720000
234.823639	146.860000
234.916367	147.240000
235.009094	147.400000
235.101822	147.640000
235.194580	147.580000
235.287308	147.340000
235.380051	146.560000
235.472778	146.620000
235.565521	146.760000
235.658249	146.600000
235.750992	146.740000
235.843719	146.840000
235.936462	147.060000
236.029205	146.920000
236.121948	146.580000
236.214691	146.660000
236.307449	147.260000
236.400192	146.620000
236.492935	146.180000
236.585678	146.320000
236.678421	145.880000
236.771164	145.620000
236.863907	146.380000
236.956665	146.580000
237.049408	148.140000
237.142151	148.000000
237.234909	148.680000
237.327652	148.580000
237.420410	148.400000
237.513153	147.200000
237.605927	147.300000
237.698669	146.400000
237.791428	145.720000
237.884186	146.460000
237.976944	146.020000
238.069702	146.580000
238.162445	146.560000
238.255203	147.000000
238.347961	146.820000
238.440720	146.940000
238.533478	146.320000
238.626266	145.940000
238.719025	145.800000
238.811783	145.640000
238.904541	145.080000
238.997314	145.340000
239.090073	145.480000
239.182831	145.700000
239.275604	146.500000
239.368362	146.920000
239.461136	146.460000
239.553909	146.700000
239.646667	146.580000
239.739441	146.060000
239.832214	146.140000
239.925003	146.700000
240.017761	146.900000
240.110535	147.560000
240.203308	147.060000
240.296082	147.480000
240.388855	147.640000
240.481628	147.600000
240.574417	147.240000
240.667191	147.460000
240.759964	147.020000
240.852737	146.840000
240.945526	146.800000
241.038315	146.720000
241.131088	146.580000
241.223877	146.800000
241.316650	146.560000
241.409439	146.720000
241.502228	146.340000
241.595001	146.840000
241.687790	146.700000
241.780579	146.740000
241.873367	146.700000
241.966141	147.000000
242.058929	146.280000
242.151718	146.560000
242.244507	147.040000
242.337311	146.320000
242.430099	146.640000
242.522903	147.220000
242.615692	146.700000
242.708481	146.400000
242.801270	147.380000
242.894073	147.200000
242.986862	146.820000
243.079651	147.360000
243.172455	147.340000
243.265244	147.140000
243.358063	146.680000
243.450867	147.280000
243.543655	147.180000
243.636459	147.320000
243.729263	147.520000
243.822067	147.680000
243.914856	147.520000
244.007660	147.680000
244.100464	147.440000
244.193268	146.480000
244.286072	146.480000
244.378876	146.040000
244.471680	145.620000
244.564499	145.740000
244.657318	146.840000
244.750122	147.180000
244.842926	146.880000
244.935745	147.200000
245.028549	146.700000
245.121368	146.140000
245.214172	146.180000
245.306992	146.740000
245.399796	146.480000
245.492615	146.960000
245.585434	146.900000
245.678253	146.560000
245.771072	146.480000
245.863892	146.760000
245.956711	146.820000
246.049530	146.580000
246.142349	146.180000
246.235168	146.220000
246.327988	146.540000
246.420807	146.480000
246.513626	146.620000
246.606445	146.620000
246.699280	146.420000
246.792099	146.100000
246.884918	145.700000
246.977753	145.340000
247.070587	145.640000
247.163422	145.740000
247.256241	145.520000
247.349075	146.120000
247.441895	146.500000
247.534729	146.560000
247.627563	146.440000
247.720383	147.100000
247.813217	146.680000
247.906052	146.500000
247.998886	146.540000
248.091736	146.660000
248.184570	146.220000
248.277405	146.300000
248.370239	146.980000
248.463074	147.760000
248.555908	148.080000
248.648743	147.780000
248.741592	147.980000
248.834427	147.420000
248.927261	146.280000
249.020111	146.600000
249.112946	147.520000
249.205795	147.060000
249.298630	147.360000
249.391495	147.600000
249.484344	146.900000
249.577179	146.560000
249.670029	147.060000
249.762878	147.360000
249.855728	147.420000
249.948563	147.540000
250.041412	146.820000
250.134262	147.040000
250.227112	146.980000
250.319962	147.120000
250.412827	146.840000
250.505692	146.680000
250.598541	146.380000
250.691391	146.040000
250.784241	145.800000
250.877106	146.020000
250.969955	145.760000
251.062805	145.960000
251.155670	146.480000
251.248520	146.620000
251.341385	146.860000
251.434235	147.260000
251.527100	147.200000
251.619965	146.840000
251.712814	147.320000
251.805695	147.340000
251.898560	147.720000
251.991425	147.680000
252.084290	147.720000
252.177155	147.040000
252.270020	146.580000
252.362885	146.360000
252.455750	146.480000
252.548615	146.140000
252.641479	146.240000
252.734360	146.280000
252.827240	146.120000
252.920105	146.360000
253.012970	146.480000
253.105850	146.360000
253.198715	146.080000
253.291595	146.200000
253.384460	145.780000
253.477341	145.780000
253.570221	146.040000
253.663086	146.000000
253.755966	146.820000
253.848846	146.720000
253.941727	147.080000
254.034592	146.980000
254.127472	146.800000
254.220367	146.000000
254.313248	145.860000
254.406128	145.440000
254.499008	145.760000
254.591904	146.700000
254.684784	147.360000
254.777664	147.540000
254.870544	147.420000
254.963440	147.120000
255.056335	147.160000
255.149216	146.780000
255.242111	147.100000
255.334991	147.580000
255.427887	147.920000
255.520767	147.760000
255.613663	147.860000
255.706558	147.440000
255.799438	146.980000
255.892334	146.380000
255.985229	146.300000
256.078125	145.840000
256.171021	145.640000
256.263916	146.180000
256.356812	146.320000
256.449707	146.100000
256.542603	146.220000
256.635498	147.020000
256.728394	146.520000
256.821289	146.680000
256.914215	147.220000
257.007080	147.400000
257.100006	147.260000
257.192932	147.760000
257.285828	147.820000
257.378723	147.720000
257.471619	147.760000
257.564545	147.180000
257.657440	147.140000
257.750336	147.480000
257.843262	146.880000
257.936157	147.860000
258.029053	148.440000
258.121979	148.140000
258.214874	147.500000
258.307800	147.720000
258.400696	146.360000
258.493622	146.260000
258.586517	145.700000
258.679443	146.120000
258.772339	145.560000
258.865265	145.520000
258.958160	144.820000
259.051086	145.760000
259.144012	145.560000
259.236938	146.540000
259.329834	146.940000
259.422791	146.920000
259.515717	146.080000
259.608612	146.040000
259.701538	145.860000
259.794464	145.520000
259.887390	145.920000
259.980316	146.060000
260.073212	145.920000
260.166138	145.360000
260.259064	145.940000
260.351990	146.080000
260.444916	146.200000
260.537842	146.520000
260.630768	147.280000
260.723694	147.140000
260.816620	147.240000
260.909546	147.320000
261.002472	146.780000
261.095398	146.040000
261.188354	145.780000
261.281281	145.320000
261.374207	145.460000
261.467133	146.420000
261.560089	146.860000
261.653015	146.640000
261.745972	147.280000
261.838867	147.500000
261.931824	147.500000
262.024780	147.060000
262.117706	147.600000
262.210663	147.600000
262.303589	147.280000
262.396515	147.140000
262.489471	148.040000
262.582397	147.560000
262.675354	146.960000
262.768280	147.020000
262.861237	146.960000
262.954163	146.540000
263.047119	146.840000
263.140045	146.620000
263.233002	146.640000
263.325958	146.280000
263.418884	145.700000
263.511841	145.900000
263.604797	146.260000
263.697723	146.340000
263.790680	146.380000
263.883636	147.140000
263.976593	146.420000
264.069550	146.540000
264.162476	146.100000
264.255463	146.400000
264.348419	146.300000
264.441376	147.080000
264.534332	146.340000
264.627289	146.720000
264.720245	146.960000
264.813202	146.500000
264.906158	146.520000
264.999115	147.360000
265.092072	147.080000
265.185028	147.240000
265.277985	147.700000
265.370941	147.240000
265.463898	146.920000
265.556854	147.220000
265.649811	146.160000
265.742798	145.980000
265.835754	146.440000
265.928711	146.900000
266.021667	146.620000
266.114655	146.920000
266.207611	147.060000
266.300568	146.240000
266.393585	145.660000
266.486511	145.800000
266.579498	145.240000
266.672485	144.940000
266.765442	145.020000
266.858429	145.740000
266.951385	145.520000
267.044342	145.860000
267.137329	145.920000
267.230316	146.480000
267.323273	146.060000
267.416260	147.000000
267.509216	147.240000
267.602203	147.360000
267.695160	147.540000
267.788147	147.580000
267.881134	146.640000
267.974091	146.800000
268.067078	146.660000
268.160065	146.220000
268.253052	145.880000
268.346008	146.160000
268.438995	145.680000
268.531982	145.880000
268.624969	145.660000
268.717987	146.180000
268.810944	145.980000
268.903961	146.400000
268.996948	146.020000
269.089905	146.920000
269.182892	146.940000
269.275879	147.400000
269.368866	147.180000
269.461853	147.580000
269.554871	147.220000
269.647858	147.140000
269.740845	147.320000
269.833832	147.560000
269.926819	147.360000
270.019806	147.100000
270.112793	146.720000
270.205811	146.720000
270.298798	146.500000
270.391785	146.880000
270.484772	146.620000
270.577789	146.500000
270.670776	145.780000
270.763763	145.960000
270.856750	145.720000
270.949768	145.660000
271.042786	145.920000
271.135773	146.480000
271.228790	146.660000
271.321808	146.520000
271.414795	146.460000
271.507782	146.300000
271.600800	145.920000
271.693817	145.880000
271.786804	146.140000
271.879822	146.520000
271.972809	146.460000
272.065826	146.800000
272.158844	146.420000
272.251831	147.020000
272.344849	146.920000
272.437866	146.740000
272.530853	146.760000
272.623871	147.060000
272.716888	145.780000
272.809906	146.000000
272.902893	146.220000
272.995911	145.500000
273.088928	145.500000
273.181946	145.840000
273.274963	145.520000
273.367981	145.220000
273.460999	145.660000
273.554047	145.820000
273.647003	146.540000
273.740051	146.720000
273.833069	147.440000
273.926086	147.420000
274.019135	147.120000
274.112152	146.320000
274.205170	146.360000
274.298187	146.340000
274.391205	145.980000
274.484222	146.020000
274.577240	146.260000
274.670258	146.280000
274.763306	146.140000
274.856323	146.780000
274.949341	146.780000
275.042358	147.180000
275.135406	147.080000
275.228424	147.140000
275.321442	146.700000
275.414490	146.580000
275.507507	146.940000
275.600525	147.480000
275.693573	147.180000
275.786591	147.120000
275.879669	147.100000
275.972656	146.280000
276.065735	145.840000
276.158752	146.520000
276.251801	147.180000
276.344818	147.180000
276.437866	147.380000
276.530884	147.280000
276.623932	146.580000
276.716980	146.680000
276.809998	147.040000
276.903046	147.020000
276.996094	147.960000
277.089111	148.420000
277.182159	148.580000
277.275208	148.080000
277.368256	147.880000
277.461304	147.100000
277.554321	146.620000
277.647369	146.460000
277.740417	146.820000
277.833466	146.900000
277.926514	146.720000
278.019562	147.360000
278.112610	146.680000
278.205688	146.800000
278.298706	147.080000
278.391785	147.060000
278.484833	146.380000
278.577881	146.540000
278.670929	146.600000
278.763977	146.720000
278.857025	147.300000
278.950073	147.640000
279.043121	147.340000
279.136169	147.280000
279.229248	146.980000
279.322296	146.560000
279.415344	146.320000
279.508392	146.460000
279.601440	146.200000
279.694519	146.140000
279.787567	146.240000
279.880615	145.940000
279.973694	146.040000
280.066742	146.360000
280.159790	146.360000
280.252869	146.000000
280.345917	146.520000
280.438995	146.460000
280.532074	146.100000
280.625122	146.420000
280.718201	147.220000
280.811279	147.300000
280.904327	147.080000
280.997406	147.300000
281.090454	147.400000
281.183533	146.840000
281.276581	146.500000
281.369659	146.700000
281.462738	146.620000
281.555786	146.380000
281.648865	146.360000
281.741943	146.460000
281.835022	146.860000
281.928070	146.700000
282.021149	146.400000
282.114227	146.340000
282.207306	146.640000
282.300385	146.840000
282.393433	147.160000
282.486511	147.320000
282.579590	147.940000
282.672668	147.880000
282.765747	147.160000
282.858856	146.700000
282.951904	146.680000
283.045013	146.540000
283.138062	146.780000
283.231171	147.260000
283.324249	147.860000
283.417328	148.200000
283.510406	147.740000
283.603485	147.300000
283.696564	147.020000
283.789642	146.840000
283.882751	146.400000
283.975830	146.860000
284.068909	146.760000
284.161987	147.580000
284.255066	147.040000
284.348175	147.220000
284.441254	147.100000
284.534332	147.240000
284.627441	146.520000
284.720520	146.380000
284.813599	146.380000
284.906708	146.160000
284.999786	145.920000
285.092896	146.140000
285.185974	147.200000
285.279053	146.860000
285.372192	147.080000
285.465240	147.700000
285.558380	147.200000
285.651459	146.560000
285.744568	147.500000
285.837677	147.080000
285.930756	146.900000
286.023865	147.000000
286.116943	146.980000
286.210052	146.840000
286.303162	146.960000
286.396240	146.880000
286.489349	146.960000
286.582458	147.160000
286.675568	146.420000
286.768646	146.380000
286.861755	146.700000
286.954865	147.040000
287.047974	146.600000
287.141083	146.820000
287.234161	146.780000
287.327271	146.220000
287.420380	146.400000
287.513519	146.480000
287.606598	146.420000
287.699738	146.640000
287.792816	146.740000
287.885956	146.560000
287.979034	146.600000
288.072174	146.720000
288.165283	146.580000
288.258392	146.720000
288.351501	146.100000
288.444611	146.400000
288.537720	146.740000
288.630859	146.720000
288.723969	146.740000
288.817078	147.040000
288.910187	146.860000
289.003296	146.380000
289.096436	145.960000
289.189545	145.920000
289.282654	145.660000
289.375763	146.120000
289.468903	146.380000
289.562012	147.020000
289.655121	146.860000
289.748260	147.400000
289.841400	147.500000
289.934509	147.360000
290.027649	147.580000
290.120728	147.580000
290.213898	147.360000
290.306976	146.920000
290.400146	146.940000
290.493256	146.340000
290.586395	146.380000
290.679535	146.700000
290.772644	146.560000
290.865784	146.120000
290.958893	146.280000
291.052032	146.020000
291.145172	145.560000
291.238281	145.460000
291.331421	145.560000
291.424561	146.080000
291.517670	145.940000
291.610809	146.220000
291.703949	146.520000
291.797089	146.840000
291.890228	145.940000
291.983337	146.380000
292.076477	146.460000
292.169617	146.440000
292.262756	146.540000
292.355927	146.680000
292.449036	146.400000
292.542206	146.300000
292.635315	146.560000
292.728485	146.700000
292.821625	146.500000
292.914764	147.580000
293.007904	147.460000
293.101044	147.060000
293.194183	146.940000
293.287323	147.400000
293.380463	146.520000
293.473602	146.440000
293.566742	146.840000
293.659882	147.100000
293.753021	147.060000
293.846191	146.840000
293.939331	146.880000
294.032471	146.900000
294.125610	146.340000
294.218781	146.740000
294.311920	147.400000
294.405060	147.280000
294.498230	146.920000
294.591370	147.160000
294.684540	146.280000
294.777679	145.880000
294.870850	146.380000
294.963959	146.420000
295.057159	146.640000
295.150299	147.420000
295.243469	147.100000
295.336609	146.260000
295.429779	146.140000
295.522919	146.220000
295.616089	146.100000
295.709229	146.780000
295.802399	147.240000
295.895569	146.940000
295.988708	146.460000
296.081879	146.240000
296.175018	145.660000
296.268188	145.940000
296.361359	146.380000
296.454529	146.520000
296.547668	146.660000
296.640839	146.860000
296.734009	146.340000
296.827179	146.540000
296.920319	146.700000
297.013519	146.460000
297.106659	146.880000
297.199860	147.020000
297.292999	146.780000
297.386200	146.580000
297.479309	146.620000
297.572510	146.240000
297.665680	146.000000
297.758850	145.880000
297.852020	145.740000
297.945190	145.560000
298.038361	145.480000
298.131531	146.440000
298.224701	146.460000
298.317871	146.400000
298.411072	146.220000
298.504242	145.920000
298.597412	145.220000
298.690582	145.640000
298.783752	145.740000
298.876923	146.240000
298.970093	146.420000
299.063293	147.060000
299.156464	146.920000
299.249634	146.920000
299.342834	147.120000
299.436005	147.460000
299.529205	147.240000
299.622345	147.520000
299.715576	147.200000
299.808716	146.680000
299.901917	146.680000
299.995117	146.260000
300.088287	146.240000
300.181488	146.120000
300.274658	146.300000
300.367828	146.100000
300.461029	146.380000
300.554199	146.480000
300.647400	146.700000
300.740601	147.040000
300.833771	147.000000
300.926971	147.320000
301.020142	146.780000
301.113342	146.920000
301.206512	146.580000
301.299713	147.000000
301.392914	146.760000
301.486084	147.520000
301.579285	147.580000
301.672516	148.200000
301.765686	147.780000
301.858887	147.680000
301.952057	147.280000
302.045288	147.280000
302.138458	147.180000
302.231659	147.120000
302.324860	147.080000
302.418060	146.820000
302.511261	146.860000
302.604462	146.880000
302.697662	146.840000
302.790863	146.860000
302.884064	146.440000
302.977264	146.480000
303.070465	146.420000
303.163666	147.320000
303.256866	147.380000
303.350067	147.640000
303.443268	147.620000
303.536469	147.600000
303.629669	146.740000
303.722870	146.800000
303.816071	146.720000
303.909271	146.780000
304.002472	146.020000
304.095673	146.040000
304.188934	145.380000
304.282104	146.240000
304.375336	146.320000
304.468506	146.580000
304.561768	146.600000
304.654968	147.420000
304.748169	146.820000
304.841370	146.400000
304.934601	146.760000
305.027802	146.680000
305.121002	146.220000
305.214233	146.380000
305.307434	146.320000
305.400665	146.860000
305.493866	146.680000
305.587097	146.860000
305.680298	146.580000
305.773499	147.280000
305.866730	146.700000
305.959930	147.540000
306.053162	148.040000
306.146393	147.780000
306.239594	147.100000
306.332825	147.000000
306.426025	147.000000
306.519287	146.380000
306.612488	146.840000
306.705719	147.000000
306.798920	147.220000
306.892181	146.700000
306.985352	146.540000
307.078613	146.060000
307.171844	146.360000
307.265045	145.740000
307.358276	145.300000
307.451508	145.840000
307.544739	146.420000
307.637970	146.140000
307.731201	146.460000
307.824402	147.140000
307.917633	147.060000
308.010864	147.100000
308.104095	147.300000
308.197327	147.400000
308.290558	147.040000
308.383789	146.760000
308.477020	146.300000
308.570251	145.660000
308.663483	145.200000
308.756714	145.320000
308.849976	145.440000
308.943176	146.140000
309.036438	146.420000
309.129639	146.660000
309.222900	146.640000
309.316101	146.180000
309.409393	145.460000
309.502625	145.280000
309.595856	145.380000
309.689087	145.580000
309.782318	146.060000
309.875580	146.320000
309.968811	146.740000
310.062042	146.580000
310.155273	146.680000
310.248535	146.780000
310.341766	146.900000
310.434998	146.520000
310.528259	146.560000
310.621490	146.740000
310.714722	146.380000
310.807983	146.100000
310.901215	146.220000
310.994476	146.300000
311.087708	145.540000
311.181000	145.920000
311.274200	145.720000
311.367462	145.880000
311.460693	145.620000
311.553986	146.500000
311.647186	146.820000
311.740479	147.440000
311.833710	147.240000
311.926971	147.460000
312.020203	146.660000
312.113464	146.000000
312.206726	145.500000
312.299957	145.760000
312.393219	146.220000
312.486481	146.640000
312.579712	146.740000
312.672974	146.720000
312.766235	146.760000
312.859497	146.380000
312.952759	146.220000
313.045990	146.580000
313.139252	146.220000
313.232513	146.320000
313.325775	146.560000
313.419037	146.520000
313.512299	146.200000
313.605530	147.180000
313.698822	147.000000
313.792053	146.860000
313.885345	146.600000
313.978577	146.720000
314.071869	146.060000
314.165131	146.400000
314.258392	146.680000
314.351654	147.000000
314.444916	146.300000
314.538177	146.900000
314.631439	146.920000
314.724701	146.540000
314.817993	146.120000
314.911255	146.780000
315.004517	146.100000
315.097778	145.640000
315.191040	145.980000
315.284302	146.460000
315.377594	146.180000
315.470856	146.640000
315.564117	146.380000
315.657379	145.860000
315.750671	145.500000
315.843933	145.660000
315.937195	144.880000
316.030518	144.860000
316.123749	145.180000
316.217041	146.060000
316.310303	146.240000
316.403595	146.820000
316.496857	147.200000
316.590149	147.220000
316.683411	146.440000
316.776703	146.180000
316.869965	146.240000
316.963257	146.120000
317.056519	145.580000
317.149811	145.520000
317.243073	145.740000
317.336365	145.540000
317.429626	145.760000
317.522919	146.460000
317.616180	146.440000
317.709473	146.000000
317.802765	146.080000
317.896027	146.180000
317.989319	146.320000
318.082611	146.300000
318.175873	146.380000
318.269165	146.640000
318.362488	146.580000
318.455750	145.860000
318.549042	146.320000
318.642303	146.800000
318.735626	146.300000
318.828888	146.380000
318.922211	146.300000
319.015472	146.620000
319.108765	146.180000
319.202057	146.140000
319.295349	146.020000
319.388641	146.220000
319.481934	145.820000
319.575226	145.500000
319.668518	145.780000
319.761810	145.900000
319.855103	146.080000
319.948395	146.160000
320.041687	146.700000
320.134979	146.680000
320.228271	146.320000
320.321564	146.160000
320.414856	146.120000
320.508148	145.680000
320.601440	145.540000
320.694763	145.620000
320.788025	146.320000
320.881348	146.400000
320.974640	146.580000
321.067963	146.400000
321.161224	146.420000
321.254547	145.620000
321.347839	145.860000
321.441162	145.500000
321.534454	145.980000
321.627747	145.960000
321.721069	146.540000
321.814362	146.560000
321.907654	146.700000
322.000946	146.360000
322.094269	146.880000
322.187561	146.560000
322.280884	146.740000
322.374176	146.960000
322.467468	147.400000
322.560791	147.360000
322.654083	147.780000
322.747406	147.560000
322.840698	147.860000
322.934021	148.260000
323.027344	148.260000
323.120636	147.820000
323.213959	147.700000
323.307251	147.160000
323.400574	146.540000
323.493866	145.720000
323.587219	146.120000
323.680511	146.180000
323.773834	146.580000
323.867157	146.660000
323.960449	147.080000
324.053772	146.740000
324.147095	146.760000
324.240387	146.960000
324.333710	146.920000
324.427032	146.880000
324.520355	146.840000
324.613647	146.400000
324.706970	146.140000
324.800293	145.860000
324.893616	146.240000
324.986938	146.460000
325.080231	146.500000
325.173553	147.020000
325.266876	147.800000
325.360199	147.760000
325.453522	147.160000
325.546875	147.120000
325.640167	146.920000
325.733521	146.820000
325.826813	146.920000
325.920166	147.120000
326.013489	147.000000
326.106812	146.140000
326.200134	145.680000
326.293457	144.900000
326.386780	145.240000
326.480103	145.340000
326.573425	145.640000
326.666748	145.840000
326.760071	146.880000
326.853424	146.860000
326.946747	146.940000
327.040070	147.660000
327.133392	147.280000
327.226715	146.300000
327.320068	145.900000
327.413391	146.360000
327.506714	145.480000
327.600037	145.920000
327.693390	146.220000
327.786713	146.400000
327.880066	146.180000
327.973358	146.880000
328.066742	147.160000
328.160034	147.180000
328.253418	147.520000
328.346710	147.280000
328.440063	146.760000
328.533417	146.040000
328.626740	146.420000
328.720093	145.700000
328.813416	145.600000
328.906769	145.720000
329.000092	146.080000
329.093445	145.840000
329.186768	146.200000
329.280121	146.760000
329.373444	147.200000
329.466797	147.060000
329.560120	146.760000
329.653473	146.740000
329.746796	146.280000
329.840149	145.960000
329.933502	146.080000
330.026825	146.100000
330.120178	146.140000
330.213562	146.280000
330.306854	146.300000
330.400238	146.420000
330.493561	146.380000
330.586945	147.200000
330.680237	147.460000
330.773621	147.200000
330.866974	147.020000
330.960327	147.640000
331.053680	146.740000
331.147003	146.840000
331.240356	147.420000
331.333710	147.320000
331.427063	146.820000
331.520416	147.060000
331.613770	146.360000
331.707123	146.440000
331.800476	146.720000
331.893829	147.420000
331.987152	147.460000
332.080505	147.960000
332.173859	147.400000
332.267212	146.960000
332.360565	146.420000
332.453918	146.220000
332.547333	145.960000
332.640656	146.020000
332.734039	146.120000
332.827362	145.960000
332.920746	146.160000
333.014069	146.180000
333.107452	146.640000
333.200806	146.760000
333.294159	146.800000
333.387543	146.440000
333.480896	146.160000
333.574249	145.540000
333.667603	145.120000
333.760956	145.520000
333.854340	145.700000
333.947693	145.700000
334.041046	146.320000
334.134430	146.920000
334.227783	146.360000
334.321136	146.420000
334.414520	146.480000
334.507874	146.120000
334.601227	145.820000
334.694611	145.940000
334.787964	145.860000
334.881348	146.140000
334.974701	146.280000
335.068085	146.240000
335.161438	146.860000
335.254822	146.740000
335.348175	146.720000
335.441559	146.360000
335.534943	146.940000
335.628296	146.440000
335.721680	146.420000
335.815033	146.560000
335.908417	146.900000
336.001770	146.700000
336.095154	146.480000
336.188538	146.380000
336.281891	145.900000
336.375275	145.240000
336.468658	144.860000
336.562012	145.000000
336.655396	145.420000
336.748779	145.940000
336.842133	146.540000
336.935516	146.920000
337.028900	146.840000
337.122284	146.700000
337.215637	146.760000
337.309021	146.580000
337.402435	146.040000
337.495789	145.980000
337.589203	145.880000
337.682526	145.520000
337.775940	145.900000
337.869324	146.380000
337.962708	146.200000
338.056091	146.540000
338.149475	146.140000
338.242859	146.060000
338.336243	145.780000
338.429626	146.060000
338.523010	145.780000
338.616394	145.980000
338.709778	146.100000
338.803162	146.280000
338.896545	146.300000
338.989929	146.100000
339.083313	146.320000
339.176697	145.880000
339.270081	145.820000
339.363464	146.460000
339.456848	146.840000
339.550232	146.560000
339.643616	146.540000
339.737030	146.540000
339.830383	146.380000
339.923828	146.520000
340.017181	146.860000
340.110596	146.920000
340.203949	146.740000
340.297363	145.960000
340.390778	145.840000
340.484161	145.720000
340.577545	145.640000
340.670959	145.820000
340.764343	146.340000
340.857727	146.440000
340.951111	146.020000
341.044525	146.200000
341.137909	145.840000
341.231293	145.460000
341.324707	144.680000
341.418091	145.500000
341.511505	145.900000
341.604889	146.260000
341.698303	146.840000
341.791687	147.580000
341.885071	146.980000
341.978485	146.460000
342.071899	146.720000
342.165283	146.800000
342.258698	146.700000
342.352081	147.320000
342.445496	148.060000
342.538879	147.980000
342.632324	147.420000
342.725708	147.520000
342.819122	147.000000
342.912506	146.240000
343.005920	146.040000
343.099335	146.840000
343.192719	146.920000
343.286133	146.920000
343.379547	147.260000
343.472931	147.440000
343.566345	146.740000
343.659760	146.620000
343.753143	146.280000
343.846558	146.100000
343.939972	146.180000
344.033386	146.700000
344.126770	146.440000
344.220184	146.900000
344.313599	147.140000
344.407043	147.060000
344.500427	146.380000
344.593872	146.960000
344.687225	146.700000
344.780670	146.280000
344.874054	146.160000
344.967499	146.800000
345.060913	146.520000
345.154327	146.720000
345.247742	146.560000
345.341156	146.180000
345.434570	145.560000
345.527985	145.580000
345.621399	145.500000
345.714813	145.840000
345.808228	146.280000
345.901642	146.340000
345.995056	146.060000
346.088470	146.380000
346.181885	146.080000
346.275299	145.840000
346.368713	146.020000
346.462128	145.800000
346.555573	145.700000
346.648987	146.240000
346.742401	146.520000
346.835815	146.780000
346.929260	146.840000
347.022644	146.860000
347.116119	146.820000
347.209503	146.960000
347.302948	147.640000
347.396362	148.380000
347.489807	148.460000
347.583221	149.120000
347.676636	148.760000
347.770050	147.640000
347.863495	146.860000
347.956909	146.660000
348.050323	145.960000
348.143768	145.920000
348.237183	145.900000
348.330597	146.440000
348.424042	146.620000
348.517456	146.960000
348.610901	147.120000
348.704315	146.920000
348.797760	146.260000
348.891174	145.820000
348.984619	145.380000
349.078033	145.820000
349.171448	146.580000
349.264923	146.780000
349.358337	147.020000
349.451782	146.900000
349.545197	146.300000
349.638641	145.640000
349.732086	145.140000
349.825500	145.420000
349.918945	145.140000
350.012390	145.660000
350.105804	146.180000
350.199249	146.860000
350.292664	147.100000
350.386108	147.400000
350.479553	147.520000
350.572968	147.580000
350.666412	147.620000
350.759857	147.280000
350.853302	147.860000
350.946716	147.180000
351.040161	146.940000
351.133606	146.860000
351.227081	146.680000
351.320465	146.760000
351.413940	147.080000
351.507355	146.920000
351.600830	147.100000
351.694244	147.040000
351.787720	146.840000
351.881104	146.860000
351.974579	147.080000
352.067993	147.660000
352.161469	147.580000
352.254883	146.880000
352.348358	146.580000
352.441803	146.480000
352.535248	145.720000
352.628693	146.060000
352.722137	146.100000
352.815582	146.540000
352.909027	146.780000
353.002472	146.820000
353.095917	146.800000
353.189362	147.220000
353.282806	146.940000
353.376251	146.520000
353.469696	146.120000
353.563141	146.380000
353.656586	145.880000
353.750061	145.560000
353.843475	145.680000
353.936981	146.280000
354.030396	145.740000
354.123871	146.160000
354.217285	146.900000
354.310760	147.220000
354.404175	147.000000
354.497681	146.880000
354.591095	146.420000
354.684570	145.820000
354.777985	145.280000
354.871490	144.760000
354.964935	145.300000
355.058380	145.820000
355.151855	145.680000
355.245300	146.180000
355.338745	146.900000
355.432220	146.540000
355.525665	146.080000
355.619110	146.600000
355.712585	146.120000
355.806030	145.780000
355.899475	145.500000
355.992950	145.980000
356.086426	146.080000
356.179871	146.220000
356.273346	146.340000
356.366791	147.060000
356.460266	147.120000
356.553711	146.620000
356.647186	146.740000
356.740631	146.500000
356.834106	145.860000
356.927551	145.960000
357.021027	145.800000
357.114471	145.640000
357.207947	145.720000
357.301422	146.120000
357.394867	146.000000
357.488342	146.560000
357.581818	146.700000
357.675262	146.920000
357.768738	146.760000
357.862213	146.180000
357.955658	146.340000
358.049133	146.440000
358.142609	146.740000
358.236053	146.400000
358.329529	147.040000
358.423035	147.040000
358.516449	146.600000
358.609955	147.020000
358.703400	147.900000
358.796906	147.740000
358.890350	147.200000
358.983826	147.740000
359.077271	146.520000
359.170776	146.240000
359.264221	145.840000
359.357727	146.000000
359.451172	146.140000
359.544647	146.600000
359.638123	146.280000
359.731598	146.780000
359.825073	146.840000
359.918549	146.660000
360.012024	146.880000
360.105499	146.560000
360.198975	146.480000
360.292450	146.680000
360.385925	146.500000
360.479401	145.960000
360.572876	146.420000
360.666351	146.540000
360.759857	146.180000
360.853302	146.260000
360.946808	146.160000
361.040253	146.120000
361.133759	145.660000
361.227203	145.920000
361.320709	145.500000
361.414154	146.100000
361.507660	146.440000
361.601105	147.120000
361.694641	147.600000
361.788086	147.800000
361.881592	147.960000
361.975067	147.340000
362.068542	147.380000
362.162018	147.200000
362.255524	146.920000
362.348999	146.560000
362.442474	147.020000
362.535950	146.400000
362.629456	146.260000
362.722931	146.300000
362.816406	146.940000
362.909882	147.300000
363.003387	146.960000
363.096863	147.180000
363.190338	147.460000
363.283875	147.000000
363.377319	146.820000
363.470825	147.420000
363.564301	146.260000
363.657806	146.380000
363.751282	146.060000
363.844788	146.460000
363.938232	146.060000
364.031769	147.320000
364.125214	147.660000
364.218750	148.300000
364.312225	147.160000
364.405731	147.380000
364.499207	146.720000
364.592712	146.040000
364.686188	145.940000
364.779694	146.480000
364.873169	146.320000
364.966675	146.120000
365.060150	146.160000
365.153656	146.200000
365.247131	145.960000
365.340637	146.260000
365.434143	146.880000
365.527618	147.320000
365.621155	146.380000
365.714600	146.480000
365.808136	146.620000
365.901611	145.900000
365.995117	145.400000
366.088593	145.800000
366.182129	145.580000
366.275604	145.720000
366.369110	146.040000
366.462585	145.900000
366.556122	146.720000
366.649567	146.860000
366.743103	146.640000
366.836609	146.420000
366.930115	146.960000
367.023590	146.960000
367.117096	146.960000
367.210602	146.800000
367.304108	147.540000
367.397614	147.880000
367.491119	147.180000
367.584595	147.440000
367.678101	148.020000
367.771606	147.440000
367.865112	147.080000
367.958649	146.660000
368.052124	146.300000
368.145660	145.920000
368.239136	146.480000
368.332672	146.460000
368.426147	146.980000
368.519684	146.820000
368.613159	146.900000
368.706696	146.220000
368.800171	146.280000
368.893707	146.220000
368.987183	146.420000
369.080719	146.600000
369.174225	146.660000
369.267731	146.980000
369.361237	147.000000
369.454742	146.700000
369.548248	146.760000
369.641754	146.580000
369.735260	145.920000
369.828766	145.260000
369.922272	146.300000
370.015808	145.760000
370.109314	145.940000
370.202820	146.100000
370.296356	147.360000
370.389832	146.680000
370.483368	146.520000
370.576874	146.320000
370.670410	146.700000
370.763885	145.640000
370.857422	145.520000
370.950928	145.600000
371.044464	146.540000
371.137939	146.160000
371.231476	146.800000
371.324982	147.580000
371.418518	147.880000
371.512024	147.580000
371.605560	147.380000
371.699066	147.240000
371.792572	146.480000
371.886108	146.820000
371.979614	146.400000
372.073120	146.980000
372.166656	146.720000
372.260162	147.100000
372.353668	146.680000
372.447205	146.800000
372.540710	146.540000
372.634277	146.400000
372.727753	146.480000
372.821320	146.440000
372.914795	146.380000
373.008362	146.340000
373.101837	146.860000
373.195404	146.740000
373.288879	146.900000
373.382446	147.480000
373.475922	147.420000
373.569489	148.040000
373.662964	148.360000
373.756531	148.260000
373.850037	148.140000
373.943573	148.220000
374.037109	146.860000
374.130615	146.720000
374.224152	146.880000
374.317657	146.560000
374.411194	147.300000
374.504730	147.520000
374.598236	147.400000
374.691772	147.140000
374.785309	147.420000
374.878815	146.540000
374.972351	146.920000
375.065887	146.540000
375.159454	147.240000
375.252930	146.620000
375.346497	146.700000
375.440002	147.440000
375.533569	147.760000
375.627045	146.720000
375.720612	147.000000
375.814117	147.440000
375.907684	146.580000
376.001160	145.920000
376.094727	145.840000
376.188232	146.240000
376.281799	146.340000
376.375336	146.440000
376.468872	147.140000
376.562408	147.520000
376.655914	147.040000
376.749451	146.800000
376.842987	146.820000
376.936523	146.480000
377.030060	146.500000
377.123596	146.740000
377.217133	146.480000
377.310669	146.200000
377.404205	146.840000
377.497772	146.900000
377.591278	146.660000
377.684845	147.320000
377.778351	147.820000
377.871918	147.360000
377.965424	146.940000
378.058990	146.740000
378.152496	146.160000
378.246063	146.200000
378.339569	146.400000
378.433136	146.420000
378.526642	146.740000
378.620209	146.800000
378.713745	146.140000
378.807312	146.380000
378.900848	146.660000
378.994385	146.720000
379.087921	146.120000
379.181458	146.720000
379.274994	145.820000
379.368530	145.900000
379.462097	146.020000
379.555634	146.460000
379.649170	145.860000
379.742706	146.240000
379.836273	146.240000
379.929810	146.060000
380.023376	145.700000
380.116882	146.040000
380.210449	145.980000
380.303986	145.540000
380.397552	144.960000
380.491058	145.420000
380.584656	145.120000
380.678162	145.280000
380.771729	145.740000
380.865265	146.460000
380.958832	146.360000
381.052368	146.760000
381.145935	147.200000
381.239471	147.400000
381.333008	147.360000
381.426575	147.300000
381.520111	147.240000
381.613647	147.180000
381.707214	146.900000
381.800751	146.460000
381.894318	146.700000
381.987854	146.460000
382.081421	146.040000
382.174988	145.860000
382.268524	145.820000
382.362091	145.700000
382.455627	146.540000
382.549194	146.360000
382.642731	146.000000
382.736298	145.980000
382.829834	145.720000
382.923401	145.940000
383.016937	146.360000
383.110504	146.940000
383.204041	147.240000
383.297607	147.840000
383.391174	146.760000
383.484741	147.260000
383.578278	146.840000
383.671844	146.600000
383.765411	145.820000
383.858948	146.500000
383.952515	146.140000
384.046051	146.760000
384.139618	147.120000
384.233185	147.440000
384.326721	147.100000
384.420288	147.160000
384.513855	146.900000
384.607422	146.860000
384.700989	147.060000
384.794525	146.880000
384.888123	146.660000
384.981659	146.620000
385.075226	146.280000
385.168762	145.900000
385.262360	145.920000
385.355896	145.200000
385.449463	145.160000
385.542999	145.500000
385.636597	146.320000
385.730164	146.500000
385.823730	146.660000
385.917267	146.240000
386.010834	146.240000
386.104401	145.800000
386.197968	146.240000
386.291534	146.820000
386.385101	147.460000
386.478668	147.680000
386.572235	147.700000
386.665802	146.900000
386.759338	146.420000
386.852905	145.860000
386.946472	145.440000
387.040070	145.720000
387.133606	145.960000
387.227203	145.940000
387.320740	146.520000
387.414337	146.240000
387.507874	145.860000
387.601471	146.100000
387.695007	145.980000
387.788605	145.900000
387.882141	146.140000
387.975739	146.280000
388.069275	145.720000
388.162872	146.060000
388.256439	145.920000
388.350037	146.040000
388.443604	145.880000
388.537170	146.060000
388.630737	146.620000
388.724304	146.800000
388.817871	146.480000
388.911438	146.580000
389.005005	146.780000
389.098602	146.780000
389.192169	146.520000
389.285736	147.340000
389.379333	147.340000
389.472870	146.940000
389.566467	146.520000
389.660034	146.380000
389.753632	145.500000
389.847168	145.900000
389.940765	146.280000
390.034332	146.700000
390.127930	146.500000
390.221466	146.700000
390.315063	146.000000
390.408630	145.220000
390.502228	144.400000
390.595795	144.520000
390.689362	144.520000
390.782959	144.980000
390.876526	145.660000
390.970093	145.620000
391.063690	146.380000
391.157257	146.660000
391.250824	146.840000
391.344421	146.640000
391.437988	147.260000
391.531555	147.120000
391.625153	146.900000
391.718750	146.940000
391.812317	146.920000
391.905914	146.320000
391.999481	146.100000
392.093079	146.180000
392.186615	146.200000
392.280243	146.420000
392.373779	146.820000
392.467407	147.140000
392.560944	147.060000
392.654572	146.700000
392.748108	146.620000
392.841736	146.540000
392.935303	146.020000
393.028900	145.960000
393.122467	146.100000
393.216064	145.440000
393.309631	144.940000
393.403229	144.860000
393.496796	144.620000
393.590393	143.840000
393.683990	144.440000
393.777557	145.060000
393.871155	145.100000
393.964722	145.780000
394.058350	146.080000
394.151917	146.020000
394.245514	145.660000
394.339081	146.120000
394.432678	146.120000
394.526245	146.260000
394.619873	146.160000
394.713409	146.360000
394.807037	146.200000
394.900604	146.340000
394.994202	146.240000
395.087769	146.540000
395.181396	146.360000
395.274994	146.820000
395.368561	146.000000
395.462158	146.340000
395.555756	145.940000
395.649353	146.360000
395.742920	145.640000
395.836517	146.640000
395.930115	145.960000
396.023712	146.360000
396.117279	146.400000
396.210876	146.340000
396.304474	145.660000
396.398071	146.140000
396.491669	146.320000
396.585266	146.240000
396.678833	146.060000
396.772461	146.520000
396.866028	146.640000
396.959656	146.820000
397.053223	147.040000
397.146851	147.300000
397.240417	147.420000
397.334015	148.560000
397.427582	148.940000
397.521210	149.640000
397.614807	151.480000
397.708405	153.340000
397.802002	154.860000
397.895599	158.120000
397.989197	161.700000
398.082794	165.520000
398.176392	170.520000
398.269989	176.360000
398.363586	183.240000
398.457184	192.400000
398.550781	203.360000
398.644379	215.080000
398.737976	228.840000
398.831573	244.000000
398.925201	259.380000
399.018768	275.980000
399.112396	293.280000
399.205963	310.420000
399.299591	326.840000
399.393158	342.420000
399.486786	358.440000
399.580353	373.880000
399.673981	388.880000
399.767578	405.580000
399.861206	424.100000
399.954773	440.600000
400.048401	453.620000
400.141998	463.780000
400.235596	467.980000
400.329193	465.260000
400.422791	457.480000
400.516418	447.300000
400.610016	434.520000
400.703613	420.720000
400.797211	404.480000
400.890808	388.160000
400.984436	371.780000
401.078033	353.180000
401.171631	334.380000
401.265259	316.340000
401.358826	298.460000
401.452484	279.760000
401.546051	263.440000
401.639679	245.960000
401.733246	230.580000
401.826904	214.840000
401.920471	200.900000
402.014099	188.640000
402.107697	179.180000
402.201324	171.120000
402.294891	165.680000
402.388550	161.540000
402.482147	158.280000
402.575745	155.040000
402.669373	152.580000
402.762970	150.600000
402.856567	149.480000
402.950195	148.380000
403.043793	147.980000
403.137390	148.220000
403.231018	147.580000
403.324615	147.960000
403.418243	147.580000
403.511841	148.020000
403.605469	147.540000
403.699066	147.960000
403.792694	148.000000
403.886292	148.200000
403.979919	147.560000
404.073517	147.340000
404.167145	147.440000
404.260712	147.000000
404.354370	146.840000
404.447937	147.080000
404.541595	147.220000
404.635162	147.260000
404.728821	147.660000
404.822418	147.280000
404.916046	147.240000
405.009644	147.380000
405.103271	147.540000
405.196899	147.340000
405.290497	147.760000
405.384125	147.780000
405.477722	147.280000
405.571350	146.600000
405.664948	146.340000
405.758575	146.220000
405.852203	146.040000
405.945801	146.500000
406.039429	146.580000
406.133057	146.380000
406.226654	146.260000
406.320312	146.420000
406.413879	146.440000
406.507538	146.820000
406.601135	146.460000
406.694763	147.020000
406.788361	146.720000
406.882019	146.380000
406.975586	146.720000
407.069244	147.500000
407.162872	147.600000
407.256470	147.620000
407.350098	147.540000
407.443726	146.760000
407.537323	146.120000
407.630951	145.820000
407.724579	145.720000
407.818207	146.360000
407.911804	146.560000
408.005432	146.680000
408.099060	147.200000
408.192688	147.560000
408.286285	147.280000
408.379913	146.980000
408.473572	147.220000
408.567169	146.280000
408.660828	146.260000
408.754395	145.680000
408.848053	145.660000
408.941650	145.880000
409.035309	145.580000
409.128906	145.660000
409.222565	146.100000
409.316132	146.480000
409.409790	145.940000
409.503387	146.360000
409.597046	146.100000
409.690674	146.540000
409.784302	146.520000
409.877930	146.440000
409.971558	146.420000
410.065186	146.180000
410.158783	145.600000
410.252411	145.300000
410.346039	145.960000
410.439667	146.120000
410.533295	146.760000
410.626923	147.100000
410.720551	147.240000
410.814209	147.560000
410.907806	147.360000
411.001465	146.520000
411.095062	146.360000
411.188721	146.580000
411.282318	145.960000
411.375977	145.860000
411.469574	146.400000
411.563232	146.040000
411.656830	145.860000
411.750488	145.600000
411.844086	145.620000
411.937744	145.640000
412.031372	145.980000
412.125000	145.940000
412.218628	146.340000
412.312256	147.120000
412.405884	147.280000
412.499512	147.060000
412.593170	147.420000
412.686798	147.480000
412.780426	146.760000
412.874054	146.760000
412.967682	146.980000
413.061310	147.460000
413.154968	147.120000
413.248566	147.300000
413.342224	147.020000
413.435852	146.960000
413.529510	146.240000
413.623108	146.140000
413.716766	146.080000
413.810364	146.560000
413.904022	146.380000
413.997650	146.080000
414.091309	146.620000
414.184906	146.700000
414.278564	146.100000
414.372192	146.400000
414.465851	146.900000
414.559479	146.420000
414.653107	147.200000
414.746735	147.200000
414.840393	147.220000
414.934021	147.120000
415.027649	146.720000
415.121277	146.180000
415.214935	146.600000
415.308563	146.460000
415.402191	146.020000
415.495850	146.360000
415.589478	145.820000
415.683136	145.760000
415.776733	146.240000
415.870422	146.860000
415.964020	146.600000
416.057678	146.740000
416.151306	146.600000
416.244965	146.280000
416.338562	146.020000
416.432251	146.800000
416.525848	147.620000
416.619507	147.780000
416.713165	148.260000
416.806793	148.080000
416.900421	147.940000
416.994080	147.300000
417.087708	147.100000
417.181366	146.420000
417.274994	146.580000
417.368622	146.920000
417.462280	147.180000
417.555908	147.260000
417.649567	147.080000
417.743195	147.120000
417.836853	147.020000
417.930481	147.260000
418.024170	147.320000
418.117767	148.100000
418.211426	148.640000
418.305054	148.380000
418.398712	147.820000
418.492340	147.660000
418.585999	147.760000
418.679626	147.520000
418.773285	147.700000
418.866913	148.180000
418.960571	148.620000
419.054230	148.640000
419.147858	148.480000
419.241516	148.720000
419.335144	148.220000
419.428802	147.720000
419.522461	147.080000
419.616089	146.560000
419.709747	146.300000
419.803375	146.840000
419.897034	147.060000
419.990662	147.200000
420.084320	148.060000
420.177979	148.220000
420.271606	148.060000
420.365295	148.380000
420.458893	148.500000
420.552582	148.180000
420.646210	148.200000
420.739868	147.920000
420.833496	147.700000
420.927155	147.260000
421.020782	147.260000
421.114471	146.480000
421.208069	146.780000
421.301758	146.800000
421.395386	147.000000
421.489044	146.860000
421.582703	147.220000
421.676361	147.380000
421.769989	147.100000
421.863647	147.460000
421.957306	147.600000
422.050934	147.680000
422.144592	147.540000
422.238251	147.440000
422.331909	147.020000
422.425537	146.860000
422.519196	146.740000
422.612854	146.380000
422.706543	146.180000
422.800140	146.360000
422.893829	146.020000
422.987457	145.580000
423.081146	145.600000
423.174744	146.580000
423.268433	146.320000
423.362061	146.300000
423.455750	146.600000
423.549347	146.800000
423.643036	145.800000
423.736664	146.640000
423.830353	146.760000
423.924011	147.120000
424.017639	146.780000
424.111298	147.040000
424.204956	146.400000
424.298615	146.420000
424.392273	145.920000
424.485931	146.160000
424.579559	146.640000
424.673218	146.580000
424.766876	146.620000
424.860535	146.480000
424.954193	146.280000
425.047882	146.220000
425.141510	146.360000
425.235199	146.540000
425.328796	146.420000
425.422485	146.340000
425.516113	145.920000
425.609802	145.720000
425.703430	145.740000
425.797119	145.860000
425.890747	145.860000
425.984436	146.160000
426.078064	146.360000
426.171753	146.180000
426.265411	146.300000
426.359070	146.540000
426.452728	145.900000
426.546356	145.620000
426.640015	145.480000
426.733673	145.500000
426.827332	145.140000
426.920990	146.060000
427.014648	145.960000
427.108307	146.640000
427.201965	147.400000
427.295624	147.740000
427.389282	147.060000
427.482941	147.400000
427.576630	146.760000
427.670258	145.920000
427.763947	145.860000
427.857574	145.780000
427.951263	145.720000
428.044922	145.860000
428.138611	145.900000
428.232239	146.480000
428.325928	147.140000
428.419556	147.180000
428.513245	146.800000
428.606903	147.140000
428.700562	146.220000
428.794220	145.420000
428.887878	145.120000
428.981537	145.600000
429.075195	145.620000
429.168854	146.280000
429.262512	146.700000
429.356201	147.240000
429.449860	146.840000
429.543518	146.420000
429.637177	146.280000
429.730835	146.060000
429.824493	145.740000
429.918182	146.260000
430.011810	145.960000
430.105530	145.180000
430.199158	145.800000
430.292847	145.640000
430.386475	145.320000
430.480164	145.380000
430.573792	145.620000
430.667511	145.140000
430.761139	145.380000
430.854828	145.740000
430.948456	146.140000
431.042145	146.840000
431.135834	146.760000
431.229492	146.540000
431.323151	146.560000
431.416809	146.480000
431.510468	146.300000
431.604156	146.200000
431.697815	146.380000
431.791473	146.040000
431.885132	145.880000
431.978821	145.780000
432.072479	146.040000
432.166138	146.580000
432.259827	146.380000
432.353485	146.640000
432.447174	146.840000
432.540802	146.640000
432.634491	146.320000
432.728149	146.840000
432.821838	147.220000
432.915466	146.500000
433.009186	146.320000
433.102814	145.560000
433.196503	145.120000
433.290131	144.980000
433.383850	145.480000
433.477509	145.880000
433.571167	147.140000
433.664856	147.640000
433.758514	147.600000
433.852173	147.580000
433.945862	147.300000
434.039520	146.880000
434.133179	146.420000
434.226868	145.940000
434.320526	145.240000
434.414185	146.060000
434.507874	145.460000
434.601562	145.700000
434.695221	145.660000
434.788910	146.540000
434.882538	146.060000
434.976257	146.080000
435.069885	146.180000
435.163574	146.600000
435.257233	146.020000
435.350922	145.920000
435.444580	145.640000
435.538269	145.400000
435.631897	145.860000
435.725616	146.500000
435.819275	147.140000
435.912964	147.740000
436.006622	147.920000
436.100311	147.220000
436.193970	146.260000
436.287628	145.540000
436.381317	145.500000
436.474976	145.380000
436.568665	145.280000
436.662323	145.720000
436.756012	145.640000
436.849670	145.120000
436.943390	145.100000
437.037018	145.140000
437.130737	145.200000
437.224365	145.360000
437.318085	145.800000
437.411713	145.540000
437.505432	146.220000
437.599060	146.880000
437.692780	147.320000
437.786407	147.200000
437.880127	147.320000
437.973755	146.620000
438.067474	145.960000
438.161133	146.020000
438.254822	146.460000
438.348480	146.320000
438.442169	146.740000
438.535828	146.900000
438.629517	146.200000
438.723175	145.240000
438.816864	145.780000
438.910553	145.400000
439.004211	145.300000
439.097900	145.180000
439.191559	146.000000
439.285248	145.480000
439.378906	145.760000
439.472626	145.640000
439.566284	145.800000
439.659973	145.880000
439.753632	145.900000
439.847321	146.220000
439.940979	146.320000
440.034698	146.300000
440.128326	145.920000
440.222046	146.000000
440.315674	145.600000
440.409393	145.740000
440.503082	145.620000
440.596741	145.840000
440.690430	146.020000
440.784088	145.640000
440.877777	145.240000
440.971466	145.500000
441.065125	145.040000
441.158813	144.840000
441.252502	145.160000
441.346161	145.380000
441.439850	145.580000
441.533539	145.360000
441.627197	145.560000
441.720886	145.360000
441.814606	145.700000
441.908234	145.700000
442.001953	146.220000
442.095612	146.120000
442.189301	146.560000
442.282959	146.580000
442.376678	146.060000
442.470306	146.320000
442.564026	146.160000
442.657684	146.160000
442.751404	146.120000
442.845032	146.840000
442.938751	146.440000
443.032440	146.780000
443.126099	146.220000
443.219788	146.440000
443.313477	146.380000
443.407166	146.460000
443.500824	146.040000
443.594513	146.480000
443.688202	146.300000
443.781891	145.700000
443.875549	145.360000
443.969238	145.620000
444.062927	145.800000
444.156647	145.680000
444.250275	146.220000
444.343994	146.780000
444.437653	146.900000
444.531372	146.700000
444.625031	146.540000
444.718719	146.020000
444.812378	145.900000
444.906097	145.760000
444.999756	145.160000
445.093445	145.280000
445.187103	145.500000
445.280823	145.720000
445.374512	145.320000
445.468201	145.680000
445.561859	145.680000
445.655548	145.980000
445.749237	145.560000
445.842926	146.180000
445.936615	146.860000
446.030304	146.620000
446.123962	146.600000
446.217651	146.440000
446.311340	146.260000
446.405029	145.680000
446.498749	145.680000
446.592407	145.420000
446.686096	145.660000
446.779755	145.780000
446.873474	146.060000
446.967133	146.320000
447.060852	146.160000
447.154510	146.380000
447.248230	146.460000
447.341858	146.460000
447.435577	146.040000
447.529236	146.020000
447.622955	146.020000
447.716644	145.700000
447.810333	145.500000
447.904022	146.200000
447.997711	146.140000
448.091400	146.180000
448.185059	146.140000
448.278748	146.340000
448.372437	145.660000
448.466125	146.100000
448.559814	146.200000
448.653503	146.600000
448.747192	146.760000
448.840912	147.220000
448.934570	147.040000
449.028290	147.240000
449.121948	146.980000
449.215637	146.520000
449.309296	146.020000
449.403015	146.240000
449.496674	145.720000
449.590393	145.540000
449.684052	145.400000
449.777771	146.340000
449.871429	145.580000
449.965149	145.700000
450.058838	146.000000
450.152527	146.760000
450.246216	146.460000
450.339905	146.620000
450.433594	146.660000
450.527283	147.320000
450.620972	146.560000
450.714661	146.340000
450.808350	146.600000
450.902039	146.660000
450.995728	146.100000
451.089417	146.000000
451.183105	145.920000
451.276794	146.500000
451.370514	145.880000
451.464172	145.260000
451.557892	145.540000
451.651550	145.880000
451.745270	145.140000
451.838928	145.020000
451.932648	145.620000
452.026306	146.140000
452.120026	145.560000
452.213684	146.160000
452.307404	146.600000
452.401062	146.460000
452.494781	146.260000
452.588470	146.480000
452.682159	145.640000
452.775848	145.760000
452.869537	145.380000
452.963226	145.280000
453.056915	145.180000
453.150604	145.800000
453.244293	145.960000
453.337982	146.740000
453.431671	146.800000
453.525360	147.380000
453.619049	147.120000
453.712769	147.240000
453.806427	146.620000
453.900146	146.180000
453.993805	145.800000
454.087555	146.480000
454.181213	146.140000
454.274933	146.040000
454.368591	146.180000
454.462311	146.280000
454.555969	145.820000
454.649689	146.640000
454.743347	146.640000
454.837067	147.420000
454.930756	147.920000
455.024445	147.840000
455.118134	147.160000
455.211853	147.380000
455.305542	146.580000
455.399231	145.700000
455.492920	145.760000
455.586609	146.000000
455.680298	146.460000
455.773987	146.520000
455.867676	146.980000
455.961365	146.980000
456.055084	146.740000
456.148773	146.160000
456.242493	146.180000
456.336151	146.260000
456.429871	146.580000
456.523529	146.820000
456.617249	146.640000
456.710907	147.340000
456.804626	147.060000
456.898315	146.540000
456.992035	146.240000
457.085693	146.180000
457.179413	145.280000
457.273102	145.980000
457.366791	146.020000
457.460480	146.680000
457.554199	147.580000
457.647888	147.820000
457.741577	147.280000
457.835266	147.280000
457.928955	147.020000
458.022644	146.780000
458.116364	147.240000
458.210052	147.180000
458.303741	147.340000
458.397461	146.620000
458.491119	146.280000
458.584839	146.020000
458.678528	145.920000
458.772247	145.660000
458.865906	146.220000
458.959625	147.020000
459.053284	146.840000
459.147003	146.780000
459.240692	147.240000
459.334412	147.220000
459.428070	146.580000
459.521790	146.420000
459.615479	146.300000
459.709198	146.460000
459.802887	146.180000
459.896576	146.080000
459.990265	146.500000
460.083954	146.800000
460.177673	146.380000
460.271362	146.400000
460.365051	146.140000
460.458740	145.360000
460.552429	144.940000
460.646149	145.220000
460.739838	144.900000
460.833527	145.160000
460.927246	145.280000
461.020905	145.280000
461.114655	145.280000
461.208313	145.960000
461.302032	145.540000
461.395691	146.120000
461.489441	146.240000
461.583099	145.860000
461.676819	145.360000
461.770477	145.980000
461.864197	145.500000
461.957916	145.440000
462.051605	145.240000
462.145294	146.200000
462.238983	145.680000
462.332703	146.280000
462.426392	147.060000
462.520081	147.260000
462.613770	146.460000
462.707489	146.720000
462.801178	146.420000
462.894867	146.140000
462.988556	146.080000
463.082275	146.340000
463.175964	146.080000
463.269684	146.280000
463.363342	145.840000
463.457092	145.360000
463.550751	145.500000
463.644470	146.080000
463.738129	146.020000
463.831879	146.440000
463.925537	147.360000
464.019257	147.120000
464.112946	146.680000
464.206665	146.420000
464.300323	146.140000
464.394043	145.940000
464.487762	146.020000
464.581451	146.380000
464.675140	146.300000
464.768829	146.320000
464.862549	146.220000
464.956238	146.220000
465.049927	146.300000
465.143646	146.680000
465.237335	146.440000
465.331024	147.060000
465.424713	147.060000
465.518433	147.020000
465.612152	146.540000
465.705811	146.880000
465.799561	146.340000
465.893219	146.220000
465.986938	146.060000
466.080597	146.060000
466.174347	146.040000
466.268005	146.100000
466.361725	146.000000
466.455414	145.940000
466.549133	145.960000
466.642792	146.480000
466.736542	146.160000
466.830231	146.100000
466.923920	145.940000
467.017609	146.020000
467.111328	145.140000
467.205017	145.100000
467.298706	145.080000
467.392426	145.300000
467.486115	145.580000
467.579803	145.600000
467.673523	146.180000
467.767212	146.380000
467.860901	146.460000
467.954651	146.480000
468.048309	147.000000
468.142029	146.560000
468.235718	146.440000
468.329437	145.940000
468.423096	145.540000
468.516846	145.060000
468.610504	144.740000
468.704224	144.380000
468.797913	144.580000
468.891632	144.820000
468.985291	144.900000
469.079010	145.240000
469.172729	144.900000
469.266418	145.480000
469.360107	145.560000
469.453827	145.580000
469.547516	145.480000
469.641205	146.360000
469.734924	146.060000
469.828613	146.380000
469.922302	146.680000
470.016022	146.640000
470.109711	146.420000
470.203430	146.000000
470.297150	145.080000
470.390808	145.420000
470.484558	145.400000
470.578217	145.740000
470.671936	146.320000
470.765625	147.320000
470.859344	146.620000
470.953003	146.980000
471.046753	146.620000
471.140411	145.920000
471.234131	146.100000
471.327820	146.560000
471.421539	146.540000
471.515228	146.360000
471.608948	146.860000
471.702637	146.140000
471.796326	145.780000
471.890045	145.700000
471.983734	145.820000
472.077423	145.460000
472.171143	145.280000
472.264832	145.080000
472.358521	145.120000
472.452240	144.920000
472.545929	145.680000
472.639648	146.360000
472.733337	146.820000
472.827057	146.880000
472.920746	147.300000
473.014465	147.340000
473.108124	147.060000
473.201874	147.100000
473.295532	146.960000
473.389252	147.140000
473.482941	147.100000
473.576660	146.860000
473.670319	146.660000
473.764069	146.880000
473.857727	146.820000
473.951477	146.680000
474.045166	147.200000
474.138855	147.020000
474.232574	146.760000
474.326263	146.780000
474.419952	146.900000
474.513672	146.540000
474.607361	146.720000
474.701050	146.880000
474.794769	147.060000
474.888458	147.040000
474.982178	147.160000
475.075867	147.000000
475.169586	147.140000
475.263275	146.720000
475.356995	146.660000
475.450653	146.320000
475.544403	146.000000
475.638062	146.480000
475.731812	146.140000
475.825470	145.660000
475.919189	146.040000
476.012878	146.400000
476.106598	145.440000
476.200256	145.880000
476.294006	146.160000
476.387695	146.000000
476.481384	145.920000
476.575104	146.280000
476.668793	146.180000
476.762512	145.600000
476.856201	146.100000
476.949890	145.980000
477.043610	145.360000
477.137299	145.340000
477.230988	145.820000
477.324707	145.480000
477.418396	146.040000
477.512146	146.440000
477.605804	146.180000
477.699524	146.280000
477.793213	146.140000
477.886932	145.680000
477.980591	145.540000
478.074341	145.640000
478.167999	145.220000
478.261749	145.320000
478.355408	145.340000
478.449127	145.640000
478.542816	146.580000
478.636536	147.340000
478.730225	147.440000
478.823944	147.980000
478.917633	147.740000
479.011322	147.380000
479.105042	147.200000
479.198730	147.380000
479.292450	146.940000
479.386139	147.160000
479.479828	147.260000
479.573547	147.140000
479.667267	146.700000
479.760925	146.700000
479.854675	146.880000
479.948334	146.640000
480.042084	146.460000
480.135742	146.840000
480.229462	146.520000
480.323151	146.520000
480.416870	146.020000
480.510529	146.180000
480.604279	145.620000
480.697937	146.060000
480.791656	145.460000
480.885345	145.340000
480.979065	145.020000
481.072754	145.700000
481.166473	146.020000
481.260132	146.240000
481.353882	146.440000
481.447540	146.740000
481.541260	146.600000
481.635010	145.900000
481.728668	146.080000
481.822388	145.880000
481.916077	145.900000
482.009796	145.720000
482.103485	146.300000
482.197205	146.580000
482.290863	146.960000
482.384613	146.620000
482.478271	146.480000
482.571991	146.300000
482.665680	145.800000
482.759399	146.260000
482.853058	146.920000
482.946808	146.720000
483.040466	146.680000
483.134216	146.780000
483.227875	146.040000
483.321594	146.380000
483.415283	146.580000
483.509003	146.580000
483.602661	146.320000
483.696411	147.000000
483.790070	146.420000
483.883789	146.320000
483.977478	146.380000
484.071198	146.580000
484.164917	145.880000
484.258606	145.440000
484.352325	145.600000
484.445984	145.940000
484.539734	145.840000
484.633392	145.720000
484.727142	146.260000
484.820801	145.760000
484.914520	145.300000
485.008209	145.700000
485.101929	146.480000
485.195587	146.220000
485.289337	146.500000
485.382996	146.760000
485.476715	146.420000
485.570404	146.640000
485.664124	146.640000
485.757782	147.200000
485.851532	146.880000
485.945190	147.000000
486.038910	146.540000
486.132599	146.760000
486.226318	146.220000
486.319977	146.080000
486.413727	146.580000
486.507446	146.180000
486.601105	145.600000
486.694855	145.520000
486.788513	145.560000
486.882233	145.200000
486.975922	145.640000
487.069641	145.880000
487.163300	145.620000
487.257050	146.940000
487.350708	146.840000
487.444427	146.460000
487.538116	146.580000
487.631836	146.780000
487.725494	145.780000
487.819214	145.920000
487.912903	146.140000
488.006622	146.280000
488.100281	146.680000
488.194031	146.620000
488.287689	146.600000
488.381409	147.060000
488.475098	146.940000
488.568817	146.820000
488.662476	146.680000
488.756226	146.480000
488.849945	145.520000
488.943604	145.440000
489.037354	145.600000
489.131012	145.560000
489.224731	145.500000
489.318390	145.460000
489.412140	145.660000
489.505798	145.340000
489.599518	145.300000
489.693207	145.700000
489.786926	146.160000
489.880585	145.900000
489.974335	146.240000
490.067993	147.220000
490.161713	147.180000
490.255371	147.680000
490.349121	147.780000
490.442780	147.240000
490.536499	146.340000
490.630188	146.240000
490.723907	145.360000
490.817566	145.620000
490.911285	145.980000
491.004974	145.860000
491.098694	145.440000
491.192413	146.440000
491.286102	146.300000
491.379822	146.460000
491.473480	146.800000
491.567200	147.200000
491.660889	146.400000
491.754608	146.120000
491.848267	145.820000
491.941986	145.720000
492.035675	145.600000
492.129395	146.200000
492.223053	146.180000
492.316772	146.780000
492.410461	146.540000
492.504181	146.300000
492.597839	145.800000
492.691559	145.900000
492.785248	145.600000
492.878967	145.500000
492.972626	145.640000
493.066345	145.860000
493.160034	145.600000
493.253754	145.460000
493.347412	145.420000
493.441132	145.580000
493.534882	145.860000
493.628540	146.280000
493.722260	146.620000
493.815918	146.980000
493.909668	147.220000
494.003326	147.260000
494.097046	147.080000
494.190704	146.440000
494.284454	146.480000
494.378113	146.440000
494.471832	146.080000
494.565491	146.340000
494.659210	146.860000
494.752899	146.760000
494.846619	146.560000
494.940277	146.760000
495.033997	146.280000
495.127686	146.080000
495.221405	145.860000
495.315063	145.800000
495.408783	145.780000
495.502441	146.020000
495.596191	146.000000
495.689850	146.080000
495.783569	146.540000
495.877228	146.540000
495.970947	146.260000
496.064697	146.120000
496.158356	146.940000
496.252075	146.460000
496.345734	146.020000
496.439453	146.920000
496.533142	146.960000
496.626862	146.620000
496.720520	146.860000
496.814240	147.040000
496.907898	146.660000
497.001617	146.980000
497.095306	146.400000
497.189026	146.340000
497.282684	146.500000
497.376404	146.660000
497.470062	146.380000
497.563782	146.880000
497.657471	146.800000
497.751190	146.580000
497.844849	146.300000
497.938568	146.580000
498.032227	146.620000
498.125946	146.540000
498.219635	146.420000
498.313354	146.700000
498.407074	146.180000
498.500732	145.980000
498.594452	146.000000
498.688110	146.100000
498.781830	145.660000
498.875519	146.040000
498.969238	145.740000
499.062897	145.540000
499.156616	146.160000
499.250275	146.160000
499.343994	145.860000
499.437653	146.140000
499.531372	146.240000
499.625061	146.540000
499.718781	146.720000
499.812439	146.940000
499.906158	146.800000
499.999817	146.740000
500.093536	145.980000
500.187195	146.040000
500.280914	146.180000
500.374573	146.160000
500.468323	146.140000
500.561981	146.460000
500.655701	146.280000
500.749420	146.200000
500.843079	146.460000
500.936798	146.640000
501.030457	146.880000
501.124176	146.920000
501.217834	146.660000
501.311554	146.680000
501.405212	146.560000
501.498962	145.620000
501.592621	145.760000
501.686340	146.200000
501.779999	146.260000
501.873718	146.760000
501.967377	147.340000
502.061096	147.200000
502.154755	146.740000
502.248474	146.600000
502.342133	146.240000
502.435852	146.080000
502.529510	146.880000
502.623230	147.520000
502.716888	147.280000
502.810608	147.440000
502.904266	147.880000
502.997986	147.180000
503.091705	146.600000
503.185364	146.480000
503.279083	146.400000
503.372772	146.160000
503.466492	145.480000
503.560150	145.480000
503.653870	146.000000
503.747528	145.980000
503.841248	145.660000
503.934906	146.260000
504.028625	146.060000
504.122284	146.260000
504.216003	146.500000
504.309662	146.400000
504.403381	146.520000
504.497040	146.700000
504.590759	146.120000
504.684418	146.120000
504.778137	146.580000
504.871796	146.920000
504.965515	147.160000
505.059174	147.420000
505.152893	146.880000
505.246521	146.400000
505.340240	145.880000
505.433899	145.760000
505.527618	145.820000
505.621338	146.180000
505.714996	146.080000
505.808716	146.220000
505.902374	146.700000
505.996094	146.600000
506.089752	146.660000
506.183472	147.280000
506.277130	147.440000
506.370850	147.260000
506.464508	146.860000
506.558228	146.620000
506.651886	146.120000
506.745605	145.920000
506.839264	145.760000
506.932983	145.920000
507.026611	146.040000
507.120331	146.460000
507.213989	146.040000
507.307709	146.040000
507.401367	146.220000
507.495087	146.680000
507.588745	146.120000
507.682465	147.380000
507.776123	147.440000
507.869843	147.600000
507.963531	147.200000
508.057190	147.940000
508.150909	146.760000
508.244568	146.960000
508.338287	146.560000
508.431946	146.420000
508.525665	145.880000
508.619324	145.920000
508.713013	145.840000
508.806671	146.440000
508.900391	147.220000
508.994049	147.740000
509.087769	147.660000
509.181427	147.640000
509.275146	147.240000
509.368774	146.360000
509.462494	146.020000
509.556152	146.080000
509.649872	146.280000
509.743530	146.600000
509.837250	146.620000
509.930878	146.540000
510.024597	146.800000
510.118256	146.300000
510.211975	145.720000
510.305695	145.640000
510.399353	146.120000
510.493042	146.560000
510.586700	146.800000
510.680420	147.800000
510.774078	147.920000
510.867798	147.760000
510.961426	146.940000
511.055145	146.900000
511.148804	146.380000
511.242523	146.980000
511.336151	147.220000
511.429871	147.680000
511.523529	147.600000
511.617249	147.360000
511.710876	146.980000
511.804596	146.300000
511.898254	146.160000
511.991974	146.520000
512.085632	146.500000
512.179321	146.440000
512.272949	146.960000
512.366699	147.600000
512.460327	147.280000
512.554077	147.800000
512.647766	147.640000
512.741394	147.300000
512.835144	147.400000
512.928772	147.280000
513.022461	147.100000
513.116150	147.020000
513.209839	147.600000
513.303467	146.840000
513.397217	146.340000
513.490845	146.160000
513.584595	146.200000
513.678223	145.500000
513.771912	145.120000
513.865601	145.460000
513.959290	145.100000
514.052917	145.280000
514.146667	145.940000
514.240295	146.700000
514.333984	146.960000
514.427673	146.900000
514.521362	147.340000
514.614990	146.640000
514.708740	146.320000
514.802368	146.380000
514.896057	146.620000
514.989746	146.780000
515.083435	146.840000
515.177124	147.200000
515.270752	146.840000
515.364502	146.900000
515.458130	146.840000
515.551819	146.420000
515.645508	146.200000
515.739197	146.540000
515.832825	146.600000
515.926575	145.780000
516.020203	146.300000
516.113892	146.420000
516.207520	146.300000
516.301270	146.300000
516.394897	146.700000
516.488586	147.200000
516.582275	147.360000
516.675964	146.880000
516.769592	146.780000
516.863281	147.320000
516.956970	147.220000
517.050659	146.620000
517.144287	146.800000
517.238037	146.820000
517.331665	145.940000
517.425354	145.500000
517.519043	145.380000
517.612732	145.640000
517.706421	145.620000
517.800049	145.620000
517.893738	145.520000
517.987427	145.820000
518.081116	145.540000
518.174744	145.120000
518.268433	145.500000
518.362122	146.260000
518.455811	146.220000
518.549438	147.280000
518.643127	148.420000
518.736816	148.320000
518.830505	147.560000
518.924133	147.600000
519.017822	147.160000
519.111511	146.580000
519.205200	146.940000
519.298828	147.020000
519.392517	146.580000
519.486206	146.640000
519.579895	146.560000
519.673523	146.160000
519.767212	146.240000
519.860901	147.020000
519.954590	146.680000
520.048279	146.320000
520.141907	146.300000
520.235596	147.060000
520.329224	147.020000
520.422974	147.060000
520.516602	147.220000
520.610291	146.880000
520.703918	146.540000
520.797607	146.180000
520.891296	146.120000
520.984985	146.600000
521.078613	147.100000
521.172302	146.500000
521.265930	147.260000
521.359680	147.920000
521.453308	147.440000
521.546997	147.380000
521.640625	147.700000
521.734314	147.100000
521.827942	146.540000
521.921692	146.980000
522.015320	147.040000
522.109009	146.920000
522.202698	146.800000
522.296326	146.720000
522.390015	146.940000
522.483704	146.720000
522.577393	146.660000
522.671021	146.660000
522.764709	146.480000
522.858337	146.500000
522.952026	146.740000
523.045654	147.220000
523.139404	147.380000
523.233032	147.480000
523.326721	147.060000
523.420349	146.920000
523.514038	146.560000
523.607666	146.880000
523.701355	146.640000
523.795044	146.620000
523.888733	146.880000
523.982361	147.080000
524.076050	146.600000
524.169678	147.200000
524.263367	146.880000
524.356995	146.400000
524.450684	146.020000
524.544373	145.800000
524.638062	145.520000
524.731750	145.960000
524.825378	146.140000
524.919067	145.920000
525.012695	146.360000
525.106384	146.280000
525.200012	146.440000
525.293701	146.160000
525.387329	146.700000
525.481018	146.640000
525.574646	147.000000
525.668396	146.740000
525.762024	147.120000
525.855713	147.260000
525.949341	146.820000
526.043030	147.080000
526.136658	146.760000
526.230347	146.400000
526.323975	145.940000
526.417664	146.280000
526.511292	145.900000
526.604980	146.660000
526.698608	146.780000
526.792297	146.840000
526.885925	146.920000
526.979614	147.120000
527.073303	146.520000
527.166931	146.640000
527.260620	146.900000
527.354309	146.960000
527.447998	146.700000
527.541626	146.720000
527.635315	146.680000
527.728943	147.200000
527.822632	147.620000
527.916260	147.580000
528.009949	147.880000
528.103577	147.780000
528.197266	146.860000
528.290894	146.620000
528.384583	146.440000
528.478210	146.540000
528.571899	146.800000
528.665527	147.360000
528.759216	147.300000
528.852844	147.880000
528.946533	147.540000
529.040161	147.440000
529.133850	146.800000
529.227478	146.940000
529.321167	146.760000
529.414856	147.340000
529.508484	147.760000
529.602173	147.880000
529.695801	147.760000
529.789490	147.640000
529.883057	146.920000
529.976746	146.920000
530.070374	147.220000
530.164062	147.000000
530.257690	147.440000
530.351379	147.840000
530.445007	147.540000
530.538696	147.120000
530.632324	147.340000
530.726013	146.960000
530.819641	146.840000
530.913330	146.940000
531.006958	146.980000
531.100647	147.020000
531.194275	146.940000
531.287964	146.620000
531.381592	146.400000
531.475220	146.460000
531.568848	146.180000
531.662537	146.080000
531.756226	146.800000
531.849854	146.780000
531.943542	147.100000
532.037170	146.820000
532.130859	147.560000
532.224487	147.340000
532.318176	147.120000
532.411804	147.460000
532.505432	147.620000
532.599060	146.640000
532.692749	146.120000
532.786377	146.540000
532.880066	145.480000
532.973694	145.180000
533.067383	145.600000
533.161011	145.880000
533.254639	145.600000
533.348267	145.980000
533.441956	146.580000
533.535583	146.260000
533.629272	146.440000
533.722900	146.100000
533.816589	146.140000
533.910156	146.220000
534.003845	146.040000
534.097534	146.260000
534.191162	147.380000
534.284851	147.400000
534.378479	147.020000
534.472107	147.300000
534.565735	146.940000
534.659424	146.640000
534.753052	146.800000
534.846741	146.580000
534.940369	147.080000
535.033997	146.840000
535.127625	146.700000
535.221313	146.960000
535.314941	146.960000
535.408630	146.300000
535.502197	146.700000
535.595886	146.440000
535.689514	145.900000
535.783203	146.480000
535.876831	147.160000
535.970459	147.340000
536.064087	147.080000
536.157776	147.360000
536.251404	147.240000
536.345093	146.720000
536.438721	146.280000
536.532349	146.940000
536.626038	146.960000
536.719666	147.220000
536.813293	147.080000
536.906921	147.000000
537.000610	146.880000
537.094238	146.880000
537.187866	146.480000
537.281494	146.560000
537.375183	146.860000
537.468811	146.460000
537.562439	146.240000
537.656067	146.260000
537.749756	146.240000
537.843384	146.680000
537.937012	146.960000
538.030640	146.900000
538.124329	147.020000
538.217896	147.260000
538.311584	147.000000
538.405212	146.960000
538.498901	147.360000
538.592468	147.720000
538.686157	147.320000
538.779785	146.680000
538.873413	146.540000
538.967102	146.100000
539.060730	145.580000
539.154358	145.820000
539.247986	146.400000
539.341675	146.300000
539.435242	146.320000
539.528931	146.640000
539.622559	146.400000
539.716187	146.740000
539.809814	146.800000
539.903503	147.000000
539.997070	146.700000
540.090759	146.940000
540.184387	146.460000
540.278015	146.800000
540.371643	146.880000
540.465332	147.240000
540.558899	146.980000
540.652588	146.820000
540.746216	146.500000
540.839844	146.620000
540.933472	146.560000
541.027100	146.640000
541.120728	146.820000
541.214417	147.100000
541.308044	147.300000
541.401672	147.020000
541.495300	147.020000
541.588928	146.920000
541.682617	146.720000
541.776184	146.240000
541.869873	146.200000
541.963440	146.460000
542.057129	146.560000
542.150757	146.640000
542.244385	146.600000
542.338013	146.500000
542.431641	146.380000
542.525269	145.980000
542.618958	146.500000
542.712524	146.640000
542.806213	146.320000
542.899780	146.380000
542.993469	146.680000
543.087036	146.180000
543.180725	145.900000
543.274292	146.440000
543.367981	146.600000
543.461548	146.980000
543.555237	146.920000
543.648926	147.760000
543.742493	148.540000
543.836182	148.300000
543.929749	147.980000
544.023437	148.080000
544.117004	147.680000
544.210693	146.980000
544.304260	147.260000
544.397949	147.180000
544.491516	147.360000
544.585205	147.400000
544.678772	147.120000
544.772461	146.960000
544.866028	146.800000
544.959717	146.800000
545.053284	146.400000
545.146973	146.560000
545.240540	146.680000
545.334229	147.360000
545.427795	147.360000
545.521423	147.480000
545.615051	147.500000
545.708679	147.900000
545.802307	147.400000
545.895935	147.560000
545.989624	148.520000
546.083191	148.620000
546.176880	148.180000
546.270447	148.180000
546.364136	148.320000
546.457703	147.620000
546.551331	147.720000
546.644958	147.880000
546.738586	147.980000
546.832214	147.560000
546.925842	147.560000
547.019409	147.240000
547.113098	146.700000
547.206665	146.260000
547.300354	146.200000
547.393921	146.160000
547.487549	146.780000
547.581177	146.840000
547.674805	147.260000
547.768433	146.780000
547.862061	146.720000
547.955627	145.940000
548.049316	146.380000
548.142883	146.380000
548.236572	147.180000
548.330139	147.400000
548.423767	147.280000
548.517456	147.200000
548.611023	147.180000
548.704651	146.280000
548.798279	146.320000
548.891907	147.140000
548.985474	147.180000
549.079163	147.540000
549.172729	147.620000
549.266357	147.020000
549.359985	146.700000
549.453613	146.120000
549.547180	145.740000
549.640869	146.280000
549.734436	146.320000
549.828064	146.360000
549.921631	146.680000
550.015320	146.260000
550.108887	146.280000
550.202515	146.340000
550.296143	146.100000
550.389771	146.240000
550.483337	146.760000
550.576965	146.440000
550.670593	146.860000
550.764221	147.120000
550.857849	146.680000
550.951477	146.000000
551.045105	145.920000
551.138672	145.960000
551.232300	145.620000
551.325928	146.220000
551.419556	146.800000
551.513123	146.600000
551.606750	146.200000
551.700378	146.260000
551.794006	145.920000
551.887573	145.660000
551.981201	146.280000
552.074768	146.200000
552.168457	146.140000
552.262024	146.660000
552.355652	146.740000
552.449219	147.260000
552.542847	147.680000
552.636475	147.540000
552.730103	146.760000
552.823669	146.760000
552.917297	146.380000
553.010864	145.980000
553.104553	146.220000
553.198181	146.220000
553.291748	146.800000
553.385376	146.440000
553.478943	146.500000
553.572571	146.600000
553.666199	146.960000
553.759827	146.260000
553.853394	146.160000
553.947021	146.300000
554.040588	146.420000
554.134216	146.420000
554.227783	147.020000
554.321411	147.640000
554.415039	147.320000
554.508667	147.200000
554.602234	147.340000
554.695862	146.900000
554.789429	146.540000
554.883057	146.800000
554.976624	146.840000
555.070251	146.740000
555.163818	146.380000
555.257507	146.460000
555.351074	146.480000
555.444702	147.260000
555.538330	146.840000
555.631897	147.600000
555.725525	147.280000
555.819092	146.960000
555.912720	145.940000
556.006287	146.400000
556.099915	146.000000
556.193481	146.340000
556.287109	146.720000
556.380676	146.480000
556.474304	146.580000
556.567871	146.740000
556.661499	146.040000
556.755066	146.100000
556.848694	146.520000
556.942261	146.340000
557.035889	146.580000
557.129517	146.960000
557.223145	147.240000
557.316711	147.040000
557.410339	147.140000
557.503906	146.800000
557.597473	147.320000
557.691040	146.740000
557.784668	146.720000
557.878296	146.380000
557.971863	146.320000
558.065491	145.960000
558.159058	145.900000
558.252686	146.660000
558.346252	147.300000
558.439880	147.020000
558.533447	147.000000
558.627075	146.880000
558.720642	146.240000
558.814270	146.100000
558.907837	146.000000
559.001465	145.580000
559.095032	146.400000
559.188660	146.680000
559.282227	146.120000
559.375854	146.880000
559.469360	146.980000
559.562988	146.980000
559.656555	146.920000
559.750183	147.540000
559.843750	147.300000
559.937378	147.460000
560.030945	147.020000
560.124573	0.000000
560.218140	0.000000
560.311707	0.000000
560.405334	0.000000
560.498901	0.000000
560.592529	0.000000
560.686096	0.000000
560.779724	0.000000
560.873291	0.000000
560.966858	0.000000
561.060425	0.000000
561.154053	0.000000
561.247620	0.000000
561.341248	0.000000
561.434814	0.000000
561.528381	0.000000
561.621948	0.000000
561.715576	0.000000
561.809143	0.000000
561.902771	0.000000
561.996277	0.000000
562.089905	0.000000
562.183472	0.000000
562.277100	0.000000
