Model Number: SPM-002-B   
Serial Number: 70087108
Firmware Version: 004.15.4
Exposure Time: 100000.000000us
Data Taken on: 11-12-2020 19:40:18.008
Wavelength	Amplitude
221.570786	0.000000
221.663406	0.000000
221.756027	0.000000
221.848648	0.000000
221.941269	0.000000
222.033905	0.000000
222.126526	0.000000
222.219162	0.000000
222.311798	0.000000
222.404419	0.000000
222.497055	0.000000
222.589676	0.000000
222.682312	0.000000
222.774933	0.000000
222.867569	0.000000
222.960205	0.000000
223.052841	0.000000
223.145462	0.000000
223.238098	0.000000
223.330734	0.000000
223.423386	0.000000
223.516022	0.000000
223.608658	0.000000
223.701309	0.000000
223.793945	0.000000
223.886581	0.000000
223.979218	0.000000
224.071869	0.000000
224.164505	0.000000
224.257156	0.000000
224.349792	0.000000
224.442444	0.000000
224.535095	0.000000
224.627747	0.000000
224.720398	0.000000
224.813034	0.000000
224.905685	0.000000
224.998337	145.880000
225.090988	145.540000
225.183640	145.360000
225.276291	145.260000
225.368942	145.360000
225.461594	145.540000
225.554245	145.840000
225.646912	145.940000
225.739578	146.600000
225.832230	146.860000
225.924896	146.220000
226.017548	146.380000
226.110199	147.060000
226.202866	146.180000
226.295532	146.200000
226.388184	146.180000
226.480850	145.380000
226.573517	144.620000
226.666168	144.480000
226.758835	144.540000
226.851501	145.040000
226.944183	145.360000
227.036850	145.060000
227.129517	145.540000
227.222183	145.660000
227.314850	145.580000
227.407516	145.840000
227.500198	146.800000
227.592865	146.700000
227.685532	146.380000
227.778214	146.160000
227.870880	146.540000
227.963562	146.700000
228.056229	147.020000
228.148926	147.080000
228.241592	148.000000
228.334274	147.720000
228.426956	147.380000
228.519638	147.300000
228.612305	146.880000
228.704987	146.420000
228.797668	146.300000
228.890350	145.920000
228.983032	145.360000
229.075714	146.280000
229.168396	146.160000
229.261108	145.980000
229.353790	146.200000
229.446472	146.620000
229.539169	146.060000
229.631851	145.780000
229.724533	145.940000
229.817230	146.060000
229.909912	147.000000
230.002609	146.960000
230.095306	146.780000
230.187988	146.820000
230.280685	146.580000
230.373383	145.080000
230.466095	144.900000
230.558792	145.320000
230.651474	145.300000
230.744171	145.360000
230.836868	145.840000
230.929581	146.440000
231.022278	146.480000
231.114975	146.380000
231.207672	146.240000
231.300369	146.460000
231.393082	146.440000
231.485779	146.140000
231.578506	146.240000
231.671204	146.100000
231.763916	145.980000
231.856613	145.420000
231.949326	145.680000
232.042023	145.580000
232.134735	145.760000
232.227448	145.520000
232.320160	146.080000
232.412872	146.220000
232.505585	147.020000
232.598297	147.760000
232.691010	147.880000
232.783722	147.260000
232.876450	147.600000
232.969162	146.860000
233.061874	146.020000
233.154587	145.400000
233.247314	145.900000
233.340027	145.240000
233.432739	145.720000
233.525467	145.760000
233.618179	146.320000
233.710907	145.900000
233.803635	146.280000
233.896347	145.720000
233.989090	146.520000
234.081818	146.520000
234.174545	147.040000
234.267258	146.820000
234.359985	147.040000
234.452713	146.500000
234.545441	146.520000
234.638168	146.180000
234.730896	146.680000
234.823639	146.660000
234.916367	146.920000
235.009094	146.740000
235.101822	146.800000
235.194580	146.260000
235.287308	146.200000
235.380051	145.580000
235.472778	145.600000
235.565521	146.120000
235.658249	145.920000
235.750992	145.920000
235.843719	146.300000
235.936462	146.540000
236.029205	145.860000
236.121948	145.760000
236.214691	146.140000
236.307449	146.680000
236.400192	146.420000
236.492935	146.540000
236.585678	146.900000
236.678421	146.920000
236.771164	146.620000
236.863907	147.140000
236.956665	147.100000
237.049408	148.280000
237.142151	147.520000
237.234909	148.120000
237.327652	148.040000
237.420410	147.820000
237.513153	146.860000
237.605927	147.100000
237.698669	146.300000
237.791428	145.640000
237.884186	146.340000
237.976944	145.840000
238.069702	146.380000
238.162445	146.120000
238.255203	146.380000
238.347961	146.580000
238.440720	146.720000
238.533478	146.160000
238.626266	145.860000
238.719025	146.300000
238.811783	145.900000
238.904541	145.820000
238.997314	146.060000
239.090073	146.140000
239.182831	145.940000
239.275604	146.520000
239.368362	146.480000
239.461136	146.380000
239.553909	146.400000
239.646667	146.180000
239.739441	145.780000
239.832214	146.060000
239.925003	145.940000
240.017761	146.480000
240.110535	147.100000
240.203308	146.920000
240.296082	147.120000
240.388855	147.280000
240.481628	147.380000
240.574417	147.180000
240.667191	146.760000
240.759964	146.300000
240.852737	146.040000
240.945526	145.540000
241.038315	145.360000
241.131088	145.760000
241.223877	146.160000
241.316650	145.940000
241.409439	146.160000
241.502228	145.620000
241.595001	146.100000
241.687790	145.700000
241.780579	145.940000
241.873367	146.260000
241.966141	146.740000
242.058929	145.960000
242.151718	146.240000
242.244507	146.540000
242.337311	145.840000
242.430099	146.380000
242.522903	146.820000
242.615692	146.120000
242.708481	146.160000
242.801270	146.580000
242.894073	145.980000
242.986862	145.940000
243.079651	146.580000
243.172455	146.200000
243.265244	146.260000
243.358063	146.120000
243.450867	146.220000
243.543655	146.320000
243.636459	146.520000
243.729263	146.620000
243.822067	146.780000
243.914856	146.940000
244.007660	146.820000
244.100464	146.960000
244.193268	146.540000
244.286072	146.660000
244.378876	145.940000
244.471680	145.680000
244.564499	145.940000
244.657318	146.380000
244.750122	146.560000
244.842926	146.340000
244.935745	146.860000
245.028549	146.140000
245.121368	145.660000
245.214172	145.440000
245.306992	146.460000
245.399796	145.920000
245.492615	146.460000
245.585434	146.600000
245.678253	146.220000
245.771072	145.720000
245.863892	146.280000
245.956711	146.220000
246.049530	146.160000
246.142349	146.280000
246.235168	146.080000
246.327988	146.400000
246.420807	146.260000
246.513626	146.460000
246.606445	146.100000
246.699280	146.200000
246.792099	145.860000
246.884918	145.620000
246.977753	145.320000
247.070587	145.840000
247.163422	146.060000
247.256241	145.920000
247.349075	146.300000
247.441895	146.560000
247.534729	146.260000
247.627563	145.820000
247.720383	146.320000
247.813217	146.220000
247.906052	145.920000
247.998886	146.240000
248.091736	146.440000
248.184570	146.180000
248.277405	146.480000
248.370239	147.500000
248.463074	148.440000
248.555908	148.740000
248.648743	148.380000
248.741592	148.140000
248.834427	147.420000
248.927261	145.960000
249.020111	146.100000
249.112946	146.680000
249.205795	146.380000
249.298630	146.440000
249.391495	146.780000
249.484344	146.500000
249.577179	146.140000
249.670029	146.700000
249.762878	147.020000
249.855728	147.020000
249.948563	146.960000
250.041412	146.460000
250.134262	146.700000
250.227112	146.720000
250.319962	146.700000
250.412827	147.000000
250.505692	146.980000
250.598541	146.600000
250.691391	146.420000
250.784241	146.580000
250.877106	146.340000
250.969955	146.340000
251.062805	146.700000
251.155670	146.960000
251.248520	146.760000
251.341385	146.960000
251.434235	147.240000
251.527100	146.760000
251.619965	146.380000
251.712814	146.880000
251.805695	146.980000
251.898560	146.960000
251.991425	146.960000
252.084290	147.100000
252.177155	146.480000
252.270020	146.040000
252.362885	145.980000
252.455750	146.220000
252.548615	145.840000
252.641479	146.160000
252.734360	146.200000
252.827240	146.220000
252.920105	146.080000
253.012970	146.100000
253.105850	146.000000
253.198715	145.560000
253.291595	145.620000
253.384460	145.320000
253.477341	145.040000
253.570221	145.280000
253.663086	145.540000
253.755966	146.120000
253.848846	146.360000
253.941727	146.880000
254.034592	146.740000
254.127472	146.580000
254.220367	146.220000
254.313248	146.420000
254.406128	145.940000
254.499008	146.020000
254.591904	146.780000
254.684784	147.320000
254.777664	146.960000
254.870544	147.080000
254.963440	147.020000
255.056335	146.960000
255.149216	146.440000
255.242111	147.040000
255.334991	147.380000
255.427887	147.640000
255.520767	147.360000
255.613663	147.340000
255.706558	146.560000
255.799438	146.340000
255.892334	145.780000
255.985229	145.520000
256.078125	145.680000
256.171021	145.780000
256.263916	146.040000
256.356812	146.580000
256.449707	147.000000
256.542603	146.580000
256.635498	147.200000
256.728394	147.360000
256.821289	146.940000
256.914215	146.980000
257.007080	147.520000
257.100006	147.400000
257.192932	147.380000
257.285828	147.680000
257.378723	147.420000
257.471619	146.860000
257.564545	146.220000
257.657440	146.120000
257.750336	146.440000
257.843262	146.180000
257.936157	147.480000
258.029053	148.080000
258.121979	147.980000
258.214874	147.600000
258.307800	147.640000
258.400696	146.160000
258.493622	145.920000
258.586517	145.360000
258.679443	145.500000
258.772339	145.500000
258.865265	145.820000
258.958160	145.580000
259.051086	146.580000
259.144012	146.280000
259.236938	147.060000
259.329834	147.320000
259.422791	146.960000
259.515717	146.080000
259.608612	146.260000
259.701538	145.980000
259.794464	145.480000
259.887390	145.820000
259.980316	145.780000
260.073212	145.540000
260.166138	144.600000
260.259064	145.200000
260.351990	145.680000
260.444916	145.700000
260.537842	146.200000
260.630768	147.180000
260.723694	147.100000
260.816620	146.940000
260.909546	147.080000
261.002472	146.420000
261.095398	145.820000
261.188354	145.500000
261.281281	145.240000
261.374207	145.580000
261.467133	146.500000
261.560089	146.900000
261.653015	146.840000
261.745972	147.440000
261.838867	147.600000
261.931824	147.640000
262.024780	146.900000
262.117706	147.220000
262.210663	147.020000
262.303589	146.680000
262.396515	146.360000
262.489471	147.480000
262.582397	147.360000
262.675354	146.760000
262.768280	146.860000
262.861237	146.740000
262.954163	146.420000
263.047119	146.580000
263.140045	146.700000
263.233002	146.820000
263.325958	146.660000
263.418884	146.280000
263.511841	146.340000
263.604797	146.160000
263.697723	145.960000
263.790680	145.720000
263.883636	146.120000
263.976593	145.480000
264.069550	145.720000
264.162476	145.480000
264.255463	145.740000
264.348419	145.600000
264.441376	146.360000
264.534332	146.000000
264.627289	146.200000
264.720245	146.760000
264.813202	146.060000
264.906158	145.800000
264.999115	146.460000
265.092072	146.440000
265.185028	146.720000
265.277985	147.360000
265.370941	147.120000
265.463898	147.060000
265.556854	147.140000
265.649811	146.000000
265.742798	146.180000
265.835754	146.300000
265.928711	146.520000
266.021667	146.520000
266.114655	147.060000
266.207611	146.920000
266.300568	146.360000
266.393585	145.620000
266.486511	145.700000
266.579498	145.080000
266.672485	145.060000
266.765442	145.140000
266.858429	145.920000
266.951385	145.320000
267.044342	145.700000
267.137329	145.580000
267.230316	145.940000
267.323273	145.660000
267.416260	146.820000
267.509216	146.860000
267.602203	147.020000
267.695160	147.680000
267.788147	147.560000
267.881134	146.900000
267.974091	147.080000
268.067078	146.660000
268.160065	145.940000
268.253052	145.860000
268.346008	145.860000
268.438995	145.420000
268.531982	145.880000
268.624969	145.940000
268.717987	146.280000
268.810944	146.140000
268.903961	146.520000
268.996948	146.260000
269.089905	146.680000
269.182892	146.880000
269.275879	147.320000
269.368866	146.760000
269.461853	146.980000
269.554871	146.580000
269.647858	146.480000
269.740845	146.780000
269.833832	147.320000
269.926819	147.040000
270.019806	147.240000
270.112793	146.360000
270.205811	146.120000
270.298798	145.700000
270.391785	146.040000
270.484772	145.800000
270.577789	146.220000
270.670776	145.720000
270.763763	145.980000
270.856750	146.060000
270.949768	145.700000
271.042786	145.920000
271.135773	146.180000
271.228790	146.000000
271.321808	145.460000
271.414795	145.320000
271.507782	145.160000
271.600800	144.940000
271.693817	145.100000
271.786804	145.620000
271.879822	146.360000
271.972809	146.080000
272.065826	146.580000
272.158844	146.200000
272.251831	146.500000
272.344849	145.980000
272.437866	145.960000
272.530853	145.820000
272.623871	146.360000
272.716888	145.340000
272.809906	145.800000
272.902893	145.660000
272.995911	145.180000
273.088928	144.980000
273.181946	145.480000
273.274963	145.100000
273.367981	145.400000
273.460999	145.660000
273.554047	146.160000
273.647003	146.920000
273.740051	147.100000
273.833069	147.600000
273.926086	147.740000
274.019135	147.240000
274.112152	146.800000
274.205170	146.860000
274.298187	146.920000
274.391205	146.460000
274.484222	146.580000
274.577240	146.460000
274.670258	146.220000
274.763306	145.920000
274.856323	146.300000
274.949341	146.540000
275.042358	146.500000
275.135406	146.480000
275.228424	146.440000
275.321442	146.440000
275.414490	145.980000
275.507507	146.720000
275.600525	147.320000
275.693573	146.820000
275.786591	146.560000
275.879669	146.640000
275.972656	145.580000
276.065735	145.100000
276.158752	145.800000
276.251801	146.400000
276.344818	146.480000
276.437866	146.740000
276.530884	146.600000
276.623932	145.980000
276.716980	145.920000
276.809998	146.140000
276.903046	146.520000
276.996094	147.480000
277.089111	148.280000
277.182159	148.440000
277.275208	147.960000
277.368256	147.460000
277.461304	147.000000
277.554321	146.260000
277.647369	146.140000
277.740417	146.200000
277.833466	146.080000
277.926514	145.800000
278.019562	146.280000
278.112610	145.600000
278.205688	145.880000
278.298706	145.980000
278.391785	145.900000
278.484833	145.380000
278.577881	145.480000
278.670929	145.700000
278.763977	145.760000
278.857025	146.260000
278.950073	146.160000
279.043121	145.880000
279.136169	145.620000
279.229248	145.220000
279.322296	144.920000
279.415344	145.080000
279.508392	145.340000
279.601440	145.380000
279.694519	145.900000
279.787567	146.120000
279.880615	146.160000
279.973694	146.020000
280.066742	146.000000
280.159790	145.920000
280.252869	145.380000
280.345917	145.580000
280.438995	145.660000
280.532074	145.540000
280.625122	145.920000
280.718201	146.700000
280.811279	146.760000
280.904327	146.960000
280.997406	147.120000
281.090454	146.840000
281.183533	145.980000
281.276581	145.700000
281.369659	145.500000
281.462738	145.780000
281.555786	145.960000
281.648865	146.360000
281.741943	146.580000
281.835022	147.000000
281.928070	146.540000
282.021149	146.420000
282.114227	146.460000
282.207306	146.360000
282.300385	146.560000
282.393433	146.620000
282.486511	146.180000
282.579590	146.500000
282.672668	146.760000
282.765747	146.180000
282.858856	146.400000
282.951904	146.800000
283.045013	147.040000
283.138062	147.280000
283.231171	147.700000
283.324249	147.740000
283.417328	147.680000
283.510406	146.800000
283.603485	146.360000
283.696564	145.940000
283.789642	145.980000
283.882751	146.020000
283.975830	146.780000
284.068909	146.640000
284.161987	147.400000
284.255066	146.520000
284.348175	146.680000
284.441254	146.280000
284.534332	146.880000
284.627441	146.220000
284.720520	146.600000
284.813599	146.520000
284.906708	146.300000
284.999786	145.280000
285.092896	145.240000
285.185974	146.000000
285.279053	145.520000
285.372192	145.620000
285.465240	146.720000
285.558380	146.580000
285.651459	145.880000
285.744568	147.060000
285.837677	146.880000
285.930756	146.620000
286.023865	146.920000
286.116943	146.640000
286.210052	146.140000
286.303162	146.060000
286.396240	145.940000
286.489349	146.000000
286.582458	146.280000
286.675568	145.760000
286.768646	146.000000
286.861755	146.180000
286.954865	146.760000
287.047974	146.440000
287.141083	146.640000
287.234161	146.380000
287.327271	146.140000
287.420380	146.220000
287.513519	146.140000
287.606598	146.120000
287.699738	146.620000
287.792816	146.640000
287.885956	145.920000
287.979034	146.480000
288.072174	146.660000
288.165283	146.480000
288.258392	146.540000
288.351501	146.160000
288.444611	146.720000
288.537720	146.980000
288.630859	146.920000
288.723969	147.000000
288.817078	147.600000
288.910187	147.000000
289.003296	146.480000
289.096436	146.280000
289.189545	146.120000
289.282654	145.880000
289.375763	146.320000
289.468903	146.760000
289.562012	147.280000
289.655121	147.340000
289.748260	147.560000
289.841400	147.460000
289.934509	147.040000
290.027649	146.980000
290.120728	146.760000
290.213898	146.640000
290.306976	146.080000
290.400146	146.260000
290.493256	145.780000
290.586395	145.880000
290.679535	146.100000
290.772644	146.220000
290.865784	145.760000
290.958893	145.980000
291.052032	146.160000
291.145172	146.040000
291.238281	146.020000
291.331421	146.160000
291.424561	146.460000
291.517670	146.080000
291.610809	146.340000
291.703949	146.260000
291.797089	146.480000
291.890228	146.100000
291.983337	146.140000
292.076477	145.680000
292.169617	145.920000
292.262756	145.900000
292.355927	145.680000
292.449036	145.440000
292.542206	145.400000
292.635315	145.380000
292.728485	145.340000
292.821625	145.280000
292.914764	146.460000
293.007904	146.760000
293.101044	146.660000
293.194183	146.620000
293.287323	146.700000
293.380463	145.880000
293.473602	145.540000
293.566742	145.760000
293.659882	146.280000
293.753021	146.660000
293.846191	146.660000
293.939331	146.260000
294.032471	146.100000
294.125610	145.540000
294.218781	145.760000
294.311920	146.220000
294.405060	146.600000
294.498230	146.760000
294.591370	147.040000
294.684540	146.440000
294.777679	146.040000
294.870850	146.360000
294.963959	146.140000
295.057159	146.000000
295.150299	146.400000
295.243469	146.520000
295.336609	146.160000
295.429779	146.280000
295.522919	146.680000
295.616089	146.400000
295.709229	146.700000
295.802399	146.920000
295.895569	146.700000
295.988708	146.300000
296.081879	146.620000
296.175018	146.040000
296.268188	145.960000
296.361359	146.440000
296.454529	146.360000
296.547668	146.300000
296.640839	146.720000
296.734009	146.640000
296.827179	146.440000
296.920319	146.860000
297.013519	146.200000
297.106659	146.240000
297.199860	146.000000
297.292999	146.020000
297.386200	145.580000
297.479309	145.720000
297.572510	145.600000
297.665680	145.380000
297.758850	145.400000
297.852020	145.520000
297.945190	145.440000
298.038361	145.200000
298.131531	146.200000
298.224701	145.820000
298.317871	145.520000
298.411072	145.560000
298.504242	145.300000
298.597412	144.720000
298.690582	145.080000
298.783752	145.080000
298.876923	145.640000
298.970093	145.940000
299.063293	146.560000
299.156464	146.760000
299.249634	147.000000
299.342834	146.940000
299.436005	147.280000
299.529205	146.800000
299.622345	146.900000
299.715576	146.560000
299.808716	146.120000
299.901917	145.980000
299.995117	146.280000
300.088287	146.180000
300.181488	146.100000
300.274658	146.240000
300.367828	146.180000
300.461029	146.040000
300.554199	146.300000
300.647400	146.660000
300.740601	147.480000
300.833771	147.200000
300.926971	147.300000
301.020142	146.440000
301.113342	146.320000
301.206512	145.980000
301.299713	146.300000
301.392914	146.340000
301.486084	147.200000
301.579285	147.400000
301.672516	147.420000
301.765686	147.220000
301.858887	147.140000
301.952057	146.740000
302.045288	146.540000
302.138458	146.380000
302.231659	146.240000
302.324860	146.100000
302.418060	145.920000
302.511261	145.920000
302.604462	146.240000
302.697662	146.120000
302.790863	146.120000
302.884064	145.820000
302.977264	145.860000
303.070465	145.880000
303.163666	146.740000
303.256866	147.060000
303.350067	147.440000
303.443268	147.440000
303.536469	147.440000
303.629669	146.620000
303.722870	146.520000
303.816071	146.280000
303.909271	146.280000
304.002472	145.380000
304.095673	145.540000
304.188934	144.900000
304.282104	145.880000
304.375336	145.880000
304.468506	146.120000
304.561768	145.960000
304.654968	146.620000
304.748169	145.920000
304.841370	146.060000
304.934601	146.480000
305.027802	146.240000
305.121002	145.960000
305.214233	146.080000
305.307434	145.940000
305.400665	146.620000
305.493866	146.560000
305.587097	146.800000
305.680298	146.620000
305.773499	147.040000
305.866730	146.400000
305.959930	147.260000
306.053162	147.260000
306.146393	146.760000
306.239594	145.980000
306.332825	145.860000
306.426025	146.040000
306.519287	145.520000
306.612488	145.660000
306.705719	145.880000
306.798920	145.980000
306.892181	145.220000
306.985352	145.180000
307.078613	145.220000
307.171844	145.680000
307.265045	145.320000
307.358276	145.200000
307.451508	145.700000
307.544739	146.280000
307.637970	145.720000
307.731201	145.580000
307.824402	146.240000
307.917633	146.340000
308.010864	146.500000
308.104095	146.920000
308.197327	147.320000
308.290558	147.060000
308.383789	146.560000
308.477020	146.180000
308.570251	145.600000
308.663483	145.160000
308.756714	144.900000
308.849976	145.300000
308.943176	146.100000
309.036438	146.240000
309.129639	146.140000
309.222900	146.080000
309.316101	145.760000
309.409393	144.760000
309.502625	144.500000
309.595856	144.980000
309.689087	145.320000
309.782318	145.360000
309.875580	145.420000
309.968811	145.800000
310.062042	145.340000
310.155273	145.060000
310.248535	145.400000
310.341766	145.420000
310.434998	145.020000
310.528259	145.040000
310.621490	145.260000
310.714722	144.660000
310.807983	144.780000
310.901215	145.020000
310.994476	145.400000
311.087708	145.160000
311.181000	145.440000
311.274200	144.820000
311.367462	144.900000
311.460693	144.340000
311.553986	145.300000
311.647186	145.480000
311.740479	146.200000
311.833710	145.940000
311.926971	146.300000
312.020203	145.020000
312.113464	144.800000
312.206726	144.260000
312.299957	144.820000
312.393219	145.380000
312.486481	145.940000
312.579712	146.040000
312.672974	146.140000
312.766235	145.780000
312.859497	145.180000
312.952759	145.240000
313.045990	145.820000
313.139252	145.620000
313.232513	145.900000
313.325775	145.960000
313.419037	145.520000
313.512299	144.840000
313.605530	145.320000
313.698822	145.180000
313.792053	145.420000
313.885345	145.220000
313.978577	145.360000
314.071869	145.440000
314.165131	145.680000
314.258392	145.760000
314.351654	146.180000
314.444916	145.740000
314.538177	145.640000
314.631439	145.920000
314.724701	145.960000
314.817993	145.920000
314.911255	146.340000
315.004517	146.040000
315.097778	145.660000
315.191040	145.780000
315.284302	145.960000
315.377594	145.660000
315.470856	145.680000
315.564117	145.380000
315.657379	144.920000
315.750671	144.560000
315.843933	144.800000
315.937195	144.480000
316.030518	144.420000
316.123749	144.420000
316.217041	145.380000
316.310303	145.360000
316.403595	145.920000
316.496857	146.360000
316.590149	146.620000
316.683411	145.880000
316.776703	145.800000
316.869965	145.760000
316.963257	145.380000
317.056519	144.540000
317.149811	144.500000
317.243073	144.480000
317.336365	144.340000
317.429626	144.700000
317.522919	145.640000
317.616180	145.560000
317.709473	145.220000
317.802765	145.540000
317.896027	145.340000
317.989319	145.560000
318.082611	145.840000
318.175873	146.120000
318.269165	146.080000
318.362488	146.180000
318.455750	145.720000
318.549042	145.960000
318.642303	146.480000
318.735626	146.060000
318.828888	146.220000
318.922211	145.880000
319.015472	146.120000
319.108765	145.500000
319.202057	145.420000
319.295349	145.440000
319.388641	145.680000
319.481934	145.360000
319.575226	145.400000
319.668518	145.780000
319.761810	145.960000
319.855103	145.980000
319.948395	145.760000
320.041687	145.900000
320.134979	145.700000
320.228271	145.120000
320.321564	144.960000
320.414856	145.040000
320.508148	144.600000
320.601440	144.620000
320.694763	144.840000
320.788025	145.680000
320.881348	145.820000
320.974640	145.880000
321.067963	145.400000
321.161224	145.660000
321.254547	144.620000
321.347839	145.280000
321.441162	145.100000
321.534454	145.540000
321.627747	144.740000
321.721069	145.780000
321.814362	145.240000
321.907654	145.700000
322.000946	145.640000
322.094269	146.580000
322.187561	145.880000
322.280884	146.020000
322.374176	146.200000
322.467468	146.800000
322.560791	146.480000
322.654083	146.880000
322.747406	147.020000
322.840698	147.240000
322.934021	147.200000
323.027344	147.520000
323.120636	147.320000
323.213959	146.760000
323.307251	146.020000
323.400574	145.520000
323.493866	144.940000
323.587219	145.040000
323.680511	145.700000
323.773834	146.020000
323.867157	146.160000
323.960449	146.420000
324.053772	146.220000
324.147095	145.820000
324.240387	146.180000
324.333710	146.380000
324.427032	146.400000
324.520355	146.480000
324.613647	146.100000
324.706970	145.680000
324.800293	145.400000
324.893616	145.700000
324.986938	145.880000
325.080231	145.900000
325.173553	146.320000
325.266876	146.900000
325.360199	146.740000
325.453522	146.160000
325.546875	146.260000
325.640167	146.380000
325.733521	146.440000
325.826813	146.560000
325.920166	146.760000
326.013489	146.680000
326.106812	145.940000
326.200134	145.680000
326.293457	144.940000
326.386780	145.100000
326.480103	144.720000
326.573425	144.680000
326.666748	144.280000
326.760071	145.120000
326.853424	145.180000
326.946747	145.520000
327.040070	146.460000
327.133392	146.760000
327.226715	145.700000
327.320068	145.440000
327.413391	146.020000
327.506714	145.280000
327.600037	144.960000
327.693390	145.420000
327.786713	145.340000
327.880066	144.960000
327.973358	145.280000
328.066742	145.760000
328.160034	146.040000
328.253418	146.360000
328.346710	146.080000
328.440063	145.860000
328.533417	145.300000
328.626740	145.580000
328.720093	145.200000
328.813416	145.220000
328.906769	145.260000
329.000092	145.700000
329.093445	145.420000
329.186768	145.560000
329.280121	146.080000
329.373444	146.460000
329.466797	146.360000
329.560120	146.440000
329.653473	146.620000
329.746796	146.160000
329.840149	145.660000
329.933502	145.660000
330.026825	145.360000
330.120178	145.100000
330.213562	145.140000
330.306854	145.320000
330.400238	145.220000
330.493561	144.880000
330.586945	145.520000
330.680237	145.720000
330.773621	145.660000
330.866974	145.680000
330.960327	146.500000
331.053680	146.000000
331.147003	146.180000
331.240356	146.680000
331.333710	146.820000
331.427063	146.520000
331.520416	146.500000
331.613770	146.280000
331.707123	146.060000
331.800476	145.920000
331.893829	146.660000
331.987152	146.940000
332.080505	146.880000
332.173859	146.500000
332.267212	146.220000
332.360565	145.340000
332.453918	145.000000
332.547333	144.720000
332.640656	144.940000
332.734039	145.400000
332.827362	145.180000
332.920746	145.560000
333.014069	146.120000
333.107452	146.560000
333.200806	146.720000
333.294159	147.080000
333.387543	146.900000
333.480896	146.220000
333.574249	145.820000
333.667603	145.160000
333.760956	145.160000
333.854340	145.200000
333.947693	145.460000
334.041046	145.420000
334.134430	145.860000
334.227783	145.360000
334.321136	145.100000
334.414520	144.980000
334.507874	145.320000
334.601227	145.340000
334.694611	145.500000
334.787964	145.780000
334.881348	145.960000
334.974701	145.380000
335.068085	145.200000
335.161438	145.660000
335.254822	145.360000
335.348175	145.580000
335.441559	145.400000
335.534943	145.880000
335.628296	145.620000
335.721680	145.700000
335.815033	145.680000
335.908417	146.320000
336.001770	146.240000
336.095154	146.260000
336.188538	145.860000
336.281891	145.500000
336.375275	144.980000
336.468658	144.440000
336.562012	144.740000
336.655396	145.300000
336.748779	145.560000
336.842133	145.840000
336.935516	146.420000
337.028900	146.000000
337.122284	145.960000
337.215637	146.340000
337.309021	146.340000
337.402435	146.060000
337.495789	145.840000
337.589203	145.580000
337.682526	145.360000
337.775940	145.300000
337.869324	145.320000
337.962708	145.260000
338.056091	145.660000
338.149475	145.160000
338.242859	145.440000
338.336243	145.320000
338.429626	145.760000
338.523010	145.780000
338.616394	146.000000
338.709778	145.980000
338.803162	146.020000
338.896545	146.120000
338.989929	145.780000
339.083313	145.760000
339.176697	145.400000
339.270081	145.360000
339.363464	145.580000
339.456848	145.660000
339.550232	145.240000
339.643616	145.380000
339.737030	145.300000
339.830383	145.140000
339.923828	145.340000
340.017181	145.640000
340.110596	145.700000
340.203949	145.700000
340.297363	145.220000
340.390778	145.180000
340.484161	145.280000
340.577545	145.060000
340.670959	145.160000
340.764343	145.560000
340.857727	145.560000
340.951111	145.040000
341.044525	145.300000
341.137909	145.000000
341.231293	145.040000
341.324707	144.560000
341.418091	145.500000
341.511505	145.560000
341.604889	145.900000
341.698303	145.660000
341.791687	146.040000
341.885071	145.700000
341.978485	145.380000
342.071899	145.420000
342.165283	145.580000
342.258698	145.740000
342.352081	145.840000
342.445496	146.480000
342.538879	146.560000
342.632324	146.340000
342.725708	146.280000
342.819122	145.860000
342.912506	145.360000
343.005920	145.300000
343.099335	146.380000
343.192719	146.320000
343.286133	146.640000
343.379547	146.700000
343.472931	146.680000
343.566345	145.780000
343.659760	146.020000
343.753143	145.720000
343.846558	145.540000
343.939972	145.500000
344.033386	146.140000
344.126770	146.140000
344.220184	146.420000
344.313599	147.080000
344.407043	146.820000
344.500427	145.900000
344.593872	146.020000
344.687225	145.720000
344.780670	145.000000
344.874054	145.040000
344.967499	145.820000
345.060913	145.400000
345.154327	145.460000
345.247742	145.500000
345.341156	145.460000
345.434570	144.980000
345.527985	145.120000
345.621399	145.420000
345.714813	145.520000
345.808228	145.760000
345.901642	145.500000
345.995056	145.140000
346.088470	145.100000
346.181885	145.020000
346.275299	144.480000
346.368713	144.900000
346.462128	144.840000
346.555573	144.680000
346.648987	144.740000
346.742401	145.200000
346.835815	145.280000
346.929260	145.300000
347.022644	145.360000
347.116119	145.740000
347.209503	145.880000
347.302948	146.440000
347.396362	146.940000
347.489807	147.000000
347.583221	147.180000
347.676636	146.960000
347.770050	145.780000
347.863495	145.240000
347.956909	145.340000
348.050323	144.600000
348.143768	144.420000
348.237183	144.540000
348.330597	145.180000
348.424042	145.500000
348.517456	146.160000
348.610901	146.620000
348.704315	146.620000
348.797760	145.860000
348.891174	144.880000
348.984619	144.260000
349.078033	144.360000
349.171448	144.920000
349.264923	145.080000
349.358337	145.300000
349.451782	145.300000
349.545197	144.600000
349.638641	143.780000
349.732086	143.800000
349.825500	144.580000
349.918945	144.480000
350.012390	145.180000
350.105804	145.900000
350.199249	146.080000
350.292664	146.340000
350.386108	146.640000
350.479553	146.980000
350.572968	146.800000
350.666412	146.920000
350.759857	146.420000
350.853302	147.020000
350.946716	146.080000
351.040161	146.020000
351.133606	145.840000
351.227081	145.480000
351.320465	145.700000
351.413940	146.240000
351.507355	146.480000
351.600830	146.540000
351.694244	146.580000
351.787720	146.200000
351.881104	146.300000
351.974579	146.200000
352.067993	146.780000
352.161469	146.820000
352.254883	146.340000
352.348358	146.060000
352.441803	145.880000
352.535248	145.340000
352.628693	145.780000
352.722137	145.840000
352.815582	145.980000
352.909027	146.260000
353.002472	146.180000
353.095917	145.980000
353.189362	146.480000
353.282806	146.300000
353.376251	145.660000
353.469696	145.520000
353.563141	145.780000
353.656586	145.300000
353.750061	144.820000
353.843475	145.180000
353.936981	145.860000
354.030396	145.260000
354.123871	145.180000
354.217285	146.340000
354.310760	146.780000
354.404175	146.400000
354.497681	146.440000
354.591095	146.640000
354.684570	145.540000
354.777985	144.960000
354.871490	144.900000
354.964935	145.600000
355.058380	145.520000
355.151855	145.560000
355.245300	146.080000
355.338745	146.120000
355.432220	145.740000
355.525665	145.300000
355.619110	145.920000
355.712585	145.660000
355.806030	145.240000
355.899475	144.840000
355.992950	145.620000
356.086426	145.760000
356.179871	145.740000
356.273346	146.080000
356.366791	146.440000
356.460266	146.300000
356.553711	145.820000
356.647186	145.880000
356.740631	145.560000
356.834106	145.280000
356.927551	145.140000
357.021027	145.140000
357.114471	145.260000
357.207947	145.860000
357.301422	145.960000
357.394867	146.180000
357.488342	146.580000
357.581818	146.340000
357.675262	146.100000
357.768738	146.020000
357.862213	145.320000
357.955658	145.180000
358.049133	145.020000
358.142609	145.340000
358.236053	145.120000
358.329529	145.480000
358.423035	145.600000
358.516449	145.720000
358.609955	146.060000
358.703400	146.940000
358.796906	147.000000
358.890350	146.460000
358.983826	146.700000
359.077271	145.860000
359.170776	145.440000
359.264221	145.440000
359.357727	145.880000
359.451172	146.080000
359.544647	146.220000
359.638123	145.960000
359.731598	146.440000
359.825073	146.840000
359.918549	146.400000
360.012024	146.480000
360.105499	146.400000
360.198975	146.100000
360.292450	145.760000
360.385925	146.080000
360.479401	145.800000
360.572876	146.160000
360.666351	146.160000
360.759857	146.020000
360.853302	146.020000
360.946808	145.780000
361.040253	145.680000
361.133759	145.360000
361.227203	145.300000
361.320709	144.660000
361.414154	145.580000
361.507660	145.720000
361.601105	146.460000
361.694641	147.260000
361.788086	147.560000
361.881592	147.500000
361.975067	147.020000
362.068542	147.160000
362.162018	146.360000
362.255524	146.140000
362.348999	146.040000
362.442474	146.460000
362.535950	145.540000
362.629456	145.520000
362.722931	145.540000
362.816406	145.740000
362.909882	146.060000
363.003387	145.940000
363.096863	146.520000
363.190338	146.720000
363.283875	146.140000
363.377319	145.860000
363.470825	146.480000
363.564301	145.880000
363.657806	145.860000
363.751282	145.600000
363.844788	146.440000
363.938232	146.100000
364.031769	146.720000
364.125214	146.980000
364.218750	147.940000
364.312225	146.740000
364.405731	146.780000
364.499207	146.300000
364.592712	146.060000
364.686188	145.640000
364.779694	146.040000
364.873169	145.800000
364.966675	145.800000
365.060150	145.540000
365.153656	145.820000
365.247131	145.700000
365.340637	145.940000
365.434143	146.500000
365.527618	146.880000
365.621155	146.100000
365.714600	145.940000
365.808136	146.000000
365.901611	144.640000
365.995117	144.460000
366.088593	144.780000
366.182129	144.800000
366.275604	144.640000
366.369110	145.300000
366.462585	145.300000
366.556122	145.780000
366.649567	145.860000
366.743103	146.240000
366.836609	145.880000
366.930115	146.400000
367.023590	146.200000
367.117096	146.040000
367.210602	145.900000
367.304108	146.740000
367.397614	146.700000
367.491119	146.780000
367.584595	146.960000
367.678101	147.160000
367.771606	146.620000
367.865112	146.240000
367.958649	145.440000
368.052124	145.480000
368.145660	145.360000
368.239136	145.920000
368.332672	146.120000
368.426147	146.480000
368.519684	146.260000
368.613159	146.480000
368.706696	146.060000
368.800171	146.160000
368.893707	146.220000
368.987183	146.340000
369.080719	146.360000
369.174225	146.380000
369.267731	146.300000
369.361237	146.360000
369.454742	146.040000
369.548248	146.020000
369.641754	145.540000
369.735260	145.580000
369.828766	145.020000
369.922272	145.780000
370.015808	145.440000
370.109314	145.340000
370.202820	144.860000
370.296356	146.020000
370.389832	145.400000
370.483368	145.080000
370.576874	145.320000
370.670410	145.680000
370.763885	144.640000
370.857422	144.700000
370.950928	144.820000
371.044464	145.580000
371.137939	145.440000
371.231476	146.020000
371.324982	146.900000
371.418518	147.040000
371.512024	146.560000
371.605560	146.460000
371.699066	146.500000
371.792572	145.760000
371.886108	146.320000
371.979614	146.240000
372.073120	146.940000
372.166656	146.960000
372.260162	147.360000
372.353668	146.800000
372.447205	146.920000
372.540710	146.360000
372.634277	145.840000
372.727753	145.380000
372.821320	145.280000
372.914795	145.200000
373.008362	145.260000
373.101837	145.680000
373.195404	145.900000
373.288879	146.060000
373.382446	146.540000
373.475922	146.400000
373.569489	146.680000
373.662964	147.080000
373.756531	147.060000
373.850037	147.040000
373.943573	146.980000
374.037109	146.040000
374.130615	145.980000
374.224152	146.040000
374.317657	145.740000
374.411194	146.780000
374.504730	147.140000
374.598236	146.660000
374.691772	146.500000
374.785309	146.580000
374.878815	145.460000
374.972351	145.720000
375.065887	145.780000
375.159454	146.200000
375.252930	145.880000
375.346497	146.300000
375.440002	146.680000
375.533569	146.440000
375.627045	145.760000
375.720612	146.000000
375.814117	146.020000
375.907684	145.420000
376.001160	145.280000
376.094727	145.140000
376.188232	145.500000
376.281799	145.480000
376.375336	145.600000
376.468872	146.440000
376.562408	146.780000
376.655914	146.460000
376.749451	146.520000
376.842987	146.520000
376.936523	146.080000
377.030060	146.300000
377.123596	146.460000
377.217133	145.820000
377.310669	146.020000
377.404205	146.420000
377.497772	146.660000
377.591278	146.180000
377.684845	147.320000
377.778351	147.420000
377.871918	147.040000
377.965424	146.080000
378.058990	146.160000
378.152496	145.380000
378.246063	145.460000
378.339569	145.420000
378.433136	145.540000
378.526642	145.600000
378.620209	145.900000
378.713745	145.480000
378.807312	146.060000
378.900848	146.280000
378.994385	146.400000
379.087921	145.480000
379.181458	145.640000
379.274994	144.680000
379.368530	144.980000
379.462097	145.200000
379.555634	145.940000
379.649170	145.680000
379.742706	145.920000
379.836273	145.780000
379.929810	145.580000
380.023376	145.400000
380.116882	145.600000
380.210449	145.680000
380.303986	145.520000
380.397552	144.640000
380.491058	144.880000
380.584656	144.540000
380.678162	144.760000
380.771729	144.940000
380.865265	146.260000
380.958832	145.980000
381.052368	146.520000
381.145935	146.720000
381.239471	147.140000
381.333008	146.920000
381.426575	146.880000
381.520111	146.840000
381.613647	146.880000
381.707214	146.620000
381.800751	145.920000
381.894318	146.200000
381.987854	145.800000
382.081421	145.800000
382.174988	145.780000
382.268524	145.900000
382.362091	146.020000
382.455627	146.880000
382.549194	146.600000
382.642731	146.000000
382.736298	145.940000
382.829834	145.820000
382.923401	145.980000
383.016937	145.940000
383.110504	146.680000
383.204041	146.940000
383.297607	146.980000
383.391174	145.800000
383.484741	146.420000
383.578278	145.800000
383.671844	145.220000
383.765411	144.500000
383.858948	145.480000
383.952515	144.900000
384.046051	145.500000
384.139618	146.240000
384.233185	146.700000
384.326721	146.400000
384.420288	146.940000
384.513855	146.940000
384.607422	147.260000
384.700989	147.620000
384.794525	146.980000
384.888123	146.500000
384.981659	146.400000
385.075226	145.700000
385.168762	145.460000
385.262360	145.940000
385.355896	145.320000
385.449463	145.220000
385.542999	145.340000
385.636597	145.840000
385.730164	145.980000
385.823730	146.300000
385.917267	145.760000
386.010834	145.760000
386.104401	145.400000
386.197968	145.580000
386.291534	146.020000
386.385101	146.580000
386.478668	147.100000
386.572235	147.000000
386.665802	146.360000
386.759338	145.840000
386.852905	145.440000
386.946472	144.700000
387.040070	144.740000
387.133606	144.700000
387.227203	144.620000
387.320740	145.080000
387.414337	144.940000
387.507874	144.680000
387.601471	144.900000
387.695007	144.920000
387.788605	144.640000
387.882141	145.120000
387.975739	145.120000
388.069275	144.920000
388.162872	145.280000
388.256439	144.880000
388.350037	144.860000
388.443604	144.820000
388.537170	144.660000
388.630737	144.980000
388.724304	145.640000
388.817871	145.320000
388.911438	145.400000
389.005005	145.920000
389.098602	145.940000
389.192169	145.600000
389.285736	146.020000
389.379333	146.080000
389.472870	145.560000
389.566467	145.300000
389.660034	145.640000
389.753632	145.220000
389.847168	145.740000
389.940765	146.060000
390.034332	146.400000
390.127930	145.840000
390.221466	145.920000
390.315063	145.160000
390.408630	144.600000
390.502228	143.480000
390.595795	143.600000
390.689362	143.840000
390.782959	144.300000
390.876526	145.180000
390.970093	145.780000
391.063690	146.520000
391.157257	146.440000
391.250824	146.840000
391.344421	146.420000
391.437988	146.800000
391.531555	146.540000
391.625153	146.780000
391.718750	146.560000
391.812317	146.520000
391.905914	146.000000
391.999481	146.100000
392.093079	145.940000
392.186615	145.980000
392.280243	146.160000
392.373779	146.320000
392.467407	146.540000
392.560944	146.600000
392.654572	146.260000
392.748108	146.000000
392.841736	145.840000
392.935303	145.120000
393.028900	144.920000
393.122467	145.040000
393.216064	144.960000
393.309631	144.520000
393.403229	144.160000
393.496796	144.020000
393.590393	143.920000
393.683990	144.480000
393.777557	145.360000
393.871155	145.900000
393.964722	146.500000
394.058350	146.440000
394.151917	146.000000
394.245514	145.600000
394.339081	145.940000
394.432678	145.820000
394.526245	145.840000
394.619873	145.340000
394.713409	145.440000
394.807037	145.000000
394.900604	145.000000
394.994202	145.220000
395.087769	145.840000
395.181396	145.360000
395.274994	146.300000
395.368561	145.600000
395.462158	145.540000
395.555756	145.260000
395.649353	145.840000
395.742920	144.980000
395.836517	145.800000
395.930115	145.140000
396.023712	145.540000
396.117279	145.800000
396.210876	145.580000
396.304474	145.380000
396.398071	145.600000
396.491669	145.480000
396.585266	145.260000
396.678833	145.340000
396.772461	145.640000
396.866028	146.080000
396.959656	146.540000
397.053223	147.040000
397.146851	147.220000
397.240417	147.460000
397.334015	148.600000
397.427582	148.960000
397.521210	150.080000
397.614807	152.260000
397.708405	154.620000
397.802002	157.080000
397.895599	161.540000
397.989197	165.860000
398.082794	171.000000
398.176392	177.660000
398.269989	185.400000
398.363586	194.840000
398.457184	207.340000
398.550781	222.360000
398.644379	237.680000
398.737976	255.440000
398.831573	273.960000
398.925201	292.500000
399.018768	310.840000
399.112396	329.920000
399.205963	348.400000
399.299591	366.940000
399.393158	384.600000
399.486786	402.800000
399.580353	420.220000
399.673981	436.900000
399.767578	453.700000
399.861206	470.620000
399.954773	485.980000
400.048401	497.560000
400.141998	505.060000
400.235596	506.900000
400.329193	501.680000
400.422791	490.100000
400.516418	475.280000
400.610016	458.920000
400.703613	441.040000
400.797211	421.260000
400.890808	401.920000
400.984436	383.360000
401.078033	362.660000
401.171631	341.600000
401.265259	321.360000
401.358826	301.680000
401.452484	281.500000
401.546051	263.980000
401.639679	245.700000
401.733246	229.720000
401.826904	213.800000
401.920471	199.880000
402.014099	187.580000
402.107697	178.220000
402.201324	170.560000
402.294891	165.080000
402.388550	160.980000
402.482147	157.400000
402.575745	154.340000
402.669373	151.760000
402.762970	149.940000
402.856567	148.700000
402.950195	147.820000
403.043793	147.120000
403.137390	147.500000
403.231018	146.640000
403.324615	147.080000
403.418243	146.520000
403.511841	147.000000
403.605469	146.340000
403.699066	147.020000
403.792694	146.800000
403.886292	147.080000
403.979919	146.460000
404.073517	146.280000
404.167145	146.380000
404.260712	146.220000
404.354370	145.780000
404.447937	146.280000
404.541595	146.600000
404.635162	146.760000
404.728821	147.240000
404.822418	147.100000
404.916046	146.860000
405.009644	147.120000
405.103271	146.780000
405.196899	146.060000
405.290497	146.260000
405.384125	146.460000
405.477722	145.700000
405.571350	145.320000
405.664948	145.540000
405.758575	145.380000
405.852203	144.940000
405.945801	145.280000
406.039429	145.780000
406.133057	145.440000
406.226654	145.420000
406.320312	145.420000
406.413879	145.680000
406.507538	145.900000
406.601135	145.940000
406.694763	146.680000
406.788361	146.620000
406.882019	146.340000
406.975586	146.600000
407.069244	147.080000
407.162872	146.800000
407.256470	147.120000
407.350098	147.040000
407.443726	146.460000
407.537323	146.140000
407.630951	146.260000
407.724579	145.580000
407.818207	145.980000
407.911804	145.860000
408.005432	145.640000
408.099060	145.820000
408.192688	146.600000
408.286285	146.300000
408.379913	146.180000
408.473572	146.240000
408.567169	145.580000
408.660828	145.280000
408.754395	145.060000
408.848053	145.200000
408.941650	145.400000
409.035309	145.100000
409.128906	145.260000
409.222565	145.600000
409.316132	145.700000
409.409790	145.400000
409.503387	145.540000
409.597046	145.300000
409.690674	145.260000
409.784302	145.260000
409.877930	145.340000
409.971558	145.620000
410.065186	145.520000
410.158783	145.360000
410.252411	145.420000
410.346039	145.740000
410.439667	146.000000
410.533295	146.680000
410.626923	147.200000
410.720551	146.820000
410.814209	146.980000
410.907806	146.700000
411.001465	145.780000
411.095062	145.640000
411.188721	145.820000
411.282318	145.420000
411.375977	145.080000
411.469574	145.460000
411.563232	145.220000
411.656830	145.320000
411.750488	145.020000
411.844086	145.220000
411.937744	145.480000
412.031372	145.440000
412.125000	145.020000
412.218628	145.200000
412.312256	145.720000
412.405884	146.060000
412.499512	145.820000
412.593170	146.380000
412.686798	146.740000
412.780426	146.040000
412.874054	145.700000
412.967682	145.920000
413.061310	146.540000
413.154968	146.760000
413.248566	146.900000
413.342224	146.880000
413.435852	147.040000
413.529510	146.140000
413.623108	145.300000
413.716766	145.280000
413.810364	145.520000
413.904022	145.280000
413.997650	145.080000
414.091309	146.000000
414.184906	146.080000
414.278564	145.440000
414.372192	145.660000
414.465851	146.040000
414.559479	145.580000
414.653107	146.560000
414.746735	147.040000
414.840393	147.100000
414.934021	147.220000
415.027649	146.600000
415.121277	145.920000
415.214935	146.040000
415.308563	145.800000
415.402191	145.280000
415.495850	145.640000
415.589478	145.500000
415.683136	145.260000
415.776733	145.420000
415.870422	146.100000
415.964020	145.960000
416.057678	145.980000
416.151306	145.940000
416.244965	145.860000
416.338562	145.540000
416.432251	146.100000
416.525848	146.760000
416.619507	147.020000
416.713165	147.480000
416.806793	147.420000
416.900421	147.420000
416.994080	146.660000
417.087708	146.380000
417.181366	145.720000
417.274994	145.640000
417.368622	145.620000
417.462280	145.920000
417.555908	145.840000
417.649567	146.260000
417.743195	146.320000
417.836853	146.300000
417.930481	146.440000
418.024170	146.620000
418.117767	146.800000
418.211426	147.240000
418.305054	147.400000
418.398712	146.780000
418.492340	146.720000
418.585999	146.920000
418.679626	146.820000
418.773285	146.900000
418.866913	147.520000
418.960571	147.800000
419.054230	147.500000
419.147858	147.260000
419.241516	147.080000
419.335144	146.720000
419.428802	146.400000
419.522461	145.960000
419.616089	145.540000
419.709747	145.580000
419.803375	145.640000
419.897034	145.460000
419.990662	145.720000
420.084320	146.400000
420.177979	146.600000
420.271606	146.960000
420.365295	147.440000
420.458893	147.660000
420.552582	147.860000
420.646210	147.540000
420.739868	147.200000
420.833496	146.840000
420.927155	146.300000
421.020782	145.800000
421.114471	145.520000
421.208069	145.540000
421.301758	145.800000
421.395386	145.920000
421.489044	145.660000
421.582703	145.920000
421.676361	146.240000
421.769989	145.780000
421.863647	146.280000
421.957306	146.560000
422.050934	146.660000
422.144592	146.380000
422.238251	146.360000
422.331909	145.760000
422.425537	145.540000
422.519196	145.400000
422.612854	145.160000
422.706543	144.940000
422.800140	145.360000
422.893829	145.120000
422.987457	144.780000
423.081146	145.040000
423.174744	145.920000
423.268433	145.380000
423.362061	145.520000
423.455750	145.660000
423.549347	145.760000
423.643036	144.960000
423.736664	145.400000
423.830353	145.440000
423.924011	145.660000
424.017639	145.060000
424.111298	145.300000
424.204956	145.260000
424.298615	145.260000
424.392273	144.900000
424.485931	145.200000
424.579559	145.340000
424.673218	145.060000
424.766876	145.320000
424.860535	145.400000
424.954193	145.160000
425.047882	145.660000
425.141510	145.860000
425.235199	145.720000
425.328796	145.620000
425.422485	145.860000
425.516113	145.100000
425.609802	145.180000
425.703430	145.420000
425.797119	145.460000
425.890747	145.320000
425.984436	145.320000
426.078064	145.320000
426.171753	145.200000
426.265411	145.140000
426.359070	145.440000
426.452728	145.640000
426.546356	145.600000
426.640015	145.260000
426.733673	145.360000
426.827332	144.980000
426.920990	145.680000
427.014648	145.100000
427.108307	145.620000
427.201965	146.140000
427.295624	146.700000
427.389282	145.640000
427.482941	146.020000
427.576630	145.800000
427.670258	144.960000
427.763947	144.560000
427.857574	144.880000
427.951263	145.060000
428.044922	144.880000
428.138611	145.380000
428.232239	145.700000
428.325928	146.400000
428.419556	146.840000
428.513245	146.520000
428.606903	146.420000
428.700562	145.900000
428.794220	144.640000
428.887878	144.140000
428.981537	144.580000
429.075195	144.620000
429.168854	145.440000
429.262512	145.920000
429.356201	146.200000
429.449860	145.960000
429.543518	145.820000
429.637177	145.620000
429.730835	145.420000
429.824493	145.080000
429.918182	145.580000
430.011810	145.340000
430.105530	144.600000
430.199158	145.080000
430.292847	144.980000
430.386475	144.520000
430.480164	144.520000
430.573792	144.660000
430.667511	144.560000
430.761139	144.640000
430.854828	145.360000
430.948456	145.940000
431.042145	146.440000
431.135834	146.340000
431.229492	146.700000
431.323151	146.580000
431.416809	146.340000
431.510468	146.240000
431.604156	145.920000
431.697815	145.960000
431.791473	145.500000
431.885132	145.100000
431.978821	145.380000
432.072479	146.140000
432.166138	146.540000
432.259827	146.600000
432.353485	147.020000
432.447174	147.000000
432.540802	146.780000
432.634491	146.280000
432.728149	146.560000
432.821838	147.220000
432.915466	146.840000
433.009186	146.560000
433.102814	145.820000
433.196503	145.420000
433.290131	144.740000
433.383850	145.080000
433.477509	145.120000
433.571167	146.300000
433.664856	146.900000
433.758514	147.440000
433.852173	147.220000
433.945862	147.360000
434.039520	147.060000
434.133179	146.460000
434.226868	145.880000
434.320526	145.280000
434.414185	145.620000
434.507874	145.220000
434.601562	145.600000
434.695221	145.600000
434.788910	146.200000
434.882538	146.080000
434.976257	145.840000
435.069885	145.780000
435.163574	145.840000
435.257233	145.580000
435.350922	145.460000
435.444580	145.420000
435.538269	145.040000
435.631897	145.320000
435.725616	145.700000
435.819275	145.940000
435.912964	146.420000
436.006622	146.940000
436.100311	146.740000
436.193970	146.040000
436.287628	145.680000
436.381317	145.400000
436.474976	144.740000
436.568665	144.640000
436.662323	145.140000
436.756012	145.160000
436.849670	145.060000
436.943390	145.260000
437.037018	145.040000
437.130737	145.000000
437.224365	144.800000
437.318085	144.940000
437.411713	145.340000
437.505432	145.900000
437.599060	146.280000
437.692780	146.960000
437.786407	147.100000
437.880127	146.800000
437.973755	146.340000
438.067474	145.660000
438.161133	145.480000
438.254822	145.780000
438.348480	145.740000
438.442169	146.420000
438.535828	146.920000
438.629517	146.620000
438.723175	146.220000
438.816864	146.740000
438.910553	146.080000
439.004211	145.840000
439.097900	145.720000
439.191559	145.860000
439.285248	145.240000
439.378906	145.780000
439.472626	145.640000
439.566284	145.760000
439.659973	146.100000
439.753632	145.880000
439.847321	146.060000
439.940979	146.440000
440.034698	146.320000
440.128326	145.400000
440.222046	145.660000
440.315674	144.520000
440.409393	144.540000
440.503082	144.440000
440.596741	145.180000
440.690430	145.380000
440.784088	145.720000
440.877777	144.980000
440.971466	145.260000
441.065125	145.080000
441.158813	145.020000
441.252502	145.280000
441.346161	145.640000
441.439850	145.800000
441.533539	145.240000
441.627197	145.400000
441.720886	145.320000
441.814606	145.500000
441.908234	145.700000
442.001953	146.000000
442.095612	145.980000
442.189301	146.040000
442.282959	146.240000
442.376678	145.200000
442.470306	146.060000
442.564026	145.940000
442.657684	146.200000
442.751404	146.040000
442.845032	147.240000
442.938751	146.520000
443.032440	146.420000
443.126099	145.880000
443.219788	146.160000
443.313477	145.740000
443.407166	146.180000
443.500824	146.200000
443.594513	146.520000
443.688202	146.600000
443.781891	146.140000
443.875549	145.420000
443.969238	145.520000
444.062927	145.640000
444.156647	145.280000
444.250275	145.860000
444.343994	146.180000
444.437653	146.260000
444.531372	145.900000
444.625031	145.660000
444.718719	145.200000
444.812378	145.120000
444.906097	144.760000
444.999756	144.300000
445.093445	144.500000
445.187103	144.700000
445.280823	145.440000
445.374512	145.260000
445.468201	145.660000
445.561859	145.320000
445.655548	145.440000
445.749237	144.540000
445.842926	144.840000
445.936615	145.320000
446.030304	145.520000
446.123962	145.460000
446.217651	145.360000
446.311340	145.480000
446.405029	145.200000
446.498749	144.940000
446.592407	144.820000
446.686096	145.100000
446.779755	145.280000
446.873474	145.420000
446.967133	145.780000
447.060852	145.460000
447.154510	145.480000
447.248230	145.340000
447.341858	145.200000
447.435577	144.800000
447.529236	144.860000
447.622955	144.600000
447.716644	144.860000
447.810333	144.960000
447.904022	145.700000
447.997711	145.880000
448.091400	146.300000
448.185059	146.160000
448.278748	146.300000
448.372437	145.880000
448.466125	146.020000
448.559814	146.060000
448.653503	146.240000
448.747192	146.260000
448.840912	146.680000
448.934570	146.520000
449.028290	146.840000
449.121948	146.280000
449.215637	145.840000
449.309296	145.420000
449.403015	145.400000
449.496674	144.960000
449.590393	145.340000
449.684052	145.320000
449.777771	146.020000
449.871429	145.700000
449.965149	145.580000
450.058838	145.600000
450.152527	146.320000
450.246216	145.800000
450.339905	146.200000
450.433594	146.120000
450.527283	146.880000
450.620972	146.200000
450.714661	146.320000
450.808350	146.300000
450.902039	146.600000
450.995728	145.660000
451.089417	145.560000
451.183105	145.540000
451.276794	145.940000
451.370514	145.600000
451.464172	145.240000
451.557892	145.340000
451.651550	145.300000
451.745270	144.800000
451.838928	144.720000
451.932648	144.860000
452.026306	145.180000
452.120026	144.920000
452.213684	145.600000
452.307404	145.760000
452.401062	146.300000
452.494781	146.640000
452.588470	146.740000
452.682159	145.980000
452.775848	146.240000
452.869537	145.500000
452.963226	145.040000
453.056915	145.020000
453.150604	145.300000
453.244293	145.100000
453.337982	146.340000
453.431671	146.640000
453.525360	147.040000
453.619049	147.080000
453.712769	146.980000
453.806427	146.180000
453.900146	145.700000
453.993805	145.440000
454.087555	145.540000
454.181213	145.620000
454.274933	145.260000
454.368591	145.480000
454.462311	145.480000
454.555969	145.080000
454.649689	146.080000
454.743347	146.160000
454.837067	146.780000
454.930756	147.280000
455.024445	147.720000
455.118134	146.780000
455.211853	147.140000
455.305542	146.160000
455.399231	145.480000
455.492920	145.100000
455.586609	145.120000
455.680298	145.440000
455.773987	145.440000
455.867676	145.580000
455.961365	145.940000
456.055084	145.940000
456.148773	145.540000
456.242493	145.880000
456.336151	145.840000
456.429871	145.760000
456.523529	146.200000
456.617249	145.700000
456.710907	146.260000
456.804626	146.260000
456.898315	145.860000
456.992035	145.320000
457.085693	145.380000
457.179413	144.620000
457.273102	145.620000
457.366791	145.860000
457.460480	146.520000
457.554199	147.360000
457.647888	147.560000
457.741577	146.620000
457.835266	146.660000
457.928955	146.400000
458.022644	146.240000
458.116364	146.540000
458.210052	146.580000
458.303741	146.700000
458.397461	146.100000
458.491119	145.640000
458.584839	145.300000
458.678528	144.960000
458.772247	144.680000
458.865906	144.940000
458.959625	145.740000
459.053284	145.740000
459.147003	145.680000
459.240692	146.340000
459.334412	146.280000
459.428070	145.640000
459.521790	145.660000
459.615479	145.920000
459.709198	145.940000
459.802887	145.840000
459.896576	145.460000
459.990265	145.740000
460.083954	145.940000
460.177673	145.080000
460.271362	145.260000
460.365051	145.680000
460.458740	145.380000
460.552429	144.840000
460.646149	145.020000
460.739838	144.740000
460.833527	144.700000
460.927246	144.460000
461.020905	144.440000
461.114655	144.720000
461.208313	144.960000
461.302032	144.420000
461.395691	144.900000
461.489441	145.160000
461.583099	144.980000
461.676819	144.680000
461.770477	145.680000
461.864197	145.100000
461.957916	145.020000
462.051605	144.760000
462.145294	145.680000
462.238983	144.940000
462.332703	145.680000
462.426392	146.080000
462.520081	146.260000
462.613770	145.520000
462.707489	146.040000
462.801178	145.740000
462.894867	145.560000
462.988556	145.700000
463.082275	146.100000
463.175964	145.540000
463.269684	145.780000
463.363342	145.900000
463.457092	145.420000
463.550751	145.440000
463.644470	145.680000
463.738129	145.480000
463.831879	145.420000
463.925537	146.140000
464.019257	146.280000
464.112946	146.180000
464.206665	145.980000
464.300323	146.000000
464.394043	145.780000
464.487762	145.500000
464.581451	146.020000
464.675140	146.260000
464.768829	146.200000
464.862549	145.960000
464.956238	145.900000
465.049927	145.600000
465.143646	145.640000
465.237335	145.400000
465.331024	146.160000
465.424713	146.200000
465.518433	146.440000
465.612152	146.160000
465.705811	146.540000
465.799561	146.100000
465.893219	146.060000
465.986938	145.660000
466.080597	145.460000
466.174347	145.860000
466.268005	146.080000
466.361725	146.340000
466.455414	146.600000
466.549133	146.600000
466.642792	146.260000
466.736542	145.860000
466.830231	145.920000
466.923920	145.760000
467.017609	145.960000
467.111328	145.500000
467.205017	145.400000
467.298706	144.960000
467.392426	145.000000
467.486115	145.320000
467.579803	145.440000
467.673523	145.840000
467.767212	145.840000
467.860901	145.840000
467.954651	145.760000
468.048309	146.060000
468.142029	145.600000
468.235718	145.840000
468.329437	145.580000
468.423096	145.400000
468.516846	145.080000
468.610504	145.080000
468.704224	144.740000
468.797913	144.700000
468.891632	145.000000
468.985291	144.900000
469.079010	145.180000
469.172729	144.960000
469.266418	145.500000
469.360107	145.540000
469.453827	145.780000
469.547516	145.880000
469.641205	146.780000
469.734924	147.120000
469.828613	147.160000
469.922302	147.360000
470.016022	147.040000
470.109711	146.420000
470.203430	145.580000
470.297150	144.780000
470.390808	144.680000
470.484558	145.000000
470.578217	145.560000
470.671936	146.200000
470.765625	147.180000
470.859344	146.960000
470.953003	147.120000
471.046753	146.520000
471.140411	145.840000
471.234131	145.320000
471.327820	145.860000
471.421539	145.640000
471.515228	145.640000
471.608948	146.080000
471.702637	145.900000
471.796326	145.480000
471.890045	145.540000
471.983734	145.840000
472.077423	145.440000
472.171143	145.880000
472.264832	145.740000
472.358521	145.660000
472.452240	145.400000
472.545929	145.880000
472.639648	145.900000
472.733337	146.360000
472.827057	146.320000
472.920746	146.560000
473.014465	146.700000
473.108124	146.460000
473.201874	146.300000
473.295532	146.200000
473.389252	146.200000
473.482941	145.960000
473.576660	145.740000
473.670319	145.720000
473.764069	146.100000
473.857727	146.360000
473.951477	146.920000
474.045166	147.380000
474.138855	147.180000
474.232574	146.840000
474.326263	146.900000
474.419952	146.740000
474.513672	146.480000
474.607361	146.380000
474.701050	146.560000
474.794769	146.500000
474.888458	146.480000
474.982178	146.540000
475.075867	146.720000
475.169586	146.700000
475.263275	146.580000
475.356995	146.400000
475.450653	146.140000
475.544403	145.720000
475.638062	146.200000
475.731812	145.720000
475.825470	145.440000
475.919189	145.920000
476.012878	146.540000
476.106598	145.820000
476.200256	146.240000
476.294006	146.160000
476.387695	145.980000
476.481384	145.560000
476.575104	146.000000
476.668793	145.640000
476.762512	145.400000
476.856201	145.800000
476.949890	145.900000
477.043610	145.380000
477.137299	145.660000
477.230988	145.900000
477.324707	145.100000
477.418396	145.400000
477.512146	145.380000
477.605804	145.060000
477.699524	145.360000
477.793213	145.380000
477.886932	145.060000
477.980591	144.880000
478.074341	144.720000
478.167999	144.120000
478.261749	144.200000
478.355408	144.100000
478.449127	144.700000
478.542816	145.520000
478.636536	146.500000
478.730225	146.620000
478.823944	147.160000
478.917633	147.160000
479.011322	147.060000
479.105042	146.740000
479.198730	147.040000
479.292450	146.360000
479.386139	146.400000
479.479828	146.120000
479.573547	146.300000
479.667267	146.120000
479.760925	146.540000
479.854675	146.360000
479.948334	146.820000
480.042084	146.140000
480.135742	146.180000
480.229462	145.620000
480.323151	145.780000
480.416870	144.800000
480.510529	145.200000
480.604279	145.060000
480.697937	145.760000
480.791656	145.280000
480.885345	145.380000
480.979065	145.340000
481.072754	145.560000
481.166473	145.880000
481.260132	146.080000
481.353882	146.300000
481.447540	145.920000
481.541260	145.900000
481.635010	145.200000
481.728668	145.000000
481.822388	145.000000
481.916077	145.540000
482.009796	145.360000
482.103485	145.680000
482.197205	145.640000
482.290863	145.820000
482.384613	145.340000
482.478271	145.100000
482.571991	144.800000
482.665680	145.040000
482.759399	145.760000
482.853058	146.320000
482.946808	146.360000
483.040466	146.380000
483.134216	146.240000
483.227875	145.580000
483.321594	146.160000
483.415283	146.160000
483.509003	146.200000
483.602661	145.960000
483.696411	146.120000
483.790070	145.220000
483.883789	145.360000
483.977478	145.660000
484.071198	145.920000
484.164917	145.540000
484.258606	145.440000
484.352325	145.560000
484.445984	145.260000
484.539734	145.140000
484.633392	144.900000
484.727142	145.340000
484.820801	145.040000
484.914520	145.220000
485.008209	145.600000
485.101929	146.160000
485.195587	145.780000
485.289337	146.120000
485.382996	146.180000
485.476715	146.180000
485.570404	146.500000
485.664124	146.360000
485.757782	146.660000
485.851532	146.240000
485.945190	145.940000
486.038910	145.780000
486.132599	146.340000
486.226318	145.780000
486.319977	145.880000
486.413727	146.660000
486.507446	146.220000
486.601105	145.360000
486.694855	145.340000
486.788513	145.260000
486.882233	144.820000
486.975922	144.860000
487.069641	144.940000
487.163300	144.880000
487.257050	145.720000
487.350708	145.140000
487.444427	145.060000
487.538116	145.560000
487.631836	145.560000
487.725494	145.060000
487.819214	145.300000
487.912903	145.240000
488.006622	145.320000
488.100281	145.860000
488.194031	145.900000
488.287689	146.240000
488.381409	147.140000
488.475098	146.880000
488.568817	146.800000
488.662476	146.580000
488.756226	145.840000
488.849945	144.540000
488.943604	144.800000
489.037354	144.640000
489.131012	144.600000
489.224731	144.980000
489.318390	145.300000
489.412140	145.140000
489.505798	145.080000
489.599518	144.760000
489.693207	145.120000
489.786926	145.040000
489.880585	145.080000
489.974335	145.280000
490.067993	146.340000
490.161713	146.320000
490.255371	147.300000
490.349121	147.100000
490.442780	146.640000
490.536499	145.740000
490.630188	145.940000
490.723907	145.200000
490.817566	145.500000
490.911285	146.020000
491.004974	146.020000
491.098694	145.480000
491.192413	146.480000
491.286102	146.360000
491.379822	146.220000
491.473480	146.440000
491.567200	146.540000
491.660889	145.480000
491.754608	145.420000
491.848267	145.500000
491.941986	145.420000
492.035675	145.520000
492.129395	145.940000
492.223053	145.780000
492.316772	146.060000
492.410461	146.060000
492.504181	146.060000
492.597839	145.620000
492.691559	145.860000
492.785248	145.380000
492.878967	145.720000
492.972626	145.480000
493.066345	145.460000
493.160034	145.080000
493.253754	145.100000
493.347412	144.500000
493.441132	144.720000
493.534882	145.160000
493.628540	145.660000
493.722260	145.960000
493.815918	146.460000
493.909668	146.740000
494.003326	147.060000
494.097046	146.800000
494.190704	146.200000
494.284454	146.100000
494.378113	145.900000
494.471832	145.580000
494.565491	145.440000
494.659210	146.160000
494.752899	146.160000
494.846619	145.980000
494.940277	145.860000
495.033997	145.940000
495.127686	145.100000
495.221405	144.920000
495.315063	145.340000
495.408783	145.540000
495.502441	145.960000
495.596191	146.320000
495.689850	146.340000
495.783569	146.320000
495.877228	146.180000
495.970947	145.420000
496.064697	145.380000
496.158356	145.880000
496.252075	145.740000
496.345734	145.660000
496.439453	146.660000
496.533142	146.800000
496.626862	147.320000
496.720520	146.980000
496.814240	147.040000
496.907898	146.520000
497.001617	146.480000
497.095306	145.280000
497.189026	145.480000
497.282684	145.720000
497.376404	145.800000
497.470062	145.600000
497.563782	145.960000
497.657471	145.720000
497.751190	145.340000
497.844849	145.280000
497.938568	145.780000
498.032227	145.700000
498.125946	145.880000
498.219635	145.960000
498.313354	145.980000
498.407074	145.480000
498.500732	145.860000
498.594452	146.040000
498.688110	145.740000
498.781830	145.540000
498.875519	145.740000
498.969238	145.420000
499.062897	145.140000
499.156616	145.840000
499.250275	146.280000
499.343994	145.880000
499.437653	145.620000
499.531372	145.900000
499.625061	146.040000
499.718781	145.860000
499.812439	146.620000
499.906158	146.740000
499.999817	146.660000
500.093536	146.000000
500.187195	146.120000
500.280914	145.800000
500.374573	146.020000
500.468323	145.620000
500.561981	145.840000
500.655701	145.400000
500.749420	145.120000
500.843079	145.200000
500.936798	145.620000
501.030457	145.920000
501.124176	146.160000
501.217834	146.560000
501.311554	146.400000
501.405212	145.980000
501.498962	145.140000
501.592621	144.880000
501.686340	145.100000
501.779999	145.360000
501.873718	145.860000
501.967377	146.140000
502.061096	146.480000
502.154755	145.620000
502.248474	145.580000
502.342133	145.180000
502.435852	145.160000
502.529510	145.700000
502.623230	146.720000
502.716888	146.220000
502.810608	146.680000
502.904266	147.380000
502.997986	146.820000
503.091705	146.260000
503.185364	146.580000
503.279083	146.460000
503.372772	146.020000
503.466492	145.520000
503.560150	145.440000
503.653870	145.580000
503.747528	145.480000
503.841248	145.420000
503.934906	145.860000
504.028625	145.480000
504.122284	145.560000
504.216003	145.840000
504.309662	145.460000
504.403381	145.680000
504.497040	146.120000
504.590759	145.680000
504.684418	145.760000
504.778137	146.640000
504.871796	146.640000
504.965515	146.420000
505.059174	146.540000
505.152893	146.320000
505.246521	145.640000
505.340240	145.280000
505.433899	145.440000
505.527618	145.360000
505.621338	145.400000
505.714996	145.160000
505.808716	145.240000
505.902374	145.700000
505.996094	146.260000
506.089752	146.180000
506.183472	146.780000
506.277130	146.800000
506.370850	146.580000
506.464508	146.060000
506.558228	146.040000
506.651886	145.320000
506.745605	145.640000
506.839264	145.760000
506.932983	146.100000
507.026611	146.160000
507.120331	147.120000
507.213989	146.400000
507.307709	146.180000
507.401367	146.160000
507.495087	146.720000
507.588745	146.000000
507.682465	147.080000
507.776123	147.180000
507.869843	147.180000
507.963531	146.920000
508.057190	147.540000
508.150909	146.840000
508.244568	146.740000
508.338287	146.500000
508.431946	146.300000
508.525665	145.900000
508.619324	145.840000
508.713013	146.060000
508.806671	146.600000
508.900391	147.300000
508.994049	147.260000
509.087769	146.980000
509.181427	146.900000
509.275146	146.340000
509.368774	145.400000
509.462494	145.660000
509.556152	145.880000
509.649872	146.140000
509.743530	146.220000
509.837250	146.460000
509.930878	146.120000
510.024597	145.820000
510.118256	145.400000
510.211975	145.300000
510.305695	145.020000
510.399353	145.380000
510.493042	146.020000
510.586700	146.220000
510.680420	146.740000
510.774078	146.760000
510.867798	146.880000
510.961426	146.440000
511.055145	146.320000
511.148804	145.820000
511.242523	146.560000
511.336151	146.560000
511.429871	147.020000
511.523529	147.000000
511.617249	146.860000
511.710876	146.540000
511.804596	146.000000
511.898254	145.660000
511.991974	145.860000
512.085632	145.840000
512.179321	145.760000
512.272949	146.460000
512.366699	146.740000
512.460327	146.320000
512.554077	147.160000
512.647766	146.940000
512.741394	146.560000
512.835144	146.800000
512.928772	146.760000
513.022461	146.280000
513.116150	146.200000
513.209839	146.620000
513.303467	146.080000
513.397217	145.880000
513.490845	145.480000
513.584595	145.380000
513.678223	144.800000
513.771912	144.560000
513.865601	144.920000
513.959290	145.020000
514.052917	145.140000
514.146667	145.600000
514.240295	146.000000
514.333984	146.180000
514.427673	145.980000
514.521362	146.440000
514.614990	145.820000
514.708740	145.820000
514.802368	145.840000
514.896057	146.260000
514.989746	146.520000
515.083435	146.580000
515.177124	146.760000
515.270752	146.580000
515.364502	146.440000
515.458130	146.200000
515.551819	146.160000
515.645508	145.920000
515.739197	145.920000
515.832825	146.100000
515.926575	145.560000
516.020203	146.060000
516.113892	146.820000
516.207520	147.000000
516.301270	147.100000
516.394897	147.720000
516.488586	147.740000
516.582275	147.100000
516.675964	146.720000
516.769592	146.280000
516.863281	146.300000
516.956970	146.300000
517.050659	146.180000
517.144287	146.320000
517.238037	146.380000
517.331665	145.680000
517.425354	145.360000
517.519043	145.220000
517.612732	145.780000
517.706421	145.800000
517.800049	145.760000
517.893738	145.380000
517.987427	145.540000
518.081116	144.940000
518.174744	144.700000
518.268433	145.200000
518.362122	146.200000
518.455811	146.160000
518.549438	146.820000
518.643127	148.040000
518.736816	147.380000
518.830505	146.620000
518.924133	146.720000
519.017822	146.660000
519.111511	146.100000
519.205200	147.120000
519.298828	147.180000
519.392517	146.680000
519.486206	146.840000
519.579895	146.580000
519.673523	146.080000
519.767212	146.080000
519.860901	147.040000
519.954590	146.300000
520.048279	146.060000
520.141907	145.740000
520.235596	146.760000
520.329224	146.660000
520.422974	146.820000
520.516602	147.080000
520.610291	146.880000
520.703918	146.180000
520.797607	145.580000
520.891296	145.680000
520.984985	145.880000
521.078613	146.380000
521.172302	145.980000
521.265930	147.140000
521.359680	147.420000
521.453308	147.180000
521.546997	146.960000
521.640625	147.280000
521.734314	146.200000
521.827942	145.820000
521.921692	146.160000
522.015320	146.300000
522.109009	145.920000
522.202698	146.020000
522.296326	145.920000
522.390015	145.940000
522.483704	145.980000
522.577393	145.940000
522.671021	145.920000
522.764709	145.740000
522.858337	145.840000
522.952026	145.920000
523.045654	146.680000
523.139404	147.520000
523.233032	147.920000
523.326721	147.340000
523.420349	147.580000
523.514038	146.960000
523.607666	146.840000
523.701355	146.480000
523.795044	146.620000
523.888733	146.600000
523.982361	147.060000
524.076050	146.180000
524.169678	146.740000
524.263367	146.440000
524.356995	145.900000
524.450684	145.500000
524.544373	145.600000
524.638062	145.280000
524.731750	145.740000
524.825378	146.040000
524.919067	145.820000
525.012695	145.960000
525.106384	145.560000
525.200012	145.680000
525.293701	145.520000
525.387329	146.280000
525.481018	146.200000
525.574646	146.880000
525.668396	146.320000
525.762024	146.560000
525.855713	146.260000
525.949341	145.940000
526.043030	145.720000
526.136658	145.900000
526.230347	145.420000
526.323975	145.120000
526.417664	145.500000
526.511292	145.500000
526.604980	145.720000
526.698608	145.700000
526.792297	145.760000
526.885925	145.780000
526.979614	145.960000
527.073303	145.760000
527.166931	146.040000
527.260620	146.400000
527.354309	146.700000
527.447998	146.380000
527.541626	146.060000
527.635315	146.140000
527.728943	146.640000
527.822632	146.720000
527.916260	146.920000
528.009949	147.500000
528.103577	147.340000
528.197266	146.260000
528.290894	145.980000
528.384583	145.860000
528.478210	145.660000
528.571899	146.120000
528.665527	146.900000
528.759216	147.080000
528.852844	147.360000
528.946533	147.580000
529.040161	147.240000
529.133850	146.820000
529.227478	146.900000
529.321167	147.300000
529.414856	147.620000
529.508484	148.140000
529.602173	147.560000
529.695801	147.500000
529.789490	146.920000
529.883057	146.520000
529.976746	146.640000
530.070374	147.580000
530.164062	147.420000
530.257690	147.800000
530.351379	148.220000
530.445007	147.340000
530.538696	146.700000
530.632324	147.180000
530.726013	146.880000
530.819641	146.500000
530.913330	147.080000
531.006958	147.160000
531.100647	146.980000
531.194275	146.940000
531.287964	146.740000
531.381592	146.380000
531.475220	146.740000
531.568848	146.660000
531.662537	146.680000
531.756226	147.300000
531.849854	147.360000
531.943542	147.340000
532.037170	146.660000
532.130859	146.880000
532.224487	146.420000
532.318176	145.980000
532.411804	146.420000
532.505432	146.780000
532.599060	146.260000
532.692749	146.080000
532.786377	146.880000
532.880066	146.020000
532.973694	145.800000
533.067383	146.180000
533.161011	146.300000
533.254639	146.100000
533.348267	146.080000
533.441956	146.460000
533.535583	146.360000
533.629272	146.480000
533.722900	146.040000
533.816589	146.020000
533.910156	146.060000
534.003845	145.640000
534.097534	145.940000
534.191162	146.620000
534.284851	147.000000
534.378479	146.780000
534.472107	147.160000
534.565735	146.800000
534.659424	146.800000
534.753052	146.820000
534.846741	146.500000
534.940369	146.880000
535.033997	146.860000
535.127625	146.880000
535.221313	146.960000
535.314941	147.220000
535.408630	146.580000
535.502197	146.860000
535.595886	146.520000
535.689514	146.280000
535.783203	146.460000
535.876831	146.920000
535.970459	146.660000
536.064087	146.560000
536.157776	146.500000
536.251404	146.340000
536.345093	145.820000
536.438721	145.860000
536.532349	145.800000
536.626038	145.780000
536.719666	146.220000
536.813293	146.200000
536.906921	146.120000
537.000610	146.600000
537.094238	146.720000
537.187866	146.420000
537.281494	146.400000
537.375183	146.680000
537.468811	146.280000
537.562439	146.160000
537.656067	145.920000
537.749756	146.200000
537.843384	146.420000
537.937012	146.680000
538.030640	146.540000
538.124329	146.740000
538.217896	147.000000
538.311584	146.620000
538.405212	146.220000
538.498901	146.660000
538.592468	147.160000
538.686157	146.740000
538.779785	146.180000
538.873413	146.360000
538.967102	146.020000
539.060730	145.320000
539.154358	145.880000
539.247986	146.520000
539.341675	146.700000
539.435242	146.900000
539.528931	147.120000
539.622559	146.300000
539.716187	146.640000
539.809814	146.440000
539.903503	146.180000
539.997070	146.020000
540.090759	146.460000
540.184387	146.100000
540.278015	146.400000
540.371643	146.760000
540.465332	146.980000
540.558899	146.740000
540.652588	146.520000
540.746216	146.480000
540.839844	146.540000
540.933472	146.460000
541.027100	146.380000
541.120728	146.580000
541.214417	146.720000
541.308044	146.820000
541.401672	146.660000
541.495300	146.640000
541.588928	146.580000
541.682617	145.980000
541.776184	145.520000
541.869873	146.040000
541.963440	146.500000
542.057129	146.560000
542.150757	146.560000
542.244385	146.520000
542.338013	145.760000
542.431641	145.280000
542.525269	145.080000
542.618958	145.680000
542.712524	146.120000
542.806213	146.100000
542.899780	146.420000
542.993469	146.280000
543.087036	145.760000
543.180725	145.080000
543.274292	145.680000
543.367981	146.060000
543.461548	146.540000
543.555237	146.560000
543.648926	147.340000
543.742493	147.900000
543.836182	147.600000
543.929749	147.340000
544.023437	147.420000
544.117004	147.100000
544.210693	146.720000
544.304260	146.740000
544.397949	146.460000
544.491516	146.500000
544.585205	146.380000
544.678772	145.820000
544.772461	145.960000
544.866028	146.220000
544.959717	146.340000
545.053284	146.120000
545.146973	146.660000
545.240540	146.800000
545.334229	147.480000
545.427795	147.600000
545.521423	148.240000
545.615051	148.140000
545.708679	148.300000
545.802307	147.960000
545.895935	148.180000
545.989624	148.700000
546.083191	148.440000
546.176880	148.020000
546.270447	147.280000
546.364136	147.500000
546.457703	146.900000
546.551331	147.000000
546.644958	147.180000
546.738586	147.600000
546.832214	146.900000
546.925842	146.440000
547.019409	146.680000
547.113098	146.320000
547.206665	146.240000
547.300354	146.340000
547.393921	146.620000
547.487549	146.720000
547.581177	146.580000
547.674805	146.500000
547.768433	145.920000
547.862061	146.080000
547.955627	145.440000
548.049316	146.280000
548.142883	146.720000
548.236572	147.300000
548.330139	147.220000
548.423767	147.300000
548.517456	146.780000
548.611023	146.680000
548.704651	146.180000
548.798279	146.180000
548.891907	146.620000
548.985474	146.400000
549.079163	146.600000
549.172729	146.720000
549.266357	146.280000
549.359985	146.260000
549.453613	145.900000
549.547180	145.400000
549.640869	145.920000
549.734436	145.920000
549.828064	146.000000
549.921631	146.300000
550.015320	146.140000
550.108887	146.340000
550.202515	146.460000
550.296143	146.140000
550.389771	146.120000
550.483337	146.320000
550.576965	145.940000
550.670593	146.500000
550.764221	146.600000
550.857849	146.400000
550.951477	146.200000
551.045105	146.040000
551.138672	145.760000
551.232300	145.040000
551.325928	145.700000
551.419556	146.080000
551.513123	146.220000
551.606750	146.040000
551.700378	146.640000
551.794006	146.240000
551.887573	145.880000
551.981201	146.280000
552.074768	146.140000
552.168457	145.760000
552.262024	146.840000
552.355652	146.980000
552.449219	147.180000
552.542847	147.320000
552.636475	147.220000
552.730103	145.860000
552.823669	145.780000
552.917297	145.020000
553.010864	145.120000
553.104553	145.800000
553.198181	145.760000
553.291748	146.060000
553.385376	146.460000
553.478943	146.260000
553.572571	146.060000
553.666199	146.500000
553.759827	146.280000
553.853394	145.800000
553.947021	146.020000
554.040588	145.900000
554.134216	146.020000
554.227783	146.640000
554.321411	147.220000
554.415039	146.800000
554.508667	146.800000
554.602234	146.940000
554.695862	146.160000
554.789429	146.060000
554.883057	146.080000
554.976624	145.980000
555.070251	145.760000
555.163818	146.000000
555.257507	145.580000
555.351074	145.920000
555.444702	146.880000
555.538330	146.940000
555.631897	147.000000
555.725525	146.980000
555.819092	146.780000
555.912720	145.760000
556.006287	146.040000
556.099915	145.620000
556.193481	145.880000
556.287109	146.020000
556.380676	146.040000
556.474304	145.880000
556.567871	146.500000
556.661499	146.140000
556.755066	146.080000
556.848694	146.540000
556.942261	146.160000
557.035889	146.040000
557.129517	146.540000
557.223145	147.040000
557.316711	146.880000
557.410339	147.180000
557.503906	146.840000
557.597473	146.820000
557.691040	146.180000
557.784668	146.080000
557.878296	146.120000
557.971863	146.420000
558.065491	146.520000
558.159058	146.440000
558.252686	146.900000
558.346252	147.240000
558.439880	146.920000
558.533447	146.160000
558.627075	146.200000
558.720642	145.640000
558.814270	145.080000
558.907837	145.140000
559.001465	145.340000
559.095032	145.920000
559.188660	146.160000
559.282227	145.860000
559.375854	146.500000
559.469360	146.220000
559.562988	146.300000
559.656555	146.220000
559.750183	146.660000
559.843750	146.420000
559.937378	147.100000
560.030945	146.940000
560.124573	0.000000
560.218140	0.000000
560.311707	0.000000
560.405334	0.000000
560.498901	0.000000
560.592529	0.000000
560.686096	0.000000
560.779724	0.000000
560.873291	0.000000
560.966858	0.000000
561.060425	0.000000
561.154053	0.000000
561.247620	0.000000
561.341248	0.000000
561.434814	0.000000
561.528381	0.000000
561.621948	0.000000
561.715576	0.000000
561.809143	0.000000
561.902771	0.000000
561.996277	0.000000
562.089905	0.000000
562.183472	0.000000
562.277100	0.000000
