Model Number: SPM-001-M   
Serial Number: 10090201
Firmware Version: 004.17.6
Exposure Time: 500000.000000us
Data Taken on: 10-03-2021 10:42:03.994
Wavelength	Amplitude
733.770752	0.000000
733.808716	0.000000
733.846619	0.000000
733.884583	0.000000
733.922546	0.000000
733.960449	0.000000
733.998413	0.000000
734.036377	0.000000
734.074219	0.000000
734.112183	0.000000
734.150085	0.000000
734.188049	0.000000
734.226013	0.000000
734.263916	0.000000
734.301819	0.000000
734.339783	0.000000
734.377686	0.000000
734.415588	0.000000
734.453552	0.000000
734.491455	0.000000
734.529419	0.000000
734.567322	0.000000
734.605225	0.000000
734.643127	0.000000
734.681091	0.000000
734.718994	0.000000
734.756897	0.000000
734.794800	0.000000
734.832703	0.000000
734.870667	0.000000
734.908508	0.000000
734.946472	0.000000
734.984375	0.000000
735.022278	0.000000
735.060181	0.000000
735.098083	0.000000
735.135986	0.000000
735.173889	0.000000
735.211792	0.000000
735.249695	0.000000
735.287598	0.000000
735.325439	0.000000
735.363403	0.000000
735.401306	0.000000
735.439148	0.000000
735.477051	0.000000
735.515015	0.000000
735.552856	0.000000
735.590759	0.000000
735.628662	0.000000
735.666504	0.000000
735.704407	0.000000
735.742310	0.000000
735.780212	0.000000
735.818115	0.000000
735.856018	0.000000
735.893860	0.000000
735.931763	0.000000
735.969604	0.000000
736.007507	0.000000
736.045410	0.000000
736.083252	0.000000
736.121094	0.000000
736.158997	0.000000
736.196838	0.000000
736.234741	0.000000
736.272644	0.000000
736.310486	0.000000
736.348389	0.000000
736.386230	0.000000
736.424072	0.000000
736.461975	0.000000
736.499878	0.000000
736.537720	0.000000
736.575562	0.000000
736.613403	0.000000
736.651306	0.000000
736.689148	0.000000
736.726990	0.000000
736.764893	0.000000
736.802734	0.000000
736.840576	0.000000
736.878418	0.000000
736.916321	0.000000
736.954102	0.000000
736.992004	0.000000
737.029846	0.000000
737.067688	0.000000
737.105530	0.000000
737.143372	0.000000
737.181213	0.000000
737.219116	0.000000
737.256897	0.000000
737.294739	0.000000
737.332642	0.000000
737.370422	0.000000
737.408325	0.000000
737.446167	0.000000
737.483948	0.000000
737.521790	0.000000
737.559692	0.000000
737.597473	0.000000
737.635315	0.000000
737.673157	0.000000
737.710999	0.000000
737.748840	0.000000
737.786621	0.000000
737.824463	0.000000
737.862305	0.000000
737.900085	0.000000
737.937927	0.000000
737.975769	0.000000
738.013550	0.000000
738.051392	0.000000
738.089233	0.000000
738.127014	0.000000
738.164856	0.000000
738.202698	0.000000
738.240479	0.000000
738.278320	0.000000
738.316162	0.000000
738.353943	0.000000
738.391785	0.000000
738.429565	0.000000
738.467407	0.000000
738.505188	0.000000
738.542969	0.000000
738.580811	0.000000
738.618652	0.000000
738.656372	0.000000
738.694214	0.000000
738.732056	0.000000
738.769836	0.000000
738.807617	0.000000
738.845459	0.000000
738.883240	0.000000
738.921021	0.000000
738.958862	0.000000
738.996582	0.000000
739.034424	0.000000
739.072205	0.000000
739.109985	0.000000
739.147827	0.000000
739.185547	0.000000
739.223389	0.000000
739.261169	0.000000
739.298889	0.000000
739.336731	0.000000
739.374512	0.000000
739.412292	0.000000
739.450073	0.000000
739.487854	0.000000
739.525635	0.000000
739.563416	0.000000
739.601135	0.000000
739.638977	0.000000
739.676758	0.000000
739.714478	0.000000
739.752258	0.000000
739.790100	0.000000
739.827820	0.000000
739.865601	0.000000
739.903381	0.000000
739.941101	0.000000
739.978882	196.300000
740.016724	192.400000
740.054443	197.200000
740.092224	189.900000
740.130005	188.600000
740.167725	190.400000
740.205505	189.500000
740.243225	199.600000
740.281006	193.300000
740.318787	185.400000
740.356506	197.100000
740.394287	197.900000
740.432068	189.600000
740.469727	186.400000
740.507507	196.100000
740.545288	192.100000
740.583008	194.200000
740.620789	193.800000
740.658569	183.900000
740.696228	191.200000
740.734009	198.400000
740.771790	180.900000
740.809509	196.400000
740.847229	188.100000
740.884949	189.900000
740.922729	185.500000
740.960449	190.100000
740.998169	188.000000
741.035950	189.400000
741.073669	195.000000
741.111389	192.200000
741.149170	202.800000
741.186890	202.900000
741.224609	196.500000
741.262329	193.900000
741.300110	204.200000
741.337769	187.500000
741.375549	188.000000
741.413208	192.900000
741.450989	188.800000
741.488708	190.500000
741.526367	190.400000
741.564148	196.400000
741.601868	197.500000
741.639526	193.000000
741.677307	195.000000
741.715027	194.300000
741.752686	188.400000
741.790466	199.100000
741.828186	196.000000
741.865845	189.400000
741.903564	185.300000
741.941345	191.700000
741.979004	188.600000
742.016724	195.600000
742.054382	193.700000
742.092102	198.400000
742.129822	185.100000
742.167480	190.700000
742.205200	190.400000
742.242920	193.000000
742.280640	195.100000
742.318359	189.000000
742.356079	189.500000
742.393738	197.300000
742.431396	191.500000
742.469116	195.800000
742.506775	182.000000
742.544495	195.100000
742.582214	196.700000
742.619873	192.200000
742.657593	199.500000
742.695251	197.500000
742.732971	191.700000
742.770630	194.300000
742.808289	192.500000
742.846008	193.400000
742.883728	195.100000
742.921326	192.600000
742.959045	189.900000
742.996765	192.000000
743.034424	192.300000
743.072083	190.900000
743.109802	191.400000
743.147400	185.900000
743.185120	194.400000
743.222839	192.600000
743.260437	199.200000
743.298157	195.500000
743.335754	184.500000
743.373474	191.900000
743.411133	184.500000
743.448792	193.700000
743.486450	192.400000
743.524170	184.600000
743.561768	193.000000
743.599487	198.600000
743.637146	203.700000
743.674744	191.200000
743.712463	189.800000
743.750122	191.700000
743.787720	197.000000
743.825439	189.300000
743.863037	189.900000
743.900696	191.600000
743.938416	217.200000
743.976013	190.800000
744.013672	201.900000
744.051331	197.700000
744.088928	201.700000
744.126587	198.900000
744.164307	193.500000
744.201904	189.900000
744.239563	197.200000
744.277222	195.200000
744.314819	192.500000
744.352478	199.800000
744.390137	195.900000
744.427734	195.100000
744.465393	191.000000
744.502991	188.000000
744.540649	196.400000
744.578308	192.600000
744.615906	186.500000
744.653564	181.600000
744.691223	198.100000
744.728821	184.200000
744.766418	193.900000
744.804077	195.800000
744.841675	189.100000
744.879333	186.200000
744.916992	192.600000
744.954529	189.100000
744.992187	197.700000
745.029785	190.900000
745.067444	189.500000
745.105042	193.200000
745.142639	195.600000
745.180298	201.400000
745.217896	191.700000
745.255493	191.800000
745.293152	196.800000
745.330750	196.100000
745.368347	200.600000
745.405945	194.600000
745.443604	193.900000
745.481140	197.300000
745.518799	189.400000
745.556396	196.400000
745.593994	196.800000
745.631592	192.300000
745.669189	187.400000
745.706787	196.000000
745.744385	187.700000
745.781982	195.400000
745.819580	190.000000
745.857178	191.200000
745.894775	193.000000
745.932373	193.700000
745.969971	192.500000
746.007568	184.100000
746.045166	202.500000
746.082764	197.600000
746.120300	197.200000
746.157898	197.200000
746.195557	192.800000
746.233093	187.200000
746.270691	195.600000
746.308228	195.100000
746.345825	196.300000
746.383423	197.200000
746.420959	187.500000
746.458557	190.300000
746.496155	190.600000
746.533691	193.100000
746.571289	187.100000
746.608887	194.400000
746.646423	192.800000
746.684021	193.600000
746.721619	189.600000
746.759155	194.000000
746.796753	185.800000
746.834351	187.400000
746.871826	188.800000
746.909424	200.200000
746.946960	195.000000
746.984558	192.000000
747.022156	191.800000
747.059631	199.200000
747.097229	195.200000
747.134827	191.300000
747.172363	200.700000
747.209900	195.200000
747.247498	186.900000
747.285034	200.400000
747.322571	200.200000
747.360168	190.800000
747.397644	186.100000
747.435242	196.700000
747.472778	200.500000
747.510315	190.900000
747.547913	190.800000
747.585388	199.600000
747.622925	194.300000
747.660522	183.100000
747.697998	189.600000
747.735596	191.900000
747.773132	189.300000
747.810669	192.200000
747.848206	197.100000
747.885742	187.000000
747.923279	187.300000
747.960815	195.200000
747.998352	192.900000
748.035889	196.900000
748.073425	199.900000
748.110901	189.900000
748.148437	189.600000
748.185974	192.700000
748.223511	203.800000
748.261047	193.800000
748.298584	195.300000
748.336060	191.200000
748.373596	196.400000
748.411133	210.700000
748.448608	190.000000
748.486145	196.400000
748.523682	201.300000
748.561218	198.000000
748.598755	193.800000
748.636292	196.400000
748.673706	191.400000
748.711243	199.400000
748.748718	194.900000
748.786255	191.900000
748.823792	192.900000
748.861267	187.800000
748.898804	196.700000
748.936340	194.900000
748.973816	191.000000
749.011292	199.200000
749.048828	194.700000
749.086304	196.900000
749.123840	204.200000
749.161316	187.100000
749.198792	201.300000
749.236328	199.300000
749.273743	192.400000
749.311279	190.900000
749.348816	194.900000
749.386230	193.900000
749.423767	181.000000
749.461304	196.300000
749.498718	193.700000
749.536255	199.900000
749.573730	205.400000
749.611206	200.400000
749.648682	192.700000
749.686218	192.500000
749.723633	198.100000
749.761169	191.100000
749.798645	188.900000
749.836060	191.700000
749.873596	189.800000
749.911011	193.400000
749.948547	199.800000
749.986023	193.100000
750.023437	191.000000
750.060913	188.400000
750.098450	187.700000
750.135864	192.700000
750.173340	192.700000
750.210815	199.000000
750.248291	186.500000
750.285767	194.000000
750.323242	200.700000
750.360657	195.600000
750.398132	188.000000
750.435608	199.000000
750.473022	189.700000
750.510498	189.900000
750.547974	188.900000
750.585449	191.600000
750.622925	182.400000
750.660339	201.800000
750.697815	192.500000
750.735291	192.300000
750.772644	194.100000
750.810120	194.200000
750.847595	196.000000
750.885010	187.800000
750.922485	202.500000
750.959961	192.300000
750.997375	200.700000
751.034851	198.200000
751.072266	199.300000
751.109680	186.300000
751.147156	199.500000
751.184570	196.300000
751.221985	196.400000
751.259460	184.900000
751.296875	193.400000
751.334290	193.800000
751.371765	199.000000
751.409180	195.300000
751.446594	200.800000
751.484070	195.000000
751.521423	195.400000
751.558899	193.500000
751.596375	201.700000
751.633728	198.000000
751.671204	206.800000
751.708618	188.500000
751.746033	193.300000
751.783447	186.900000
751.820801	190.000000
751.858276	194.800000
751.895691	193.500000
751.933105	191.100000
751.970520	188.700000
752.007935	190.300000
752.045349	197.300000
752.082764	192.600000
752.120178	190.900000
752.157532	188.100000
752.195007	191.000000
752.232422	195.600000
752.269775	200.500000
752.307190	196.500000
752.344543	190.000000
752.382019	191.300000
752.419434	192.000000
752.456787	194.800000
752.494202	198.100000
752.531616	195.700000
752.568970	198.600000
752.606384	194.900000
752.643799	194.400000
752.681152	202.400000
752.718567	196.500000
752.755981	185.900000
752.793335	195.400000
752.830750	186.400000
752.868164	199.500000
752.905518	188.000000
752.942932	197.400000
752.980225	187.800000
753.017639	198.300000
753.055054	192.600000
753.092407	194.900000
753.129822	199.100000
753.167175	202.700000
753.204529	193.100000
753.241943	189.900000
753.279358	186.600000
753.316650	196.900000
753.354065	194.600000
753.391479	198.100000
753.428772	203.300000
753.466187	198.000000
753.503479	186.900000
753.540894	192.100000
753.578308	188.600000
753.615601	186.700000
753.653015	193.700000
753.690369	192.000000
753.727722	188.800000
753.765076	186.300000
753.802490	188.300000
753.839783	184.500000
753.877136	191.900000
753.914551	208.300000
753.951843	189.800000
753.989258	196.000000
754.026611	195.900000
754.063904	194.900000
754.101257	187.800000
754.138611	184.700000
754.175964	194.600000
754.213318	204.900000
754.250610	187.200000
754.288025	191.300000
754.325378	187.700000
754.362671	199.500000
754.400024	190.600000
754.437378	202.500000
754.474670	203.300000
754.512085	190.400000
754.549438	195.000000
754.586731	191.700000
754.624084	191.100000
754.661438	188.800000
754.698730	201.000000
754.736084	191.200000
754.773376	192.500000
754.810730	195.700000
754.848083	190.600000
754.885315	198.100000
754.922668	185.600000
754.960022	188.700000
754.997314	197.500000
755.034668	194.800000
755.072021	194.900000
755.109253	192.200000
755.146606	200.100000
755.183960	191.900000
755.221252	201.500000
755.258545	200.000000
755.295898	199.000000
755.333191	201.600000
755.370544	196.500000
755.407776	193.700000
755.445129	193.000000
755.482422	199.300000
755.519714	190.000000
755.557068	187.800000
755.594360	185.300000
755.631653	199.700000
755.668945	204.200000
755.706299	196.300000
755.743530	207.400000
755.780884	203.900000
755.818176	200.500000
755.855408	201.600000
755.892761	195.900000
755.930054	196.700000
755.967346	198.800000
756.004639	200.700000
756.041870	197.100000
756.079224	201.500000
756.116516	192.200000
756.153748	202.000000
756.191040	203.700000
756.228394	199.500000
756.265625	193.000000
756.302917	198.400000
756.340210	194.000000
756.377441	202.400000
756.414795	204.800000
756.452087	196.600000
756.489319	191.300000
756.526611	200.000000
756.563843	198.900000
756.601135	207.600000
756.638428	208.200000
756.675659	198.400000
756.712952	204.300000
756.750244	201.700000
756.787476	200.200000
756.824768	205.400000
756.862061	196.200000
756.899292	245.000000
756.936584	204.800000
756.973816	210.600000
757.011047	210.800000
757.048340	200.600000
757.085632	201.400000
757.122864	215.000000
757.160156	197.800000
757.197327	202.400000
757.234619	205.300000
757.271912	200.400000
757.309082	205.700000
757.346375	198.500000
757.383667	208.500000
757.420837	203.600000
757.458130	203.000000
757.495422	199.600000
757.532593	205.900000
757.569885	194.000000
757.607117	197.500000
757.644348	204.400000
757.681580	214.300000
757.718811	190.000000
757.756042	203.000000
757.793335	199.500000
757.830505	204.900000
757.867798	199.800000
757.905029	199.100000
757.942200	203.900000
757.979492	198.900000
758.016724	202.400000
758.053894	200.800000
758.091187	221.300000
758.128418	203.300000
758.165588	202.400000
758.202820	215.600000
758.240112	202.200000
758.277283	215.300000
758.314514	206.600000
758.351685	200.900000
758.388916	215.400000
758.426147	213.000000
758.463379	216.200000
758.500610	208.000000
758.537842	207.400000
758.575012	211.900000
758.612244	202.000000
758.649475	217.200000
758.686646	201.400000
758.723877	214.300000
758.761108	216.200000
758.798279	205.700000
758.835510	210.100000
758.872742	214.000000
758.909851	212.200000
758.947083	210.200000
758.984253	211.000000
759.021484	213.000000
759.058716	212.700000
759.095886	212.800000
759.133057	207.800000
759.170288	213.100000
759.207458	207.600000
759.244690	220.600000
759.281860	219.900000
759.319031	207.100000
759.356262	207.600000
759.393433	208.700000
759.430603	208.500000
759.467773	209.000000
759.505005	216.600000
759.542175	215.600000
759.579346	209.000000
759.616516	210.600000
759.653687	214.600000
759.690918	208.000000
759.728027	212.600000
759.765259	212.800000
759.802429	215.000000
759.839539	213.600000
759.876770	218.700000
759.913940	222.500000
759.951111	211.800000
759.988281	212.800000
760.025452	209.300000
760.062561	208.400000
760.099792	220.900000
760.136963	216.700000
760.174072	211.200000
760.211243	205.500000
760.248413	207.700000
760.285583	209.100000
760.322754	224.000000
760.359863	221.300000
760.397034	222.000000
760.434204	211.700000
760.471375	214.200000
760.508545	214.000000
760.545715	213.300000
760.582825	209.800000
760.619995	220.100000
760.657166	208.200000
760.694275	220.000000
760.731445	217.200000
760.768555	218.500000
760.805664	220.500000
760.842834	217.400000
760.879944	221.100000
760.917114	217.900000
760.954285	218.000000
760.991394	210.700000
761.028564	225.500000
761.065674	222.000000
761.102783	214.500000
761.139954	224.400000
761.177124	225.000000
761.214172	226.000000
761.251343	218.600000
761.288452	220.300000
761.325562	225.000000
761.362732	218.200000
761.399841	220.600000
761.436951	223.300000
761.474121	217.300000
761.511169	222.900000
761.548340	228.500000
761.585449	226.400000
761.622559	227.300000
761.659668	223.700000
761.696838	229.700000
761.733887	228.000000
761.771057	223.000000
761.808167	225.600000
761.845276	229.000000
761.882385	238.900000
761.919434	228.500000
761.956604	248.200000
761.993713	222.100000
762.030762	236.600000
762.067871	225.800000
762.105042	228.200000
762.142090	235.400000
762.179199	230.700000
762.216309	233.400000
762.253418	245.900000
762.290527	242.500000
762.327637	237.500000
762.364685	226.100000
762.401794	237.900000
762.438904	235.200000
762.475952	229.300000
762.513062	229.000000
762.550110	229.200000
762.587219	244.700000
762.624329	245.700000
762.661377	236.600000
762.698486	238.600000
762.735596	235.800000
762.772644	230.900000
762.809753	227.900000
762.846863	236.700000
762.883911	240.900000
762.921021	242.500000
762.958069	238.900000
762.995117	246.800000
763.032227	247.100000
763.069336	238.500000
763.106323	233.600000
763.143433	234.800000
763.180481	241.700000
763.217590	242.700000
763.254639	239.100000
763.291687	240.100000
763.328735	249.200000
763.365845	240.900000
763.402893	241.300000
763.439941	244.700000
763.477051	246.300000
763.514038	247.500000
763.551147	241.100000
763.588196	245.000000
763.625244	242.400000
763.662292	251.000000
763.699402	255.100000
763.736389	248.600000
763.773499	258.600000
763.810486	252.700000
763.847534	249.400000
763.884644	254.200000
763.921631	249.000000
763.958679	261.400000
763.995728	250.500000
764.032776	257.900000
764.069824	245.400000
764.106873	255.200000
764.143860	261.700000
764.180969	253.500000
764.218018	261.100000
764.255005	250.700000
764.292053	254.900000
764.329102	265.600000
764.366089	265.000000
764.403137	262.200000
764.440125	252.700000
764.477173	256.500000
764.514221	260.600000
764.551208	256.600000
764.588257	253.300000
764.625305	263.100000
764.662292	270.100000
764.699341	273.200000
764.736389	263.800000
764.773376	278.700000
764.810425	266.200000
764.847473	273.100000
764.884399	268.400000
764.921448	277.800000
764.958435	274.900000
764.995483	264.300000
765.032532	283.300000
765.069458	265.700000
765.106506	267.200000
765.143555	265.700000
765.180481	269.500000
765.217529	279.900000
765.254578	260.800000
765.291504	274.300000
765.328552	270.300000
765.365540	267.600000
765.402527	280.600000
765.439575	268.000000
765.476501	263.400000
765.513550	266.900000
765.550537	269.900000
765.587463	278.000000
765.624512	270.500000
765.661499	262.700000
765.698486	280.500000
765.735474	268.800000
765.772461	273.100000
765.809448	279.900000
765.846436	278.700000
765.883423	283.500000
765.920410	277.200000
765.957397	272.300000
765.994385	277.700000
766.031311	287.200000
766.068359	280.300000
766.105286	280.300000
766.142273	285.700000
766.179260	282.600000
766.216187	275.800000
766.253174	271.100000
766.290161	281.000000
766.327148	285.600000
766.364136	286.000000
766.401123	300.600000
766.438049	280.000000
766.475037	295.100000
766.512024	291.200000
766.548950	304.700000
766.585937	299.200000
766.622864	294.300000
766.659790	293.200000
766.696777	282.300000
766.733704	300.900000
766.770691	290.600000
766.807678	304.600000
766.844604	299.800000
766.881531	299.600000
766.918518	305.500000
766.955444	307.300000
766.992432	301.300000
767.029358	304.200000
767.066284	307.900000
767.103271	303.900000
767.140198	333.600000
767.177124	321.000000
767.214050	312.700000
767.251038	312.900000
767.287964	309.600000
767.324890	307.800000
767.361816	313.600000
767.398743	320.900000
767.435730	313.600000
767.472595	317.100000
767.509583	323.700000
767.546509	311.200000
767.583374	318.200000
767.620361	311.100000
767.657288	319.400000
767.694214	318.000000
767.731140	318.400000
767.768066	319.300000
767.804993	324.700000
767.841919	315.400000
767.878845	322.500000
767.915710	330.200000
767.952698	323.700000
767.989563	327.600000
768.026489	327.800000
768.063416	323.300000
768.100281	323.800000
768.137207	337.900000
768.174133	333.400000
768.211060	335.300000
768.247986	334.800000
768.284912	333.800000
768.321777	334.900000
768.358704	333.600000
768.395630	337.900000
768.432495	332.100000
768.469421	341.400000
768.506348	344.900000
768.543152	352.200000
768.580078	347.100000
768.616943	348.100000
768.653870	349.800000
768.690796	349.000000
768.727661	347.300000
768.764587	349.300000
768.801453	341.600000
768.838318	356.000000
768.875244	353.000000
768.912109	362.000000
768.948975	349.300000
768.985901	354.700000
769.022766	352.700000
769.059631	359.400000
769.096558	353.200000
769.133362	355.700000
769.170288	358.000000
769.207214	356.700000
769.244019	364.400000
769.280945	361.600000
769.317810	369.600000
769.354675	364.400000
769.391541	374.000000
769.428406	371.800000
769.465271	381.400000
769.502136	369.200000
769.539062	371.100000
769.575867	372.400000
769.612732	370.800000
769.649597	378.800000
769.686462	380.800000
769.723328	376.900000
769.760193	374.200000
769.797058	377.200000
769.833923	387.600000
769.870728	381.700000
769.907593	386.600000
769.944519	385.200000
769.981323	388.100000
770.018188	389.100000
770.055054	386.600000
770.091858	387.300000
770.128723	398.300000
770.165588	404.900000
770.202393	387.400000
770.239258	399.200000
770.276062	395.800000
770.312927	397.500000
770.349792	402.400000
770.386597	398.400000
770.423462	409.500000
770.460327	418.100000
770.497131	401.200000
770.533997	394.400000
770.570862	411.700000
770.607605	411.200000
770.644470	404.600000
770.681335	408.700000
770.718140	405.900000
770.754944	397.400000
770.791809	401.200000
770.828613	404.500000
770.865479	406.400000
770.902222	414.000000
770.939087	407.000000
770.975952	398.500000
771.012695	404.800000
771.049561	422.800000
771.086365	409.900000
771.123169	407.400000
771.159973	410.700000
771.196838	408.400000
771.233582	411.900000
771.270447	413.900000
771.307251	415.500000
771.344055	411.900000
771.380859	417.800000
771.417664	408.600000
771.454468	420.700000
771.491272	417.500000
771.528076	421.400000
771.564880	417.900000
771.601685	428.900000
771.638428	416.800000
771.675293	425.500000
771.712097	416.200000
771.748840	433.600000
771.785645	423.300000
771.822449	429.200000
771.859253	429.700000
771.896057	428.100000
771.932861	442.100000
771.969604	433.000000
772.006409	426.200000
772.043213	440.600000
772.079956	437.100000
772.116760	427.800000
772.153503	434.900000
772.190308	445.600000
772.227112	435.300000
772.263855	433.300000
772.300659	439.100000
772.337463	446.100000
772.374207	439.300000
772.411011	434.500000
772.447754	438.100000
772.484497	457.800000
772.521301	449.000000
772.558105	446.900000
772.594849	449.800000
772.631592	455.600000
772.668396	454.000000
772.705139	460.400000
772.741882	460.200000
772.778625	471.300000
772.815430	473.900000
772.852173	468.200000
772.888916	478.500000
772.925720	478.400000
772.962463	487.500000
772.999207	480.200000
773.035950	487.700000
773.072754	487.500000
773.109436	484.300000
773.146240	486.200000
773.182922	486.300000
773.219727	495.700000
773.256470	491.200000
773.293152	478.500000
773.329956	485.900000
773.366699	490.500000
773.403381	485.400000
773.440186	493.100000
773.476929	498.000000
773.513611	488.000000
773.550354	493.500000
773.587158	495.500000
773.623840	490.100000
773.660583	500.300000
773.697327	514.900000
773.734009	504.200000
773.770813	502.900000
773.807495	501.800000
773.844238	505.200000
773.880981	525.000000
773.917664	517.300000
773.954407	524.400000
773.991150	515.100000
774.027832	520.900000
774.064575	512.200000
774.101318	526.700000
774.138000	528.500000
774.174744	525.200000
774.211487	529.700000
774.248108	515.000000
774.284851	515.100000
774.321594	528.400000
774.358276	530.500000
774.395020	543.100000
774.431702	537.400000
774.468384	528.900000
774.505127	528.500000
774.541809	542.600000
774.578491	554.700000
774.615234	557.700000
774.651917	547.200000
774.688599	551.200000
774.725342	557.300000
774.762024	557.000000
774.798706	565.200000
774.835449	565.200000
774.872070	567.600000
774.908813	567.500000
774.945496	564.200000
774.982178	566.000000
775.018860	567.600000
775.055542	572.000000
775.092224	575.000000
775.128967	583.600000
775.165588	579.000000
775.202271	572.100000
775.239014	583.000000
775.275635	587.900000
775.312317	579.200000
775.349060	582.200000
775.385681	584.500000
775.422363	581.200000
775.459045	587.800000
775.495667	588.300000
775.532410	596.000000
775.569092	596.900000
775.605713	593.800000
775.642395	591.600000
775.679016	597.200000
775.715698	596.900000
775.752380	604.400000
775.789001	593.400000
775.825684	596.100000
775.862366	599.800000
775.898987	609.900000
775.935669	597.800000
775.972351	621.800000
776.008972	618.300000
776.045654	612.200000
776.082336	608.500000
776.118958	610.200000
776.155640	614.200000
776.192322	622.400000
776.228882	621.100000
776.265564	620.500000
776.302185	614.100000
776.338867	629.000000
776.375488	609.700000
776.412109	628.500000
776.448792	630.900000
776.485413	638.700000
776.522034	626.800000
776.558716	620.000000
776.595337	618.200000
776.631958	621.500000
776.668579	626.000000
776.705261	635.200000
776.741882	627.700000
776.778503	628.900000
776.815186	621.700000
776.851746	632.000000
776.888367	630.500000
776.924988	638.300000
776.961609	627.000000
776.998291	627.000000
777.034851	620.600000
777.071472	635.300000
777.108154	632.900000
777.144714	643.900000
777.181335	643.200000
777.218018	632.600000
777.254578	641.900000
777.291199	637.900000
777.327759	646.100000
777.364380	653.900000
777.401062	663.300000
777.437622	670.000000
777.474243	656.800000
777.510864	664.400000
777.547424	658.400000
777.584045	664.400000
777.620667	665.600000
777.657227	671.500000
777.693848	671.800000
777.730469	685.700000
777.767029	673.400000
777.803650	680.300000
777.840271	674.200000
777.876831	673.400000
777.913452	682.300000
777.950012	661.500000
777.986633	666.400000
778.023193	666.700000
778.059753	666.500000
778.096375	669.200000
778.132996	683.700000
778.169556	667.300000
778.206116	675.200000
778.242737	671.500000
778.279297	685.700000
778.315857	673.000000
778.352478	684.900000
778.389038	694.300000
778.425598	693.600000
778.462219	704.900000
778.498718	703.400000
778.535339	710.900000
778.571838	708.200000
778.608459	716.700000
778.645020	708.400000
778.681580	718.800000
778.718140	723.000000
778.754761	715.700000
778.791260	724.000000
778.827881	729.300000
778.864441	727.100000
778.900940	732.100000
778.937561	731.800000
778.974121	731.900000
779.010620	719.700000
779.047241	728.900000
779.083801	740.100000
779.120300	737.500000
779.156860	741.500000
779.193359	736.300000
779.229980	739.000000
779.266541	744.100000
779.303040	749.500000
779.339600	739.000000
779.376160	738.800000
779.412659	748.000000
779.449219	743.800000
779.485779	752.200000
779.522278	750.900000
779.558838	758.500000
779.595398	757.600000
779.631897	758.700000
779.668457	751.800000
779.705017	764.500000
779.741516	754.800000
779.778076	752.700000
779.814575	756.200000
779.851074	769.800000
779.887634	764.200000
779.924133	771.000000
779.960693	758.300000
779.997253	767.100000
780.033691	774.900000
780.070251	777.000000
780.106812	788.100000
780.143250	783.200000
780.179810	782.300000
780.216370	787.900000
780.252808	793.700000
780.289368	806.000000
780.325867	803.600000
780.362366	802.000000
780.398865	813.100000
780.435364	807.300000
780.471863	821.700000
780.508423	817.900000
780.544861	826.000000
780.581421	827.900000
780.617920	818.400000
780.654419	814.600000
780.690918	828.700000
780.727417	831.500000
780.763916	828.500000
780.800415	839.200000
780.836914	821.400000
780.873352	825.100000
780.909912	817.000000
780.946411	827.800000
780.982849	836.400000
781.019348	854.700000
781.055786	845.900000
781.092346	835.300000
781.128845	845.600000
781.165283	854.200000
781.201782	864.000000
781.238281	863.400000
781.274719	867.200000
781.311218	859.600000
781.347717	872.200000
781.384155	857.600000
781.420654	860.200000
781.457092	876.000000
781.493591	867.800000
781.530090	859.700000
781.566528	866.100000
781.602966	874.900000
781.639465	869.900000
781.675903	862.300000
781.712402	877.000000
781.748901	879.900000
781.785278	867.700000
781.821777	875.700000
781.858276	873.800000
781.894714	892.200000
781.931152	879.100000
781.967651	887.100000
782.004089	879.100000
782.040527	884.300000
782.076965	883.300000
782.113403	885.800000
782.149902	890.000000
782.186340	884.900000
782.222778	904.000000
782.259277	885.200000
782.295654	883.700000
782.332092	894.700000
782.368591	881.300000
782.404968	876.500000
782.441467	888.200000
782.477905	889.400000
782.514282	879.000000
782.550781	902.700000
782.587219	897.000000
782.623596	905.000000
782.660095	904.200000
782.696472	907.900000
782.732910	909.500000
782.769348	912.000000
782.805786	930.000000
782.842224	927.400000
782.878662	916.500000
782.915039	921.200000
782.951477	913.600000
782.987915	914.800000
783.024292	925.800000
783.060730	923.000000
783.097168	908.000000
783.133545	902.700000
783.169983	900.600000
783.206421	897.000000
783.242798	898.900000
783.279236	884.300000
783.315613	880.500000
783.352051	876.700000
783.388489	865.400000
783.424866	861.400000
783.461304	867.800000
783.497681	866.600000
783.534058	861.900000
783.570496	863.700000
783.606934	854.100000
783.643250	863.800000
783.679687	871.400000
783.716125	868.100000
783.752441	878.500000
783.788879	897.500000
783.825317	898.800000
783.861633	903.100000
783.898071	904.700000
783.934448	914.700000
783.970825	921.500000
784.007263	901.400000
784.043579	857.800000
784.080017	774.100000
784.116394	650.900000
784.152710	548.800000
784.189148	494.200000
784.225525	493.000000
784.261902	541.600000
784.298279	631.100000
784.334656	739.800000
784.371033	824.600000
784.407410	888.300000
784.443787	902.700000
784.480164	901.300000
784.516541	891.000000
784.552856	904.200000
784.589233	896.400000
784.625610	891.600000
784.661987	924.800000
784.698364	914.500000
784.734741	901.700000
784.771057	904.000000
784.807434	907.200000
784.843811	922.200000
784.880127	921.000000
784.916504	950.700000
784.952881	956.200000
784.989197	952.900000
785.025574	951.100000
785.061951	960.000000
785.098267	986.700000
785.134644	981.900000
785.170959	980.600000
785.207275	991.800000
785.243652	987.500000
785.279968	974.600000
785.316345	979.900000
785.352722	985.100000
785.388977	988.200000
785.425354	969.100000
785.461731	948.500000
785.498047	939.500000
785.534363	939.000000
785.570679	938.000000
785.606995	935.300000
785.643372	940.400000
785.679687	933.200000
785.716003	919.700000
785.752380	918.700000
785.788635	928.700000
785.825012	949.300000
785.861328	954.000000
785.897644	938.300000
785.933960	952.200000
785.970337	961.800000
786.006592	979.700000
786.042908	988.600000
786.079285	1001.900000
786.115540	1011.900000
786.151855	1009.300000
786.188171	1004.300000
786.224487	1005.900000
786.260803	1007.100000
786.297119	1021.500000
786.333435	1020.800000
786.369751	1015.400000
786.406006	1015.600000
786.442322	998.000000
786.478638	988.900000
786.514954	1008.500000
786.551270	1000.400000
786.587585	1012.700000
786.623840	999.200000
786.660156	995.400000
786.696472	983.200000
786.732727	980.200000
786.769043	986.400000
786.805298	977.000000
786.841614	980.000000
786.877930	984.800000
786.914124	968.700000
786.950439	985.700000
786.986755	993.100000
787.023010	1006.600000
787.059326	1014.600000
787.095642	1015.300000
787.131836	1029.700000
787.168152	1012.400000
787.204468	1024.900000
787.240723	1042.000000
787.276978	1054.300000
787.313293	1057.900000
787.349548	1054.200000
787.385803	1056.400000
787.422058	1047.800000
787.458313	1052.800000
787.494629	1055.300000
787.530823	1051.200000
787.567139	1039.700000
787.603455	1027.300000
787.639648	1009.000000
787.675903	1014.600000
787.712219	1023.500000
787.748413	1016.000000
787.784729	1026.600000
787.820984	1008.200000
787.857178	1004.600000
787.893494	997.500000
787.929749	993.400000
787.965942	1002.400000
788.002258	1014.200000
788.038452	1024.300000
788.074707	1005.500000
788.110962	1010.200000
788.147217	1005.100000
788.183472	1015.800000
788.219727	1026.700000
788.255920	1042.200000
788.292175	1047.800000
788.328430	1044.500000
788.364624	1029.200000
788.400879	1022.500000
788.437134	1023.900000
788.473328	1032.200000
788.509583	1028.500000
788.545837	1025.700000
788.582031	1016.100000
788.618286	1004.900000
788.654480	998.700000
788.690735	1009.800000
788.726990	1027.100000
788.763184	1024.400000
788.799377	1037.000000
788.835632	1025.200000
788.871826	1047.500000
788.908081	1044.700000
788.944336	1035.800000
788.980469	1057.900000
789.016724	1045.200000
789.052979	1039.800000
789.089111	1018.600000
789.125366	1027.300000
789.161621	1015.500000
789.197754	1030.600000
789.234009	1019.500000
789.270142	1004.400000
789.306396	996.800000
789.342590	989.800000
789.378784	965.100000
789.414978	967.800000
789.451233	986.500000
789.487366	981.500000
789.523621	992.000000
789.559814	984.700000
789.595947	974.600000
789.632202	983.200000
789.668335	990.600000
789.704529	1012.500000
789.740784	1025.100000
789.776917	1025.100000
789.813110	1010.100000
789.849304	1028.800000
789.885498	1027.400000
789.921692	1039.200000
789.957886	1048.100000
789.994019	1045.700000
790.030212	1041.200000
790.066406	1041.900000
790.102539	1038.600000
790.138733	1039.700000
790.174927	1044.700000
790.211060	1051.900000
790.247253	1040.500000
790.283386	1028.600000
790.319580	1015.300000
790.355774	997.000000
790.391907	1006.100000
790.428101	1026.200000
790.464294	1031.600000
790.500427	1032.100000
790.536621	1013.900000
790.572754	997.300000
790.608887	997.400000
790.645081	1008.200000
790.681274	1018.200000
790.717346	1014.000000
790.753540	979.100000
790.789734	906.100000
790.825867	842.500000
790.862000	821.000000
790.898132	841.100000
790.934265	877.600000
790.970459	920.700000
791.006592	930.900000
791.042725	932.900000
791.078918	933.300000
791.114990	929.500000
791.151184	942.300000
791.187317	961.600000
791.223389	951.800000
791.259583	938.300000
791.295715	944.800000
791.331848	947.000000
791.367981	959.600000
791.404114	963.100000
791.440247	960.600000
791.476379	962.100000
791.512451	940.200000
791.548584	943.600000
791.584778	938.300000
791.620850	957.700000
791.656982	956.100000
791.693115	956.100000
791.729187	951.000000
791.765381	945.400000
791.801514	945.300000
791.837585	946.500000
791.873718	955.000000
791.909851	962.200000
791.945923	974.500000
791.982056	939.600000
792.018188	942.600000
792.054260	946.400000
792.090393	946.100000
792.126465	939.900000
792.162598	951.400000
792.198669	934.500000
792.234741	934.000000
792.270874	919.100000
792.307007	911.400000
792.343079	921.800000
792.379150	935.400000
792.415283	922.600000
792.451355	923.400000
792.487488	901.300000
792.523560	903.000000
792.559631	905.300000
792.595764	902.300000
792.631836	902.500000
792.667908	913.200000
792.703979	894.600000
792.740051	896.500000
792.776184	901.500000
792.812256	903.200000
792.848328	907.900000
792.884399	915.100000
792.920471	908.500000
792.956543	901.600000
792.992615	905.200000
793.028748	903.500000
793.064758	906.800000
793.100830	922.800000
793.136963	931.100000
793.172974	922.700000
793.209045	916.200000
793.245178	926.800000
793.281189	914.700000
793.317261	925.000000
793.353271	925.600000
793.389404	927.600000
793.425476	920.500000
793.461487	909.200000
793.497559	905.600000
793.533630	910.300000
793.569641	914.700000
793.605713	912.600000
793.641785	915.600000
793.677795	922.500000
793.713867	912.400000
793.749878	915.800000
793.785950	928.500000
793.822021	930.200000
793.858032	915.100000
793.894104	928.000000
793.930176	916.600000
793.966187	917.200000
794.002258	911.300000
794.038269	914.100000
794.074280	909.800000
794.110352	937.300000
794.146423	908.500000
794.182373	898.400000
794.218445	892.900000
794.254517	886.200000
794.290466	880.100000
794.326538	889.500000
794.362549	888.000000
794.398560	894.600000
794.434631	897.300000
794.470581	872.800000
794.506653	869.000000
794.542664	873.000000
794.578674	868.700000
794.614685	868.000000
794.650757	864.500000
794.686707	860.600000
794.722778	847.400000
794.758789	856.700000
794.794739	862.900000
794.830811	880.100000
794.866821	898.200000
794.902771	891.100000
794.938843	877.500000
794.974792	878.800000
795.010803	879.300000
795.046814	876.800000
795.082825	862.400000
795.118835	879.700000
795.154846	863.000000
795.190796	870.200000
795.226807	846.800000
795.262817	860.500000
795.298767	857.800000
795.334778	860.800000
795.370850	847.000000
795.406799	846.200000
795.442810	833.800000
795.478821	836.300000
795.514709	834.400000
795.550720	852.800000
795.586670	834.200000
795.622681	841.100000
795.658691	834.100000
795.694641	832.200000
795.730652	820.900000
795.766663	828.900000
795.802551	831.100000
795.838562	842.700000
795.874573	828.900000
795.910522	832.000000
795.946472	825.500000
795.982483	822.900000
796.018433	824.300000
796.054382	836.200000
796.090393	827.700000
796.126282	816.200000
796.162292	811.500000
796.198242	806.500000
796.234192	810.800000
796.270203	809.500000
796.306091	812.300000
796.342041	825.500000
796.378052	808.700000
796.413940	806.800000
796.449951	813.500000
796.485901	810.800000
796.521790	810.200000
796.557800	824.100000
796.593689	820.600000
796.629639	804.400000
796.665649	801.700000
796.701599	799.700000
796.737488	799.100000
796.773437	803.900000
796.809387	800.600000
796.845337	801.300000
796.881287	791.100000
796.917175	777.500000
796.953125	779.500000
796.989075	790.100000
797.024963	800.100000
797.060913	791.700000
797.096863	792.000000
797.132751	788.800000
797.168701	766.600000
797.204590	781.300000
797.240540	781.600000
797.276489	786.000000
797.312439	789.700000
797.348328	781.600000
797.384277	774.100000
797.420166	768.800000
797.456055	772.900000
797.492004	768.200000
797.527893	775.300000
797.563843	775.000000
797.599731	763.900000
797.635620	757.500000
797.671570	764.200000
797.707520	762.300000
797.743347	760.300000
797.779297	772.400000
797.815125	764.300000
797.851074	758.500000
797.887024	753.100000
797.922913	747.700000
797.958801	760.800000
797.994690	754.200000
798.030579	758.500000
798.066467	758.900000
798.102356	748.000000
798.138245	740.300000
798.174133	737.700000
798.210083	750.400000
798.245911	758.700000
798.281799	754.100000
798.317749	740.200000
798.353577	738.800000
798.389465	737.200000
798.425293	737.500000
798.461243	729.600000
798.497131	737.600000
798.532959	735.400000
798.568848	743.000000
798.604736	733.400000
798.640564	722.700000
798.676453	726.900000
798.712402	732.300000
798.748230	740.000000
798.784119	732.100000
798.820007	728.700000
798.855835	728.800000
798.891724	723.000000
798.927551	718.100000
798.963379	725.700000
798.999268	723.600000
799.035095	720.500000
799.070984	717.200000
799.106873	704.500000
799.142700	716.100000
799.178528	708.200000
799.214417	707.600000
799.250244	719.700000
799.286133	712.500000
799.321960	708.900000
799.357788	704.500000
799.393677	703.700000
799.429504	703.800000
799.465332	702.900000
799.501221	713.100000
799.537048	709.400000
799.572876	703.600000
799.608704	702.500000
799.644531	708.100000
799.680359	708.100000
799.716248	712.200000
799.752014	719.700000
799.787903	706.300000
799.823730	705.200000
799.859558	697.100000
799.895386	702.600000
799.931213	702.600000
799.967041	694.900000
800.002869	689.300000
800.038696	702.700000
800.074463	682.300000
800.110352	686.700000
800.146179	677.400000
800.181946	685.800000
800.217773	688.200000
800.253540	684.900000
800.289429	680.500000
800.325256	675.400000
800.361023	667.900000
800.396851	676.100000
800.432678	672.100000
800.468445	675.800000
800.504272	671.700000
800.540100	655.400000
800.575867	655.100000
800.611694	660.200000
800.647461	652.400000
800.683289	658.800000
800.719116	663.200000
800.754883	656.100000
800.790649	638.900000
800.826477	631.800000
800.862244	653.500000
800.898071	637.100000
800.933838	634.000000
800.969604	630.300000
801.005432	631.600000
801.041199	638.300000
801.076965	628.700000
801.112793	620.800000
801.148560	613.300000
801.184326	612.400000
801.220154	616.900000
801.255859	609.700000
801.291687	610.800000
801.327454	602.400000
801.363281	606.100000
801.398987	602.800000
801.434814	606.200000
801.470520	616.400000
801.506287	600.400000
801.542114	597.300000
801.577820	596.200000
801.613647	597.900000
801.649414	591.000000
801.685120	591.800000
801.720886	600.800000
801.756714	587.400000
801.792419	582.900000
801.828186	577.800000
801.863892	588.900000
801.899719	577.500000
801.935486	575.200000
801.971252	583.600000
802.006958	578.100000
802.042725	571.100000
802.078430	570.900000
802.114197	564.800000
802.149963	585.500000
802.185669	568.100000
802.221436	568.200000
802.257202	570.500000
802.292908	567.800000
802.328674	571.900000
802.364441	570.300000
802.400146	565.000000
802.435913	564.200000
802.471558	561.200000
802.507324	556.900000
802.543091	547.200000
802.578796	562.000000
802.614502	559.900000
802.650269	562.500000
802.685974	544.600000
802.721741	552.100000
802.757446	554.700000
802.793152	552.000000
802.828918	563.000000
802.864624	553.300000
802.900330	550.800000
802.936035	550.100000
802.971802	545.700000
803.007446	546.500000
803.043213	537.000000
803.078857	546.000000
803.114624	533.400000
803.150330	539.200000
803.185974	528.900000
803.221741	530.800000
803.257446	537.400000
803.293152	536.900000
803.328857	525.600000
803.364563	522.100000
803.400208	521.100000
803.435974	530.600000
803.471680	521.700000
803.507324	517.700000
803.543030	522.500000
803.578735	522.500000
803.614441	512.900000
803.650146	519.700000
803.685791	507.800000
803.721497	513.500000
803.757202	502.000000
803.792847	511.400000
803.828552	506.600000
803.864258	505.200000
803.899902	506.500000
803.935608	490.600000
803.971313	496.700000
804.006958	498.200000
804.042664	494.900000
804.078308	501.200000
804.113953	492.300000
804.149658	500.200000
804.185364	490.600000
804.221008	499.500000
804.256714	491.100000
804.292297	489.600000
804.328003	488.900000
804.363708	479.900000
804.399292	481.500000
804.434998	482.100000
804.470703	473.600000
804.506287	485.000000
804.541992	479.000000
804.577637	484.700000
804.613281	473.600000
804.648926	470.900000
804.684570	476.600000
804.720215	471.600000
804.755920	473.900000
804.791565	470.500000
804.827209	475.100000
804.862854	469.100000
804.898437	461.600000
804.934143	464.900000
804.969788	464.500000
805.005371	468.400000
805.041077	467.000000
805.076721	465.800000
805.112305	453.800000
805.147949	458.200000
805.183655	451.100000
805.219238	459.900000
805.254883	456.500000
805.290466	460.000000
805.326111	456.500000
805.361755	445.700000
805.397400	449.000000
805.432983	455.800000
805.468628	452.500000
805.504211	460.500000
805.539856	453.600000
805.575500	458.200000
805.611084	448.700000
805.646729	438.900000
805.682373	443.700000
805.717957	454.000000
805.753601	453.300000
805.789246	435.200000
805.824768	447.300000
805.860413	450.700000
805.895996	437.300000
805.931641	437.800000
805.967224	442.500000
806.002869	440.000000
806.038452	449.600000
806.074036	444.400000
806.109619	429.500000
806.145264	429.800000
806.180847	431.200000
806.216431	430.200000
806.252014	433.900000
806.287659	433.100000
806.323181	442.100000
806.358826	435.200000
806.394409	419.400000
806.429993	421.300000
806.465576	437.700000
806.501160	421.200000
806.536743	412.800000
806.572327	422.900000
806.607910	419.900000
806.643494	420.700000
806.679077	419.000000
806.714661	418.800000
806.750244	419.000000
806.785828	409.600000
806.821350	411.000000
806.856934	417.300000
806.892517	413.700000
806.928101	407.700000
806.963684	409.300000
806.999268	416.700000
807.034790	399.600000
807.070374	404.500000
807.105896	400.900000
807.141479	400.300000
807.177063	406.000000
807.212585	396.100000
807.248169	396.500000
807.283752	402.400000
807.319275	397.000000
807.354858	398.400000
807.390381	394.100000
807.425903	394.600000
807.461487	392.300000
807.497070	387.100000
807.532593	387.100000
807.568115	385.000000
807.603699	384.200000
807.639221	378.300000
807.674744	385.100000
807.710266	385.600000
807.745850	392.300000
807.781372	383.100000
807.816895	380.500000
807.852417	383.700000
807.888000	383.300000
807.923523	376.500000
807.959045	380.300000
807.994629	369.300000
808.030090	369.300000
808.065613	378.200000
808.101135	378.300000
808.136658	374.800000
808.172241	373.500000
808.207764	372.100000
808.243225	363.900000
808.278809	362.700000
808.314270	370.400000
808.349792	357.700000
808.385315	360.200000
808.420837	364.600000
808.456360	368.800000
808.491882	365.400000
808.527344	360.800000
808.562866	371.500000
808.598389	362.800000
808.633850	357.600000
808.669434	355.600000
808.704895	366.000000
808.740417	367.200000
808.775940	360.900000
808.811462	353.500000
808.846924	347.400000
808.882385	344.200000
808.917847	344.100000
808.953369	346.800000
808.988892	344.300000
809.024353	351.100000
809.059875	350.300000
809.095398	345.200000
809.130798	339.900000
809.166321	338.400000
809.201843	341.700000
809.237305	340.400000
809.272766	349.500000
809.308228	334.100000
809.343750	337.000000
809.379211	337.100000
809.414734	337.400000
809.450134	346.000000
809.485657	330.500000
809.521118	335.900000
809.556580	334.700000
809.592102	332.500000
809.627502	329.900000
809.663025	326.900000
809.698486	325.500000
809.733887	322.300000
809.769409	325.600000
809.804871	313.900000
809.840271	317.000000
809.875793	322.500000
809.911194	326.400000
809.946655	317.500000
809.982178	316.100000
810.017639	320.400000
810.053040	317.700000
810.088501	316.500000
810.123901	313.000000
810.159424	309.400000
810.194885	307.100000
810.230286	313.600000
810.265747	306.400000
810.301208	306.300000
810.336609	308.400000
810.372070	302.700000
810.407532	305.200000
810.442932	307.800000
810.478394	309.900000
810.513794	307.600000
810.549255	303.000000
810.584717	301.100000
810.620117	295.300000
810.655518	306.700000
810.690979	302.700000
810.726379	302.800000
810.761841	290.800000
810.797302	294.900000
810.832642	291.900000
810.868103	306.300000
810.903564	293.100000
810.938904	301.600000
810.974365	286.900000
811.009827	294.500000
811.045166	289.400000
811.080627	283.500000
811.115967	289.900000
811.151428	298.700000
811.186829	287.700000
811.222229	289.200000
811.257629	283.500000
811.293091	288.800000
811.328430	296.200000
811.363892	292.200000
811.399292	294.600000
811.434631	285.000000
811.470093	292.000000
811.505493	284.800000
811.540833	284.600000
811.576294	290.100000
811.611694	285.100000
811.647034	280.700000
811.682434	283.500000
811.717773	283.800000
811.753235	290.700000
811.788635	281.400000
811.823975	286.000000
811.859375	290.400000
811.894775	278.100000
811.930115	279.300000
811.965515	281.100000
812.000916	281.500000
812.036255	277.500000
812.071655	282.000000
812.106995	276.100000
812.142395	277.900000
812.177795	282.600000
812.213196	280.200000
812.248474	281.300000
812.283875	270.100000
812.319214	276.000000
812.354614	276.900000
812.390015	274.000000
812.425293	274.200000
812.460693	274.900000
812.496094	270.300000
812.531433	267.500000
812.566772	267.600000
812.602173	272.100000
812.637451	272.100000
812.672852	267.500000
812.708191	270.700000
812.743530	268.400000
812.778931	260.400000
812.814270	266.100000
812.849609	272.600000
812.884949	265.400000
812.920227	259.100000
812.955627	275.000000
812.990967	265.600000
813.026306	261.900000
813.061646	254.500000
813.096985	249.600000
813.132324	250.200000
813.167664	254.500000
813.203003	260.000000
813.238281	247.500000
813.273682	248.000000
813.308960	244.400000
813.344299	248.800000
813.379639	257.700000
813.414978	249.900000
813.450256	250.300000
813.485596	254.000000
813.520874	245.700000
813.556213	251.000000
813.591614	254.300000
813.626831	247.200000
813.662170	252.100000
813.697510	261.400000
813.732788	241.400000
813.768127	251.600000
813.803467	249.000000
813.838745	243.900000
813.874084	249.400000
813.909363	249.300000
813.944641	247.800000
813.979980	238.300000
814.015320	246.200000
814.050598	242.700000
814.085876	244.200000
814.121155	244.900000
814.156494	240.400000
814.191772	244.400000
814.227051	238.500000
814.262390	240.500000
814.297668	240.700000
814.332947	244.800000
814.368225	235.900000
814.403564	241.100000
814.438782	235.200000
814.474121	240.200000
814.509338	238.400000
814.544617	245.300000
814.579956	233.800000
814.615173	246.300000
814.650513	242.800000
814.685791	234.300000
814.721008	236.400000
814.756348	237.200000
814.791626	232.800000
814.826843	234.400000
814.862122	235.300000
814.897400	232.600000
814.932678	235.600000
814.967957	234.900000
815.003235	232.300000
815.038452	227.700000
815.073730	226.200000
815.108948	236.500000
815.144226	233.400000
815.179504	238.100000
815.214722	222.500000
815.250000	223.400000
815.285278	231.100000
815.320496	223.700000
815.355774	227.900000
815.391052	230.700000
815.426270	226.800000
815.461487	224.500000
815.496765	221.000000
815.531982	216.700000
815.567261	223.700000
815.602539	232.200000
815.637695	226.200000
815.672974	227.400000
815.708191	229.900000
815.743408	229.700000
815.778687	223.700000
815.813904	231.900000
815.849121	216.700000
815.884399	217.900000
815.919556	219.900000
815.954834	218.800000
815.990051	224.100000
816.025269	227.300000
816.060486	217.800000
816.095703	217.400000
816.130920	221.600000
816.166199	217.100000
816.201416	222.100000
816.236572	227.200000
816.271851	218.200000
816.307007	224.600000
816.342224	212.500000
816.377441	217.800000
816.412659	210.200000
816.447876	221.600000
816.483093	217.100000
816.518250	220.100000
816.553467	216.100000
816.588745	220.400000
816.623901	212.700000
816.659119	206.600000
816.694275	212.800000
816.729492	210.500000
816.764709	247.200000
816.799927	208.600000
816.835083	213.200000
816.870300	210.000000
816.905457	213.500000
816.940674	216.700000
816.975830	209.000000
817.010986	209.000000
817.046204	209.400000
817.081421	206.900000
817.116577	205.900000
817.151733	216.300000
817.186951	215.000000
817.222107	211.800000
817.257324	213.200000
817.292419	212.400000
817.327637	203.400000
817.362854	209.000000
817.398010	203.200000
817.433167	207.300000
817.468323	205.700000
817.503479	207.800000
817.538635	215.600000
817.573853	211.400000
817.608948	208.100000
817.644165	204.700000
817.679321	202.800000
817.714478	202.900000
817.749634	207.800000
817.784790	219.300000
817.819946	213.500000
817.855103	197.600000
817.890198	206.300000
817.925415	198.300000
817.960571	207.500000
817.995667	205.800000
818.030823	209.300000
818.066040	202.200000
818.101135	205.300000
818.136292	203.500000
818.171448	198.900000
818.206543	203.300000
818.241699	208.300000
818.276855	204.200000
818.311951	203.000000
818.347107	198.900000
818.382263	205.600000
818.417358	211.700000
818.452515	211.400000
818.487610	211.400000
818.522766	201.600000
818.557922	211.200000
818.593018	207.000000
818.628113	205.200000
818.663269	199.900000
818.698364	204.900000
818.733521	201.200000
818.768677	203.800000
818.803711	197.300000
818.838867	201.000000
818.874023	202.600000
818.909058	198.800000
818.944214	197.300000
818.979370	205.100000
819.014404	202.200000
819.049561	196.300000
819.084595	203.100000
819.119751	194.300000
819.154846	204.500000
819.189941	200.100000
819.225037	195.000000
819.260193	189.600000
819.295227	194.700000
819.330322	190.000000
819.365479	190.000000
819.400513	222.500000
819.435608	188.200000
819.470764	185.700000
819.505798	190.000000
819.540894	194.100000
819.575989	193.800000
819.611084	201.700000
819.646179	202.000000
819.681213	198.800000
819.716309	194.900000
819.751404	193.300000
819.786438	200.100000
819.821533	190.900000
819.856628	197.100000
819.891663	200.100000
819.926758	206.000000
819.961853	202.000000
819.996887	192.100000
820.031982	199.900000
820.067017	193.800000
820.102112	223.900000
820.137207	194.000000
820.172302	211.000000
820.207275	191.800000
820.242371	192.600000
820.277405	191.600000
820.312500	195.700000
820.347534	198.200000
820.382568	201.800000
820.417664	192.600000
820.452759	193.400000
820.487732	191.000000
820.522827	191.900000
820.557861	190.500000
820.592896	192.800000
820.627930	192.800000
820.662964	191.800000
820.698059	196.000000
820.733093	192.300000
820.768127	197.100000
820.803162	193.900000
820.838196	189.500000
820.873230	195.600000
820.908264	193.400000
820.943298	191.600000
820.978333	198.600000
821.013367	195.300000
821.048401	198.100000
821.083435	200.500000
821.118469	184.700000
821.153503	198.800000
821.188477	195.200000
821.223511	187.700000
821.258484	192.500000
821.293579	194.400000
821.328613	186.300000
821.363647	191.700000
821.398621	187.800000
821.433655	189.500000
821.468628	206.300000
821.503662	192.100000
821.538696	197.300000
821.573669	187.200000
821.608704	196.000000
821.643677	189.600000
821.678650	196.900000
821.713684	201.800000
821.748718	191.100000
821.783691	192.200000
821.818726	194.800000
821.853638	194.900000
821.888672	193.000000
821.923706	192.300000
821.958618	189.100000
821.993652	190.600000
822.028687	197.900000
822.063599	199.100000
822.098633	194.600000
822.133667	187.400000
822.168579	192.000000
822.203613	192.900000
822.238586	190.100000
822.273560	194.800000
822.308533	189.600000
822.343567	189.900000
822.378479	191.800000
822.413452	190.900000
822.448425	188.500000
822.483398	196.800000
822.518372	197.800000
822.553345	189.300000
822.588318	200.900000
822.623291	190.400000
822.658203	189.100000
822.693237	192.300000
822.728210	188.400000
822.763123	194.200000
822.798096	188.800000
822.833069	193.100000
822.867981	192.900000
822.902954	194.000000
822.937927	195.800000
822.972900	204.500000
823.007874	185.000000
823.042725	195.700000
823.077698	205.400000
823.112671	187.800000
823.147583	191.700000
823.182556	194.600000
823.217529	196.700000
823.252441	189.700000
823.287415	205.800000
823.322388	195.100000
823.357239	192.200000
823.392212	200.700000
823.427185	195.200000
823.462097	189.100000
823.497009	195.900000
823.531982	190.900000
823.566895	192.000000
823.601807	188.800000
823.636719	190.800000
823.671631	197.500000
823.706604	189.900000
823.741455	195.300000
823.776428	186.500000
823.811340	197.800000
823.846252	198.100000
823.881165	201.500000
823.916138	194.200000
823.950989	202.000000
823.985901	188.400000
824.020813	194.700000
824.055725	191.400000
824.090637	187.100000
824.125610	194.900000
824.160461	194.100000
824.195374	194.700000
824.230225	198.400000
824.265198	185.000000
824.300110	190.600000
824.334961	203.900000
824.369873	184.000000
824.404785	194.600000
824.439636	201.700000
824.474548	184.100000
824.509460	183.000000
824.544312	197.600000
824.579224	195.700000
824.614075	195.800000
824.648987	191.300000
824.683899	192.100000
824.718811	188.600000
824.753662	199.500000
824.788574	197.700000
824.823364	194.300000
824.858276	189.300000
824.893188	198.700000
824.928040	198.100000
824.962952	196.200000
824.997803	196.600000
825.032654	194.500000
825.067566	197.400000
825.102417	191.900000
825.137268	191.500000
825.172119	194.200000
825.206970	188.800000
825.241882	191.300000
825.276733	188.300000
825.311646	190.500000
825.346436	187.000000
825.381348	188.600000
825.416138	193.200000
825.450989	188.900000
825.485901	184.000000
825.520691	185.600000
825.555542	186.000000
825.590454	192.600000
825.625244	184.100000
825.660095	198.800000
825.695007	196.600000
825.729797	192.200000
825.764648	188.200000
825.799438	192.400000
825.834290	192.600000
825.869202	186.100000
825.903992	192.900000
825.938843	189.200000
825.973694	186.700000
826.008484	203.900000
826.043335	187.700000
826.078186	183.700000
826.112976	199.700000
826.147827	197.800000
826.182678	202.100000
826.217468	186.000000
826.252319	197.000000
826.287109	187.900000
826.321899	198.900000
826.356750	191.200000
826.391541	188.000000
826.426392	198.300000
826.461182	192.300000
826.495972	185.900000
826.530823	183.700000
826.565613	192.300000
826.600403	187.200000
826.635254	197.700000
826.670044	185.300000
826.704834	184.700000
826.739685	187.900000
826.774475	193.000000
826.809265	192.000000
826.844055	189.100000
826.878906	199.000000
826.913635	192.600000
826.948425	193.900000
826.983215	193.200000
827.018005	197.700000
827.052856	188.900000
827.087585	195.200000
827.122375	182.800000
827.157227	190.200000
827.191956	202.100000
827.226746	187.600000
827.261536	195.000000
827.296265	184.700000
827.331116	188.100000
827.365906	195.000000
827.400635	187.000000
827.435425	183.700000
827.470215	196.500000
827.504944	190.600000
827.539734	195.100000
827.574463	191.900000
827.609253	198.100000
827.644043	192.200000
827.678772	198.900000
827.713562	189.800000
827.748352	189.600000
827.783081	188.500000
827.817871	193.300000
827.852600	189.000000
827.887329	194.000000
827.922119	182.700000
827.956848	194.100000
827.991638	205.000000
828.026367	193.500000
828.061157	191.500000
828.095886	193.000000
828.130615	206.000000
828.165344	182.100000
828.200073	193.000000
828.234863	189.300000
828.269592	192.400000
828.304321	197.900000
828.339111	194.300000
828.373779	186.900000
828.408569	196.800000
828.443298	196.700000
828.477966	189.800000
828.512756	192.500000
828.547424	188.000000
828.582214	190.000000
828.616943	190.200000
828.651672	190.500000
828.686340	195.500000
828.721130	188.700000
828.755798	189.500000
828.790527	192.600000
828.825256	191.500000
828.859924	193.300000
828.894714	198.300000
828.929443	200.600000
828.964111	187.700000
828.998840	195.500000
829.033569	189.100000
829.068237	189.600000
829.102966	188.800000
829.137634	192.800000
829.172363	191.600000
829.207092	192.100000
829.241821	187.700000
829.276489	184.900000
829.311157	193.300000
829.345825	189.700000
829.380554	195.500000
829.415283	187.500000
829.449951	184.000000
829.484619	199.900000
829.519348	200.100000
829.554016	191.600000
829.588745	190.400000
829.623413	184.700000
829.658081	203.400000
829.692749	185.100000
829.727417	196.500000
829.762146	193.800000
829.796814	188.000000
829.831482	189.100000
829.866150	193.600000
829.900879	188.300000
829.935486	194.700000
829.970154	189.900000
830.004883	203.400000
830.039490	193.900000
830.074219	189.300000
830.108887	193.200000
830.143494	190.400000
830.178223	185.300000
830.212891	191.500000
830.247498	191.700000
830.282166	201.100000
830.316772	197.800000
830.351501	189.600000
830.386169	189.300000
830.420776	191.000000
830.455444	191.200000
830.490112	187.700000
830.524719	183.800000
830.559387	193.200000
830.594055	193.300000
830.628662	192.900000
830.663330	189.600000
830.697998	200.600000
830.732605	189.600000
830.767273	194.500000
830.801941	191.800000
830.836487	201.400000
830.871155	194.100000
830.905762	193.600000
830.940430	184.900000
830.975098	189.500000
831.009644	191.800000
831.044312	200.100000
831.078979	194.200000
831.113525	183.800000
831.148193	193.000000
831.182861	189.900000
831.217407	195.200000
831.252075	209.100000
831.286621	189.800000
831.321289	188.000000
831.355896	191.400000
831.390564	198.900000
831.425110	193.000000
831.459778	199.300000
831.494324	204.900000
831.528931	194.100000
831.563599	196.700000
831.598145	185.800000
831.632751	192.800000
831.667419	189.600000
831.701965	194.900000
831.736572	195.500000
831.771179	185.600000
831.805786	189.200000
831.840393	198.000000
831.874939	183.300000
831.909546	196.700000
831.944153	182.200000
831.978760	190.200000
832.013306	186.200000
832.047913	199.800000
832.082458	200.100000
832.117065	190.100000
832.151672	200.500000
832.186218	191.900000
832.220825	193.700000
832.255432	184.400000
832.289978	187.000000
832.324585	194.700000
832.359192	193.900000
832.393677	191.800000
832.428284	193.800000
832.462830	191.900000
832.497437	188.800000
832.531982	195.900000
832.566589	190.100000
832.601135	192.600000
832.635681	182.900000
832.670227	191.800000
832.704773	199.400000
832.739380	193.500000
832.773926	193.000000
832.808472	187.400000
832.843079	191.200000
832.877563	195.700000
832.912170	189.900000
832.946716	184.400000
832.981201	197.400000
833.015808	194.900000
833.050293	191.300000
833.084839	188.500000
833.119446	190.700000
833.153992	196.100000
833.188477	192.800000
833.223022	188.500000
833.257568	194.300000
833.292114	197.800000
833.326660	204.100000
833.361145	189.500000
833.395691	185.400000
833.430237	191.300000
833.464783	195.700000
833.499329	187.400000
833.533875	186.700000
833.568359	195.500000
833.602905	199.200000
833.637390	197.600000
833.671875	188.900000
833.706421	188.900000
833.740906	188.700000
833.775452	179.300000
833.809998	189.100000
833.844482	199.000000
833.879028	191.300000
833.913513	189.000000
833.947998	193.500000
833.982544	187.400000
834.017090	189.400000
834.051514	180.000000
834.086060	195.600000
834.120544	190.500000
834.155029	193.700000
834.189575	189.600000
834.223999	193.900000
834.258545	192.300000
834.293030	192.600000
834.327515	192.500000
834.362000	188.500000
834.396545	194.900000
834.430969	190.700000
834.465454	195.200000
834.500000	183.900000
834.534424	194.500000
834.568970	181.500000
834.603455	184.300000
834.637878	187.100000
834.672363	193.200000
834.706909	191.500000
834.741333	193.700000
834.775818	183.600000
834.810242	187.100000
834.844727	192.000000
834.879211	190.100000
834.913635	192.700000
834.948181	194.100000
834.982666	191.900000
835.017090	191.300000
835.051575	194.600000
835.086060	189.200000
835.120483	195.600000
835.154907	195.900000
835.189331	191.200000
835.223816	194.600000
835.258301	185.000000
835.292786	186.100000
835.327209	196.900000
835.361694	188.800000
835.396057	188.000000
835.430542	194.900000
835.465027	192.000000
835.499390	186.500000
835.533875	209.800000
835.568359	190.000000
835.602722	182.100000
835.637207	194.100000
835.671692	185.400000
835.706055	207.900000
835.740540	192.900000
835.774902	195.000000
835.809387	191.800000
835.843811	185.000000
835.878235	199.500000
835.912659	185.500000
835.947083	188.200000
835.981506	191.200000
836.015930	183.100000
836.050354	197.500000
836.084778	201.700000
836.119202	196.100000
836.153625	204.300000
836.187988	187.700000
836.222473	188.200000
836.256897	193.000000
836.291260	191.400000
836.325684	194.600000
836.360046	189.900000
836.394470	192.000000
836.428894	198.800000
836.463318	188.200000
836.497681	197.000000
836.532104	198.300000
836.566467	193.800000
836.600891	189.800000
836.635315	197.100000
836.669678	195.400000
836.704102	196.400000
836.738525	191.800000
836.772888	183.900000
836.807251	187.600000
836.841675	194.200000
836.876038	187.400000
836.910461	188.300000
836.944763	194.900000
836.979187	187.700000
837.013611	197.300000
837.047974	186.000000
837.082336	203.900000
837.116699	195.100000
837.151062	190.500000
837.185486	185.800000
837.219849	188.900000
837.254211	195.600000
837.288574	189.700000
837.322937	186.900000
837.357300	178.500000
837.391663	205.300000
837.426086	196.300000
837.460388	192.500000
837.494751	196.800000
837.529114	189.900000
837.563477	197.500000
837.597839	194.100000
837.632141	190.400000
837.666565	188.200000
837.700928	195.200000
837.735229	196.000000
837.769592	194.100000
837.803955	198.600000
837.838257	189.200000
837.872620	187.700000
837.906982	200.300000
837.941284	193.200000
837.975647	192.100000
838.010010	199.700000
838.044312	191.000000
838.078674	189.600000
838.112976	191.600000
838.147339	195.400000
838.181702	192.100000
838.216003	202.900000
838.250366	194.100000
838.284668	193.400000
838.318970	185.700000
838.353333	192.600000
838.387634	191.700000
838.421936	192.800000
838.456299	193.100000
838.490601	200.300000
838.524902	195.300000
838.559265	196.700000
838.593567	195.000000
838.627869	186.000000
838.662170	194.800000
838.696472	185.000000
838.730774	188.400000
838.765137	196.700000
838.799377	177.500000
838.833740	191.300000
838.868042	198.000000
838.902283	182.700000
838.936646	199.200000
838.970947	193.500000
839.005188	197.000000
839.039551	184.500000
839.073792	199.100000
839.108093	189.000000
839.142395	202.800000
839.176697	185.200000
839.210937	192.500000
839.245300	202.700000
839.279541	185.500000
839.313843	189.500000
839.348145	195.000000
839.382385	197.600000
839.416687	196.100000
839.450989	194.400000
839.485229	191.700000
839.519531	187.400000
839.553833	198.500000
839.588013	193.100000
839.622314	192.800000
839.656555	195.700000
839.690857	191.600000
839.725159	187.200000
839.759460	190.700000
839.793640	190.500000
839.827942	190.200000
839.862183	186.800000
839.896423	194.000000
839.930725	200.800000
839.964966	199.100000
839.999207	199.700000
840.033508	198.900000
840.067688	188.200000
840.101990	200.500000
840.136230	191.800000
840.170471	199.000000
840.204712	188.300000
840.238953	187.100000
840.273193	193.700000
840.307434	194.800000
840.341736	187.900000
840.375916	185.400000
840.410217	189.700000
840.444397	196.000000
840.478638	195.600000
840.512878	197.600000
840.547119	193.300000
840.581360	193.900000
840.615601	201.800000
840.649780	200.700000
840.684021	192.400000
840.718262	200.700000
840.752441	198.100000
840.786682	193.800000
840.820862	194.500000
840.855103	200.100000
840.889343	194.300000
840.923584	197.900000
840.957764	195.000000
840.992004	196.200000
841.026184	207.500000
841.060425	190.700000
841.094666	188.600000
841.128845	196.800000
841.163025	194.200000
841.197266	196.500000
841.231445	193.300000
841.265686	193.200000
841.299866	188.000000
841.334045	201.600000
841.368286	192.100000
841.402405	201.800000
841.436646	195.100000
841.470825	189.700000
841.505005	190.600000
841.539185	189.900000
841.573425	189.300000
841.607544	193.400000
841.641785	192.600000
841.675964	187.300000
841.710144	193.800000
841.744324	191.100000
841.778503	192.100000
841.812683	188.600000
841.846863	199.800000
841.881042	199.700000
841.915222	190.200000
841.949402	208.200000
841.983521	182.900000
842.017700	191.800000
842.051880	192.200000
842.086060	195.600000
842.120239	193.300000
842.154419	191.100000
842.188538	192.900000
842.222717	189.900000
842.256897	202.700000
842.291016	193.000000
842.325195	195.200000
842.359375	204.600000
842.393494	199.500000
842.427673	193.000000
842.461853	194.900000
842.495911	201.900000
842.530090	195.700000
842.564209	191.400000
842.598389	194.300000
842.632568	194.400000
842.666626	197.300000
842.700806	189.500000
842.734985	190.800000
842.769043	196.600000
842.803223	191.300000
842.837402	191.900000
842.871460	191.900000
842.905640	201.600000
842.939697	190.300000
842.973877	195.500000
843.007996	200.800000
843.042175	201.500000
843.076233	189.600000
843.110413	193.800000
843.144470	202.800000
843.178589	196.700000
843.212769	190.600000
843.246826	196.700000
843.280945	191.400000
843.315125	190.100000
843.349182	187.300000
843.383301	199.800000
843.417419	205.000000
843.451538	192.500000
843.485657	193.100000
843.519714	191.300000
843.553833	195.500000
843.587952	190.100000
843.622070	187.800000
843.656128	195.700000
843.690247	192.300000
843.724304	190.100000
843.758423	194.400000
843.792542	191.200000
843.826599	194.300000
843.860718	191.600000
843.894836	186.500000
843.928894	193.000000
843.963013	197.000000
843.997070	189.700000
844.031128	187.000000
844.065247	198.000000
844.099304	198.400000
844.133362	193.900000
844.167480	197.900000
844.201599	200.300000
844.235596	195.800000
844.269714	195.000000
844.303711	195.200000
844.337830	186.000000
844.371948	195.500000
844.405945	192.900000
844.440063	190.000000
844.474121	208.800000
844.508118	193.600000
844.542236	193.100000
844.576294	193.000000
844.610352	188.600000
844.644409	192.500000
844.678406	185.300000
844.712524	197.800000
844.746582	200.900000
844.780640	193.700000
844.814636	193.300000
844.848755	202.700000
844.882751	192.700000
844.916809	197.800000
844.950867	195.800000
844.984863	202.100000
845.018921	194.700000
845.052979	189.700000
845.086975	194.400000
845.121033	185.900000
845.155090	190.100000
845.189087	200.500000
845.223145	192.600000
845.257141	192.700000
845.291199	198.300000
845.325256	200.800000
845.359253	193.800000
845.393250	202.200000
845.427307	193.300000
845.461304	194.900000
845.495361	194.600000
845.529358	204.400000
845.563354	191.500000
845.597412	189.500000
845.631409	201.800000
845.665405	199.400000
845.699463	199.200000
845.733459	191.700000
845.767456	200.200000
845.801453	192.700000
845.835449	201.700000
845.869446	197.800000
845.903503	198.300000
845.937439	190.200000
845.971497	201.400000
846.005493	188.100000
846.039429	199.700000
846.073486	203.100000
846.107483	192.200000
846.141418	194.800000
846.175476	193.600000
846.209473	201.000000
846.243408	189.100000
846.277405	195.100000
846.311401	189.100000
846.345337	195.800000
846.379395	199.800000
846.413330	189.500000
846.447327	201.600000
846.481323	189.600000
846.515259	190.900000
846.549255	193.800000
846.583252	194.400000
846.617187	188.600000
846.651184	195.700000
846.685120	190.900000
846.719055	200.300000
846.753052	197.800000
846.786987	196.900000
846.820984	188.900000
846.854980	199.300000
846.888916	188.700000
846.922852	193.900000
846.956848	203.000000
846.990723	188.400000
847.024719	195.700000
847.058716	192.000000
847.092590	201.400000
847.126587	194.500000
847.160522	192.700000
847.194458	197.000000
847.228455	189.200000
847.262390	189.300000
847.296265	192.100000
847.330261	200.000000
847.364136	192.500000
847.398132	189.200000
847.432068	195.200000
847.466003	191.900000
847.499939	192.200000
847.533875	197.300000
847.567749	191.800000
847.601746	192.000000
847.635681	197.300000
847.669556	186.800000
847.703491	199.800000
847.737427	209.200000
847.771301	188.400000
847.805237	196.200000
847.839233	193.800000
847.873108	194.000000
847.907043	193.200000
847.940918	200.200000
847.974854	195.400000
848.008789	198.700000
848.042664	192.500000
848.076538	197.300000
848.110474	193.200000
848.144348	195.300000
848.178284	186.600000
848.212219	194.800000
848.246094	192.400000
848.279968	196.600000
848.313904	196.500000
848.347778	194.400000
848.381653	191.500000
848.415588	189.700000
848.449463	190.500000
848.483337	198.300000
848.517212	197.900000
848.551086	193.800000
848.585022	189.600000
848.618835	201.900000
848.652771	190.400000
848.686646	190.600000
848.720520	201.200000
848.754395	192.700000
848.788330	199.400000
848.822144	198.100000
848.856018	191.900000
848.889954	203.100000
848.923767	188.800000
848.957642	190.200000
848.991577	199.700000
849.025391	192.600000
849.059265	192.800000
849.093079	191.800000
849.126953	187.000000
849.160828	200.000000
849.194641	195.500000
849.228577	191.200000
849.262451	193.600000
849.296265	192.000000
849.330139	189.300000
849.364014	195.100000
849.397827	197.100000
849.431702	192.800000
849.465515	198.600000
849.499329	186.000000
849.533203	190.000000
849.567078	183.300000
849.600891	196.600000
849.634766	192.900000
849.668518	199.600000
849.702393	193.300000
849.736267	187.700000
849.770020	205.600000
849.803894	198.100000
849.837769	192.900000
849.871521	194.300000
849.905396	198.700000
849.939270	189.600000
849.973022	192.100000
850.006897	198.000000
850.040710	196.300000
850.074524	198.700000
850.108337	191.600000
850.142151	198.200000
850.175964	199.700000
850.209778	195.000000
850.243530	179.300000
850.277405	200.800000
850.311218	192.900000
850.344971	191.100000
850.378845	202.700000
850.412659	192.000000
850.446411	193.700000
850.480225	193.200000
850.514038	199.700000
850.547791	197.200000
850.581665	193.900000
850.615417	190.900000
850.649231	194.000000
850.683044	193.700000
850.716858	193.400000
850.750610	193.400000
850.784424	199.000000
850.818176	191.700000
850.851929	191.600000
850.885742	190.300000
850.919495	193.500000
850.953308	201.800000
850.987122	202.000000
851.020874	188.300000
851.054626	186.100000
851.088440	197.400000
851.122192	197.900000
851.156006	194.600000
851.189697	194.500000
851.223511	188.300000
851.257263	198.400000
851.291077	195.400000
851.324829	191.900000
851.358582	189.000000
851.392334	191.200000
851.426086	191.700000
851.459900	202.400000
851.493591	194.100000
851.527344	194.900000
851.561157	192.500000
851.594849	197.400000
851.628662	195.400000
851.662415	201.400000
851.696106	196.500000
851.729858	198.900000
851.763611	187.400000
851.797363	196.500000
851.831116	189.200000
851.864868	197.600000
851.898560	199.200000
851.932312	193.200000
851.966064	195.100000
851.999817	194.200000
852.033569	193.700000
852.067261	199.000000
852.101013	190.800000
852.134766	193.200000
852.168457	183.800000
852.202209	199.100000
852.235901	191.000000
852.269592	196.100000
852.303345	202.500000
852.337036	197.800000
852.370789	193.900000
852.404541	197.300000
852.438171	190.400000
852.471924	194.000000
852.505676	186.500000
852.539307	196.600000
852.573059	190.000000
852.606812	191.800000
852.640442	194.800000
852.674194	200.100000
852.707886	204.500000
852.741577	202.600000
852.775269	189.500000
852.809021	195.000000
852.842651	196.800000
852.876404	197.900000
852.910034	194.800000
852.943787	199.300000
852.977478	197.400000
853.011108	190.000000
853.044861	191.400000
853.078552	201.400000
853.112183	197.000000
853.145874	196.300000
853.179626	185.300000
853.213257	195.900000
853.246948	191.900000
853.280640	201.900000
853.314270	194.200000
853.347961	199.900000
853.381653	196.300000
853.415283	198.200000
853.448975	191.000000
853.482605	194.600000
853.516296	193.800000
853.549988	189.000000
853.583618	196.200000
853.617310	196.100000
853.651001	196.400000
853.684631	189.600000
853.718323	191.400000
853.751953	202.500000
853.785583	184.400000
853.819275	199.300000
853.852966	195.100000
853.886536	184.500000
853.920227	189.000000
853.953918	199.900000
853.987488	192.800000
854.021179	195.900000
854.054749	201.200000
854.088440	196.600000
854.122131	190.300000
854.155701	197.300000
854.189331	189.700000
854.223022	197.400000
854.256592	194.800000
854.290283	190.400000
854.323914	197.600000
854.357483	195.800000
854.391174	196.100000
854.424744	204.500000
854.458374	194.900000
854.492065	205.500000
854.525696	192.300000
854.559265	201.700000
854.592896	204.700000
854.626465	195.200000
854.660095	195.100000
854.693787	197.500000
854.727356	191.400000
854.760986	197.800000
854.794617	194.300000
854.828186	192.400000
854.861816	197.200000
854.895447	195.700000
854.929016	195.800000
854.962585	197.600000
854.996155	200.200000
855.029785	196.900000
855.063416	196.600000
855.097046	198.400000
855.130615	188.000000
855.164185	202.200000
855.197754	193.400000
855.231384	197.700000
855.264954	192.000000
855.298523	198.900000
855.332153	195.800000
855.365723	203.600000
855.399292	190.400000
855.432922	194.400000
855.466492	197.200000
855.500061	189.900000
855.533630	191.500000
855.567200	197.900000
855.600769	200.200000
855.634338	199.800000
855.667969	197.400000
855.701477	189.800000
855.735046	191.900000
855.768616	185.300000
855.802185	195.300000
855.835754	208.700000
855.869324	187.200000
855.902893	191.800000
855.936401	201.300000
855.969971	195.000000
856.003540	188.200000
856.037109	198.800000
856.070618	194.900000
856.104187	188.800000
856.137695	192.100000
856.171265	184.500000
856.204834	194.700000
856.238403	198.500000
856.271912	192.300000
856.305481	196.400000
856.338989	188.200000
856.372559	195.800000
856.406128	195.200000
856.439636	198.800000
856.473145	192.700000
856.506653	200.300000
856.540222	195.700000
856.573792	200.200000
856.607300	199.300000
856.640808	187.000000
856.674377	195.300000
856.707825	222.100000
856.741394	198.500000
856.774902	190.300000
856.808472	185.700000
856.841980	197.000000
856.875488	202.100000
856.908936	186.400000
856.942505	192.200000
856.976013	194.100000
857.009521	189.700000
857.043030	195.300000
857.076477	193.600000
857.110046	200.000000
857.143555	196.000000
857.177063	199.500000
857.210571	191.300000
857.244080	188.800000
857.277527	197.500000
857.311035	194.100000
857.344543	197.400000
857.378052	192.600000
857.411499	199.100000
857.445068	204.400000
857.478516	193.600000
857.512024	188.700000
857.545532	192.400000
857.578979	195.700000
857.612427	193.500000
857.645874	191.300000
857.679382	195.700000
857.712891	199.700000
857.746399	194.300000
857.779846	201.200000
857.813354	198.700000
857.846741	193.400000
857.880249	190.200000
857.913757	195.800000
857.947266	195.800000
857.980652	198.400000
858.014160	190.600000
858.047546	193.200000
858.081055	192.800000
858.114563	203.500000
858.147949	187.300000
858.181458	199.500000
858.214844	192.600000
858.248352	185.200000
858.281799	199.100000
858.315308	209.300000
858.348694	197.800000
858.382141	203.600000
858.415588	196.200000
858.449036	201.100000
858.482483	196.900000
858.515930	190.500000
858.549377	194.200000
858.582825	202.700000
858.616211	197.000000
858.649658	197.200000
858.683105	190.000000
858.716553	192.100000
858.750000	188.600000
858.783386	191.600000
858.816833	186.400000
858.850281	196.000000
858.883728	197.800000
858.917114	192.600000
858.950562	203.900000
858.983948	203.600000
859.017395	199.000000
859.050781	193.000000
859.084167	191.300000
859.117615	188.000000
859.151062	197.900000
859.184448	189.700000
859.217834	192.900000
859.251282	192.500000
859.284668	188.800000
859.318054	183.600000
859.351440	192.600000
859.384888	202.400000
859.418274	186.500000
859.451721	184.500000
859.485046	197.200000
859.518494	195.200000
859.551819	190.700000
859.585266	195.700000
859.618652	198.000000
859.652039	187.700000
859.685425	189.400000
859.718811	186.400000
859.752197	184.500000
859.785583	201.600000
859.819031	201.400000
859.852356	198.000000
859.885742	192.900000
859.919067	193.100000
859.952454	192.200000
859.985901	198.400000
860.019287	192.200000
860.052612	0.000000
860.085999	0.000000
860.119324	0.000000
860.152710	0.000000
860.186096	0.000000
860.219421	0.000000
860.252808	0.000000
860.286133	0.000000
860.319519	0.000000
860.352905	0.000000
860.386292	0.000000
860.419617	0.000000
860.452942	0.000000
860.486267	0.000000
860.519653	0.000000
860.553040	0.000000
860.586365	0.000000
860.619690	0.000000
860.653076	0.000000
860.686340	0.000000
860.719727	0.000000
860.753113	0.000000
860.786377	0.000000
860.819763	0.000000
860.853027	0.000000
860.886414	0.000000
860.919739	0.000000
860.953125	0.000000
860.986389	0.000000
861.019714	0.000000
861.053040	0.000000
861.086365	0.000000
861.119690	0.000000
861.153076	0.000000
861.186340	0.000000
861.219666	0.000000
861.252930	0.000000
861.286316	0.000000
861.319641	0.000000
861.352905	0.000000
861.386230	0.000000
861.419495	0.000000
861.452820	0.000000
861.486145	0.000000
861.519470	0.000000
861.552734	0.000000
861.586060	0.000000
861.619324	0.000000
861.652649	0.000000
861.685974	0.000000
861.719238	0.000000
861.752563	0.000000
861.785828	0.000000
861.819092	0.000000
861.852417	0.000000
861.885742	0.000000
861.918945	0.000000
861.952271	0.000000
861.985535	0.000000
862.018799	0.000000
862.052124	0.000000
862.085449	0.000000
862.118652	0.000000
862.151978	0.000000
862.185181	0.000000
862.218506	0.000000
862.251770	0.000000
862.285034	0.000000
862.318298	0.000000
862.351562	0.000000
862.384827	0.000000
862.418091	0.000000
862.451355	0.000000
862.484619	0.000000
862.517883	0.000000
862.551086	0.000000
862.584351	0.000000
862.617676	0.000000
862.650940	0.000000
862.684143	0.000000
862.717407	0.000000
862.750610	0.000000
862.783875	0.000000
862.817139	0.000000
862.850342	0.000000
862.883606	0.000000
862.916870	0.000000
862.950073	0.000000
862.983337	0.000000
863.016602	0.000000
863.049805	0.000000
863.083069	0.000000
863.116211	0.000000
863.149475	0.000000
863.182739	0.000000
863.216003	0.000000
863.249146	0.000000
863.282410	0.000000
863.315613	0.000000
863.348816	0.000000
863.382080	0.000000
863.415222	0.000000
863.448486	0.000000
863.481689	0.000000
863.514893	0.000000
863.548157	0.000000
863.581360	0.000000
863.614502	0.000000
863.647766	0.000000
863.680908	0.000000
863.714172	0.000000
863.747375	0.000000
863.780579	0.000000
863.813721	0.000000
863.846985	0.000000
863.880127	0.000000
863.913330	0.000000
863.946533	0.000000
863.979675	0.000000
864.012939	0.000000
