Model Number: SPM-001-M   
Serial Number: 10090201
Firmware Version: 004.17.6
Exposure Time: 500000.000000us
Data Taken on: 10-03-2021 10:37:47.997
Wavelength	Amplitude
733.770752	0.000000
733.808716	0.000000
733.846619	0.000000
733.884583	0.000000
733.922546	0.000000
733.960449	0.000000
733.998413	0.000000
734.036377	0.000000
734.074219	0.000000
734.112183	0.000000
734.150085	0.000000
734.188049	0.000000
734.226013	0.000000
734.263916	0.000000
734.301819	0.000000
734.339783	0.000000
734.377686	0.000000
734.415588	0.000000
734.453552	0.000000
734.491455	0.000000
734.529419	0.000000
734.567322	0.000000
734.605225	0.000000
734.643127	0.000000
734.681091	0.000000
734.718994	0.000000
734.756897	0.000000
734.794800	0.000000
734.832703	0.000000
734.870667	0.000000
734.908508	0.000000
734.946472	0.000000
734.984375	0.000000
735.022278	0.000000
735.060181	0.000000
735.098083	0.000000
735.135986	0.000000
735.173889	0.000000
735.211792	0.000000
735.249695	0.000000
735.287598	0.000000
735.325439	0.000000
735.363403	0.000000
735.401306	0.000000
735.439148	0.000000
735.477051	0.000000
735.515015	0.000000
735.552856	0.000000
735.590759	0.000000
735.628662	0.000000
735.666504	0.000000
735.704407	0.000000
735.742310	0.000000
735.780212	0.000000
735.818115	0.000000
735.856018	0.000000
735.893860	0.000000
735.931763	0.000000
735.969604	0.000000
736.007507	0.000000
736.045410	0.000000
736.083252	0.000000
736.121094	0.000000
736.158997	0.000000
736.196838	0.000000
736.234741	0.000000
736.272644	0.000000
736.310486	0.000000
736.348389	0.000000
736.386230	0.000000
736.424072	0.000000
736.461975	0.000000
736.499878	0.000000
736.537720	0.000000
736.575562	0.000000
736.613403	0.000000
736.651306	0.000000
736.689148	0.000000
736.726990	0.000000
736.764893	0.000000
736.802734	0.000000
736.840576	0.000000
736.878418	0.000000
736.916321	0.000000
736.954102	0.000000
736.992004	0.000000
737.029846	0.000000
737.067688	0.000000
737.105530	0.000000
737.143372	0.000000
737.181213	0.000000
737.219116	0.000000
737.256897	0.000000
737.294739	0.000000
737.332642	0.000000
737.370422	0.000000
737.408325	0.000000
737.446167	0.000000
737.483948	0.000000
737.521790	0.000000
737.559692	0.000000
737.597473	0.000000
737.635315	0.000000
737.673157	0.000000
737.710999	0.000000
737.748840	0.000000
737.786621	0.000000
737.824463	0.000000
737.862305	0.000000
737.900085	0.000000
737.937927	0.000000
737.975769	0.000000
738.013550	0.000000
738.051392	0.000000
738.089233	0.000000
738.127014	0.000000
738.164856	0.000000
738.202698	0.000000
738.240479	0.000000
738.278320	0.000000
738.316162	0.000000
738.353943	0.000000
738.391785	0.000000
738.429565	0.000000
738.467407	0.000000
738.505188	0.000000
738.542969	0.000000
738.580811	0.000000
738.618652	0.000000
738.656372	0.000000
738.694214	0.000000
738.732056	0.000000
738.769836	0.000000
738.807617	0.000000
738.845459	0.000000
738.883240	0.000000
738.921021	0.000000
738.958862	0.000000
738.996582	0.000000
739.034424	0.000000
739.072205	0.000000
739.109985	0.000000
739.147827	0.000000
739.185547	0.000000
739.223389	0.000000
739.261169	0.000000
739.298889	0.000000
739.336731	0.000000
739.374512	0.000000
739.412292	0.000000
739.450073	0.000000
739.487854	0.000000
739.525635	0.000000
739.563416	0.000000
739.601135	0.000000
739.638977	0.000000
739.676758	0.000000
739.714478	0.000000
739.752258	0.000000
739.790100	0.000000
739.827820	0.000000
739.865601	0.000000
739.903381	0.000000
739.941101	0.000000
739.978882	194.200000
740.016724	192.700000
740.054443	197.200000
740.092224	191.400000
740.130005	188.700000
740.167725	189.800000
740.205505	187.800000
740.243225	199.900000
740.281006	194.600000
740.318787	186.200000
740.356506	199.100000
740.394287	198.500000
740.432068	187.400000
740.469727	186.300000
740.507507	195.800000
740.545288	193.200000
740.583008	195.600000
740.620789	194.000000
740.658569	185.400000
740.696228	193.200000
740.734009	199.400000
740.771790	181.900000
740.809509	198.400000
740.847229	188.000000
740.884949	189.700000
740.922729	185.900000
740.960449	192.200000
740.998169	187.300000
741.035950	190.300000
741.073669	194.500000
741.111389	194.000000
741.149170	202.300000
741.186890	202.800000
741.224609	196.900000
741.262329	196.300000
741.300110	202.800000
741.337769	188.400000
741.375549	186.600000
741.413208	195.700000
741.450989	187.800000
741.488708	192.000000
741.526367	189.100000
741.564148	198.200000
741.601868	198.600000
741.639526	194.400000
741.677307	194.000000
741.715027	195.900000
741.752686	188.000000
741.790466	201.700000
741.828186	196.500000
741.865845	189.800000
741.903564	184.200000
741.941345	194.300000
741.979004	188.700000
742.016724	196.500000
742.054382	194.200000
742.092102	199.300000
742.129822	184.800000
742.167480	192.100000
742.205200	192.200000
742.242920	195.400000
742.280640	197.400000
742.318359	187.000000
742.356079	189.700000
742.393738	197.500000
742.431396	192.200000
742.469116	197.500000
742.506775	181.900000
742.544495	196.000000
742.582214	196.900000
742.619873	192.700000
742.657593	201.400000
742.695251	197.500000
742.732971	191.500000
742.770630	195.800000
742.808289	192.700000
742.846008	192.700000
742.883728	195.700000
742.921326	192.700000
742.959045	190.300000
742.996765	192.400000
743.034424	192.600000
743.072083	189.600000
743.109802	193.800000
743.147400	186.200000
743.185120	194.500000
743.222839	191.600000
743.260437	200.000000
743.298157	194.300000
743.335754	184.200000
743.373474	190.500000
743.411133	185.500000
743.448792	192.300000
743.486450	193.700000
743.524170	184.300000
743.561768	193.500000
743.599487	200.600000
743.637146	203.700000
743.674744	191.700000
743.712463	192.000000
743.750122	193.200000
743.787720	195.600000
743.825439	188.600000
743.863037	191.500000
743.900696	191.300000
743.938416	217.800000
743.976013	191.500000
744.013672	202.100000
744.051331	198.100000
744.088928	202.400000
744.126587	200.000000
744.164307	194.000000
744.201904	190.300000
744.239563	195.900000
744.277222	194.800000
744.314819	193.500000
744.352478	199.900000
744.390137	195.000000
744.427734	195.200000
744.465393	190.900000
744.502991	188.300000
744.540649	197.900000
744.578308	194.500000
744.615906	187.000000
744.653564	183.900000
744.691223	196.500000
744.728821	187.100000
744.766418	193.000000
744.804077	197.100000
744.841675	189.800000
744.879333	186.400000
744.916992	192.400000
744.954529	190.900000
744.992187	198.000000
745.029785	193.400000
745.067444	189.100000
745.105042	194.600000
745.142639	195.000000
745.180298	203.300000
745.217896	190.300000
745.255493	192.700000
745.293152	197.400000
745.330750	198.500000
745.368347	200.500000
745.405945	197.800000
745.443604	194.000000
745.481140	198.800000
745.518799	191.100000
745.556396	198.200000
745.593994	197.700000
745.631592	193.200000
745.669189	188.000000
745.706787	195.500000
745.744385	189.200000
745.781982	194.900000
745.819580	190.300000
745.857178	192.200000
745.894775	194.200000
745.932373	194.100000
745.969971	194.100000
746.007568	184.900000
746.045166	201.700000
746.082764	199.200000
746.120300	196.000000
746.157898	196.400000
746.195557	192.700000
746.233093	188.300000
746.270691	197.300000
746.308228	194.000000
746.345825	198.800000
746.383423	195.500000
746.420959	189.100000
746.458557	190.300000
746.496155	191.400000
746.533691	192.800000
746.571289	188.900000
746.608887	194.400000
746.646423	195.300000
746.684021	193.600000
746.721619	192.400000
746.759155	194.700000
746.796753	187.300000
746.834351	186.000000
746.871826	189.100000
746.909424	200.400000
746.946960	195.300000
746.984558	190.600000
747.022156	191.000000
747.059631	199.300000
747.097229	195.800000
747.134827	191.200000
747.172363	201.600000
747.209900	195.500000
747.247498	189.100000
747.285034	200.100000
747.322571	200.700000
747.360168	191.100000
747.397644	185.800000
747.435242	196.500000
747.472778	201.100000
747.510315	190.800000
747.547913	191.200000
747.585388	201.600000
747.622925	193.100000
747.660522	184.100000
747.697998	190.600000
747.735596	192.800000
747.773132	190.000000
747.810669	192.400000
747.848206	196.900000
747.885742	187.000000
747.923279	188.000000
747.960815	196.000000
747.998352	193.800000
748.035889	198.900000
748.073425	198.400000
748.110901	189.700000
748.148437	189.100000
748.185974	194.400000
748.223511	203.900000
748.261047	195.000000
748.298584	195.000000
748.336060	193.600000
748.373596	194.000000
748.411133	212.100000
748.448608	187.500000
748.486145	197.100000
748.523682	200.000000
748.561218	200.700000
748.598755	193.300000
748.636292	198.400000
748.673706	192.000000
748.711243	201.200000
748.748718	195.600000
748.786255	194.700000
748.823792	192.500000
748.861267	190.000000
748.898804	194.600000
748.936340	196.900000
748.973816	190.500000
749.011292	201.300000
749.048828	194.700000
749.086304	196.700000
749.123840	204.600000
749.161316	189.600000
749.198792	203.700000
749.236328	200.700000
749.273743	192.800000
749.311279	193.100000
749.348816	195.300000
749.386230	195.600000
749.423767	181.700000
749.461304	196.300000
749.498718	194.400000
749.536255	200.600000
749.573730	206.000000
749.611206	199.700000
749.648682	193.100000
749.686218	192.800000
749.723633	198.000000
749.761169	191.100000
749.798645	190.300000
749.836060	192.200000
749.873596	190.300000
749.911011	193.400000
749.948547	200.700000
749.986023	191.400000
750.023437	193.000000
750.060913	187.800000
750.098450	189.400000
750.135864	192.500000
750.173340	194.900000
750.210815	199.700000
750.248291	189.400000
750.285767	193.100000
750.323242	203.100000
750.360657	194.300000
750.398132	188.700000
750.435608	197.000000
750.473022	189.800000
750.510498	188.500000
750.547974	190.000000
750.585449	191.900000
750.622925	183.700000
750.660339	202.300000
750.697815	194.400000
750.735291	192.200000
750.772644	194.500000
750.810120	193.700000
750.847595	196.300000
750.885010	188.500000
750.922485	202.200000
750.959961	191.800000
750.997375	200.500000
751.034851	196.500000
751.072266	199.200000
751.109680	186.600000
751.147156	198.600000
751.184570	197.400000
751.221985	195.900000
751.259460	183.900000
751.296875	193.700000
751.334290	194.200000
751.371765	198.600000
751.409180	197.200000
751.446594	200.000000
751.484070	196.500000
751.521423	195.600000
751.558899	195.300000
751.596375	201.300000
751.633728	201.300000
751.671204	207.600000
751.708618	189.100000
751.746033	194.600000
751.783447	188.500000
751.820801	191.700000
751.858276	197.000000
751.895691	193.000000
751.933105	191.500000
751.970520	187.100000
752.007935	191.700000
752.045349	196.800000
752.082764	194.700000
752.120178	191.800000
752.157532	190.400000
752.195007	190.300000
752.232422	197.400000
752.269775	197.800000
752.307190	196.500000
752.344543	189.100000
752.382019	192.300000
752.419434	192.600000
752.456787	195.900000
752.494202	197.100000
752.531616	196.200000
752.568970	198.300000
752.606384	196.000000
752.643799	195.900000
752.681152	202.900000
752.718567	197.000000
752.755981	184.700000
752.793335	196.200000
752.830750	185.100000
752.868164	199.200000
752.905518	189.000000
752.942932	198.100000
752.980225	187.800000
753.017639	198.000000
753.055054	192.500000
753.092407	195.900000
753.129822	199.900000
753.167175	203.900000
753.204529	192.800000
753.241943	191.300000
753.279358	187.700000
753.316650	197.600000
753.354065	196.500000
753.391479	198.100000
753.428772	202.800000
753.466187	197.100000
753.503479	186.900000
753.540894	193.200000
753.578308	187.900000
753.615601	188.800000
753.653015	194.000000
753.690369	193.400000
753.727722	189.100000
753.765076	188.000000
753.802490	187.500000
753.839783	185.300000
753.877136	189.700000
753.914551	210.300000
753.951843	187.500000
753.989258	198.200000
754.026611	193.000000
754.063904	195.900000
754.101257	189.600000
754.138611	185.700000
754.175964	194.700000
754.213318	207.100000
754.250610	187.400000
754.288025	192.100000
754.325378	187.800000
754.362671	198.500000
754.400024	190.800000
754.437378	204.700000
754.474670	204.300000
754.512085	191.600000
754.549438	194.100000
754.586731	192.700000
754.624084	193.300000
754.661438	190.400000
754.698730	202.500000
754.736084	192.400000
754.773376	193.000000
754.810730	196.200000
754.848083	191.300000
754.885315	197.800000
754.922668	187.100000
754.960022	190.200000
754.997314	200.000000
755.034668	194.900000
755.072021	196.400000
755.109253	192.300000
755.146606	201.600000
755.183960	193.800000
755.221252	204.700000
755.258545	200.400000
755.295898	201.500000
755.333191	201.300000
755.370544	199.300000
755.407776	196.300000
755.445129	198.200000
755.482422	199.900000
755.519714	192.800000
755.557068	188.500000
755.594360	187.900000
755.631653	200.300000
755.668945	207.100000
755.706299	198.400000
755.743530	210.300000
755.780884	203.800000
755.818176	203.700000
755.855408	202.000000
755.892761	200.400000
755.930054	199.300000
755.967346	200.500000
756.004639	201.300000
756.041870	199.000000
756.079224	203.100000
756.116516	196.100000
756.153748	203.200000
756.191040	206.600000
756.228394	200.800000
756.265625	195.400000
756.302917	199.000000
756.340210	195.000000
756.377441	206.300000
756.414795	207.900000
756.452087	199.900000
756.489319	193.800000
756.526611	202.400000
756.563843	201.800000
756.601135	212.000000
756.638428	210.600000
756.675659	200.900000
756.712952	204.900000
756.750244	205.400000
756.787476	202.100000
756.824768	209.600000
756.862061	199.500000
756.899292	249.500000
756.936584	206.600000
756.973816	212.400000
757.011047	214.700000
757.048340	205.400000
757.085632	201.600000
757.122864	218.500000
757.160156	201.100000
757.197327	206.900000
757.234619	207.700000
757.271912	204.000000
757.309082	209.100000
757.346375	201.400000
757.383667	208.900000
757.420837	205.800000
757.458130	206.600000
757.495422	204.800000
757.532593	207.100000
757.569885	199.000000
757.607117	201.100000
757.644348	208.400000
757.681580	217.700000
757.718811	195.100000
757.756042	205.500000
757.793335	204.800000
757.830505	209.500000
757.867798	204.100000
757.905029	203.300000
757.942200	208.100000
757.979492	202.700000
758.016724	206.200000
758.053894	204.800000
758.091187	227.300000
758.128418	207.600000
758.165588	207.100000
758.202820	218.700000
758.240112	206.700000
758.277283	219.800000
758.314514	210.400000
758.351685	206.600000
758.388916	219.400000
758.426147	217.200000
758.463379	218.400000
758.500610	213.100000
758.537842	210.300000
758.575012	217.500000
758.612244	206.800000
758.649475	223.700000
758.686646	204.200000
758.723877	219.100000
758.761108	219.800000
758.798279	209.300000
758.835510	213.300000
758.872742	220.200000
758.909851	214.500000
758.947083	216.700000
758.984253	214.000000
759.021484	217.800000
759.058716	216.400000
759.095886	217.000000
759.133057	212.400000
759.170288	218.200000
759.207458	210.200000
759.244690	226.900000
759.281860	223.700000
759.319031	215.500000
759.356262	211.300000
759.393433	214.800000
759.430603	213.400000
759.467773	213.100000
759.505005	222.600000
759.542175	222.800000
759.579346	214.600000
759.616516	217.700000
759.653687	217.400000
759.690918	213.300000
759.728027	216.800000
759.765259	218.500000
759.802429	220.400000
759.839539	219.600000
759.876770	223.300000
759.913940	227.200000
759.951111	219.100000
759.988281	218.800000
760.025452	214.200000
760.062561	214.200000
760.099792	226.700000
760.136963	222.100000
760.174072	217.800000
760.211243	212.400000
760.248413	214.700000
760.285583	213.100000
760.322754	230.000000
760.359863	225.600000
760.397034	227.400000
760.434204	218.700000
760.471375	220.500000
760.508545	216.600000
760.545715	220.500000
760.582825	216.400000
760.619995	226.500000
760.657166	214.900000
760.694275	227.800000
760.731445	222.600000
760.768555	225.100000
760.805664	225.700000
760.842834	226.400000
760.879944	226.100000
760.917114	224.900000
760.954285	221.300000
760.991394	218.100000
761.028564	229.500000
761.065674	228.300000
761.102783	220.300000
761.139954	232.000000
761.177124	229.500000
761.214172	234.100000
761.251343	224.200000
761.288452	227.800000
761.325562	231.300000
761.362732	226.400000
761.399841	225.800000
761.436951	231.400000
761.474121	226.000000
761.511169	231.400000
761.548340	235.200000
761.585449	232.800000
761.622559	234.100000
761.659668	232.600000
761.696838	239.900000
761.733887	235.600000
761.771057	232.200000
761.808167	233.600000
761.845276	240.000000
761.882385	249.600000
761.919434	237.200000
761.956604	256.000000
761.993713	232.100000
762.030762	244.100000
762.067871	237.300000
762.105042	236.100000
762.142090	246.400000
762.179199	240.600000
762.216309	245.000000
762.253418	257.000000
762.290527	252.200000
762.327637	248.500000
762.364685	237.700000
762.401794	246.600000
762.438904	245.600000
762.475952	239.900000
762.513062	238.700000
762.550110	240.300000
762.587219	256.400000
762.624329	254.600000
762.661377	250.100000
762.698486	245.700000
762.735596	248.200000
762.772644	240.400000
762.809753	240.200000
762.846863	246.400000
762.883911	252.000000
762.921021	251.000000
762.958069	249.800000
762.995117	257.600000
763.032227	259.600000
763.069336	250.600000
763.106323	246.900000
763.143433	244.700000
763.180481	253.000000
763.217590	255.300000
763.254639	251.400000
763.291687	251.800000
763.328735	261.800000
763.365845	253.100000
763.402893	252.500000
763.439941	258.100000
763.477051	259.900000
763.514038	260.300000
763.551147	253.100000
763.588196	256.300000
763.625244	255.900000
763.662292	264.100000
763.699402	269.100000
763.736389	262.700000
763.773499	273.100000
763.810486	265.700000
763.847534	264.500000
763.884644	265.000000
763.921631	260.400000
763.958679	275.200000
763.995728	264.300000
764.032776	271.700000
764.069824	258.200000
764.106873	268.900000
764.143860	275.200000
764.180969	268.800000
764.218018	275.500000
764.255005	268.300000
764.292053	270.200000
764.329102	281.000000
764.366089	279.600000
764.403137	278.900000
764.440125	267.300000
764.477173	272.700000
764.514221	273.400000
764.551208	273.700000
764.588257	267.100000
764.625305	278.400000
764.662292	282.900000
764.699341	290.300000
764.736389	281.500000
764.773376	297.900000
764.810425	283.800000
764.847473	291.100000
764.884399	285.500000
764.921448	294.100000
764.958435	290.900000
764.995483	281.700000
765.032532	297.200000
765.069458	282.900000
765.106506	284.000000
765.143555	284.300000
765.180481	289.000000
765.217529	297.200000
765.254578	281.800000
765.291504	291.200000
765.328552	287.000000
765.365540	284.900000
765.402527	300.900000
765.439575	285.200000
765.476501	282.800000
765.513550	281.700000
765.550537	287.300000
765.587463	295.200000
765.624512	286.900000
765.661499	279.500000
765.698486	295.800000
765.735474	285.100000
765.772461	291.200000
765.809448	300.100000
765.846436	297.600000
765.883423	299.800000
765.920410	294.500000
765.957397	290.900000
765.994385	296.900000
766.031311	304.400000
766.068359	298.500000
766.105286	299.300000
766.142273	307.800000
766.179260	301.100000
766.216187	296.000000
766.253174	290.400000
766.290161	303.100000
766.327148	305.100000
766.364136	307.200000
766.401123	322.100000
766.438049	300.300000
766.475037	314.300000
766.512024	310.500000
766.548950	325.100000
766.585937	319.800000
766.622864	314.700000
766.659790	315.300000
766.696777	303.500000
766.733704	319.900000
766.770691	313.200000
766.807678	330.000000
766.844604	323.200000
766.881531	323.100000
766.918518	327.400000
766.955444	329.500000
766.992432	325.100000
767.029358	328.100000
767.066284	331.300000
767.103271	327.800000
767.140198	356.500000
767.177124	345.000000
767.214050	337.200000
767.251038	338.800000
767.287964	334.200000
767.324890	333.700000
767.361816	338.900000
767.398743	345.700000
767.435730	336.900000
767.472595	345.000000
767.509583	351.900000
767.546509	337.900000
767.583374	346.400000
767.620361	338.900000
767.657288	347.600000
767.694214	346.500000
767.731140	344.600000
767.768066	346.300000
767.804993	355.200000
767.841919	342.800000
767.878845	353.900000
767.915710	359.500000
767.952698	355.000000
767.989563	355.900000
768.026489	358.300000
768.063416	351.000000
768.100281	352.900000
768.137207	365.300000
768.174133	363.700000
768.211060	365.300000
768.247986	363.600000
768.284912	363.100000
768.321777	367.300000
768.358704	365.000000
768.395630	370.600000
768.432495	363.400000
768.469421	369.700000
768.506348	374.300000
768.543152	384.100000
768.580078	380.400000
768.616943	380.400000
768.653870	382.400000
768.690796	381.000000
768.727661	377.600000
768.764587	382.000000
768.801453	377.300000
768.838318	389.300000
768.875244	387.400000
768.912109	394.200000
768.948975	385.000000
768.985901	390.200000
769.022766	389.500000
769.059631	395.600000
769.096558	393.400000
769.133362	394.500000
769.170288	390.700000
769.207214	392.600000
769.244019	399.200000
769.280945	399.700000
769.317810	408.400000
769.354675	402.400000
769.391541	413.400000
769.428406	407.700000
769.465271	419.700000
769.502136	408.500000
769.539062	413.000000
769.575867	410.200000
769.612732	413.100000
769.649597	418.900000
769.686462	424.300000
769.723328	415.900000
769.760193	414.400000
769.797058	420.800000
769.833923	432.400000
769.870728	424.400000
769.907593	432.800000
769.944519	425.700000
769.981323	432.400000
770.018188	433.500000
770.055054	427.200000
770.091858	426.100000
770.128723	440.400000
770.165588	447.000000
770.202393	430.300000
770.239258	445.300000
770.276062	440.700000
770.312927	439.400000
770.349792	447.400000
770.386597	444.200000
770.423462	453.400000
770.460327	461.500000
770.497131	446.900000
770.533997	438.400000
770.570862	457.400000
770.607605	457.100000
770.644470	450.400000
770.681335	454.600000
770.718140	454.200000
770.754944	442.900000
770.791809	443.700000
770.828613	447.400000
770.865479	447.300000
770.902222	460.800000
770.939087	453.800000
770.975952	444.400000
771.012695	448.900000
771.049561	470.800000
771.086365	453.700000
771.123169	453.100000
771.159973	455.500000
771.196838	454.700000
771.233582	456.500000
771.270447	459.500000
771.307251	462.300000
771.344055	460.700000
771.380859	462.900000
771.417664	456.100000
771.454468	466.500000
771.491272	469.800000
771.528076	463.400000
771.564880	465.100000
771.601685	477.100000
771.638428	466.200000
771.675293	473.100000
771.712097	465.600000
771.748840	482.300000
771.785645	473.800000
771.822449	477.000000
771.859253	483.900000
771.896057	478.000000
771.932861	490.900000
771.969604	482.000000
772.006409	475.400000
772.043213	492.400000
772.079956	491.100000
772.116760	478.800000
772.153503	483.500000
772.190308	493.400000
772.227112	487.100000
772.263855	482.400000
772.300659	490.700000
772.337463	498.500000
772.374207	488.700000
772.411011	484.500000
772.447754	491.800000
772.484497	513.100000
772.521301	503.300000
772.558105	504.600000
772.594849	501.800000
772.631592	512.700000
772.668396	511.500000
772.705139	521.000000
772.741882	514.700000
772.778625	531.800000
772.815430	532.100000
772.852173	528.600000
772.888916	534.300000
772.925720	540.900000
772.962463	549.100000
772.999207	542.900000
773.035950	547.000000
773.072754	548.800000
773.109436	544.100000
773.146240	544.700000
773.182922	544.000000
773.219727	556.700000
773.256470	550.000000
773.293152	539.300000
773.329956	545.900000
773.366699	556.100000
773.403381	550.000000
773.440186	560.900000
773.476929	557.700000
773.513611	554.200000
773.550354	556.900000
773.587158	558.600000
773.623840	552.100000
773.660583	567.300000
773.697327	579.000000
773.734009	569.700000
773.770813	570.500000
773.807495	565.400000
773.844238	569.600000
773.880981	589.500000
773.917664	584.900000
773.954407	589.600000
773.991150	582.700000
774.027832	588.700000
774.064575	580.800000
774.101318	594.300000
774.138000	599.800000
774.174744	593.100000
774.211487	593.200000
774.248108	585.700000
774.284851	586.400000
774.321594	599.700000
774.358276	605.700000
774.395020	613.700000
774.431702	612.400000
774.468384	602.000000
774.505127	599.300000
774.541809	617.100000
774.578491	628.700000
774.615234	631.500000
774.651917	624.700000
774.688599	627.100000
774.725342	635.400000
774.762024	632.000000
774.798706	640.400000
774.835449	641.500000
774.872070	649.300000
774.908813	640.800000
774.945496	639.000000
774.982178	640.200000
775.018860	649.100000
775.055542	653.500000
775.092224	657.500000
775.128967	655.600000
775.165588	656.100000
775.202271	647.400000
775.239014	665.200000
775.275635	665.500000
775.312317	661.000000
775.349060	665.000000
775.385681	660.800000
775.422363	654.100000
775.459045	669.900000
775.495667	669.700000
775.532410	679.700000
775.569092	676.300000
775.605713	677.000000
775.642395	671.600000
775.679016	675.500000
775.715698	680.400000
775.752380	689.100000
775.789001	681.000000
775.825684	680.500000
775.862366	682.300000
775.898987	696.900000
775.935669	682.800000
775.972351	705.000000
776.008972	703.200000
776.045654	699.300000
776.082336	695.000000
776.118958	701.100000
776.155640	702.000000
776.192322	716.500000
776.228882	712.600000
776.265564	711.000000
776.302185	709.700000
776.338867	713.500000
776.375488	697.100000
776.412109	715.300000
776.448792	721.600000
776.485413	723.900000
776.522034	717.300000
776.558716	708.500000
776.595337	706.400000
776.631958	719.100000
776.668579	717.000000
776.705261	722.200000
776.741882	716.400000
776.778503	714.100000
776.815186	711.900000
776.851746	718.700000
776.888367	722.900000
776.924988	728.500000
776.961609	721.000000
776.998291	720.900000
777.034851	712.600000
777.071472	726.500000
777.108154	724.600000
777.144714	736.700000
777.181335	736.400000
777.218018	727.700000
777.254578	733.500000
777.291199	728.400000
777.327759	737.200000
777.364380	744.500000
777.401062	749.600000
777.437622	764.400000
777.474243	751.900000
777.510864	761.900000
777.547424	762.000000
777.584045	765.500000
777.620667	764.100000
777.657227	771.700000
777.693848	771.600000
777.730469	792.600000
777.767029	781.100000
777.803650	782.600000
777.840271	773.500000
777.876831	777.500000
777.913452	784.600000
777.950012	763.100000
777.986633	766.200000
778.023193	762.600000
778.059753	760.000000
778.096375	764.600000
778.132996	779.100000
778.169556	768.300000
778.206116	770.400000
778.242737	767.600000
778.279297	779.900000
778.315857	770.100000
778.352478	779.200000
778.389038	792.100000
778.425598	790.800000
778.462219	798.000000
778.498718	802.200000
778.535339	812.300000
778.571838	815.100000
778.608459	824.100000
778.645020	815.200000
778.681580	831.400000
778.718140	835.700000
778.754761	824.700000
778.791260	827.800000
778.827881	845.600000
778.864441	840.800000
778.900940	842.200000
778.937561	839.500000
778.974121	841.200000
779.010620	828.300000
779.047241	833.900000
779.083801	849.100000
779.120300	847.100000
779.156860	857.000000
779.193359	851.400000
779.229980	852.100000
779.266541	861.600000
779.303040	864.900000
779.339600	855.700000
779.376160	851.200000
779.412659	861.300000
779.449219	853.400000
779.485779	865.600000
779.522278	866.300000
779.558838	870.400000
779.595398	875.700000
779.631897	873.200000
779.668457	863.000000
779.705017	871.700000
779.741516	863.000000
779.778076	864.100000
779.814575	872.300000
779.851074	881.100000
779.887634	876.500000
779.924133	883.200000
779.960693	872.100000
779.997253	882.500000
780.033691	892.900000
780.070251	891.900000
780.106812	909.500000
780.143250	904.300000
780.179810	900.800000
780.216370	905.300000
780.252808	920.800000
780.289368	933.400000
780.325867	935.800000
780.362366	924.200000
780.398865	939.900000
780.435364	927.200000
780.471863	946.100000
780.508423	944.000000
780.544861	956.400000
780.581421	962.700000
780.617920	951.900000
780.654419	946.600000
780.690918	954.300000
780.727417	967.900000
780.763916	963.700000
780.800415	968.300000
780.836914	943.700000
780.873352	952.400000
780.909912	946.500000
780.946411	954.900000
780.982849	966.900000
781.019348	981.600000
781.055786	978.400000
781.092346	974.200000
781.128845	981.300000
781.165283	988.300000
781.201782	998.300000
781.238281	1001.600000
781.274719	1005.000000
781.311218	994.300000
781.347717	1006.100000
781.384155	994.800000
781.420654	997.500000
781.457092	1009.300000
781.493591	1004.200000
781.530090	992.700000
781.566528	998.800000
781.602966	1003.800000
781.639465	1004.700000
781.675903	1002.500000
781.712402	1007.200000
781.748901	1014.100000
781.785278	1008.700000
781.821777	1012.400000
781.858276	1016.700000
781.894714	1032.800000
781.931152	1015.200000
781.967651	1022.000000
782.004089	1010.800000
782.040527	1024.500000
782.076965	1026.000000
782.113403	1027.900000
782.149902	1026.600000
782.186340	1025.600000
782.222778	1041.500000
782.259277	1021.900000
782.295654	1017.900000
782.332092	1032.100000
782.368591	1024.100000
782.404968	1015.800000
782.441467	1026.600000
782.477905	1017.600000
782.514282	1021.000000
782.550781	1042.900000
782.587219	1035.400000
782.623596	1046.600000
782.660095	1049.100000
782.696472	1050.900000
782.732910	1053.400000
782.769348	1056.100000
782.805786	1073.400000
782.842224	1071.400000
782.878662	1065.500000
782.915039	1067.800000
782.951477	1065.100000
782.987915	1058.100000
783.024292	1073.100000
783.060730	1067.200000
783.097168	1051.900000
783.133545	1045.800000
783.169983	1038.500000
783.206421	1032.200000
783.242798	1031.000000
783.279236	1024.600000
783.315613	1024.900000
783.352051	1008.400000
783.388489	993.900000
783.424866	982.900000
783.461304	992.200000
783.497681	999.700000
783.534058	995.300000
783.570496	987.100000
783.606934	980.800000
783.643250	989.000000
783.679687	1005.300000
783.716125	993.200000
783.752441	1007.900000
783.788879	1027.600000
783.825317	1038.200000
783.861633	1036.600000
783.898071	1039.000000
783.934448	1051.400000
783.970825	1062.700000
784.007263	1022.800000
784.043579	932.700000
784.080017	782.700000
784.116394	596.000000
784.152710	434.200000
784.189148	339.200000
784.225525	301.700000
784.261902	290.400000
784.298279	305.900000
784.334656	338.300000
784.371033	397.200000
784.407410	513.400000
784.443787	643.000000
784.480164	780.900000
784.516541	886.200000
784.552856	965.800000
784.589233	997.400000
784.625610	1014.800000
784.661987	1058.700000
784.698364	1045.600000
784.734741	1032.200000
784.771057	1032.200000
784.807434	1034.400000
784.843811	1057.800000
784.880127	1063.400000
784.916504	1100.200000
784.952881	1096.700000
784.989197	1092.000000
785.025574	1094.600000
785.061951	1105.300000
785.098267	1135.500000
785.134644	1130.900000
785.170959	1132.100000
785.207275	1138.100000
785.243652	1137.000000
785.279968	1121.300000
785.316345	1134.700000
785.352722	1147.200000
785.388977	1151.500000
785.425354	1123.000000
785.461731	1098.200000
785.498047	1089.700000
785.534363	1085.300000
785.570679	1085.000000
785.606995	1086.700000
785.643372	1089.400000
785.679687	1083.500000
785.716003	1064.400000
785.752380	1058.800000
785.788635	1060.100000
785.825012	1095.800000
785.861328	1103.200000
785.897644	1088.600000
785.933960	1107.100000
785.970337	1113.600000
786.006592	1128.600000
786.042908	1154.000000
786.079285	1170.300000
786.115540	1179.500000
786.151855	1177.500000
786.188171	1171.700000
786.224487	1168.100000
786.260803	1169.500000
786.297119	1186.100000
786.333435	1182.700000
786.369751	1174.800000
786.406006	1167.900000
786.442322	1156.000000
786.478638	1147.000000
786.514954	1164.400000
786.551270	1164.600000
786.587585	1174.800000
786.623840	1160.100000
786.660156	1152.100000
786.696472	1136.800000
786.732727	1138.200000
786.769043	1136.700000
786.805298	1125.900000
786.841614	1135.300000
786.877930	1143.100000
786.914124	1120.400000
786.950439	1134.900000
786.986755	1140.500000
787.023010	1164.600000
787.059326	1170.900000
787.095642	1180.200000
787.131836	1197.500000
787.168152	1178.800000
787.204468	1184.200000
787.240723	1207.300000
787.276978	1215.800000
787.313293	1224.500000
787.349548	1222.700000
787.385803	1227.500000
787.422058	1220.100000
787.458313	1225.100000
787.494629	1221.900000
787.530823	1214.700000
787.567139	1200.300000
787.603455	1190.700000
787.639648	1177.600000
787.675903	1183.200000
787.712219	1184.600000
787.748413	1181.200000
787.784729	1185.900000
787.820984	1178.700000
787.857178	1162.600000
787.893494	1152.100000
787.929749	1142.700000
787.965942	1152.500000
788.002258	1167.800000
788.038452	1176.200000
788.074707	1160.300000
788.110962	1163.200000
788.147217	1158.300000
788.183472	1177.800000
788.219727	1192.600000
788.255920	1213.500000
788.292175	1220.000000
788.328430	1208.800000
788.364624	1185.200000
788.400879	1179.700000
788.437134	1183.400000
788.473328	1189.100000
788.509583	1184.000000
788.545837	1181.600000
788.582031	1173.500000
788.618286	1157.800000
788.654480	1155.000000
788.690735	1166.800000
788.726990	1189.600000
788.763184	1185.300000
788.799377	1199.600000
788.835632	1187.800000
788.871826	1211.000000
788.908081	1206.900000
788.944336	1206.000000
788.980469	1219.000000
789.016724	1213.700000
789.052979	1211.800000
789.089111	1187.600000
789.125366	1191.000000
789.161621	1178.000000
789.197754	1188.400000
789.234009	1177.900000
789.270142	1165.200000
789.306396	1156.500000
789.342590	1141.100000
789.378784	1118.900000
789.414978	1111.700000
789.451233	1128.700000
789.487366	1131.100000
789.523621	1142.400000
789.559814	1131.100000
789.595947	1116.100000
789.632202	1123.100000
789.668335	1146.200000
789.704529	1157.700000
789.740784	1183.200000
789.776917	1190.900000
789.813110	1176.000000
789.849304	1194.600000
789.885498	1190.200000
789.921692	1211.200000
789.957886	1218.800000
789.994019	1218.400000
790.030212	1206.700000
790.066406	1209.300000
790.102539	1203.700000
790.138733	1212.200000
790.174927	1212.300000
790.211060	1227.500000
790.247253	1207.200000
790.283386	1195.200000
790.319580	1176.100000
790.355774	1161.800000
790.391907	1166.300000
790.428101	1193.400000
790.464294	1194.700000
790.500427	1192.400000
790.536621	1171.100000
790.572754	1156.500000
790.608887	1165.100000
790.645081	1184.900000
790.681274	1191.300000
790.717346	1183.000000
790.753540	1143.400000
790.789734	1063.700000
790.825867	996.300000
790.862000	994.100000
790.898132	1041.100000
790.934265	1101.800000
790.970459	1162.900000
791.006592	1181.200000
791.042725	1186.400000
791.078918	1180.900000
791.114990	1177.300000
791.151184	1197.100000
791.187317	1219.200000
791.223389	1213.900000
791.259583	1196.600000
791.295715	1200.300000
791.331848	1206.700000
791.367981	1224.700000
791.404114	1226.100000
791.440247	1219.700000
791.476379	1224.900000
791.512451	1203.600000
791.548584	1203.500000
791.584778	1192.100000
791.620850	1214.600000
791.656982	1223.500000
791.693115	1220.400000
791.729187	1212.700000
791.765381	1203.600000
791.801514	1202.800000
791.837585	1211.000000
791.873718	1220.600000
791.909851	1231.900000
791.945923	1239.800000
791.982056	1200.300000
792.018188	1193.200000
792.054260	1201.800000
792.090393	1203.600000
792.126465	1203.700000
792.162598	1209.600000
792.198669	1185.600000
792.234741	1181.200000
792.270874	1177.600000
792.307007	1158.100000
792.343079	1171.000000
792.379150	1192.000000
792.415283	1167.200000
792.451355	1172.300000
792.487488	1151.000000
792.523560	1148.600000
792.559631	1157.600000
792.595764	1149.800000
792.631836	1149.100000
792.667908	1163.600000
792.703979	1143.000000
792.740051	1143.100000
792.776184	1148.600000
792.812256	1147.500000
792.848328	1155.900000
792.884399	1165.900000
792.920471	1161.500000
792.956543	1155.800000
792.992615	1149.300000
793.028748	1141.400000
793.064758	1155.300000
793.100830	1176.600000
793.136963	1188.900000
793.172974	1179.900000
793.209045	1167.500000
793.245178	1184.400000
793.281189	1172.000000
793.317261	1176.500000
793.353271	1181.800000
793.389404	1185.400000
793.425476	1182.900000
793.461487	1164.200000
793.497559	1159.000000
793.533630	1172.900000
793.569641	1171.700000
793.605713	1178.000000
793.641785	1178.100000
793.677795	1182.500000
793.713867	1161.400000
793.749878	1168.800000
793.785950	1180.600000
793.822021	1191.900000
793.858032	1171.200000
793.894104	1184.200000
793.930176	1167.800000
793.966187	1169.700000
794.002258	1159.700000
794.038269	1167.800000
794.074280	1158.400000
794.110352	1180.600000
794.146423	1152.600000
794.182373	1151.500000
794.218445	1145.900000
794.254517	1132.200000
794.290466	1119.300000
794.326538	1128.500000
794.362549	1125.900000
794.398560	1131.200000
794.434631	1131.100000
794.470581	1106.000000
794.506653	1101.000000
794.542664	1105.600000
794.578674	1099.700000
794.614685	1102.500000
794.650757	1098.900000
794.686707	1090.700000
794.722778	1079.000000
794.758789	1086.900000
794.794739	1094.400000
794.830811	1117.400000
794.866821	1137.300000
794.902771	1128.000000
794.938843	1121.600000
794.974792	1112.400000
795.010803	1108.400000
795.046814	1114.400000
795.082825	1096.900000
795.118835	1119.600000
795.154846	1095.900000
795.190796	1100.400000
795.226807	1076.300000
795.262817	1079.800000
795.298767	1080.300000
795.334778	1080.900000
795.370850	1066.500000
795.406799	1076.200000
795.442810	1057.100000
795.478821	1052.700000
795.514709	1047.300000
795.550720	1066.000000
795.586670	1050.200000
795.622681	1061.100000
795.658691	1048.300000
795.694641	1047.100000
795.730652	1035.600000
795.766663	1039.300000
795.802551	1041.000000
795.838562	1062.000000
795.874573	1047.800000
795.910522	1048.700000
795.946472	1033.100000
795.982483	1039.200000
796.018433	1045.400000
796.054382	1053.000000
796.090393	1041.300000
796.126282	1027.700000
796.162292	1009.000000
796.198242	1004.500000
796.234192	1010.900000
796.270203	1008.100000
796.306091	1012.600000
796.342041	1032.900000
796.378052	1018.600000
796.413940	1014.100000
796.449951	1016.400000
796.485901	1013.500000
796.521790	1014.500000
796.557800	1030.200000
796.593689	1025.900000
796.629639	1013.400000
796.665649	1005.800000
796.701599	1004.600000
796.737488	1006.400000
796.773437	1010.100000
796.809387	1013.900000
796.845337	1007.700000
796.881287	998.400000
796.917175	978.300000
796.953125	981.800000
796.989075	991.000000
797.024963	1000.400000
797.060913	996.000000
797.096863	1001.300000
797.132751	987.700000
797.168701	964.100000
797.204590	968.900000
797.240540	975.800000
797.276489	980.100000
797.312439	986.500000
797.348328	981.000000
797.384277	969.600000
797.420166	957.300000
797.456055	957.800000
797.492004	954.100000
797.527893	967.800000
797.563843	975.400000
797.599731	957.300000
797.635620	947.000000
797.671570	956.500000
797.707520	953.500000
797.743347	957.400000
797.779297	967.300000
797.815125	959.100000
797.851074	946.700000
797.887024	941.800000
797.922913	933.200000
797.958801	948.500000
797.994690	948.100000
798.030579	945.900000
798.066467	954.500000
798.102356	939.700000
798.138245	928.900000
798.174133	924.800000
798.210083	937.300000
798.245911	945.200000
798.281799	945.100000
798.317749	932.300000
798.353577	926.200000
798.389465	922.000000
798.425293	920.100000
798.461243	911.500000
798.497131	920.800000
798.532959	924.500000
798.568848	921.300000
798.604736	908.500000
798.640564	897.300000
798.676453	903.300000
798.712402	905.600000
798.748230	912.100000
798.784119	906.000000
798.820007	909.600000
798.855835	905.900000
798.891724	897.800000
798.927551	893.800000
798.963379	907.300000
798.999268	899.400000
799.035095	899.400000
799.070984	886.800000
799.106873	880.500000
799.142700	887.400000
799.178528	876.100000
799.214417	877.000000
799.250244	897.200000
799.286133	881.800000
799.321960	876.400000
799.357788	870.800000
799.393677	873.700000
799.429504	873.500000
799.465332	872.600000
799.501221	879.100000
799.537048	873.200000
799.572876	861.100000
799.608704	863.700000
799.644531	876.700000
799.680359	877.800000
799.716248	881.900000
799.752014	888.500000
799.787903	872.900000
799.823730	872.200000
799.859558	859.800000
799.895386	864.100000
799.931213	863.700000
799.967041	855.900000
800.002869	851.000000
800.038696	865.300000
800.074463	839.800000
800.110352	848.100000
800.146179	841.000000
800.181946	841.600000
800.217773	844.500000
800.253540	844.200000
800.289429	837.900000
800.325256	833.600000
800.361023	821.400000
800.396851	829.500000
800.432678	825.200000
800.468445	822.200000
800.504272	816.600000
800.540100	801.600000
800.575867	800.200000
800.611694	808.500000
800.647461	800.300000
800.683289	803.500000
800.719116	807.500000
800.754883	799.200000
800.790649	782.500000
800.826477	775.600000
800.862244	799.700000
800.898071	782.400000
800.933838	780.100000
800.969604	774.600000
801.005432	773.000000
801.041199	773.300000
801.076965	764.200000
801.112793	757.200000
801.148560	749.100000
801.184326	752.000000
801.220154	755.800000
801.255859	741.300000
801.291687	739.100000
801.327454	733.900000
801.363281	734.700000
801.398987	733.400000
801.434814	733.800000
801.470520	743.900000
801.506287	724.600000
801.542114	719.900000
801.577820	723.200000
801.613647	721.400000
801.649414	715.200000
801.685120	718.800000
801.720886	728.600000
801.756714	710.400000
801.792419	706.300000
801.828186	698.400000
801.863892	711.100000
801.899719	697.600000
801.935486	692.700000
801.971252	703.200000
802.006958	695.200000
802.042725	688.700000
802.078430	690.100000
802.114197	683.400000
802.149963	700.300000
802.185669	691.100000
802.221436	684.000000
802.257202	685.400000
802.292908	683.200000
802.328674	689.300000
802.364441	686.900000
802.400146	681.300000
802.435913	673.600000
802.471558	673.600000
802.507324	667.400000
802.543091	660.400000
802.578796	670.500000
802.614502	673.300000
802.650269	679.100000
802.685974	658.700000
802.721741	664.700000
802.757446	665.300000
802.793152	660.800000
802.828918	671.600000
802.864624	666.400000
802.900330	667.000000
802.936035	658.400000
802.971802	657.000000
803.007446	653.000000
803.043213	643.400000
803.078857	649.700000
803.114624	633.300000
803.150330	642.300000
803.185974	632.200000
803.221741	636.600000
803.257446	644.300000
803.293152	638.600000
803.328857	626.000000
803.364563	626.900000
803.400208	621.300000
803.435974	630.400000
803.471680	625.100000
803.507324	621.000000
803.543030	625.300000
803.578735	625.100000
803.614441	614.200000
803.650146	625.600000
803.685791	610.000000
803.721497	615.100000
803.757202	601.700000
803.792847	613.900000
803.828552	602.800000
803.864258	604.700000
803.899902	602.200000
803.935608	586.900000
803.971313	594.200000
804.006958	593.300000
804.042664	585.400000
804.078308	596.400000
804.113953	584.000000
804.149658	590.000000
804.185364	580.400000
804.221008	591.000000
804.256714	580.900000
804.292297	579.100000
804.328003	575.100000
804.363708	568.600000
804.399292	565.900000
804.434998	567.700000
804.470703	558.800000
804.506287	576.700000
804.541992	569.000000
804.577637	568.800000
804.613281	556.400000
804.648926	555.800000
804.684570	557.800000
804.720215	555.900000
804.755920	554.300000
804.791565	549.800000
804.827209	555.100000
804.862854	546.600000
804.898437	543.800000
804.934143	546.500000
804.969788	545.800000
805.005371	546.700000
805.041077	549.200000
805.076721	546.200000
805.112305	537.000000
805.147949	536.500000
805.183655	533.400000
805.219238	536.100000
805.254883	534.900000
805.290466	540.700000
805.326111	535.700000
805.361755	524.200000
805.397400	531.800000
805.432983	532.600000
805.468628	534.400000
805.504211	538.400000
805.539856	534.300000
805.575500	538.200000
805.611084	527.600000
805.646729	514.600000
805.682373	521.600000
805.717957	531.400000
805.753601	531.600000
805.789246	509.100000
805.824768	526.500000
805.860413	527.300000
805.895996	515.700000
805.931641	513.500000
805.967224	518.500000
806.002869	513.800000
806.038452	522.100000
806.074036	519.800000
806.109619	505.800000
806.145264	501.900000
806.180847	506.000000
806.216431	503.500000
806.252014	506.400000
806.287659	503.500000
806.323181	517.200000
806.358826	507.800000
806.394409	487.900000
806.429993	489.900000
806.465576	508.300000
806.501160	489.900000
806.536743	481.100000
806.572327	492.000000
806.607910	489.000000
806.643494	488.500000
806.679077	481.600000
806.714661	485.100000
806.750244	485.300000
806.785828	476.400000
806.821350	476.700000
806.856934	482.400000
806.892517	476.900000
806.928101	468.100000
806.963684	471.500000
806.999268	481.400000
807.034790	462.600000
807.070374	471.200000
807.105896	464.200000
807.141479	462.300000
807.177063	471.200000
807.212585	462.200000
807.248169	457.400000
807.283752	466.400000
807.319275	458.000000
807.354858	463.300000
807.390381	454.100000
807.425903	456.500000
807.461487	449.000000
807.497070	447.000000
807.532593	447.900000
807.568115	445.300000
807.603699	437.900000
807.639221	434.700000
807.674744	437.000000
807.710266	447.300000
807.745850	447.100000
807.781372	439.200000
807.816895	436.400000
807.852417	438.200000
807.888000	435.000000
807.923523	433.700000
807.959045	437.100000
807.994629	427.100000
808.030090	422.400000
808.065613	428.100000
808.101135	430.200000
808.136658	427.400000
808.172241	424.900000
808.207764	422.500000
808.243225	417.600000
808.278809	414.100000
808.314270	421.900000
808.349792	408.900000
808.385315	407.200000
808.420837	415.400000
808.456360	421.300000
808.491882	417.800000
808.527344	413.700000
808.562866	423.500000
808.598389	413.600000
808.633850	406.800000
808.669434	403.500000
808.704895	415.400000
808.740417	418.200000
808.775940	408.600000
808.811462	401.000000
808.846924	397.800000
808.882385	392.400000
808.917847	388.000000
808.953369	394.100000
808.988892	389.700000
809.024353	397.900000
809.059875	395.000000
809.095398	389.900000
809.130798	384.000000
809.166321	385.300000
809.201843	381.200000
809.237305	386.000000
809.272766	388.700000
809.308228	376.400000
809.343750	376.100000
809.379211	378.500000
809.414734	379.600000
809.450134	386.300000
809.485657	367.600000
809.521118	378.300000
809.556580	373.600000
809.592102	373.400000
809.627502	368.500000
809.663025	369.000000
809.698486	363.000000
809.733887	359.300000
809.769409	362.800000
809.804871	356.000000
809.840271	358.900000
809.875793	361.200000
809.911194	361.600000
809.946655	356.800000
809.982178	351.800000
810.017639	356.900000
810.053040	351.200000
810.088501	348.700000
810.123901	350.500000
810.159424	345.100000
810.194885	343.500000
810.230286	348.200000
810.265747	342.200000
810.301208	338.500000
810.336609	344.100000
810.372070	337.200000
810.407532	339.200000
810.442932	339.000000
810.478394	344.800000
810.513794	338.600000
810.549255	340.100000
810.584717	335.900000
810.620117	328.900000
810.655518	337.600000
810.690979	336.900000
810.726379	332.900000
810.761841	324.300000
810.797302	326.000000
810.832642	325.300000
810.868103	335.700000
810.903564	324.400000
810.938904	330.300000
810.974365	320.100000
811.009827	323.000000
811.045166	318.000000
811.080627	311.400000
811.115967	319.000000
811.151428	327.900000
811.186829	318.300000
811.222229	317.800000
811.257629	311.700000
811.293091	315.400000
811.328430	325.400000
811.363892	317.900000
811.399292	321.400000
811.434631	313.300000
811.470093	317.700000
811.505493	309.600000
811.540833	312.300000
811.576294	318.200000
811.611694	311.100000
811.647034	305.600000
811.682434	307.300000
811.717773	310.100000
811.753235	316.400000
811.788635	307.000000
811.823975	309.300000
811.859375	317.400000
811.894775	302.500000
811.930115	305.400000
811.965515	306.400000
812.000916	308.300000
812.036255	301.900000
812.071655	306.800000
812.106995	299.500000
812.142395	301.800000
812.177795	307.000000
812.213196	304.500000
812.248474	303.500000
812.283875	297.300000
812.319214	299.500000
812.354614	300.300000
812.390015	298.100000
812.425293	298.600000
812.460693	296.500000
812.496094	294.200000
812.531433	285.900000
812.566772	289.100000
812.602173	290.300000
812.637451	294.300000
812.672852	286.500000
812.708191	295.400000
812.743530	285.200000
812.778931	279.700000
812.814270	283.100000
812.849609	292.800000
812.884949	284.100000
812.920227	280.500000
812.955627	295.800000
812.990967	286.300000
813.026306	282.600000
813.061646	271.100000
813.096985	269.000000
813.132324	268.000000
813.167664	271.300000
813.203003	277.300000
813.238281	264.400000
813.273682	266.100000
813.308960	263.600000
813.344299	267.200000
813.379639	275.400000
813.414978	267.300000
813.450256	265.300000
813.485596	271.600000
813.520874	263.600000
813.556213	267.200000
813.591614	269.900000
813.626831	263.300000
813.662170	266.100000
813.697510	277.000000
813.732788	260.500000
813.768127	266.300000
813.803467	267.000000
813.838745	261.400000
813.874084	265.600000
813.909363	263.500000
813.944641	264.400000
813.979980	253.200000
814.015320	260.000000
814.050598	256.500000
814.085876	263.100000
814.121155	257.200000
814.156494	257.300000
814.191772	257.800000
814.227051	255.300000
814.262390	257.100000
814.297668	258.300000
814.332947	256.800000
814.368225	252.200000
814.403564	253.700000
814.438782	252.200000
814.474121	252.300000
814.509338	249.100000
814.544617	258.000000
814.579956	248.300000
814.615173	259.500000
814.650513	255.600000
814.685791	246.600000
814.721008	249.800000
814.756348	251.000000
814.791626	247.500000
814.826843	245.000000
814.862122	246.500000
814.897400	243.100000
814.932678	248.700000
814.967957	246.500000
815.003235	243.800000
815.038452	239.500000
815.073730	237.900000
815.108948	248.800000
815.144226	247.400000
815.179504	249.100000
815.214722	235.600000
815.250000	235.100000
815.285278	241.500000
815.320496	235.900000
815.355774	238.000000
815.391052	241.700000
815.426270	236.600000
815.461487	237.000000
815.496765	232.300000
815.531982	229.400000
815.567261	233.900000
815.602539	242.800000
815.637695	236.600000
815.672974	239.100000
815.708191	238.700000
815.743408	240.500000
815.778687	232.400000
815.813904	243.400000
815.849121	225.600000
815.884399	229.500000
815.919556	226.800000
815.954834	229.200000
815.990051	232.600000
816.025269	237.000000
816.060486	226.900000
816.095703	227.200000
816.130920	231.000000
816.166199	225.800000
816.201416	230.400000
816.236572	236.400000
816.271851	224.400000
816.307007	234.300000
816.342224	221.000000
816.377441	228.100000
816.412659	217.000000
816.447876	229.800000
816.483093	223.300000
816.518250	227.000000
816.553467	222.900000
816.588745	230.200000
816.623901	221.200000
816.659119	214.900000
816.694275	220.000000
816.729492	217.200000
816.764709	253.600000
816.799927	215.300000
816.835083	220.900000
816.870300	216.300000
816.905457	216.900000
816.940674	221.200000
816.975830	216.600000
817.010986	213.800000
817.046204	217.200000
817.081421	212.000000
817.116577	212.800000
817.151733	222.400000
817.186951	223.600000
817.222107	218.400000
817.257324	220.600000
817.292419	218.100000
817.327637	208.700000
817.362854	214.100000
817.398010	209.700000
817.433167	210.800000
817.468323	211.100000
817.503479	211.800000
817.538635	222.000000
817.573853	214.600000
817.608948	215.000000
817.644165	208.500000
817.679321	208.100000
817.714478	208.300000
817.749634	212.600000
817.784790	223.500000
817.819946	220.200000
817.855103	199.500000
817.890198	211.000000
817.925415	202.100000
817.960571	211.000000
817.995667	210.500000
818.030823	212.200000
818.066040	204.500000
818.101135	209.600000
818.136292	206.500000
818.171448	203.900000
818.206543	207.300000
818.241699	210.900000
818.276855	207.800000
818.311951	206.900000
818.347107	202.600000
818.382263	210.200000
818.417358	215.500000
818.452515	215.000000
818.487610	215.200000
818.522766	203.600000
818.557922	215.700000
818.593018	211.400000
818.628113	208.400000
818.663269	201.500000
818.698364	207.900000
818.733521	204.000000
818.768677	210.600000
818.803711	200.200000
818.838867	202.500000
818.874023	205.000000
818.909058	201.000000
818.944214	199.100000
818.979370	209.600000
819.014404	204.800000
819.049561	202.000000
819.084595	207.300000
819.119751	198.500000
819.154846	205.900000
819.189941	203.400000
819.225037	196.800000
819.260193	195.000000
819.295227	196.400000
819.330322	193.800000
819.365479	191.500000
819.400513	225.700000
819.435608	189.400000
819.470764	191.200000
819.505798	192.500000
819.540894	198.400000
819.575989	194.200000
819.611084	204.600000
819.646179	203.500000
819.681213	201.200000
819.716309	196.200000
819.751404	197.000000
819.786438	200.600000
819.821533	193.400000
819.856628	198.300000
819.891663	202.500000
819.926758	208.300000
819.961853	203.500000
819.996887	194.600000
820.031982	201.500000
820.067017	198.000000
820.102112	224.700000
820.137207	194.600000
820.172302	213.100000
820.207275	193.800000
820.242371	194.200000
820.277405	193.600000
820.312500	196.200000
820.347534	199.900000
820.382568	202.000000
820.417664	195.100000
820.452759	194.400000
820.487732	193.400000
820.522827	194.800000
820.557861	193.400000
820.592896	193.800000
820.627930	195.800000
820.662964	192.400000
820.698059	197.200000
820.733093	193.600000
820.768127	200.200000
820.803162	195.600000
820.838196	194.200000
820.873230	196.000000
820.908264	195.600000
820.943298	190.900000
820.978333	202.500000
821.013367	195.700000
821.048401	201.500000
821.083435	200.000000
821.118469	187.200000
821.153503	199.100000
821.188477	197.300000
821.223511	185.600000
821.258484	194.300000
821.293579	195.000000
821.328613	188.900000
821.363647	194.600000
821.398621	188.500000
821.433655	191.200000
821.468628	207.100000
821.503662	192.900000
821.538696	197.200000
821.573669	188.900000
821.608704	199.300000
821.643677	191.200000
821.678650	198.100000
821.713684	202.800000
821.748718	192.200000
821.783691	193.800000
821.818726	196.000000
821.853638	195.700000
821.888672	192.500000
821.923706	194.600000
821.958618	190.300000
821.993652	190.600000
822.028687	198.900000
822.063599	201.200000
822.098633	196.000000
822.133667	188.700000
822.168579	193.600000
822.203613	196.100000
822.238586	189.200000
822.273560	197.000000
822.308533	191.100000
822.343567	192.700000
822.378479	192.300000
822.413452	192.800000
822.448425	188.600000
822.483398	199.000000
822.518372	197.900000
822.553345	191.400000
822.588318	200.800000
822.623291	192.900000
822.658203	189.600000
822.693237	195.500000
822.728210	189.400000
822.763123	193.900000
822.798096	187.500000
822.833069	195.000000
822.867981	191.200000
822.902954	195.700000
822.937927	195.900000
822.972900	205.400000
823.007874	184.500000
823.042725	197.700000
823.077698	205.800000
823.112671	189.900000
823.147583	192.500000
823.182556	196.000000
823.217529	197.600000
823.252441	192.000000
823.287415	206.700000
823.322388	195.800000
823.357239	192.900000
823.392212	201.000000
823.427185	196.000000
823.462097	189.700000
823.497009	195.200000
823.531982	191.900000
823.566895	194.700000
823.601807	189.400000
823.636719	191.100000
823.671631	197.400000
823.706604	192.100000
823.741455	196.900000
823.776428	188.500000
823.811340	197.300000
823.846252	200.200000
823.881165	201.000000
823.916138	194.100000
823.950989	201.800000
823.985901	191.500000
824.020813	194.200000
824.055725	192.400000
824.090637	189.600000
824.125610	195.900000
824.160461	195.400000
824.195374	198.300000
824.230225	197.500000
824.265198	187.300000
824.300110	190.700000
824.334961	206.500000
824.369873	183.200000
824.404785	198.400000
824.439636	199.700000
824.474548	186.100000
824.509460	181.900000
824.544312	200.000000
824.579224	195.200000
824.614075	196.800000
824.648987	191.900000
824.683899	192.400000
824.718811	190.300000
824.753662	201.300000
824.788574	198.600000
824.823364	194.000000
824.858276	190.500000
824.893188	199.500000
824.928040	199.200000
824.962952	196.800000
824.997803	197.500000
825.032654	196.000000
825.067566	197.300000
825.102417	192.000000
825.137268	193.500000
825.172119	195.600000
825.206970	190.800000
825.241882	192.800000
825.276733	191.300000
825.311646	191.700000
825.346436	187.900000
825.381348	189.100000
825.416138	194.000000
825.450989	189.900000
825.485901	187.600000
825.520691	185.200000
825.555542	188.100000
825.590454	193.200000
825.625244	186.600000
825.660095	199.900000
825.695007	198.200000
825.729797	192.400000
825.764648	190.700000
825.799438	192.000000
825.834290	195.300000
825.869202	186.500000
825.903992	195.400000
825.938843	189.100000
825.973694	188.900000
826.008484	203.800000
826.043335	189.200000
826.078186	183.300000
826.112976	199.300000
826.147827	197.700000
826.182678	204.400000
826.217468	185.800000
826.252319	197.900000
826.287109	188.600000
826.321899	201.200000
826.356750	190.500000
826.391541	188.500000
826.426392	198.100000
826.461182	194.400000
826.495972	188.100000
826.530823	182.800000
826.565613	193.500000
826.600403	188.700000
826.635254	195.900000
826.670044	184.700000
826.704834	185.000000
826.739685	187.800000
826.774475	195.000000
826.809265	192.700000
826.844055	190.800000
826.878906	199.300000
826.913635	194.200000
826.948425	196.100000
826.983215	193.800000
827.018005	197.400000
827.052856	191.600000
827.087585	196.300000
827.122375	185.300000
827.157227	191.500000
827.191956	205.100000
827.226746	187.100000
827.261536	198.100000
827.296265	186.700000
827.331116	192.200000
827.365906	196.200000
827.400635	189.100000
827.435425	182.700000
827.470215	199.100000
827.504944	190.700000
827.539734	197.700000
827.574463	191.400000
827.609253	200.200000
827.644043	192.100000
827.678772	200.100000
827.713562	190.100000
827.748352	190.600000
827.783081	187.900000
827.817871	194.200000
827.852600	188.300000
827.887329	194.300000
827.922119	181.000000
827.956848	195.300000
827.991638	205.600000
828.026367	195.200000
828.061157	192.200000
828.095886	193.500000
828.130615	206.400000
828.165344	182.800000
828.200073	192.800000
828.234863	189.700000
828.269592	191.500000
828.304321	197.400000
828.339111	193.400000
828.373779	188.600000
828.408569	197.600000
828.443298	197.700000
828.477966	188.700000
828.512756	193.700000
828.547424	186.800000
828.582214	190.600000
828.616943	191.900000
828.651672	190.900000
828.686340	197.000000
828.721130	188.400000
828.755798	190.400000
828.790527	192.900000
828.825256	195.800000
828.859924	193.200000
828.894714	202.700000
828.929443	200.100000
828.964111	189.800000
828.998840	196.000000
829.033569	191.500000
829.068237	188.900000
829.102966	191.400000
829.137634	193.300000
829.172363	194.600000
829.207092	194.600000
829.241821	189.200000
829.276489	185.500000
829.311157	194.200000
829.345825	191.200000
829.380554	198.200000
829.415283	188.200000
829.449951	187.900000
829.484619	200.400000
829.519348	201.300000
829.554016	192.500000
829.588745	192.600000
829.623413	185.700000
829.658081	204.000000
829.692749	186.900000
829.727417	198.000000
829.762146	194.000000
829.796814	189.500000
829.831482	191.100000
829.866150	194.000000
829.900879	189.100000
829.935486	196.300000
829.970154	191.900000
830.004883	203.800000
830.039490	194.000000
830.074219	189.200000
830.108887	193.300000
830.143494	191.400000
830.178223	188.000000
830.212891	191.400000
830.247498	193.000000
830.282166	199.700000
830.316772	199.900000
830.351501	189.800000
830.386169	192.800000
830.420776	190.800000
830.455444	192.500000
830.490112	188.900000
830.524719	184.100000
830.559387	193.700000
830.594055	196.100000
830.628662	192.400000
830.663330	193.500000
830.697998	201.000000
830.732605	192.200000
830.767273	193.500000
830.801941	192.700000
830.836487	201.500000
830.871155	194.700000
830.905762	194.500000
830.940430	185.900000
830.975098	188.100000
831.009644	194.400000
831.044312	199.400000
831.078979	196.700000
831.113525	183.300000
831.148193	192.600000
831.182861	190.100000
831.217407	195.400000
831.252075	209.000000
831.286621	190.000000
831.321289	188.700000
831.355896	192.400000
831.390564	200.100000
831.425110	194.000000
831.459778	199.100000
831.494324	205.100000
831.528931	195.900000
831.563599	196.700000
831.598145	185.600000
831.632751	192.600000
831.667419	189.900000
831.701965	192.600000
831.736572	195.700000
831.771179	185.300000
831.805786	189.600000
831.840393	199.500000
831.874939	183.900000
831.909546	198.300000
831.944153	184.000000
831.978760	191.600000
832.013306	189.200000
832.047913	199.400000
832.082458	202.200000
832.117065	189.700000
832.151672	201.900000
832.186218	192.400000
832.220825	196.100000
832.255432	184.100000
832.289978	189.300000
832.324585	194.400000
832.359192	196.100000
832.393677	190.900000
832.428284	193.800000
832.462830	190.300000
832.497437	192.000000
832.531982	194.800000
832.566589	190.700000
832.601135	191.500000
832.635681	185.500000
832.670227	192.100000
832.704773	201.100000
832.739380	193.100000
832.773926	193.400000
832.808472	187.000000
832.843079	193.700000
832.877563	195.900000
832.912170	190.500000
832.946716	184.400000
832.981201	198.800000
833.015808	194.200000
833.050293	192.200000
833.084839	188.300000
833.119446	191.700000
833.153992	195.200000
833.188477	191.500000
833.223022	188.200000
833.257568	194.300000
833.292114	199.800000
833.326660	204.700000
833.361145	190.800000
833.395691	185.500000
833.430237	191.000000
833.464783	196.100000
833.499329	189.000000
833.533875	188.000000
833.568359	196.900000
833.602905	198.400000
833.637390	199.300000
833.671875	189.300000
833.706421	193.400000
833.740906	188.800000
833.775452	183.100000
833.809998	189.100000
833.844482	200.300000
833.879028	191.500000
833.913513	191.500000
833.947998	194.400000
833.982544	188.900000
834.017090	188.800000
834.051514	182.400000
834.086060	194.300000
834.120544	193.600000
834.155029	194.100000
834.189575	192.300000
834.223999	194.400000
834.258545	194.200000
834.293030	192.000000
834.327515	192.700000
834.362000	188.400000
834.396545	195.800000
834.430969	190.900000
834.465454	197.500000
834.500000	184.200000
834.534424	195.600000
834.568970	182.400000
834.603455	183.300000
834.637878	188.300000
834.672363	194.000000
834.706909	193.100000
834.741333	192.000000
834.775818	183.900000
834.810242	187.600000
834.844727	193.400000
834.879211	190.300000
834.913635	192.200000
834.948181	195.400000
834.982666	192.800000
835.017090	190.400000
835.051575	196.300000
835.086060	189.100000
835.120483	197.400000
835.154907	197.900000
835.189331	191.700000
835.223816	194.900000
835.258301	187.900000
835.292786	186.800000
835.327209	197.600000
835.361694	187.500000
835.396057	189.700000
835.430542	194.700000
835.465027	195.600000
835.499390	186.800000
835.533875	212.800000
835.568359	189.200000
835.602722	185.000000
835.637207	192.700000
835.671692	187.200000
835.706055	207.700000
835.740540	195.100000
835.774902	194.100000
835.809387	194.900000
835.843811	184.800000
835.878235	200.500000
835.912659	184.900000
835.947083	190.300000
835.981506	191.900000
836.015930	186.100000
836.050354	195.500000
836.084778	201.600000
836.119202	197.100000
836.153625	204.300000
836.187988	186.500000
836.222473	188.900000
836.256897	192.600000
836.291260	192.200000
836.325684	194.100000
836.360046	190.600000
836.394470	190.000000
836.428894	199.000000
836.463318	188.500000
836.497681	196.700000
836.532104	199.000000
836.566467	193.700000
836.600891	190.400000
836.635315	197.500000
836.669678	195.600000
836.704102	196.900000
836.738525	193.700000
836.772888	185.100000
836.807251	190.100000
836.841675	194.900000
836.876038	186.900000
836.910461	187.700000
836.944763	196.200000
836.979187	188.700000
837.013611	199.000000
837.047974	185.200000
837.082336	205.000000
837.116699	196.900000
837.151062	193.200000
837.185486	185.800000
837.219849	191.600000
837.254211	195.500000
837.288574	192.000000
837.322937	187.500000
837.357300	180.300000
837.391663	205.200000
837.426086	199.500000
837.460388	192.100000
837.494751	199.400000
837.529114	187.900000
837.563477	198.700000
837.597839	193.700000
837.632141	192.500000
837.666565	188.300000
837.700928	195.700000
837.735229	195.600000
837.769592	195.100000
837.803955	198.200000
837.838257	190.000000
837.872620	187.900000
837.906982	199.900000
837.941284	194.000000
837.975647	192.800000
838.010010	198.000000
838.044312	191.600000
838.078674	188.400000
838.112976	193.100000
838.147339	196.100000
838.181702	192.700000
838.216003	202.800000
838.250366	193.200000
838.284668	194.400000
838.318970	185.300000
838.353333	192.700000
838.387634	191.100000
838.421936	192.200000
838.456299	192.500000
838.490601	201.000000
838.524902	195.900000
838.559265	196.900000
838.593567	196.200000
838.627869	187.500000
838.662170	194.900000
838.696472	186.100000
838.730774	188.900000
838.765137	198.400000
838.799377	177.800000
838.833740	193.800000
838.868042	198.800000
838.902283	185.200000
838.936646	196.600000
838.970947	194.900000
839.005188	196.700000
839.039551	185.200000
839.073792	198.800000
839.108093	190.600000
839.142395	201.400000
839.176697	186.100000
839.210937	192.500000
839.245300	205.900000
839.279541	186.100000
839.313843	190.600000
839.348145	195.100000
839.382385	197.600000
839.416687	196.200000
839.450989	195.800000
839.485229	192.000000
839.519531	187.500000
839.553833	197.100000
839.588013	193.700000
839.622314	193.200000
839.656555	195.300000
839.690857	191.800000
839.725159	186.200000
839.759460	191.400000
839.793640	190.900000
839.827942	191.700000
839.862183	188.400000
839.896423	195.600000
839.930725	201.700000
839.964966	199.700000
839.999207	200.900000
840.033508	200.200000
840.067688	189.900000
840.101990	202.200000
840.136230	193.100000
840.170471	201.000000
840.204712	189.000000
840.238953	189.200000
840.273193	195.200000
840.307434	197.800000
840.341736	189.200000
840.375916	186.600000
840.410217	189.300000
840.444397	198.400000
840.478638	194.700000
840.512878	200.500000
840.547119	193.400000
840.581360	195.100000
840.615601	201.400000
840.649780	203.800000
840.684021	191.800000
840.718262	202.400000
840.752441	197.400000
840.786682	194.600000
840.820862	194.000000
840.855103	201.500000
840.889343	191.900000
840.923584	198.100000
840.957764	193.700000
840.992004	195.900000
841.026184	206.700000
841.060425	192.200000
841.094666	188.900000
841.128845	197.500000
841.163025	194.200000
841.197266	196.500000
841.231445	196.200000
841.265686	193.600000
841.299866	187.200000
841.334045	200.300000
841.368286	191.100000
841.402405	201.600000
841.436646	197.200000
841.470825	190.400000
841.505005	193.400000
841.539185	189.300000
841.573425	189.900000
841.607544	193.100000
841.641785	194.300000
841.675964	188.800000
841.710144	193.800000
841.744324	192.000000
841.778503	193.000000
841.812683	188.600000
841.846863	202.600000
841.881042	200.500000
841.915222	190.200000
841.949402	208.000000
841.983521	184.500000
842.017700	191.400000
842.051880	196.300000
842.086060	196.200000
842.120239	195.600000
842.154419	190.900000
842.188538	195.100000
842.222717	189.200000
842.256897	204.200000
842.291016	191.300000
842.325195	196.700000
842.359375	203.700000
842.393494	201.800000
842.427673	193.900000
842.461853	196.600000
842.495911	199.800000
842.530090	195.700000
842.564209	191.200000
842.598389	197.100000
842.632568	193.400000
842.666626	197.200000
842.700806	189.300000
842.734985	191.700000
842.769043	195.300000
842.803223	192.100000
842.837402	191.100000
842.871460	191.700000
842.905640	199.800000
842.939697	189.700000
842.973877	195.900000
843.007996	199.100000
843.042175	201.800000
843.076233	191.300000
843.110413	195.100000
843.144470	202.100000
843.178589	198.000000
843.212769	190.400000
843.246826	198.500000
843.280945	190.900000
843.315125	190.800000
843.349182	188.700000
843.383301	201.500000
843.417419	206.500000
843.451538	193.400000
843.485657	192.100000
843.519714	192.700000
843.553833	195.000000
843.587952	193.700000
843.622070	188.000000
843.656128	198.000000
843.690247	190.700000
843.724304	192.200000
843.758423	194.500000
843.792542	192.800000
843.826599	193.300000
843.860718	192.000000
843.894836	186.200000
843.928894	196.300000
843.963013	193.500000
843.997070	190.500000
844.031128	186.000000
844.065247	198.900000
844.099304	197.500000
844.133362	194.200000
844.167480	195.800000
844.201599	202.300000
844.235596	195.800000
844.269714	195.400000
844.303711	195.000000
844.337830	187.100000
844.371948	196.400000
844.405945	193.000000
844.440063	188.400000
844.474121	208.000000
844.508118	191.300000
844.542236	192.700000
844.576294	191.800000
844.610352	188.600000
844.644409	191.900000
844.678406	185.600000
844.712524	198.500000
844.746582	200.800000
844.780640	193.300000
844.814636	193.500000
844.848755	203.600000
844.882751	192.700000
844.916809	199.400000
844.950867	195.900000
844.984863	202.100000
845.018921	192.300000
845.052979	189.900000
845.086975	195.000000
845.121033	188.100000
845.155090	189.100000
845.189087	201.900000
845.223145	190.100000
845.257141	194.500000
845.291199	195.400000
845.325256	202.700000
845.359253	194.100000
845.393250	204.800000
845.427307	191.100000
845.461304	196.800000
845.495361	193.200000
845.529358	205.400000
845.563354	191.000000
845.597412	190.600000
845.631409	200.300000
845.665405	202.100000
845.699463	199.300000
845.733459	193.200000
845.767456	199.700000
845.801453	193.500000
845.835449	200.700000
845.869446	197.900000
845.903503	198.600000
845.937439	191.000000
845.971497	199.700000
846.005493	188.900000
846.039429	197.600000
846.073486	204.500000
846.107483	192.700000
846.141418	194.000000
846.175476	192.900000
846.209473	200.600000
846.243408	189.900000
846.277405	195.900000
846.311401	188.900000
846.345337	195.800000
846.379395	199.400000
846.413330	191.800000
846.447327	201.800000
846.481323	188.000000
846.515259	191.700000
846.549255	195.200000
846.583252	196.900000
846.617187	188.200000
846.651184	196.900000
846.685120	192.900000
846.719055	202.600000
846.753052	197.100000
846.786987	200.300000
846.820984	187.100000
846.854980	201.300000
846.888916	188.100000
846.922852	196.200000
846.956848	202.000000
846.990723	190.600000
847.024719	194.600000
847.058716	194.500000
847.092590	201.800000
847.126587	196.300000
847.160522	191.800000
847.194458	198.900000
847.228455	189.000000
847.262390	189.500000
847.296265	190.300000
847.330261	201.800000
847.364136	191.700000
847.398132	191.100000
847.432068	193.700000
847.466003	193.200000
847.499939	193.600000
847.533875	196.300000
847.567749	192.200000
847.601746	192.800000
847.635681	197.900000
847.669556	185.800000
847.703491	199.400000
847.737427	210.100000
847.771301	188.400000
847.805237	195.700000
847.839233	194.300000
847.873108	193.200000
847.907043	192.500000
847.940918	200.000000
847.974854	196.700000
848.008789	199.500000
848.042664	194.200000
848.076538	197.700000
848.110474	194.200000
848.144348	196.300000
848.178284	188.800000
848.212219	194.400000
848.246094	193.200000
848.279968	195.900000
848.313904	197.000000
848.347778	195.600000
848.381653	193.800000
848.415588	190.400000
848.449463	192.600000
848.483337	196.300000
848.517212	198.900000
848.551086	192.700000
848.585022	190.500000
848.618835	203.300000
848.652771	193.000000
848.686646	188.900000
848.720520	203.200000
848.754395	191.400000
848.788330	198.800000
848.822144	196.700000
848.856018	194.000000
848.889954	204.100000
848.923767	190.100000
848.957642	189.600000
848.991577	198.800000
849.025391	190.700000
849.059265	193.600000
849.093079	190.000000
849.126953	189.300000
849.160828	199.900000
849.194641	197.000000
849.228577	191.600000
849.262451	193.300000
849.296265	192.100000
849.330139	189.900000
849.364014	194.800000
849.397827	197.800000
849.431702	193.800000
849.465515	198.000000
849.499329	185.800000
849.533203	189.100000
849.567078	184.900000
849.600891	196.900000
849.634766	192.400000
849.668518	199.300000
849.702393	194.900000
849.736267	188.200000
849.770020	207.300000
849.803894	197.900000
849.837769	194.800000
849.871521	193.200000
849.905396	200.700000
849.939270	190.400000
849.973022	194.000000
850.006897	197.200000
850.040710	198.100000
850.074524	197.800000
850.108337	193.600000
850.142151	197.500000
850.175964	201.600000
850.209778	192.900000
850.243530	182.000000
850.277405	198.100000
850.311218	195.800000
850.344971	190.600000
850.378845	204.200000
850.412659	190.100000
850.446411	195.100000
850.480225	193.900000
850.514038	201.000000
850.547791	196.200000
850.581665	194.400000
850.615417	191.400000
850.649231	194.400000
850.683044	190.600000
850.716858	193.600000
850.750610	194.400000
850.784424	198.500000
850.818176	190.700000
850.851929	191.700000
850.885742	190.800000
850.919495	192.300000
850.953308	200.100000
850.987122	201.900000
851.020874	189.100000
851.054626	186.000000
851.088440	196.900000
851.122192	198.800000
851.156006	195.300000
851.189697	193.200000
851.223511	189.000000
851.257263	199.400000
851.291077	197.000000
851.324829	192.300000
851.358582	191.700000
851.392334	191.600000
851.426086	193.200000
851.459900	202.000000
851.493591	194.400000
851.527344	195.000000
851.561157	193.900000
851.594849	196.000000
851.628662	197.000000
851.662415	201.400000
851.696106	197.400000
851.729858	198.000000
851.763611	188.800000
851.797363	194.600000
851.831116	191.300000
851.864868	195.200000
851.898560	199.900000
851.932312	191.300000
851.966064	197.700000
851.999817	193.100000
852.033569	194.500000
852.067261	197.600000
852.101013	191.000000
852.134766	192.800000
852.168457	184.400000
852.202209	198.800000
852.235901	190.500000
852.269592	196.000000
852.303345	203.500000
852.337036	197.100000
852.370789	194.800000
852.404541	198.100000
852.438171	191.300000
852.471924	194.100000
852.505676	188.600000
852.539307	196.500000
852.573059	191.900000
852.606812	191.900000
852.640442	194.400000
852.674194	199.700000
852.707886	205.600000
852.741577	202.200000
852.775269	190.000000
852.809021	195.800000
852.842651	197.600000
852.876404	198.600000
852.910034	196.600000
852.943787	199.200000
852.977478	197.500000
853.011108	190.900000
853.044861	191.800000
853.078552	202.800000
853.112183	195.500000
853.145874	196.500000
853.179626	186.000000
853.213257	197.000000
853.246948	191.700000
853.280640	203.300000
853.314270	192.700000
853.347961	201.800000
853.381653	197.300000
853.415283	199.500000
853.448975	190.100000
853.482605	197.000000
853.516296	193.400000
853.549988	189.600000
853.583618	193.800000
853.617310	196.600000
853.651001	195.100000
853.684631	190.700000
853.718323	191.900000
853.751953	204.500000
853.785583	183.700000
853.819275	199.400000
853.852966	193.100000
853.886536	186.900000
853.920227	187.600000
853.953918	200.100000
853.987488	191.700000
854.021179	198.400000
854.054749	201.900000
854.088440	195.600000
854.122131	189.900000
854.155701	199.000000
854.189331	190.500000
854.223022	197.700000
854.256592	196.300000
854.290283	191.800000
854.323914	197.500000
854.357483	195.500000
854.391174	196.600000
854.424744	204.600000
854.458374	196.300000
854.492065	204.800000
854.525696	192.500000
854.559265	201.000000
854.592896	206.100000
854.626465	194.300000
854.660095	195.100000
854.693787	195.400000
854.727356	193.300000
854.760986	198.000000
854.794617	196.200000
854.828186	192.700000
854.861816	198.400000
854.895447	193.800000
854.929016	197.500000
854.962585	195.600000
854.996155	204.400000
855.029785	195.800000
855.063416	197.400000
855.097046	197.700000
855.130615	190.100000
855.164185	199.400000
855.197754	195.800000
855.231384	196.800000
855.264954	194.500000
855.298523	197.600000
855.332153	196.100000
855.365723	203.300000
855.399292	191.800000
855.432922	193.300000
855.466492	197.500000
855.500061	188.600000
855.533630	191.900000
855.567200	197.500000
855.600769	200.500000
855.634338	198.400000
855.667969	196.900000
855.701477	188.900000
855.735046	190.100000
855.768616	185.300000
855.802185	195.000000
855.835754	209.800000
855.869324	186.600000
855.902893	193.000000
855.936401	201.700000
855.969971	196.200000
856.003540	186.800000
856.037109	198.700000
856.070618	194.600000
856.104187	188.900000
856.137695	193.000000
856.171265	185.100000
856.204834	194.400000
856.238403	200.200000
856.271912	191.600000
856.305481	198.400000
856.338989	188.200000
856.372559	198.300000
856.406128	196.000000
856.439636	199.300000
856.473145	191.900000
856.506653	201.000000
856.540222	193.400000
856.573792	203.300000
856.607300	197.500000
856.640808	189.500000
856.674377	194.000000
856.707825	224.100000
856.741394	196.300000
856.774902	190.500000
856.808472	185.400000
856.841980	197.900000
856.875488	201.700000
856.908936	188.200000
856.942505	191.200000
856.976013	195.100000
857.009521	188.700000
857.043030	195.700000
857.076477	193.000000
857.110046	200.700000
857.143555	194.800000
857.177063	200.600000
857.210571	191.200000
857.244080	188.100000
857.277527	197.900000
857.311035	194.000000
857.344543	197.700000
857.378052	195.200000
857.411499	199.000000
857.445068	204.600000
857.478516	192.700000
857.512024	189.200000
857.545532	192.800000
857.578979	197.600000
857.612427	195.600000
857.645874	190.300000
857.679382	195.700000
857.712891	198.500000
857.746399	194.700000
857.779846	200.500000
857.813354	200.700000
857.846741	194.500000
857.880249	192.900000
857.913757	196.200000
857.947266	197.200000
857.980652	196.300000
858.014160	191.100000
858.047546	192.300000
858.081055	194.900000
858.114563	203.300000
858.147949	188.600000
858.181458	198.200000
858.214844	194.100000
858.248352	184.600000
858.281799	200.600000
858.315308	206.800000
858.348694	198.100000
858.382141	203.100000
858.415588	198.500000
858.449036	200.000000
858.482483	197.900000
858.515930	189.300000
858.549377	195.500000
858.582825	200.000000
858.616211	199.400000
858.649658	195.900000
858.683105	190.000000
858.716553	188.900000
858.750000	190.300000
858.783386	192.400000
858.816833	186.900000
858.850281	194.100000
858.883728	197.500000
858.917114	192.600000
858.950562	204.300000
858.983948	203.200000
859.017395	199.700000
859.050781	191.700000
859.084167	190.200000
859.117615	188.400000
859.151062	197.100000
859.184448	190.800000
859.217834	192.700000
859.251282	193.800000
859.284668	191.500000
859.318054	185.100000
859.351440	192.100000
859.384888	204.000000
859.418274	186.400000
859.451721	186.800000
859.485046	196.800000
859.518494	194.900000
859.551819	191.200000
859.585266	198.400000
859.618652	196.500000
859.652039	190.200000
859.685425	189.300000
859.718811	189.200000
859.752197	182.200000
859.785583	203.500000
859.819031	200.900000
859.852356	199.600000
859.885742	189.900000
859.919067	195.600000
859.952454	191.700000
859.985901	200.600000
860.019287	191.200000
860.052612	0.000000
860.085999	0.000000
860.119324	0.000000
860.152710	0.000000
860.186096	0.000000
860.219421	0.000000
860.252808	0.000000
860.286133	0.000000
860.319519	0.000000
860.352905	0.000000
860.386292	0.000000
860.419617	0.000000
860.452942	0.000000
860.486267	0.000000
860.519653	0.000000
860.553040	0.000000
860.586365	0.000000
860.619690	0.000000
860.653076	0.000000
860.686340	0.000000
860.719727	0.000000
860.753113	0.000000
860.786377	0.000000
860.819763	0.000000
860.853027	0.000000
860.886414	0.000000
860.919739	0.000000
860.953125	0.000000
860.986389	0.000000
861.019714	0.000000
861.053040	0.000000
861.086365	0.000000
861.119690	0.000000
861.153076	0.000000
861.186340	0.000000
861.219666	0.000000
861.252930	0.000000
861.286316	0.000000
861.319641	0.000000
861.352905	0.000000
861.386230	0.000000
861.419495	0.000000
861.452820	0.000000
861.486145	0.000000
861.519470	0.000000
861.552734	0.000000
861.586060	0.000000
861.619324	0.000000
861.652649	0.000000
861.685974	0.000000
861.719238	0.000000
861.752563	0.000000
861.785828	0.000000
861.819092	0.000000
861.852417	0.000000
861.885742	0.000000
861.918945	0.000000
861.952271	0.000000
861.985535	0.000000
862.018799	0.000000
862.052124	0.000000
862.085449	0.000000
862.118652	0.000000
862.151978	0.000000
862.185181	0.000000
862.218506	0.000000
862.251770	0.000000
862.285034	0.000000
862.318298	0.000000
862.351562	0.000000
862.384827	0.000000
862.418091	0.000000
862.451355	0.000000
862.484619	0.000000
862.517883	0.000000
862.551086	0.000000
862.584351	0.000000
862.617676	0.000000
862.650940	0.000000
862.684143	0.000000
862.717407	0.000000
862.750610	0.000000
862.783875	0.000000
862.817139	0.000000
862.850342	0.000000
862.883606	0.000000
862.916870	0.000000
862.950073	0.000000
862.983337	0.000000
863.016602	0.000000
863.049805	0.000000
863.083069	0.000000
863.116211	0.000000
863.149475	0.000000
863.182739	0.000000
863.216003	0.000000
863.249146	0.000000
863.282410	0.000000
863.315613	0.000000
863.348816	0.000000
863.382080	0.000000
863.415222	0.000000
863.448486	0.000000
863.481689	0.000000
863.514893	0.000000
863.548157	0.000000
863.581360	0.000000
863.614502	0.000000
863.647766	0.000000
863.680908	0.000000
863.714172	0.000000
863.747375	0.000000
863.780579	0.000000
863.813721	0.000000
863.846985	0.000000
863.880127	0.000000
863.913330	0.000000
863.946533	0.000000
863.979675	0.000000
864.012939	0.000000
