Model Number: SPM-001-M   
Serial Number: 10090201
Firmware Version: 004.17.6
Exposure Time: 500000.000000us
Data Taken on: 10-03-2021 10:43:29.495
Wavelength	Amplitude
733.770752	0.000000
733.808716	0.000000
733.846619	0.000000
733.884583	0.000000
733.922546	0.000000
733.960449	0.000000
733.998413	0.000000
734.036377	0.000000
734.074219	0.000000
734.112183	0.000000
734.150085	0.000000
734.188049	0.000000
734.226013	0.000000
734.263916	0.000000
734.301819	0.000000
734.339783	0.000000
734.377686	0.000000
734.415588	0.000000
734.453552	0.000000
734.491455	0.000000
734.529419	0.000000
734.567322	0.000000
734.605225	0.000000
734.643127	0.000000
734.681091	0.000000
734.718994	0.000000
734.756897	0.000000
734.794800	0.000000
734.832703	0.000000
734.870667	0.000000
734.908508	0.000000
734.946472	0.000000
734.984375	0.000000
735.022278	0.000000
735.060181	0.000000
735.098083	0.000000
735.135986	0.000000
735.173889	0.000000
735.211792	0.000000
735.249695	0.000000
735.287598	0.000000
735.325439	0.000000
735.363403	0.000000
735.401306	0.000000
735.439148	0.000000
735.477051	0.000000
735.515015	0.000000
735.552856	0.000000
735.590759	0.000000
735.628662	0.000000
735.666504	0.000000
735.704407	0.000000
735.742310	0.000000
735.780212	0.000000
735.818115	0.000000
735.856018	0.000000
735.893860	0.000000
735.931763	0.000000
735.969604	0.000000
736.007507	0.000000
736.045410	0.000000
736.083252	0.000000
736.121094	0.000000
736.158997	0.000000
736.196838	0.000000
736.234741	0.000000
736.272644	0.000000
736.310486	0.000000
736.348389	0.000000
736.386230	0.000000
736.424072	0.000000
736.461975	0.000000
736.499878	0.000000
736.537720	0.000000
736.575562	0.000000
736.613403	0.000000
736.651306	0.000000
736.689148	0.000000
736.726990	0.000000
736.764893	0.000000
736.802734	0.000000
736.840576	0.000000
736.878418	0.000000
736.916321	0.000000
736.954102	0.000000
736.992004	0.000000
737.029846	0.000000
737.067688	0.000000
737.105530	0.000000
737.143372	0.000000
737.181213	0.000000
737.219116	0.000000
737.256897	0.000000
737.294739	0.000000
737.332642	0.000000
737.370422	0.000000
737.408325	0.000000
737.446167	0.000000
737.483948	0.000000
737.521790	0.000000
737.559692	0.000000
737.597473	0.000000
737.635315	0.000000
737.673157	0.000000
737.710999	0.000000
737.748840	0.000000
737.786621	0.000000
737.824463	0.000000
737.862305	0.000000
737.900085	0.000000
737.937927	0.000000
737.975769	0.000000
738.013550	0.000000
738.051392	0.000000
738.089233	0.000000
738.127014	0.000000
738.164856	0.000000
738.202698	0.000000
738.240479	0.000000
738.278320	0.000000
738.316162	0.000000
738.353943	0.000000
738.391785	0.000000
738.429565	0.000000
738.467407	0.000000
738.505188	0.000000
738.542969	0.000000
738.580811	0.000000
738.618652	0.000000
738.656372	0.000000
738.694214	0.000000
738.732056	0.000000
738.769836	0.000000
738.807617	0.000000
738.845459	0.000000
738.883240	0.000000
738.921021	0.000000
738.958862	0.000000
738.996582	0.000000
739.034424	0.000000
739.072205	0.000000
739.109985	0.000000
739.147827	0.000000
739.185547	0.000000
739.223389	0.000000
739.261169	0.000000
739.298889	0.000000
739.336731	0.000000
739.374512	0.000000
739.412292	0.000000
739.450073	0.000000
739.487854	0.000000
739.525635	0.000000
739.563416	0.000000
739.601135	0.000000
739.638977	0.000000
739.676758	0.000000
739.714478	0.000000
739.752258	0.000000
739.790100	0.000000
739.827820	0.000000
739.865601	0.000000
739.903381	0.000000
739.941101	0.000000
739.978882	195.400000
740.016724	191.100000
740.054443	198.500000
740.092224	190.300000
740.130005	188.300000
740.167725	189.600000
740.205505	188.700000
740.243225	200.000000
740.281006	194.800000
740.318787	186.300000
740.356506	199.900000
740.394287	199.000000
740.432068	188.700000
740.469727	187.300000
740.507507	196.500000
740.545288	194.100000
740.583008	195.300000
740.620789	194.500000
740.658569	184.200000
740.696228	193.600000
740.734009	199.700000
740.771790	181.500000
740.809509	197.000000
740.847229	187.800000
740.884949	190.600000
740.922729	186.800000
740.960449	191.000000
740.998169	188.200000
741.035950	189.400000
741.073669	194.600000
741.111389	193.100000
741.149170	202.500000
741.186890	204.900000
741.224609	197.100000
741.262329	194.900000
741.300110	203.300000
741.337769	187.800000
741.375549	186.600000
741.413208	194.800000
741.450989	187.700000
741.488708	191.400000
741.526367	189.600000
741.564148	197.600000
741.601868	197.400000
741.639526	193.400000
741.677307	193.900000
741.715027	194.600000
741.752686	187.800000
741.790466	200.700000
741.828186	196.400000
741.865845	189.200000
741.903564	184.000000
741.941345	193.200000
741.979004	188.100000
742.016724	196.500000
742.054382	193.900000
742.092102	200.600000
742.129822	185.900000
742.167480	191.100000
742.205200	190.700000
742.242920	195.300000
742.280640	197.400000
742.318359	187.700000
742.356079	188.700000
742.393738	197.200000
742.431396	190.900000
742.469116	196.100000
742.506775	182.400000
742.544495	195.700000
742.582214	196.400000
742.619873	192.800000
742.657593	199.700000
742.695251	198.000000
742.732971	193.000000
742.770630	194.100000
742.808289	192.900000
742.846008	192.700000
742.883728	196.400000
742.921326	193.500000
742.959045	190.300000
742.996765	192.000000
743.034424	193.500000
743.072083	189.900000
743.109802	194.000000
743.147400	186.500000
743.185120	195.300000
743.222839	192.800000
743.260437	200.000000
743.298157	195.400000
743.335754	185.100000
743.373474	190.400000
743.411133	185.700000
743.448792	192.600000
743.486450	191.900000
743.524170	184.500000
743.561768	194.400000
743.599487	199.500000
743.637146	205.000000
743.674744	191.200000
743.712463	191.700000
743.750122	193.200000
743.787720	195.200000
743.825439	189.200000
743.863037	190.800000
743.900696	192.200000
743.938416	217.900000
743.976013	191.400000
744.013672	202.000000
744.051331	198.300000
744.088928	203.100000
744.126587	198.500000
744.164307	193.200000
744.201904	190.100000
744.239563	197.800000
744.277222	195.500000
744.314819	192.800000
744.352478	201.300000
744.390137	196.200000
744.427734	195.900000
744.465393	190.900000
744.502991	188.000000
744.540649	195.900000
744.578308	194.900000
744.615906	186.700000
744.653564	182.500000
744.691223	196.700000
744.728821	185.500000
744.766418	191.800000
744.804077	195.900000
744.841675	189.200000
744.879333	186.500000
744.916992	192.100000
744.954529	190.200000
744.992187	198.800000
745.029785	191.600000
745.067444	189.300000
745.105042	194.800000
745.142639	194.800000
745.180298	201.600000
745.217896	190.600000
745.255493	191.400000
745.293152	197.000000
745.330750	196.500000
745.368347	200.900000
745.405945	196.300000
745.443604	193.100000
745.481140	197.600000
745.518799	190.600000
745.556396	197.600000
745.593994	196.800000
745.631592	193.600000
745.669189	186.200000
745.706787	195.800000
745.744385	189.100000
745.781982	195.400000
745.819580	190.300000
745.857178	191.800000
745.894775	192.600000
745.932373	194.500000
745.969971	194.000000
746.007568	184.100000
746.045166	201.400000
746.082764	199.300000
746.120300	196.300000
746.157898	196.800000
746.195557	193.000000
746.233093	187.300000
746.270691	196.300000
746.308228	195.400000
746.345825	198.700000
746.383423	196.600000
746.420959	188.700000
746.458557	190.200000
746.496155	191.600000
746.533691	191.100000
746.571289	189.400000
746.608887	192.500000
746.646423	194.700000
746.684021	194.100000
746.721619	191.100000
746.759155	192.900000
746.796753	186.100000
746.834351	187.200000
746.871826	189.200000
746.909424	199.800000
746.946960	196.400000
746.984558	192.300000
747.022156	192.500000
747.059631	199.600000
747.097229	195.200000
747.134827	191.600000
747.172363	201.700000
747.209900	195.100000
747.247498	189.000000
747.285034	200.300000
747.322571	200.800000
747.360168	191.400000
747.397644	187.100000
747.435242	197.000000
747.472778	200.800000
747.510315	191.200000
747.547913	191.000000
747.585388	199.400000
747.622925	192.600000
747.660522	183.700000
747.697998	188.900000
747.735596	193.400000
747.773132	191.000000
747.810669	192.300000
747.848206	196.500000
747.885742	188.100000
747.923279	186.800000
747.960815	195.200000
747.998352	192.700000
748.035889	199.100000
748.073425	199.000000
748.110901	190.500000
748.148437	187.800000
748.185974	194.800000
748.223511	203.900000
748.261047	193.600000
748.298584	194.000000
748.336060	192.400000
748.373596	195.800000
748.411133	212.700000
748.448608	188.400000
748.486145	198.600000
748.523682	201.400000
748.561218	200.000000
748.598755	193.400000
748.636292	197.600000
748.673706	190.400000
748.711243	199.700000
748.748718	195.100000
748.786255	192.100000
748.823792	191.900000
748.861267	188.700000
748.898804	195.400000
748.936340	196.000000
748.973816	190.200000
749.011292	198.900000
749.048828	194.600000
749.086304	196.900000
749.123840	204.800000
749.161316	187.700000
749.198792	203.100000
749.236328	200.700000
749.273743	193.500000
749.311279	191.600000
749.348816	196.200000
749.386230	193.800000
749.423767	181.800000
749.461304	196.600000
749.498718	193.900000
749.536255	201.200000
749.573730	206.200000
749.611206	199.500000
749.648682	192.500000
749.686218	193.300000
749.723633	198.700000
749.761169	190.700000
749.798645	190.700000
749.836060	191.500000
749.873596	190.900000
749.911011	193.700000
749.948547	201.400000
749.986023	192.600000
750.023437	192.000000
750.060913	185.600000
750.098450	187.600000
750.135864	192.400000
750.173340	194.400000
750.210815	198.300000
750.248291	188.300000
750.285767	193.400000
750.323242	200.600000
750.360657	194.700000
750.398132	188.100000
750.435608	197.600000
750.473022	189.400000
750.510498	188.400000
750.547974	189.400000
750.585449	192.400000
750.622925	183.500000
750.660339	202.400000
750.697815	194.700000
750.735291	192.200000
750.772644	195.800000
750.810120	192.300000
750.847595	196.100000
750.885010	188.100000
750.922485	201.800000
750.959961	191.500000
750.997375	201.500000
751.034851	196.200000
751.072266	199.600000
751.109680	187.100000
751.147156	199.300000
751.184570	195.900000
751.221985	195.100000
751.259460	184.400000
751.296875	193.800000
751.334290	193.800000
751.371765	198.800000
751.409180	197.100000
751.446594	199.400000
751.484070	197.600000
751.521423	194.400000
751.558899	195.400000
751.596375	201.300000
751.633728	201.900000
751.671204	205.700000
751.708618	188.700000
751.746033	194.200000
751.783447	188.100000
751.820801	189.800000
751.858276	196.000000
751.895691	192.100000
751.933105	191.500000
751.970520	188.400000
752.007935	191.900000
752.045349	197.900000
752.082764	195.200000
752.120178	190.500000
752.157532	189.600000
752.195007	190.800000
752.232422	196.800000
752.269775	198.600000
752.307190	197.800000
752.344543	189.400000
752.382019	193.100000
752.419434	191.000000
752.456787	195.200000
752.494202	197.000000
752.531616	196.300000
752.568970	197.400000
752.606384	192.800000
752.643799	195.400000
752.681152	203.200000
752.718567	195.500000
752.755981	187.000000
752.793335	196.100000
752.830750	185.700000
752.868164	199.900000
752.905518	189.800000
752.942932	196.100000
752.980225	189.900000
753.017639	199.700000
753.055054	192.100000
753.092407	195.700000
753.129822	201.300000
753.167175	204.000000
753.204529	194.100000
753.241943	190.700000
753.279358	187.400000
753.316650	198.900000
753.354065	195.800000
753.391479	198.500000
753.428772	202.300000
753.466187	197.700000
753.503479	187.100000
753.540894	192.300000
753.578308	189.400000
753.615601	189.300000
753.653015	194.300000
753.690369	192.800000
753.727722	189.200000
753.765076	187.400000
753.802490	188.200000
753.839783	185.800000
753.877136	190.800000
753.914551	208.900000
753.951843	187.700000
753.989258	197.400000
754.026611	194.700000
754.063904	197.200000
754.101257	188.200000
754.138611	187.100000
754.175964	195.100000
754.213318	207.900000
754.250610	186.300000
754.288025	190.200000
754.325378	186.800000
754.362671	199.700000
754.400024	191.300000
754.437378	203.600000
754.474670	202.800000
754.512085	191.200000
754.549438	194.400000
754.586731	192.400000
754.624084	191.700000
754.661438	188.800000
754.698730	202.500000
754.736084	192.500000
754.773376	194.000000
754.810730	198.600000
754.848083	193.400000
754.885315	199.600000
754.922668	187.700000
754.960022	188.900000
754.997314	199.300000
755.034668	195.400000
755.072021	196.700000
755.109253	193.900000
755.146606	202.000000
755.183960	193.200000
755.221252	204.900000
755.258545	200.000000
755.295898	202.900000
755.333191	202.700000
755.370544	199.600000
755.407776	195.600000
755.445129	198.100000
755.482422	200.500000
755.519714	193.500000
755.557068	189.400000
755.594360	188.400000
755.631653	201.400000
755.668945	205.400000
755.706299	199.000000
755.743530	209.300000
755.780884	205.200000
755.818176	204.500000
755.855408	203.000000
755.892761	201.300000
755.930054	199.800000
755.967346	199.600000
756.004639	202.000000
756.041870	199.500000
756.079224	203.700000
756.116516	195.300000
756.153748	203.200000
756.191040	207.200000
756.228394	202.900000
756.265625	195.900000
756.302917	198.600000
756.340210	196.300000
756.377441	206.000000
756.414795	208.200000
756.452087	200.500000
756.489319	194.000000
756.526611	205.300000
756.563843	201.900000
756.601135	212.200000
756.638428	209.000000
756.675659	199.500000
756.712952	207.300000
756.750244	205.600000
756.787476	202.900000
756.824768	210.800000
756.862061	199.900000
756.899292	248.800000
756.936584	207.500000
756.973816	213.200000
757.011047	214.500000
757.048340	203.900000
757.085632	202.700000
757.122864	219.200000
757.160156	201.900000
757.197327	208.600000
757.234619	209.900000
757.271912	203.800000
757.309082	208.500000
757.346375	202.200000
757.383667	212.100000
757.420837	206.800000
757.458130	207.500000
757.495422	204.100000
757.532593	206.500000
757.569885	200.400000
757.607117	200.400000
757.644348	208.300000
757.681580	218.900000
757.718811	195.100000
757.756042	206.000000
757.793335	204.800000
757.830505	208.800000
757.867798	203.500000
757.905029	204.000000
757.942200	208.900000
757.979492	202.300000
758.016724	206.700000
758.053894	205.300000
758.091187	226.600000
758.128418	207.100000
758.165588	207.900000
758.202820	219.600000
758.240112	206.300000
758.277283	219.400000
758.314514	210.900000
758.351685	207.800000
758.388916	219.400000
758.426147	217.300000
758.463379	219.100000
758.500610	215.300000
758.537842	210.600000
758.575012	218.200000
758.612244	206.300000
758.649475	225.600000
758.686646	205.200000
758.723877	217.800000
758.761108	220.100000
758.798279	212.100000
758.835510	213.300000
758.872742	219.900000
758.909851	214.700000
758.947083	216.200000
758.984253	215.700000
759.021484	218.900000
759.058716	216.300000
759.095886	218.700000
759.133057	214.100000
759.170288	219.000000
759.207458	210.300000
759.244690	226.100000
759.281860	224.700000
759.319031	215.700000
759.356262	212.600000
759.393433	213.700000
759.430603	215.200000
759.467773	215.000000
759.505005	223.500000
759.542175	222.800000
759.579346	215.600000
759.616516	216.700000
759.653687	220.700000
759.690918	214.700000
759.728027	218.300000
759.765259	218.600000
759.802429	220.900000
759.839539	220.200000
759.876770	223.700000
759.913940	228.600000
759.951111	220.200000
759.988281	219.700000
760.025452	216.400000
760.062561	215.500000
760.099792	226.700000
760.136963	221.900000
760.174072	219.300000
760.211243	214.100000
760.248413	216.800000
760.285583	214.900000
760.322754	230.400000
760.359863	227.000000
760.397034	228.000000
760.434204	220.200000
760.471375	221.200000
760.508545	219.400000
760.545715	220.800000
760.582825	217.500000
760.619995	227.000000
760.657166	214.400000
760.694275	230.000000
760.731445	223.600000
760.768555	226.200000
760.805664	225.300000
760.842834	227.400000
760.879944	227.500000
760.917114	225.700000
760.954285	222.500000
760.991394	218.000000
761.028564	230.700000
761.065674	230.100000
761.102783	223.400000
761.139954	232.000000
761.177124	230.200000
761.214172	235.900000
761.251343	225.300000
761.288452	228.700000
761.325562	231.700000
761.362732	224.500000
761.399841	228.500000
761.436951	233.200000
761.474121	225.900000
761.511169	232.200000
761.548340	234.200000
761.585449	235.600000
761.622559	236.900000
761.659668	235.200000
761.696838	239.800000
761.733887	236.700000
761.771057	234.000000
761.808167	238.000000
761.845276	242.200000
761.882385	248.600000
761.919434	238.100000
761.956604	258.700000
761.993713	235.600000
762.030762	245.100000
762.067871	239.600000
762.105042	238.600000
762.142090	248.000000
762.179199	242.900000
762.216309	246.800000
762.253418	258.400000
762.290527	253.700000
762.327637	248.700000
762.364685	238.400000
762.401794	247.800000
762.438904	247.600000
762.475952	241.300000
762.513062	242.800000
762.550110	240.600000
762.587219	259.200000
762.624329	257.000000
762.661377	250.400000
762.698486	249.400000
762.735596	247.700000
762.772644	242.400000
762.809753	240.500000
762.846863	248.800000
762.883911	253.600000
762.921021	253.000000
762.958069	252.100000
762.995117	260.700000
763.032227	259.200000
763.069336	251.500000
763.106323	248.800000
763.143433	245.700000
763.180481	256.300000
763.217590	254.500000
763.254639	251.000000
763.291687	254.100000
763.328735	262.600000
763.365845	256.200000
763.402893	254.500000
763.439941	259.200000
763.477051	261.700000
763.514038	262.700000
763.551147	257.100000
763.588196	260.800000
763.625244	258.000000
763.662292	266.000000
763.699402	269.700000
763.736389	266.300000
763.773499	274.800000
763.810486	268.600000
763.847534	264.700000
763.884644	267.800000
763.921631	264.600000
763.958679	277.200000
763.995728	266.700000
764.032776	274.000000
764.069824	261.600000
764.106873	271.900000
764.143860	277.000000
764.180969	270.200000
764.218018	278.700000
764.255005	270.600000
764.292053	271.700000
764.329102	282.700000
764.366089	281.300000
764.403137	281.900000
764.440125	270.900000
764.477173	275.700000
764.514221	275.900000
764.551208	275.100000
764.588257	269.800000
764.625305	281.200000
764.662292	288.200000
764.699341	292.500000
764.736389	281.600000
764.773376	300.500000
764.810425	286.600000
764.847473	295.200000
764.884399	288.900000
764.921448	298.200000
764.958435	292.400000
764.995483	285.600000
765.032532	300.200000
765.069458	286.500000
765.106506	286.400000
765.143555	286.300000
765.180481	289.000000
765.217529	301.100000
765.254578	285.300000
765.291504	295.500000
765.328552	291.600000
765.365540	289.200000
765.402527	303.500000
765.439575	288.900000
765.476501	285.800000
765.513550	287.600000
765.550537	292.600000
765.587463	300.400000
765.624512	293.100000
765.661499	282.900000
765.698486	302.000000
765.735474	290.300000
765.772461	294.000000
765.809448	304.000000
765.846436	301.700000
765.883423	304.500000
765.920410	299.800000
765.957397	295.100000
765.994385	302.200000
766.031311	310.200000
766.068359	302.800000
766.105286	302.600000
766.142273	311.200000
766.179260	305.900000
766.216187	297.600000
766.253174	295.100000
766.290161	304.400000
766.327148	309.500000
766.364136	309.200000
766.401123	322.600000
766.438049	303.100000
766.475037	317.000000
766.512024	311.600000
766.548950	328.100000
766.585937	324.200000
766.622864	319.800000
766.659790	317.500000
766.696777	307.400000
766.733704	325.700000
766.770691	317.700000
766.807678	333.900000
766.844604	327.000000
766.881531	327.500000
766.918518	332.900000
766.955444	335.600000
766.992432	328.200000
767.029358	332.900000
767.066284	336.800000
767.103271	333.700000
767.140198	363.700000
767.177124	351.900000
767.214050	341.600000
767.251038	343.700000
767.287964	339.700000
767.324890	338.000000
767.361816	344.200000
767.398743	349.100000
767.435730	345.700000
767.472595	350.000000
767.509583	357.300000
767.546509	343.900000
767.583374	350.000000
767.620361	343.600000
767.657288	350.800000
767.694214	351.700000
767.731140	353.800000
767.768066	353.000000
767.804993	358.500000
767.841919	349.300000
767.878845	357.600000
767.915710	366.000000
767.952698	361.200000
767.989563	365.300000
768.026489	363.500000
768.063416	357.100000
768.100281	359.900000
768.137207	370.800000
768.174133	369.000000
768.211060	372.700000
768.247986	373.200000
768.284912	369.900000
768.321777	374.400000
768.358704	371.000000
768.395630	377.300000
768.432495	368.400000
768.469421	377.100000
768.506348	382.700000
768.543152	389.600000
768.580078	385.500000
768.616943	387.800000
768.653870	390.700000
768.690796	388.100000
768.727661	386.400000
768.764587	391.800000
768.801453	384.500000
768.838318	395.600000
768.875244	395.700000
768.912109	402.800000
768.948975	393.600000
768.985901	398.100000
769.022766	395.700000
769.059631	402.700000
769.096558	397.500000
769.133362	400.900000
769.170288	400.100000
769.207214	401.100000
769.244019	409.300000
769.280945	408.300000
769.317810	415.500000
769.354675	408.800000
769.391541	417.800000
769.428406	413.700000
769.465271	430.200000
769.502136	415.500000
769.539062	418.600000
769.575867	415.200000
769.612732	418.900000
769.649597	424.900000
769.686462	431.500000
769.723328	424.000000
769.760193	423.600000
769.797058	425.300000
769.833923	435.100000
769.870728	431.300000
769.907593	435.000000
769.944519	438.100000
769.981323	440.300000
770.018188	441.000000
770.055054	438.500000
770.091858	438.000000
770.128723	450.300000
770.165588	456.500000
770.202393	440.600000
770.239258	454.700000
770.276062	451.000000
770.312927	449.900000
770.349792	461.400000
770.386597	457.400000
770.423462	464.200000
770.460327	472.200000
770.497131	455.400000
770.533997	448.700000
770.570862	467.100000
770.607605	466.700000
770.644470	461.400000
770.681335	465.900000
770.718140	462.900000
770.754944	455.300000
770.791809	458.800000
770.828613	458.300000
770.865479	455.600000
770.902222	468.800000
770.939087	461.700000
770.975952	454.400000
771.012695	460.100000
771.049561	479.400000
771.086365	467.500000
771.123169	464.400000
771.159973	465.700000
771.196838	466.900000
771.233582	468.800000
771.270447	471.400000
771.307251	475.400000
771.344055	473.000000
771.380859	476.900000
771.417664	467.900000
771.454468	477.500000
771.491272	481.000000
771.528076	478.600000
771.564880	474.900000
771.601685	486.600000
771.638428	478.700000
771.675293	485.800000
771.712097	477.600000
771.748840	496.600000
771.785645	485.400000
771.822449	489.400000
771.859253	494.100000
771.896057	492.100000
771.932861	503.100000
771.969604	492.700000
772.006409	485.200000
772.043213	502.000000
772.079956	500.800000
772.116760	491.500000
772.153503	496.900000
772.190308	507.300000
772.227112	499.000000
772.263855	494.800000
772.300659	502.000000
772.337463	508.700000
772.374207	498.900000
772.411011	498.400000
772.447754	506.600000
772.484497	528.700000
772.521301	517.700000
772.558105	517.200000
772.594849	518.800000
772.631592	525.100000
772.668396	523.200000
772.705139	532.300000
772.741882	534.400000
772.778625	548.000000
772.815430	547.700000
772.852173	541.100000
772.888916	548.000000
772.925720	555.300000
772.962463	561.600000
772.999207	555.900000
773.035950	560.400000
773.072754	562.900000
773.109436	557.800000
773.146240	561.700000
773.182922	560.000000
773.219727	574.100000
773.256470	568.000000
773.293152	557.500000
773.329956	560.200000
773.366699	571.500000
773.403381	561.300000
773.440186	574.700000
773.476929	581.500000
773.513611	573.300000
773.550354	574.900000
773.587158	572.100000
773.623840	570.400000
773.660583	587.400000
773.697327	599.600000
773.734009	582.800000
773.770813	584.800000
773.807495	585.800000
773.844238	587.000000
773.880981	606.300000
773.917664	601.800000
773.954407	607.900000
773.991150	598.300000
774.027832	603.900000
774.064575	595.200000
774.101318	610.500000
774.138000	615.600000
774.174744	610.300000
774.211487	615.500000
774.248108	604.200000
774.284851	603.900000
774.321594	620.300000
774.358276	622.000000
774.395020	633.500000
774.431702	624.700000
774.468384	620.600000
774.505127	620.000000
774.541809	634.200000
774.578491	650.700000
774.615234	649.000000
774.651917	644.000000
774.688599	649.500000
774.725342	655.400000
774.762024	654.800000
774.798706	661.600000
774.835449	659.700000
774.872070	667.800000
774.908813	663.400000
774.945496	658.800000
774.982178	663.500000
775.018860	670.800000
775.055542	671.500000
775.092224	675.500000
775.128967	681.600000
775.165588	676.700000
775.202271	664.200000
775.239014	683.800000
775.275635	682.900000
775.312317	682.500000
775.349060	687.200000
775.385681	685.500000
775.422363	678.500000
775.459045	695.300000
775.495667	692.500000
775.532410	701.800000
775.569092	698.100000
775.605713	697.100000
775.642395	698.300000
775.679016	701.500000
775.715698	700.800000
775.752380	711.300000
775.789001	705.400000
775.825684	704.300000
775.862366	702.400000
775.898987	716.100000
775.935669	707.300000
775.972351	732.900000
776.008972	728.100000
776.045654	728.400000
776.082336	719.700000
776.118958	719.700000
776.155640	725.000000
776.192322	737.200000
776.228882	740.500000
776.265564	735.400000
776.302185	729.500000
776.338867	737.900000
776.375488	726.000000
776.412109	739.800000
776.448792	746.700000
776.485413	753.700000
776.522034	741.200000
776.558716	729.200000
776.595337	728.800000
776.631958	741.000000
776.668579	739.700000
776.705261	744.500000
776.741882	742.700000
776.778503	735.900000
776.815186	728.100000
776.851746	741.400000
776.888367	744.600000
776.924988	751.700000
776.961609	746.200000
776.998291	742.100000
777.034851	736.900000
777.071472	747.300000
777.108154	746.200000
777.144714	758.300000
777.181335	756.800000
777.218018	744.000000
777.254578	757.000000
777.291199	755.500000
777.327759	763.800000
777.364380	766.400000
777.401062	776.400000
777.437622	793.500000
777.474243	776.500000
777.510864	784.500000
777.547424	781.900000
777.584045	789.100000
777.620667	790.800000
777.657227	798.400000
777.693848	794.500000
777.730469	812.300000
777.767029	805.100000
777.803650	811.000000
777.840271	799.400000
777.876831	801.500000
777.913452	813.400000
777.950012	788.600000
777.986633	793.800000
778.023193	792.400000
778.059753	793.300000
778.096375	796.200000
778.132996	808.100000
778.169556	799.900000
778.206116	796.600000
778.242737	795.600000
778.279297	808.500000
778.315857	802.800000
778.352478	806.900000
778.389038	817.500000
778.425598	819.900000
778.462219	834.900000
778.498718	828.500000
778.535339	836.900000
778.571838	843.900000
778.608459	850.600000
778.645020	851.300000
778.681580	859.700000
778.718140	862.500000
778.754761	862.400000
778.791260	865.800000
778.827881	869.900000
778.864441	867.900000
778.900940	873.700000
778.937561	873.500000
778.974121	883.500000
779.010620	863.400000
779.047241	867.600000
779.083801	885.500000
779.120300	884.800000
779.156860	890.000000
779.193359	879.700000
779.229980	886.700000
779.266541	901.500000
779.303040	896.300000
779.339600	888.400000
779.376160	886.000000
779.412659	894.700000
779.449219	886.900000
779.485779	900.600000
779.522278	900.500000
779.558838	907.600000
779.595398	903.100000
779.631897	903.600000
779.668457	895.700000
779.705017	913.500000
779.741516	907.000000
779.778076	898.200000
779.814575	908.000000
779.851074	924.300000
779.887634	913.700000
779.924133	921.100000
779.960693	911.600000
779.997253	918.300000
780.033691	927.300000
780.070251	930.500000
780.106812	940.100000
780.143250	940.400000
780.179810	938.300000
780.216370	945.500000
780.252808	955.700000
780.289368	968.100000
780.325867	970.200000
780.362366	954.100000
780.398865	968.800000
780.435364	963.100000
780.471863	982.500000
780.508423	983.800000
780.544861	992.600000
780.581421	996.200000
780.617920	980.300000
780.654419	986.100000
780.690918	996.500000
780.727417	996.300000
780.763916	995.800000
780.800415	999.800000
780.836914	981.800000
780.873352	991.400000
780.909912	983.700000
780.946411	995.600000
780.982849	1009.300000
781.019348	1029.200000
781.055786	1019.700000
781.092346	1014.000000
781.128845	1031.400000
781.165283	1039.000000
781.201782	1042.900000
781.238281	1042.200000
781.274719	1052.400000
781.311218	1041.200000
781.347717	1047.600000
781.384155	1039.500000
781.420654	1043.800000
781.457092	1056.000000
781.493591	1044.900000
781.530090	1039.400000
781.566528	1044.800000
781.602966	1055.500000
781.639465	1046.800000
781.675903	1048.400000
781.712402	1053.900000
781.748901	1057.500000
781.785278	1052.000000
781.821777	1052.100000
781.858276	1046.200000
781.894714	1064.900000
781.931152	1066.300000
781.967651	1076.800000
782.004089	1067.300000
782.040527	1069.900000
782.076965	1070.600000
782.113403	1071.900000
782.149902	1077.000000
782.186340	1069.500000
782.222778	1079.800000
782.259277	1067.500000
782.295654	1064.500000
782.332092	1079.700000
782.368591	1072.700000
782.404968	1063.900000
782.441467	1066.600000
782.477905	1074.900000
782.514282	1066.000000
782.550781	1093.700000
782.587219	1082.000000
782.623596	1078.500000
782.660095	1089.200000
782.696472	1095.700000
782.732910	1110.400000
782.769348	1111.700000
782.805786	1122.800000
782.842224	1115.800000
782.878662	1112.400000
782.915039	1106.100000
782.951477	1108.900000
782.987915	1109.400000
783.024292	1118.900000
783.060730	1105.400000
783.097168	1092.300000
783.133545	1097.500000
783.169983	1094.300000
783.206421	1089.600000
783.242798	1082.100000
783.279236	1075.000000
783.315613	1075.100000
783.352051	1067.500000
783.388489	1054.700000
783.424866	1040.600000
783.461304	1042.000000
783.497681	1047.100000
783.534058	1051.200000
783.570496	1051.800000
783.606934	1043.500000
783.643250	1051.900000
783.679687	1063.700000
783.716125	1051.400000
783.752441	1072.900000
783.788879	1094.400000
783.825317	1095.500000
783.861633	1104.100000
783.898071	1105.900000
783.934448	1124.900000
783.970825	1138.200000
784.007263	1124.600000
784.043579	1100.900000
784.080017	1047.800000
784.116394	942.600000
784.152710	835.600000
784.189148	768.200000
784.225525	738.700000
784.261902	764.800000
784.298279	842.800000
784.334656	945.500000
784.371033	1033.800000
784.407410	1094.900000
784.443787	1108.100000
784.480164	1101.400000
784.516541	1084.700000
784.552856	1084.100000
784.589233	1087.200000
784.625610	1087.400000
784.661987	1124.200000
784.698364	1100.000000
784.734741	1099.400000
784.771057	1096.100000
784.807434	1100.600000
784.843811	1122.800000
784.880127	1126.900000
784.916504	1168.400000
784.952881	1165.900000
784.989197	1155.300000
785.025574	1156.300000
785.061951	1160.000000
785.098267	1200.900000
785.134644	1198.800000
785.170959	1199.700000
785.207275	1199.800000
785.243652	1201.700000
785.279968	1187.300000
785.316345	1197.800000
785.352722	1202.900000
785.388977	1204.400000
785.425354	1180.200000
785.461731	1160.100000
785.498047	1147.200000
785.534363	1141.400000
785.570679	1137.000000
785.606995	1149.100000
785.643372	1149.100000
785.679687	1136.100000
785.716003	1122.400000
785.752380	1119.300000
785.788635	1136.800000
785.825012	1153.800000
785.861328	1167.000000
785.897644	1143.600000
785.933960	1167.500000
785.970337	1178.900000
786.006592	1188.900000
786.042908	1208.800000
786.079285	1231.800000
786.115540	1240.300000
786.151855	1228.800000
786.188171	1221.400000
786.224487	1223.700000
786.260803	1229.000000
786.297119	1254.700000
786.333435	1248.400000
786.369751	1236.100000
786.406006	1237.200000
786.442322	1215.000000
786.478638	1204.600000
786.514954	1226.700000
786.551270	1221.200000
786.587585	1234.400000
786.623840	1222.000000
786.660156	1217.000000
786.696472	1192.600000
786.732727	1190.200000
786.769043	1199.000000
786.805298	1193.700000
786.841614	1188.100000
786.877930	1188.700000
786.914124	1173.100000
786.950439	1191.100000
786.986755	1210.100000
787.023010	1224.000000
787.059326	1231.900000
787.095642	1238.100000
787.131836	1259.300000
787.168152	1248.500000
787.204468	1250.100000
787.240723	1263.000000
787.276978	1284.000000
787.313293	1287.600000
787.349548	1283.400000
787.385803	1287.000000
787.422058	1278.100000
787.458313	1280.600000
787.494629	1280.500000
787.530823	1286.000000
787.567139	1275.900000
787.603455	1257.700000
787.639648	1239.300000
787.675903	1250.500000
787.712219	1244.100000
787.748413	1241.800000
787.784729	1246.800000
787.820984	1237.200000
787.857178	1227.200000
787.893494	1214.800000
787.929749	1207.300000
787.965942	1214.600000
788.002258	1232.900000
788.038452	1246.800000
788.074707	1232.500000
788.110962	1228.500000
788.147217	1224.300000
788.183472	1235.800000
788.219727	1256.300000
788.255920	1277.000000
788.292175	1282.200000
788.328430	1269.300000
788.364624	1251.800000
788.400879	1245.700000
788.437134	1254.000000
788.473328	1262.100000
788.509583	1260.500000
788.545837	1247.200000
788.582031	1241.700000
788.618286	1230.400000
788.654480	1230.800000
788.690735	1235.600000
788.726990	1258.800000
788.763184	1255.400000
788.799377	1267.100000
788.835632	1255.700000
788.871826	1273.200000
788.908081	1273.900000
788.944336	1271.800000
788.980469	1288.400000
789.016724	1282.000000
789.052979	1285.600000
789.089111	1257.900000
789.125366	1262.000000
789.161621	1244.900000
789.197754	1257.500000
789.234009	1253.900000
789.270142	1231.500000
789.306396	1209.800000
789.342590	1200.800000
789.378784	1180.100000
789.414978	1187.100000
789.451233	1203.100000
789.487366	1204.400000
789.523621	1212.200000
789.559814	1195.100000
789.595947	1182.700000
789.632202	1204.600000
789.668335	1212.300000
789.704529	1237.500000
789.740784	1264.300000
789.776917	1252.500000
789.813110	1240.000000
789.849304	1253.200000
789.885498	1254.500000
789.921692	1277.200000
789.957886	1284.300000
789.994019	1280.800000
790.030212	1276.700000
790.066406	1288.100000
790.102539	1283.100000
790.138733	1289.500000
790.174927	1282.600000
790.211060	1291.900000
790.247253	1281.800000
790.283386	1262.400000
790.319580	1240.200000
790.355774	1230.000000
790.391907	1241.900000
790.428101	1265.600000
790.464294	1264.400000
790.500427	1270.600000
790.536621	1244.400000
790.572754	1231.000000
790.608887	1234.900000
790.645081	1252.800000
790.681274	1261.300000
790.717346	1257.200000
790.753540	1210.900000
790.789734	1124.700000
790.825867	1055.300000
790.862000	1049.700000
790.898132	1092.100000
790.934265	1147.100000
790.970459	1210.800000
791.006592	1234.900000
791.042725	1243.000000
791.078918	1231.800000
791.114990	1233.600000
791.151184	1252.600000
791.187317	1281.000000
791.223389	1272.900000
791.259583	1257.700000
791.295715	1260.200000
791.331848	1261.200000
791.367981	1279.800000
791.404114	1287.000000
791.440247	1275.300000
791.476379	1281.200000
791.512451	1267.600000
791.548584	1268.700000
791.584778	1256.500000
791.620850	1270.000000
791.656982	1285.500000
791.693115	1272.800000
791.729187	1264.900000
791.765381	1260.600000
791.801514	1265.600000
791.837585	1261.000000
791.873718	1267.400000
791.909851	1287.700000
791.945923	1302.000000
791.982056	1265.200000
792.018188	1256.200000
792.054260	1259.900000
792.090393	1260.300000
792.126465	1257.300000
792.162598	1274.000000
792.198669	1249.700000
792.234741	1245.400000
792.270874	1239.900000
792.307007	1223.000000
792.343079	1229.100000
792.379150	1248.900000
792.415283	1229.900000
792.451355	1227.300000
792.487488	1202.500000
792.523560	1208.000000
792.559631	1209.500000
792.595764	1198.300000
792.631836	1208.600000
792.667908	1216.500000
792.703979	1192.400000
792.740051	1190.900000
792.776184	1200.800000
792.812256	1206.300000
792.848328	1219.600000
792.884399	1225.400000
792.920471	1222.400000
792.956543	1213.600000
792.992615	1208.400000
793.028748	1202.800000
793.064758	1214.200000
793.100830	1233.500000
793.136963	1244.500000
793.172974	1234.500000
793.209045	1231.400000
793.245178	1240.800000
793.281189	1228.200000
793.317261	1233.900000
793.353271	1240.400000
793.389404	1245.300000
793.425476	1233.300000
793.461487	1223.300000
793.497559	1210.500000
793.533630	1224.900000
793.569641	1228.600000
793.605713	1230.800000
793.641785	1236.800000
793.677795	1240.900000
793.713867	1225.100000
793.749878	1225.500000
793.785950	1238.800000
793.822021	1251.700000
793.858032	1232.700000
793.894104	1244.800000
793.930176	1232.400000
793.966187	1236.100000
794.002258	1222.400000
794.038269	1229.100000
794.074280	1223.100000
794.110352	1250.400000
794.146423	1216.600000
794.182373	1209.400000
794.218445	1198.700000
794.254517	1197.400000
794.290466	1180.800000
794.326538	1190.700000
794.362549	1196.800000
794.398560	1198.400000
794.434631	1195.400000
794.470581	1158.100000
794.506653	1152.000000
794.542664	1162.600000
794.578674	1164.300000
794.614685	1171.500000
794.650757	1161.400000
794.686707	1154.400000
794.722778	1134.000000
794.758789	1151.100000
794.794739	1160.700000
794.830811	1186.800000
794.866821	1200.000000
794.902771	1190.800000
794.938843	1185.300000
794.974792	1177.200000
795.010803	1179.000000
795.046814	1174.100000
795.082825	1163.900000
795.118835	1181.200000
795.154846	1163.100000
795.190796	1163.000000
795.226807	1138.800000
795.262817	1148.700000
795.298767	1142.300000
795.334778	1147.900000
795.370850	1141.900000
795.406799	1136.400000
795.442810	1111.700000
795.478821	1110.200000
795.514709	1108.100000
795.550720	1131.100000
795.586670	1114.500000
795.622681	1119.900000
795.658691	1110.300000
795.694641	1104.600000
795.730652	1092.100000
795.766663	1100.100000
795.802551	1102.300000
795.838562	1120.000000
795.874573	1108.300000
795.910522	1107.500000
795.946472	1091.600000
795.982483	1100.100000
796.018433	1098.800000
796.054382	1115.200000
796.090393	1094.900000
796.126282	1093.200000
796.162292	1079.300000
796.198242	1078.400000
796.234192	1075.400000
796.270203	1080.900000
796.306091	1078.200000
796.342041	1095.300000
796.378052	1081.900000
796.413940	1068.600000
796.449951	1076.500000
796.485901	1068.600000
796.521790	1071.600000
796.557800	1089.500000
796.593689	1092.400000
796.629639	1078.100000
796.665649	1070.400000
796.701599	1067.100000
796.737488	1066.900000
796.773437	1073.600000
796.809387	1071.500000
796.845337	1071.200000
796.881287	1060.500000
796.917175	1039.100000
796.953125	1037.600000
796.989075	1049.700000
797.024963	1062.400000
797.060913	1059.400000
797.096863	1057.800000
797.132751	1051.800000
797.168701	1025.700000
797.204590	1034.500000
797.240540	1036.400000
797.276489	1047.200000
797.312439	1043.000000
797.348328	1040.000000
797.384277	1030.900000
797.420166	1023.400000
797.456055	1024.000000
797.492004	1024.900000
797.527893	1026.100000
797.563843	1031.100000
797.599731	1016.700000
797.635620	1004.800000
797.671570	1011.200000
797.707520	1009.900000
797.743347	1016.700000
797.779297	1021.500000
797.815125	1019.400000
797.851074	1007.900000
797.887024	999.000000
797.922913	993.800000
797.958801	1006.700000
797.994690	1010.100000
798.030579	1020.200000
798.066467	1019.200000
798.102356	992.800000
798.138245	988.300000
798.174133	981.600000
798.210083	989.900000
798.245911	998.300000
798.281799	1002.900000
798.317749	994.300000
798.353577	984.700000
798.389465	980.500000
798.425293	981.300000
798.461243	979.800000
798.497131	985.700000
798.532959	989.900000
798.568848	987.000000
798.604736	968.300000
798.640564	954.100000
798.676453	958.200000
798.712402	964.300000
798.748230	972.600000
798.784119	969.700000
798.820007	971.100000
798.855835	965.500000
798.891724	957.100000
798.927551	955.800000
798.963379	966.000000
798.999268	953.500000
799.035095	957.500000
799.070984	950.700000
799.106873	939.700000
799.142700	945.800000
799.178528	938.700000
799.214417	941.500000
799.250244	955.600000
799.286133	942.500000
799.321960	936.900000
799.357788	929.100000
799.393677	931.000000
799.429504	928.500000
799.465332	928.100000
799.501221	938.300000
799.537048	941.500000
799.572876	926.100000
799.608704	927.100000
799.644531	937.700000
799.680359	931.000000
799.716248	940.600000
799.752014	946.900000
799.787903	932.600000
799.823730	932.700000
799.859558	915.300000
799.895386	925.900000
799.931213	923.900000
799.967041	915.900000
800.002869	915.400000
800.038696	927.400000
800.074463	901.900000
800.110352	900.600000
800.146179	896.800000
800.181946	909.600000
800.217773	908.300000
800.253540	902.300000
800.289429	893.800000
800.325256	889.900000
800.361023	877.000000
800.396851	878.700000
800.432678	880.200000
800.468445	880.500000
800.504272	870.500000
800.540100	857.800000
800.575867	856.900000
800.611694	859.600000
800.647461	853.300000
800.683289	857.000000
800.719116	857.400000
800.754883	857.400000
800.790649	837.300000
800.826477	826.900000
800.862244	851.200000
800.898071	837.000000
800.933838	833.100000
800.969604	828.000000
801.005432	824.000000
801.041199	824.400000
801.076965	818.400000
801.112793	806.500000
801.148560	800.800000
801.184326	805.400000
801.220154	813.800000
801.255859	794.300000
801.291687	790.300000
801.327454	782.100000
801.363281	781.000000
801.398987	780.300000
801.434814	783.100000
801.470520	793.900000
801.506287	777.200000
801.542114	774.000000
801.577820	776.200000
801.613647	773.000000
801.649414	768.500000
801.685120	768.600000
801.720886	771.500000
801.756714	763.800000
801.792419	755.400000
801.828186	750.800000
801.863892	763.300000
801.899719	755.600000
801.935486	744.800000
801.971252	752.800000
802.006958	738.800000
802.042725	733.000000
802.078430	736.700000
802.114197	731.500000
802.149963	746.800000
802.185669	739.800000
802.221436	734.600000
802.257202	732.000000
802.292908	727.100000
802.328674	737.000000
802.364441	731.400000
802.400146	726.500000
802.435913	718.300000
802.471558	717.600000
802.507324	715.200000
802.543091	706.100000
802.578796	719.300000
802.614502	718.700000
802.650269	723.400000
802.685974	704.200000
802.721741	709.400000
802.757446	712.600000
802.793152	706.900000
802.828918	719.400000
802.864624	710.200000
802.900330	711.900000
802.936035	707.700000
802.971802	704.000000
803.007446	699.900000
803.043213	691.100000
803.078857	697.900000
803.114624	679.700000
803.150330	689.100000
803.185974	678.100000
803.221741	673.500000
803.257446	685.300000
803.293152	686.900000
803.328857	678.200000
803.364563	674.800000
803.400208	666.600000
803.435974	674.700000
803.471680	667.800000
803.507324	663.100000
803.543030	673.400000
803.578735	669.700000
803.614441	658.600000
803.650146	669.700000
803.685791	651.200000
803.721497	654.600000
803.757202	640.000000
803.792847	660.300000
803.828552	644.900000
803.864258	651.800000
803.899902	644.800000
803.935608	628.600000
803.971313	630.800000
804.006958	633.500000
804.042664	629.700000
804.078308	635.100000
804.113953	629.000000
804.149658	638.100000
804.185364	624.300000
804.221008	634.000000
804.256714	621.900000
804.292297	620.100000
804.328003	617.700000
804.363708	610.400000
804.399292	609.800000
804.434998	612.100000
804.470703	601.800000
804.506287	617.000000
804.541992	606.700000
804.577637	612.200000
804.613281	597.900000
804.648926	594.600000
804.684570	597.600000
804.720215	592.300000
804.755920	593.500000
804.791565	589.600000
804.827209	596.000000
804.862854	591.700000
804.898437	582.500000
804.934143	582.700000
804.969788	585.000000
805.005371	587.700000
805.041077	586.900000
805.076721	586.100000
805.112305	576.600000
805.147949	576.500000
805.183655	567.400000
805.219238	574.600000
805.254883	573.400000
805.290466	578.300000
805.326111	568.800000
805.361755	560.900000
805.397400	565.600000
805.432983	572.100000
805.468628	568.200000
805.504211	573.600000
805.539856	570.500000
805.575500	574.300000
805.611084	565.200000
805.646729	550.900000
805.682373	557.300000
805.717957	566.300000
805.753601	568.400000
805.789246	548.700000
805.824768	563.900000
805.860413	562.800000
805.895996	552.600000
805.931641	550.700000
805.967224	561.200000
806.002869	547.000000
806.038452	559.400000
806.074036	553.600000
806.109619	546.000000
806.145264	540.700000
806.180847	544.000000
806.216431	538.100000
806.252014	544.200000
806.287659	538.300000
806.323181	549.700000
806.358826	546.900000
806.394409	524.500000
806.429993	526.000000
806.465576	542.800000
806.501160	524.600000
806.536743	517.400000
806.572327	526.900000
806.607910	524.700000
806.643494	523.100000
806.679077	517.600000
806.714661	520.700000
806.750244	518.300000
806.785828	511.900000
806.821350	510.900000
806.856934	517.900000
806.892517	510.700000
806.928101	504.900000
806.963684	505.400000
806.999268	516.900000
807.034790	492.900000
807.070374	502.900000
807.105896	494.700000
807.141479	494.000000
807.177063	502.700000
807.212585	494.400000
807.248169	494.700000
807.283752	500.300000
807.319275	489.500000
807.354858	490.700000
807.390381	486.100000
807.425903	487.700000
807.461487	484.600000
807.497070	475.000000
807.532593	475.700000
807.568115	474.300000
807.603699	471.500000
807.639221	466.700000
807.674744	471.000000
807.710266	476.800000
807.745850	476.700000
807.781372	467.500000
807.816895	461.400000
807.852417	466.100000
807.888000	463.000000
807.923523	461.600000
807.959045	463.400000
807.994629	454.000000
808.030090	450.900000
808.065613	459.300000
808.101135	458.900000
808.136658	454.400000
808.172241	456.200000
808.207764	452.800000
808.243225	446.100000
808.278809	444.400000
808.314270	453.700000
808.349792	440.300000
808.385315	438.700000
808.420837	443.700000
808.456360	448.200000
808.491882	446.100000
808.527344	439.500000
808.562866	450.500000
808.598389	442.400000
808.633850	431.400000
808.669434	430.000000
808.704895	441.600000
808.740417	444.500000
808.775940	434.600000
808.811462	431.800000
808.846924	422.400000
808.882385	419.200000
808.917847	418.900000
808.953369	421.800000
808.988892	413.000000
809.024353	422.800000
809.059875	418.900000
809.095398	417.200000
809.130798	411.400000
809.166321	411.300000
809.201843	410.900000
809.237305	411.700000
809.272766	415.400000
809.308228	401.900000
809.343750	402.500000
809.379211	404.100000
809.414734	402.100000
809.450134	411.400000
809.485657	394.700000
809.521118	400.900000
809.556580	395.200000
809.592102	394.300000
809.627502	392.600000
809.663025	390.100000
809.698486	386.600000
809.733887	384.400000
809.769409	385.100000
809.804871	377.400000
809.840271	379.500000
809.875793	383.100000
809.911194	384.800000
809.946655	379.400000
809.982178	376.000000
810.017639	378.300000
810.053040	374.800000
810.088501	370.800000
810.123901	371.900000
810.159424	367.900000
810.194885	364.800000
810.230286	369.200000
810.265747	361.400000
810.301208	359.200000
810.336609	364.900000
810.372070	354.200000
810.407532	359.500000
810.442932	359.700000
810.478394	365.200000
810.513794	358.800000
810.549255	357.200000
810.584717	353.500000
810.620117	349.600000
810.655518	355.300000
810.690979	356.200000
810.726379	351.600000
810.761841	340.700000
810.797302	344.700000
810.832642	342.800000
810.868103	351.700000
810.903564	343.400000
810.938904	347.400000
810.974365	338.000000
811.009827	342.700000
811.045166	335.400000
811.080627	329.100000
811.115967	337.400000
811.151428	345.000000
811.186829	336.100000
811.222229	333.400000
811.257629	331.100000
811.293091	335.300000
811.328430	343.300000
811.363892	335.200000
811.399292	339.200000
811.434631	332.500000
811.470093	335.600000
811.505493	327.300000
811.540833	328.900000
811.576294	332.400000
811.611694	328.100000
811.647034	324.000000
811.682434	326.800000
811.717773	326.100000
811.753235	330.600000
811.788635	323.900000
811.823975	327.500000
811.859375	332.700000
811.894775	319.200000
811.930115	320.500000
811.965515	320.500000
812.000916	326.200000
812.036255	318.800000
812.071655	325.500000
812.106995	315.300000
812.142395	317.000000
812.177795	322.400000
812.213196	321.800000
812.248474	319.700000
812.283875	313.300000
812.319214	316.700000
812.354614	316.500000
812.390015	311.800000
812.425293	313.000000
812.460693	312.300000
812.496094	309.200000
812.531433	301.300000
812.566772	303.700000
812.602173	307.300000
812.637451	307.800000
812.672852	301.600000
812.708191	305.700000
812.743530	301.000000
812.778931	294.300000
812.814270	296.300000
812.849609	305.400000
812.884949	297.500000
812.920227	292.500000
812.955627	307.000000
812.990967	299.500000
813.026306	293.900000
813.061646	284.200000
813.096985	281.400000
813.132324	278.600000
813.167664	283.400000
813.203003	289.600000
813.238281	277.800000
813.273682	278.200000
813.308960	275.200000
813.344299	278.700000
813.379639	287.300000
813.414978	281.200000
813.450256	277.900000
813.485596	281.800000
813.520874	273.300000
813.556213	278.000000
813.591614	282.200000
813.626831	274.000000
813.662170	279.600000
813.697510	287.300000
813.732788	272.400000
813.768127	276.600000
813.803467	279.600000
813.838745	273.100000
813.874084	277.500000
813.909363	274.100000
813.944641	277.000000
813.979980	263.400000
814.015320	271.800000
814.050598	266.800000
814.085876	271.800000
814.121155	269.100000
814.156494	266.800000
814.191772	267.600000
814.227051	263.200000
814.262390	265.700000
814.297668	266.900000
814.332947	265.400000
814.368225	259.100000
814.403564	265.000000
814.438782	259.500000
814.474121	262.800000
814.509338	259.500000
814.544617	267.500000
814.579956	258.400000
814.615173	266.800000
814.650513	264.700000
814.685791	254.400000
814.721008	258.700000
814.756348	258.800000
814.791626	254.200000
814.826843	254.600000
814.862122	256.000000
814.897400	252.600000
814.932678	256.600000
814.967957	255.100000
815.003235	252.600000
815.038452	248.100000
815.073730	246.400000
815.108948	256.700000
815.144226	254.200000
815.179504	258.400000
815.214722	242.800000
815.250000	243.000000
815.285278	248.400000
815.320496	242.200000
815.355774	246.200000
815.391052	249.300000
815.426270	244.300000
815.461487	245.000000
815.496765	239.500000
815.531982	237.300000
815.567261	241.800000
815.602539	251.500000
815.637695	243.800000
815.672974	248.000000
815.708191	245.200000
815.743408	247.900000
815.778687	237.900000
815.813904	249.400000
815.849121	231.200000
815.884399	233.700000
815.919556	232.600000
815.954834	234.700000
815.990051	239.100000
816.025269	241.500000
816.060486	233.200000
816.095703	233.000000
816.130920	235.900000
816.166199	230.800000
816.201416	236.500000
816.236572	242.100000
816.271851	230.300000
816.307007	238.200000
816.342224	226.500000
816.377441	232.300000
816.412659	222.500000
816.447876	236.200000
816.483093	229.000000
816.518250	231.900000
816.553467	228.800000
816.588745	232.200000
816.623901	224.500000
816.659119	220.300000
816.694275	225.200000
816.729492	222.400000
816.764709	258.200000
816.799927	219.600000
816.835083	225.400000
816.870300	219.800000
816.905457	223.600000
816.940674	226.600000
816.975830	220.000000
817.010986	217.600000
817.046204	219.900000
817.081421	215.200000
817.116577	217.300000
817.151733	225.900000
817.186951	226.500000
817.222107	220.900000
817.257324	224.400000
817.292419	220.100000
817.327637	214.300000
817.362854	217.500000
817.398010	211.900000
817.433167	214.700000
817.468323	216.900000
817.503479	216.300000
817.538635	225.500000
817.573853	219.100000
817.608948	218.000000
817.644165	211.800000
817.679321	211.500000
817.714478	211.900000
817.749634	216.700000
817.784790	225.800000
817.819946	222.100000
817.855103	204.700000
817.890198	215.400000
817.925415	205.200000
817.960571	214.400000
817.995667	211.700000
818.030823	215.700000
818.066040	208.500000
818.101135	213.100000
818.136292	210.400000
818.171448	204.800000
818.206543	210.300000
818.241699	212.900000
818.276855	210.000000
818.311951	211.600000
818.347107	206.700000
818.382263	211.800000
818.417358	217.200000
818.452515	217.700000
818.487610	217.300000
818.522766	205.800000
818.557922	216.400000
818.593018	212.000000
818.628113	210.900000
818.663269	202.600000
818.698364	209.200000
818.733521	204.800000
818.768677	211.500000
818.803711	202.400000
818.838867	204.700000
818.874023	207.300000
818.909058	203.600000
818.944214	201.600000
818.979370	210.500000
819.014404	206.200000
819.049561	203.900000
819.084595	209.600000
819.119751	200.600000
819.154846	209.100000
819.189941	205.500000
819.225037	198.900000
819.260193	197.100000
819.295227	197.800000
819.330322	194.900000
819.365479	194.500000
819.400513	226.800000
819.435608	192.200000
819.470764	191.800000
819.505798	194.700000
819.540894	198.400000
819.575989	196.300000
819.611084	205.000000
819.646179	204.200000
819.681213	202.300000
819.716309	197.600000
819.751404	198.500000
819.786438	202.500000
819.821533	194.900000
819.856628	200.800000
819.891663	205.400000
819.926758	209.100000
819.961853	206.000000
819.996887	195.000000
820.031982	202.300000
820.067017	198.400000
820.102112	226.600000
820.137207	197.000000
820.172302	214.200000
820.207275	194.800000
820.242371	194.000000
820.277405	195.100000
820.312500	197.700000
820.347534	199.600000
820.382568	203.800000
820.417664	196.800000
820.452759	195.600000
820.487732	193.600000
820.522827	196.600000
820.557861	193.600000
820.592896	195.300000
820.627930	196.400000
820.662964	193.900000
820.698059	198.600000
820.733093	193.700000
820.768127	200.500000
820.803162	196.100000
820.838196	193.900000
820.873230	196.800000
820.908264	198.800000
820.943298	192.400000
820.978333	202.400000
821.013367	196.700000
821.048401	200.900000
821.083435	202.400000
821.118469	189.000000
821.153503	200.300000
821.188477	200.000000
821.223511	188.900000
821.258484	196.500000
821.293579	196.100000
821.328613	190.000000
821.363647	193.400000
821.398621	191.000000
821.433655	191.200000
821.468628	208.300000
821.503662	194.200000
821.538696	198.200000
821.573669	190.200000
821.608704	198.700000
821.643677	192.500000
821.678650	199.300000
821.713684	204.300000
821.748718	193.300000
821.783691	194.300000
821.818726	196.200000
821.853638	197.200000
821.888672	194.600000
821.923706	195.700000
821.958618	191.400000
821.993652	192.400000
822.028687	199.300000
822.063599	201.200000
822.098633	196.700000
822.133667	190.900000
822.168579	193.700000
822.203613	197.000000
822.238586	191.100000
822.273560	198.200000
822.308533	190.800000
822.343567	191.500000
822.378479	192.400000
822.413452	193.700000
822.448425	188.800000
822.483398	200.300000
822.518372	198.800000
822.553345	191.800000
822.588318	201.400000
822.623291	193.500000
822.658203	191.600000
822.693237	195.100000
822.728210	189.200000
822.763123	195.000000
822.798096	188.800000
822.833069	195.100000
822.867981	193.700000
822.902954	196.400000
822.937927	198.300000
822.972900	205.300000
823.007874	185.200000
823.042725	198.600000
823.077698	205.900000
823.112671	190.300000
823.147583	192.500000
823.182556	197.500000
823.217529	197.500000
823.252441	192.500000
823.287415	206.900000
823.322388	196.800000
823.357239	194.300000
823.392212	202.000000
823.427185	197.300000
823.462097	191.500000
823.497009	197.600000
823.531982	191.900000
823.566895	194.300000
823.601807	189.900000
823.636719	192.900000
823.671631	196.600000
823.706604	190.800000
823.741455	196.100000
823.776428	188.200000
823.811340	198.100000
823.846252	200.100000
823.881165	201.500000
823.916138	195.900000
823.950989	203.200000
823.985901	191.300000
824.020813	193.300000
824.055725	193.300000
824.090637	189.100000
824.125610	196.800000
824.160461	193.900000
824.195374	196.600000
824.230225	198.800000
824.265198	187.900000
824.300110	190.500000
824.334961	205.700000
824.369873	183.200000
824.404785	195.900000
824.439636	200.700000
824.474548	185.000000
824.509460	184.100000
824.544312	199.600000
824.579224	195.700000
824.614075	197.500000
824.648987	192.800000
824.683899	193.400000
824.718811	189.700000
824.753662	201.600000
824.788574	198.300000
824.823364	194.200000
824.858276	190.900000
824.893188	201.400000
824.928040	202.500000
824.962952	197.000000
824.997803	198.000000
825.032654	195.800000
825.067566	199.100000
825.102417	191.300000
825.137268	192.300000
825.172119	194.100000
825.206970	190.700000
825.241882	192.600000
825.276733	189.600000
825.311646	190.700000
825.346436	188.100000
825.381348	188.500000
825.416138	194.400000
825.450989	189.100000
825.485901	185.300000
825.520691	185.300000
825.555542	187.500000
825.590454	191.900000
825.625244	186.400000
825.660095	200.000000
825.695007	197.600000
825.729797	192.000000
825.764648	189.900000
825.799438	192.700000
825.834290	195.100000
825.869202	185.500000
825.903992	196.400000
825.938843	189.600000
825.973694	189.100000
826.008484	204.700000
826.043335	188.600000
826.078186	184.200000
826.112976	200.300000
826.147827	198.400000
826.182678	203.400000
826.217468	184.900000
826.252319	197.200000
826.287109	188.300000
826.321899	200.800000
826.356750	190.900000
826.391541	188.500000
826.426392	197.900000
826.461182	193.900000
826.495972	187.300000
826.530823	184.300000
826.565613	193.400000
826.600403	188.100000
826.635254	196.600000
826.670044	183.500000
826.704834	184.500000
826.739685	188.800000
826.774475	193.100000
826.809265	193.100000
826.844055	190.300000
826.878906	198.800000
826.913635	194.600000
826.948425	195.600000
826.983215	195.000000
827.018005	197.200000
827.052856	193.100000
827.087585	195.800000
827.122375	185.800000
827.157227	192.200000
827.191956	204.700000
827.226746	187.000000
827.261536	197.100000
827.296265	185.400000
827.331116	190.000000
827.365906	196.200000
827.400635	188.600000
827.435425	183.900000
827.470215	198.900000
827.504944	189.200000
827.539734	197.400000
827.574463	190.900000
827.609253	200.700000
827.644043	192.600000
827.678772	198.300000
827.713562	189.300000
827.748352	191.300000
827.783081	188.600000
827.817871	193.000000
827.852600	187.900000
827.887329	194.500000
827.922119	181.700000
827.956848	196.500000
827.991638	206.500000
828.026367	194.500000
828.061157	193.600000
828.095886	191.900000
828.130615	205.900000
828.165344	183.400000
828.200073	192.000000
828.234863	189.500000
828.269592	191.900000
828.304321	197.900000
828.339111	191.700000
828.373779	188.700000
828.408569	197.900000
828.443298	198.000000
828.477966	189.500000
828.512756	194.500000
828.547424	187.400000
828.582214	189.800000
828.616943	192.100000
828.651672	190.700000
828.686340	198.000000
828.721130	189.100000
828.755798	192.500000
828.790527	192.100000
828.825256	194.200000
828.859924	193.100000
828.894714	199.900000
828.929443	199.300000
828.964111	189.200000
828.998840	195.100000
829.033569	191.300000
829.068237	189.400000
829.102966	190.500000
829.137634	194.000000
829.172363	195.500000
829.207092	193.500000
829.241821	189.300000
829.276489	182.500000
829.311157	194.600000
829.345825	190.200000
829.380554	197.600000
829.415283	187.300000
829.449951	186.300000
829.484619	199.600000
829.519348	199.800000
829.554016	191.500000
829.588745	192.200000
829.623413	186.400000
829.658081	204.400000
829.692749	185.600000
829.727417	198.200000
829.762146	194.500000
829.796814	189.400000
829.831482	189.700000
829.866150	193.700000
829.900879	189.500000
829.935486	194.600000
829.970154	191.500000
830.004883	203.100000
830.039490	192.900000
830.074219	188.400000
830.108887	193.200000
830.143494	191.100000
830.178223	186.500000
830.212891	189.400000
830.247498	192.300000
830.282166	200.500000
830.316772	199.000000
830.351501	189.200000
830.386169	191.800000
830.420776	190.000000
830.455444	192.100000
830.490112	189.000000
830.524719	184.800000
830.559387	194.800000
830.594055	196.800000
830.628662	191.500000
830.663330	192.000000
830.697998	199.800000
830.732605	193.000000
830.767273	193.300000
830.801941	192.200000
830.836487	201.000000
830.871155	194.600000
830.905762	193.400000
830.940430	186.400000
830.975098	189.000000
831.009644	192.700000
831.044312	199.900000
831.078979	195.300000
831.113525	183.700000
831.148193	193.700000
831.182861	190.600000
831.217407	196.700000
831.252075	208.500000
831.286621	189.700000
831.321289	187.100000
831.355896	191.400000
831.390564	199.600000
831.425110	193.900000
831.459778	198.800000
831.494324	206.100000
831.528931	197.500000
831.563599	196.900000
831.598145	185.300000
831.632751	191.400000
831.667419	190.000000
831.701965	195.400000
831.736572	197.100000
831.771179	185.900000
831.805786	190.200000
831.840393	196.700000
831.874939	185.100000
831.909546	196.500000
831.944153	184.700000
831.978760	191.500000
832.013306	187.700000
832.047913	198.500000
832.082458	200.700000
832.117065	187.300000
832.151672	201.600000
832.186218	193.500000
832.220825	196.100000
832.255432	183.300000
832.289978	189.000000
832.324585	194.700000
832.359192	196.700000
832.393677	190.800000
832.428284	194.400000
832.462830	190.200000
832.497437	192.200000
832.531982	195.600000
832.566589	190.900000
832.601135	192.100000
832.635681	185.000000
832.670227	192.000000
832.704773	200.000000
832.739380	194.800000
832.773926	192.400000
832.808472	187.300000
832.843079	192.800000
832.877563	194.100000
832.912170	189.200000
832.946716	183.500000
832.981201	197.800000
833.015808	195.700000
833.050293	193.200000
833.084839	188.300000
833.119446	190.400000
833.153992	195.800000
833.188477	192.500000
833.223022	187.200000
833.257568	193.500000
833.292114	198.400000
833.326660	202.800000
833.361145	189.100000
833.395691	185.800000
833.430237	191.600000
833.464783	195.800000
833.499329	189.900000
833.533875	186.300000
833.568359	196.900000
833.602905	198.400000
833.637390	197.500000
833.671875	189.100000
833.706421	191.100000
833.740906	189.000000
833.775452	183.200000
833.809998	189.200000
833.844482	199.700000
833.879028	190.100000
833.913513	189.900000
833.947998	194.800000
833.982544	188.900000
834.017090	189.100000
834.051514	181.300000
834.086060	194.600000
834.120544	192.600000
834.155029	192.800000
834.189575	191.700000
834.223999	193.300000
834.258545	193.800000
834.293030	192.600000
834.327515	192.800000
834.362000	188.000000
834.396545	197.200000
834.430969	191.200000
834.465454	195.400000
834.500000	184.300000
834.534424	194.500000
834.568970	181.900000
834.603455	184.800000
834.637878	188.100000
834.672363	193.000000
834.706909	192.000000
834.741333	193.000000
834.775818	183.600000
834.810242	187.500000
834.844727	192.100000
834.879211	189.700000
834.913635	193.600000
834.948181	195.000000
834.982666	192.800000
835.017090	190.700000
835.051575	194.900000
835.086060	188.100000
835.120483	197.000000
835.154907	196.000000
835.189331	191.000000
835.223816	194.100000
835.258301	189.000000
835.292786	186.700000
835.327209	198.700000
835.361694	188.100000
835.396057	189.300000
835.430542	194.900000
835.465027	194.000000
835.499390	187.100000
835.533875	214.000000
835.568359	189.700000
835.602722	184.100000
835.637207	193.400000
835.671692	188.100000
835.706055	207.700000
835.740540	195.700000
835.774902	195.000000
835.809387	194.700000
835.843811	185.700000
835.878235	200.200000
835.912659	185.200000
835.947083	189.900000
835.981506	192.300000
836.015930	185.500000
836.050354	196.100000
836.084778	201.600000
836.119202	195.700000
836.153625	205.900000
836.187988	187.600000
836.222473	189.400000
836.256897	192.800000
836.291260	192.100000
836.325684	192.300000
836.360046	189.900000
836.394470	192.000000
836.428894	199.500000
836.463318	188.300000
836.497681	196.600000
836.532104	199.900000
836.566467	192.400000
836.600891	192.100000
836.635315	197.200000
836.669678	195.300000
836.704102	196.600000
836.738525	192.400000
836.772888	184.500000
836.807251	190.200000
836.841675	195.400000
836.876038	188.200000
836.910461	188.100000
836.944763	197.500000
836.979187	187.000000
837.013611	196.700000
837.047974	185.700000
837.082336	204.400000
837.116699	194.800000
837.151062	193.000000
837.185486	185.500000
837.219849	192.300000
837.254211	194.900000
837.288574	191.700000
837.322937	187.300000
837.357300	180.500000
837.391663	205.100000
837.426086	198.300000
837.460388	191.800000
837.494751	199.200000
837.529114	190.300000
837.563477	197.500000
837.597839	192.700000
837.632141	191.900000
837.666565	189.100000
837.700928	194.400000
837.735229	195.100000
837.769592	194.600000
837.803955	197.000000
837.838257	190.900000
837.872620	188.400000
837.906982	200.300000
837.941284	194.300000
837.975647	193.400000
838.010010	198.800000
838.044312	190.500000
838.078674	191.300000
838.112976	194.200000
838.147339	197.500000
838.181702	191.600000
838.216003	202.800000
838.250366	194.400000
838.284668	196.000000
838.318970	184.300000
838.353333	192.800000
838.387634	191.100000
838.421936	193.000000
838.456299	193.300000
838.490601	200.500000
838.524902	194.900000
838.559265	198.800000
838.593567	195.100000
838.627869	187.100000
838.662170	193.900000
838.696472	186.200000
838.730774	188.600000
838.765137	197.700000
838.799377	176.900000
838.833740	193.300000
838.868042	198.100000
838.902283	185.600000
838.936646	197.300000
838.970947	195.100000
839.005188	196.900000
839.039551	184.800000
839.073792	199.400000
839.108093	190.500000
839.142395	200.900000
839.176697	185.000000
839.210937	193.000000
839.245300	204.300000
839.279541	185.400000
839.313843	192.400000
839.348145	195.500000
839.382385	197.500000
839.416687	197.300000
839.450989	194.300000
839.485229	190.800000
839.519531	186.900000
839.553833	198.600000
839.588013	193.300000
839.622314	193.900000
839.656555	196.500000
839.690857	191.700000
839.725159	186.500000
839.759460	192.000000
839.793640	190.100000
839.827942	190.700000
839.862183	188.000000
839.896423	194.500000
839.930725	201.000000
839.964966	199.400000
839.999207	199.800000
840.033508	200.500000
840.067688	190.800000
840.101990	202.400000
840.136230	191.700000
840.170471	200.600000
840.204712	189.700000
840.238953	187.500000
840.273193	193.900000
840.307434	195.700000
840.341736	187.800000
840.375916	187.600000
840.410217	189.500000
840.444397	198.000000
840.478638	194.700000
840.512878	199.300000
840.547119	192.500000
840.581360	195.500000
840.615601	202.100000
840.649780	201.700000
840.684021	191.900000
840.718262	201.500000
840.752441	197.500000
840.786682	193.300000
840.820862	194.300000
840.855103	200.900000
840.889343	193.100000
840.923584	197.600000
840.957764	194.600000
840.992004	194.900000
841.026184	206.300000
841.060425	191.500000
841.094666	188.700000
841.128845	197.000000
841.163025	192.700000
841.197266	196.800000
841.231445	194.000000
841.265686	193.200000
841.299866	189.200000
841.334045	200.900000
841.368286	192.800000
841.402405	201.500000
841.436646	197.200000
841.470825	189.600000
841.505005	192.700000
841.539185	188.500000
841.573425	189.900000
841.607544	194.300000
841.641785	194.600000
841.675964	187.800000
841.710144	193.900000
841.744324	189.800000
841.778503	192.500000
841.812683	188.900000
841.846863	203.700000
841.881042	199.700000
841.915222	191.200000
841.949402	208.600000
841.983521	184.200000
842.017700	192.800000
842.051880	195.700000
842.086060	194.800000
842.120239	194.700000
842.154419	191.100000
842.188538	196.100000
842.222717	188.400000
842.256897	204.900000
842.291016	191.300000
842.325195	195.900000
842.359375	204.800000
842.393494	202.600000
842.427673	194.000000
842.461853	197.400000
842.495911	201.200000
842.530090	195.600000
842.564209	191.200000
842.598389	195.000000
842.632568	193.400000
842.666626	197.100000
842.700806	190.500000
842.734985	190.900000
842.769043	197.800000
842.803223	192.100000
842.837402	192.200000
842.871460	190.000000
842.905640	201.800000
842.939697	190.100000
842.973877	195.400000
843.007996	198.600000
843.042175	202.900000
843.076233	190.800000
843.110413	194.100000
843.144470	202.400000
843.178589	199.400000
843.212769	190.300000
843.246826	198.000000
843.280945	192.000000
843.315125	191.200000
843.349182	189.500000
843.383301	201.500000
843.417419	205.300000
843.451538	194.300000
843.485657	191.200000
843.519714	191.300000
843.553833	194.900000
843.587952	191.100000
843.622070	188.100000
843.656128	198.000000
843.690247	191.500000
843.724304	191.700000
843.758423	194.100000
843.792542	193.000000
843.826599	193.300000
843.860718	191.000000
843.894836	185.600000
843.928894	194.300000
843.963013	196.000000
843.997070	190.800000
844.031128	187.800000
844.065247	199.400000
844.099304	198.500000
844.133362	194.500000
844.167480	194.500000
844.201599	202.100000
844.235596	194.100000
844.269714	195.100000
844.303711	196.200000
844.337830	186.000000
844.371948	196.400000
844.405945	194.600000
844.440063	188.300000
844.474121	207.800000
844.508118	192.500000
844.542236	192.400000
844.576294	192.200000
844.610352	189.700000
844.644409	192.200000
844.678406	185.200000
844.712524	198.900000
844.746582	200.100000
844.780640	194.100000
844.814636	193.900000
844.848755	202.200000
844.882751	192.500000
844.916809	199.300000
844.950867	194.700000
844.984863	202.100000
845.018921	192.800000
845.052979	191.900000
845.086975	194.500000
845.121033	189.100000
845.155090	188.800000
845.189087	202.300000
845.223145	190.900000
845.257141	194.200000
845.291199	197.000000
845.325256	202.300000
845.359253	193.600000
845.393250	205.900000
845.427307	191.800000
845.461304	195.100000
845.495361	193.300000
845.529358	204.400000
845.563354	190.400000
845.597412	189.900000
845.631409	201.300000
845.665405	201.300000
845.699463	198.900000
845.733459	192.500000
845.767456	199.700000
845.801453	192.800000
845.835449	201.200000
845.869446	198.900000
845.903503	199.800000
845.937439	190.100000
845.971497	200.300000
846.005493	188.700000
846.039429	198.100000
846.073486	204.500000
846.107483	193.900000
846.141418	193.500000
846.175476	193.800000
846.209473	202.100000
846.243408	191.100000
846.277405	194.100000
846.311401	189.800000
846.345337	193.400000
846.379395	200.000000
846.413330	191.000000
846.447327	201.700000
846.481323	188.700000
846.515259	190.700000
846.549255	193.600000
846.583252	196.300000
846.617187	188.000000
846.651184	196.400000
846.685120	191.700000
846.719055	203.400000
846.753052	198.600000
846.786987	199.700000
846.820984	187.100000
846.854980	201.900000
846.888916	188.600000
846.922852	197.700000
846.956848	201.300000
846.990723	190.200000
847.024719	193.900000
847.058716	193.100000
847.092590	201.300000
847.126587	195.300000
847.160522	191.500000
847.194458	199.900000
847.228455	190.000000
847.262390	190.100000
847.296265	192.400000
847.330261	201.100000
847.364136	192.300000
847.398132	190.600000
847.432068	194.100000
847.466003	194.000000
847.499939	192.600000
847.533875	196.500000
847.567749	192.100000
847.601746	192.200000
847.635681	197.600000
847.669556	185.800000
847.703491	199.100000
847.737427	210.400000
847.771301	188.700000
847.805237	195.600000
847.839233	194.300000
847.873108	192.700000
847.907043	192.700000
847.940918	199.700000
847.974854	197.700000
848.008789	198.200000
848.042664	195.100000
848.076538	196.700000
848.110474	193.800000
848.144348	196.400000
848.178284	188.200000
848.212219	193.000000
848.246094	191.000000
848.279968	195.200000
848.313904	198.000000
848.347778	194.200000
848.381653	194.200000
848.415588	189.700000
848.449463	193.400000
848.483337	195.400000
848.517212	199.600000
848.551086	193.000000
848.585022	191.000000
848.618835	201.300000
848.652771	191.800000
848.686646	189.500000
848.720520	204.100000
848.754395	192.200000
848.788330	198.400000
848.822144	196.800000
848.856018	194.400000
848.889954	203.600000
848.923767	189.600000
848.957642	190.700000
848.991577	198.100000
849.025391	191.500000
849.059265	193.400000
849.093079	189.900000
849.126953	188.700000
849.160828	199.600000
849.194641	194.900000
849.228577	192.200000
849.262451	193.600000
849.296265	193.200000
849.330139	189.300000
849.364014	194.500000
849.397827	196.000000
849.431702	193.600000
849.465515	198.500000
849.499329	184.300000
849.533203	189.200000
849.567078	184.300000
849.600891	197.800000
849.634766	192.300000
849.668518	198.900000
849.702393	195.200000
849.736267	187.000000
849.770020	206.600000
849.803894	196.300000
849.837769	193.900000
849.871521	193.200000
849.905396	200.700000
849.939270	187.900000
849.973022	192.700000
850.006897	198.100000
850.040710	198.300000
850.074524	197.100000
850.108337	195.400000
850.142151	197.700000
850.175964	201.200000
850.209778	193.000000
850.243530	181.200000
850.277405	198.900000
850.311218	195.000000
850.344971	190.300000
850.378845	202.500000
850.412659	190.000000
850.446411	196.200000
850.480225	192.900000
850.514038	200.700000
850.547791	195.900000
850.581665	194.000000
850.615417	190.500000
850.649231	195.500000
850.683044	193.100000
850.716858	193.500000
850.750610	193.700000
850.784424	198.700000
850.818176	192.300000
850.851929	191.900000
850.885742	189.400000
850.919495	193.700000
850.953308	199.700000
850.987122	201.200000
851.020874	189.700000
851.054626	187.100000
851.088440	197.500000
851.122192	197.800000
851.156006	194.700000
851.189697	193.100000
851.223511	188.700000
851.257263	198.700000
851.291077	198.100000
851.324829	193.000000
851.358582	191.400000
851.392334	191.000000
851.426086	191.900000
851.459900	202.600000
851.493591	193.800000
851.527344	193.600000
851.561157	193.000000
851.594849	195.700000
851.628662	196.600000
851.662415	200.800000
851.696106	197.200000
851.729858	198.400000
851.763611	188.400000
851.797363	194.700000
851.831116	189.700000
851.864868	195.600000
851.898560	199.100000
851.932312	191.200000
851.966064	196.100000
851.999817	191.400000
852.033569	192.500000
852.067261	197.800000
852.101013	191.100000
852.134766	193.800000
852.168457	183.700000
852.202209	196.700000
852.235901	190.700000
852.269592	196.900000
852.303345	202.900000
852.337036	197.700000
852.370789	194.900000
852.404541	197.500000
852.438171	190.300000
852.471924	192.600000
852.505676	188.200000
852.539307	196.700000
852.573059	190.500000
852.606812	192.100000
852.640442	193.500000
852.674194	199.300000
852.707886	205.300000
852.741577	203.700000
852.775269	190.200000
852.809021	195.400000
852.842651	196.100000
852.876404	200.400000
852.910034	195.800000
852.943787	201.000000
852.977478	196.300000
853.011108	191.600000
853.044861	190.700000
853.078552	202.100000
853.112183	196.200000
853.145874	197.300000
853.179626	185.700000
853.213257	197.400000
853.246948	191.200000
853.280640	203.200000
853.314270	192.800000
853.347961	202.400000
853.381653	195.600000
853.415283	199.300000
853.448975	191.300000
853.482605	197.300000
853.516296	193.300000
853.549988	189.400000
853.583618	194.700000
853.617310	196.000000
853.651001	195.500000
853.684631	189.000000
853.718323	191.200000
853.751953	202.500000
853.785583	185.300000
853.819275	198.700000
853.852966	195.300000
853.886536	185.900000
853.920227	188.500000
853.953918	199.200000
853.987488	192.800000
854.021179	198.100000
854.054749	202.200000
854.088440	196.500000
854.122131	189.900000
854.155701	198.300000
854.189331	190.100000
854.223022	197.200000
854.256592	196.600000
854.290283	190.300000
854.323914	198.500000
854.357483	195.200000
854.391174	196.700000
854.424744	204.500000
854.458374	196.700000
854.492065	204.500000
854.525696	193.500000
854.559265	201.300000
854.592896	206.200000
854.626465	194.300000
854.660095	196.300000
854.693787	195.300000
854.727356	193.500000
854.760986	196.700000
854.794617	196.400000
854.828186	193.300000
854.861816	197.600000
854.895447	193.500000
854.929016	197.000000
854.962585	196.400000
854.996155	204.000000
855.029785	195.700000
855.063416	196.700000
855.097046	198.300000
855.130615	190.800000
855.164185	201.300000
855.197754	195.300000
855.231384	196.700000
855.264954	193.200000
855.298523	198.200000
855.332153	195.600000
855.365723	203.400000
855.399292	190.800000
855.432922	192.500000
855.466492	196.100000
855.500061	188.300000
855.533630	191.200000
855.567200	197.800000
855.600769	199.600000
855.634338	199.600000
855.667969	196.700000
855.701477	189.500000
855.735046	190.900000
855.768616	185.500000
855.802185	197.700000
855.835754	210.300000
855.869324	186.200000
855.902893	192.800000
855.936401	200.500000
855.969971	196.700000
856.003540	188.100000
856.037109	199.400000
856.070618	194.400000
856.104187	188.500000
856.137695	191.500000
856.171265	186.700000
856.204834	194.000000
856.238403	201.000000
856.271912	191.400000
856.305481	196.300000
856.338989	188.700000
856.372559	198.700000
856.406128	195.600000
856.439636	199.400000
856.473145	191.700000
856.506653	202.500000
856.540222	194.100000
856.573792	201.800000
856.607300	196.400000
856.640808	190.500000
856.674377	194.800000
856.707825	224.100000
856.741394	197.800000
856.774902	191.200000
856.808472	184.300000
856.841980	197.000000
856.875488	203.200000
856.908936	188.700000
856.942505	192.600000
856.976013	194.300000
857.009521	189.200000
857.043030	195.500000
857.076477	192.700000
857.110046	199.600000
857.143555	195.900000
857.177063	201.000000
857.210571	191.500000
857.244080	188.000000
857.277527	198.400000
857.311035	194.100000
857.344543	199.000000
857.378052	194.100000
857.411499	198.500000
857.445068	204.700000
857.478516	195.100000
857.512024	189.900000
857.545532	193.800000
857.578979	197.100000
857.612427	195.000000
857.645874	190.700000
857.679382	196.500000
857.712891	198.100000
857.746399	196.100000
857.779846	199.700000
857.813354	200.000000
857.846741	192.800000
857.880249	190.900000
857.913757	194.800000
857.947266	197.400000
857.980652	198.300000
858.014160	191.800000
858.047546	191.600000
858.081055	193.200000
858.114563	201.700000
858.147949	190.000000
858.181458	198.200000
858.214844	194.900000
858.248352	184.800000
858.281799	201.500000
858.315308	208.300000
858.348694	200.300000
858.382141	202.900000
858.415588	198.400000
858.449036	199.800000
858.482483	196.900000
858.515930	190.400000
858.549377	195.400000
858.582825	202.700000
858.616211	198.100000
858.649658	195.600000
858.683105	190.300000
858.716553	191.200000
858.750000	188.100000
858.783386	192.600000
858.816833	187.700000
858.850281	196.300000
858.883728	197.900000
858.917114	192.900000
858.950562	203.000000
858.983948	203.400000
859.017395	198.500000
859.050781	192.900000
859.084167	191.000000
859.117615	189.100000
859.151062	197.800000
859.184448	190.900000
859.217834	192.900000
859.251282	193.300000
859.284668	188.700000
859.318054	185.200000
859.351440	190.500000
859.384888	203.700000
859.418274	184.900000
859.451721	185.700000
859.485046	195.800000
859.518494	195.800000
859.551819	189.700000
859.585266	197.000000
859.618652	196.200000
859.652039	189.300000
859.685425	189.000000
859.718811	187.900000
859.752197	182.900000
859.785583	201.700000
859.819031	201.400000
859.852356	198.500000
859.885742	190.800000
859.919067	193.900000
859.952454	191.100000
859.985901	199.500000
860.019287	190.900000
860.052612	0.000000
860.085999	0.000000
860.119324	0.000000
860.152710	0.000000
860.186096	0.000000
860.219421	0.000000
860.252808	0.000000
860.286133	0.000000
860.319519	0.000000
860.352905	0.000000
860.386292	0.000000
860.419617	0.000000
860.452942	0.000000
860.486267	0.000000
860.519653	0.000000
860.553040	0.000000
860.586365	0.000000
860.619690	0.000000
860.653076	0.000000
860.686340	0.000000
860.719727	0.000000
860.753113	0.000000
860.786377	0.000000
860.819763	0.000000
860.853027	0.000000
860.886414	0.000000
860.919739	0.000000
860.953125	0.000000
860.986389	0.000000
861.019714	0.000000
861.053040	0.000000
861.086365	0.000000
861.119690	0.000000
861.153076	0.000000
861.186340	0.000000
861.219666	0.000000
861.252930	0.000000
861.286316	0.000000
861.319641	0.000000
861.352905	0.000000
861.386230	0.000000
861.419495	0.000000
861.452820	0.000000
861.486145	0.000000
861.519470	0.000000
861.552734	0.000000
861.586060	0.000000
861.619324	0.000000
861.652649	0.000000
861.685974	0.000000
861.719238	0.000000
861.752563	0.000000
861.785828	0.000000
861.819092	0.000000
861.852417	0.000000
861.885742	0.000000
861.918945	0.000000
861.952271	0.000000
861.985535	0.000000
862.018799	0.000000
862.052124	0.000000
862.085449	0.000000
862.118652	0.000000
862.151978	0.000000
862.185181	0.000000
862.218506	0.000000
862.251770	0.000000
862.285034	0.000000
862.318298	0.000000
862.351562	0.000000
862.384827	0.000000
862.418091	0.000000
862.451355	0.000000
862.484619	0.000000
862.517883	0.000000
862.551086	0.000000
862.584351	0.000000
862.617676	0.000000
862.650940	0.000000
862.684143	0.000000
862.717407	0.000000
862.750610	0.000000
862.783875	0.000000
862.817139	0.000000
862.850342	0.000000
862.883606	0.000000
862.916870	0.000000
862.950073	0.000000
862.983337	0.000000
863.016602	0.000000
863.049805	0.000000
863.083069	0.000000
863.116211	0.000000
863.149475	0.000000
863.182739	0.000000
863.216003	0.000000
863.249146	0.000000
863.282410	0.000000
863.315613	0.000000
863.348816	0.000000
863.382080	0.000000
863.415222	0.000000
863.448486	0.000000
863.481689	0.000000
863.514893	0.000000
863.548157	0.000000
863.581360	0.000000
863.614502	0.000000
863.647766	0.000000
863.680908	0.000000
863.714172	0.000000
863.747375	0.000000
863.780579	0.000000
863.813721	0.000000
863.846985	0.000000
863.880127	0.000000
863.913330	0.000000
863.946533	0.000000
863.979675	0.000000
864.012939	0.000000
