Model Number: SPM-001-M   
Serial Number: 10090201
Firmware Version: 004.17.6
Exposure Time: 500000.000000us
Data Taken on: 10-03-2021 10:34:37.995
Wavelength	Amplitude
733.770752	0.000000
733.808716	0.000000
733.846619	0.000000
733.884583	0.000000
733.922546	0.000000
733.960449	0.000000
733.998413	0.000000
734.036377	0.000000
734.074219	0.000000
734.112183	0.000000
734.150085	0.000000
734.188049	0.000000
734.226013	0.000000
734.263916	0.000000
734.301819	0.000000
734.339783	0.000000
734.377686	0.000000
734.415588	0.000000
734.453552	0.000000
734.491455	0.000000
734.529419	0.000000
734.567322	0.000000
734.605225	0.000000
734.643127	0.000000
734.681091	0.000000
734.718994	0.000000
734.756897	0.000000
734.794800	0.000000
734.832703	0.000000
734.870667	0.000000
734.908508	0.000000
734.946472	0.000000
734.984375	0.000000
735.022278	0.000000
735.060181	0.000000
735.098083	0.000000
735.135986	0.000000
735.173889	0.000000
735.211792	0.000000
735.249695	0.000000
735.287598	0.000000
735.325439	0.000000
735.363403	0.000000
735.401306	0.000000
735.439148	0.000000
735.477051	0.000000
735.515015	0.000000
735.552856	0.000000
735.590759	0.000000
735.628662	0.000000
735.666504	0.000000
735.704407	0.000000
735.742310	0.000000
735.780212	0.000000
735.818115	0.000000
735.856018	0.000000
735.893860	0.000000
735.931763	0.000000
735.969604	0.000000
736.007507	0.000000
736.045410	0.000000
736.083252	0.000000
736.121094	0.000000
736.158997	0.000000
736.196838	0.000000
736.234741	0.000000
736.272644	0.000000
736.310486	0.000000
736.348389	0.000000
736.386230	0.000000
736.424072	0.000000
736.461975	0.000000
736.499878	0.000000
736.537720	0.000000
736.575562	0.000000
736.613403	0.000000
736.651306	0.000000
736.689148	0.000000
736.726990	0.000000
736.764893	0.000000
736.802734	0.000000
736.840576	0.000000
736.878418	0.000000
736.916321	0.000000
736.954102	0.000000
736.992004	0.000000
737.029846	0.000000
737.067688	0.000000
737.105530	0.000000
737.143372	0.000000
737.181213	0.000000
737.219116	0.000000
737.256897	0.000000
737.294739	0.000000
737.332642	0.000000
737.370422	0.000000
737.408325	0.000000
737.446167	0.000000
737.483948	0.000000
737.521790	0.000000
737.559692	0.000000
737.597473	0.000000
737.635315	0.000000
737.673157	0.000000
737.710999	0.000000
737.748840	0.000000
737.786621	0.000000
737.824463	0.000000
737.862305	0.000000
737.900085	0.000000
737.937927	0.000000
737.975769	0.000000
738.013550	0.000000
738.051392	0.000000
738.089233	0.000000
738.127014	0.000000
738.164856	0.000000
738.202698	0.000000
738.240479	0.000000
738.278320	0.000000
738.316162	0.000000
738.353943	0.000000
738.391785	0.000000
738.429565	0.000000
738.467407	0.000000
738.505188	0.000000
738.542969	0.000000
738.580811	0.000000
738.618652	0.000000
738.656372	0.000000
738.694214	0.000000
738.732056	0.000000
738.769836	0.000000
738.807617	0.000000
738.845459	0.000000
738.883240	0.000000
738.921021	0.000000
738.958862	0.000000
738.996582	0.000000
739.034424	0.000000
739.072205	0.000000
739.109985	0.000000
739.147827	0.000000
739.185547	0.000000
739.223389	0.000000
739.261169	0.000000
739.298889	0.000000
739.336731	0.000000
739.374512	0.000000
739.412292	0.000000
739.450073	0.000000
739.487854	0.000000
739.525635	0.000000
739.563416	0.000000
739.601135	0.000000
739.638977	0.000000
739.676758	0.000000
739.714478	0.000000
739.752258	0.000000
739.790100	0.000000
739.827820	0.000000
739.865601	0.000000
739.903381	0.000000
739.941101	0.000000
739.978882	196.300000
740.016724	191.500000
740.054443	198.700000
740.092224	190.100000
740.130005	190.100000
740.167725	189.800000
740.205505	190.500000
740.243225	200.400000
740.281006	194.100000
740.318787	186.500000
740.356506	199.900000
740.394287	197.700000
740.432068	189.100000
740.469727	186.300000
740.507507	198.000000
740.545288	192.300000
740.583008	194.200000
740.620789	193.100000
740.658569	184.300000
740.696228	193.200000
740.734009	198.900000
740.771790	181.100000
740.809509	196.700000
740.847229	188.000000
740.884949	190.500000
740.922729	184.500000
740.960449	191.600000
740.998169	186.500000
741.035950	188.900000
741.073669	192.900000
741.111389	191.700000
741.149170	202.300000
741.186890	202.200000
741.224609	196.200000
741.262329	194.500000
741.300110	203.500000
741.337769	187.800000
741.375549	186.000000
741.413208	194.900000
741.450989	188.200000
741.488708	190.600000
741.526367	190.600000
741.564148	196.300000
741.601868	197.800000
741.639526	193.200000
741.677307	194.900000
741.715027	195.400000
741.752686	189.100000
741.790466	200.400000
741.828186	198.200000
741.865845	187.700000
741.903564	183.400000
741.941345	192.900000
741.979004	189.100000
742.016724	195.200000
742.054382	194.400000
742.092102	198.900000
742.129822	184.900000
742.167480	189.800000
742.205200	191.300000
742.242920	194.900000
742.280640	198.500000
742.318359	187.900000
742.356079	189.700000
742.393738	196.300000
742.431396	191.800000
742.469116	196.800000
742.506775	182.100000
742.544495	196.300000
742.582214	197.100000
742.619873	192.400000
742.657593	200.700000
742.695251	196.800000
742.732971	190.500000
742.770630	194.000000
742.808289	191.500000
742.846008	192.500000
742.883728	195.300000
742.921326	192.900000
742.959045	189.700000
742.996765	193.900000
743.034424	191.900000
743.072083	190.300000
743.109802	192.300000
743.147400	186.100000
743.185120	194.600000
743.222839	192.800000
743.260437	199.000000
743.298157	194.600000
743.335754	184.600000
743.373474	190.700000
743.411133	185.300000
743.448792	194.300000
743.486450	194.200000
743.524170	185.900000
743.561768	193.300000
743.599487	198.700000
743.637146	205.000000
743.674744	191.900000
743.712463	189.800000
743.750122	194.800000
743.787720	196.200000
743.825439	189.400000
743.863037	191.800000
743.900696	192.700000
743.938416	218.300000
743.976013	192.100000
744.013672	201.200000
744.051331	199.400000
744.088928	201.500000
744.126587	198.400000
744.164307	193.000000
744.201904	189.500000
744.239563	196.500000
744.277222	195.000000
744.314819	192.500000
744.352478	199.900000
744.390137	194.600000
744.427734	195.100000
744.465393	189.600000
744.502991	188.300000
744.540649	196.300000
744.578308	193.200000
744.615906	187.200000
744.653564	183.000000
744.691223	196.500000
744.728821	185.800000
744.766418	193.800000
744.804077	195.400000
744.841675	189.100000
744.879333	185.600000
744.916992	191.300000
744.954529	189.400000
744.992187	199.000000
745.029785	192.400000
745.067444	189.500000
745.105042	193.400000
745.142639	196.200000
745.180298	201.900000
745.217896	191.600000
745.255493	192.200000
745.293152	197.100000
745.330750	197.400000
745.368347	201.400000
745.405945	196.200000
745.443604	195.500000
745.481140	197.400000
745.518799	191.700000
745.556396	197.000000
745.593994	197.500000
745.631592	192.700000
745.669189	189.100000
745.706787	193.500000
745.744385	190.300000
745.781982	195.800000
745.819580	188.900000
745.857178	191.400000
745.894775	193.500000
745.932373	193.800000
745.969971	195.100000
746.007568	184.800000
746.045166	202.300000
746.082764	197.600000
746.120300	197.000000
746.157898	196.000000
746.195557	193.900000
746.233093	185.800000
746.270691	195.900000
746.308228	194.300000
746.345825	196.800000
746.383423	196.700000
746.420959	188.100000
746.458557	189.300000
746.496155	190.700000
746.533691	192.100000
746.571289	186.900000
746.608887	193.700000
746.646423	193.200000
746.684021	193.900000
746.721619	191.500000
746.759155	194.200000
746.796753	186.200000
746.834351	187.200000
746.871826	188.700000
746.909424	200.300000
746.946960	195.200000
746.984558	191.700000
747.022156	192.600000
747.059631	200.100000
747.097229	194.400000
747.134827	191.800000
747.172363	200.800000
747.209900	196.600000
747.247498	187.400000
747.285034	199.900000
747.322571	201.200000
747.360168	191.400000
747.397644	185.700000
747.435242	197.900000
747.472778	198.800000
747.510315	191.900000
747.547913	190.700000
747.585388	201.500000
747.622925	194.200000
747.660522	183.600000
747.697998	188.200000
747.735596	193.200000
747.773132	189.600000
747.810669	192.500000
747.848206	196.500000
747.885742	187.600000
747.923279	188.500000
747.960815	194.200000
747.998352	193.000000
748.035889	198.300000
748.073425	198.200000
748.110901	188.700000
748.148437	188.600000
748.185974	193.000000
748.223511	203.100000
748.261047	193.400000
748.298584	195.300000
748.336060	191.800000
748.373596	196.000000
748.411133	211.500000
748.448608	189.700000
748.486145	197.500000
748.523682	199.700000
748.561218	198.600000
748.598755	193.900000
748.636292	197.300000
748.673706	190.700000
748.711243	200.000000
748.748718	195.300000
748.786255	193.100000
748.823792	194.000000
748.861267	188.300000
748.898804	196.000000
748.936340	194.800000
748.973816	191.800000
749.011292	198.900000
749.048828	195.300000
749.086304	196.600000
749.123840	206.200000
749.161316	188.000000
749.198792	203.600000
749.236328	199.900000
749.273743	193.100000
749.311279	192.100000
749.348816	197.200000
749.386230	193.500000
749.423767	183.100000
749.461304	195.200000
749.498718	194.600000
749.536255	200.300000
749.573730	206.700000
749.611206	199.700000
749.648682	192.800000
749.686218	193.300000
749.723633	197.800000
749.761169	190.600000
749.798645	189.500000
749.836060	191.700000
749.873596	189.600000
749.911011	192.100000
749.948547	199.200000
749.986023	193.200000
750.023437	192.700000
750.060913	186.600000
750.098450	186.800000
750.135864	192.300000
750.173340	194.600000
750.210815	198.200000
750.248291	188.400000
750.285767	193.500000
750.323242	200.200000
750.360657	194.700000
750.398132	189.700000
750.435608	199.700000
750.473022	189.300000
750.510498	188.700000
750.547974	189.100000
750.585449	192.000000
750.622925	181.900000
750.660339	203.000000
750.697815	193.700000
750.735291	193.800000
750.772644	194.800000
750.810120	193.500000
750.847595	196.300000
750.885010	189.500000
750.922485	203.000000
750.959961	191.700000
750.997375	200.200000
751.034851	198.500000
751.072266	199.000000
751.109680	186.200000
751.147156	198.100000
751.184570	197.100000
751.221985	195.300000
751.259460	185.000000
751.296875	192.600000
751.334290	194.300000
751.371765	198.500000
751.409180	197.000000
751.446594	199.400000
751.484070	196.100000
751.521423	195.000000
751.558899	194.000000
751.596375	200.900000
751.633728	200.800000
751.671204	206.800000
751.708618	188.800000
751.746033	194.700000
751.783447	187.500000
751.820801	189.700000
751.858276	194.900000
751.895691	192.800000
751.933105	190.200000
751.970520	188.800000
752.007935	191.400000
752.045349	197.700000
752.082764	194.500000
752.120178	191.800000
752.157532	188.500000
752.195007	190.600000
752.232422	196.100000
752.269775	198.800000
752.307190	196.800000
752.344543	190.400000
752.382019	193.100000
752.419434	193.600000
752.456787	194.600000
752.494202	198.500000
752.531616	196.900000
752.568970	199.300000
752.606384	195.100000
752.643799	195.900000
752.681152	204.000000
752.718567	196.700000
752.755981	185.900000
752.793335	196.800000
752.830750	184.900000
752.868164	200.100000
752.905518	189.500000
752.942932	197.600000
752.980225	188.900000
753.017639	198.500000
753.055054	192.100000
753.092407	196.700000
753.129822	200.400000
753.167175	204.100000
753.204529	192.700000
753.241943	191.300000
753.279358	187.800000
753.316650	196.600000
753.354065	196.000000
753.391479	197.200000
753.428772	202.100000
753.466187	197.800000
753.503479	186.800000
753.540894	191.000000
753.578308	187.800000
753.615601	187.500000
753.653015	193.600000
753.690369	192.200000
753.727722	189.400000
753.765076	186.900000
753.802490	189.400000
753.839783	184.400000
753.877136	192.200000
753.914551	210.100000
753.951843	187.500000
753.989258	198.100000
754.026611	195.500000
754.063904	194.700000
754.101257	190.900000
754.138611	186.100000
754.175964	195.500000
754.213318	206.300000
754.250610	188.000000
754.288025	191.600000
754.325378	188.900000
754.362671	199.400000
754.400024	192.100000
754.437378	203.700000
754.474670	204.500000
754.512085	190.400000
754.549438	195.500000
754.586731	191.200000
754.624084	193.200000
754.661438	188.800000
754.698730	201.700000
754.736084	192.000000
754.773376	194.200000
754.810730	197.200000
754.848083	192.500000
754.885315	197.100000
754.922668	186.000000
754.960022	189.100000
754.997314	199.200000
755.034668	194.600000
755.072021	195.700000
755.109253	191.300000
755.146606	201.600000
755.183960	191.800000
755.221252	204.500000
755.258545	201.000000
755.295898	202.000000
755.333191	204.300000
755.370544	199.500000
755.407776	195.100000
755.445129	195.600000
755.482422	201.100000
755.519714	192.000000
755.557068	188.900000
755.594360	187.900000
755.631653	200.600000
755.668945	205.300000
755.706299	200.600000
755.743530	208.600000
755.780884	205.700000
755.818176	203.400000
755.855408	203.900000
755.892761	199.500000
755.930054	199.700000
755.967346	200.200000
756.004639	203.000000
756.041870	199.500000
756.079224	204.600000
756.116516	195.600000
756.153748	204.400000
756.191040	207.700000
756.228394	203.700000
756.265625	195.800000
756.302917	202.000000
756.340210	196.000000
756.377441	206.000000
756.414795	207.000000
756.452087	199.400000
756.489319	195.400000
756.526611	204.300000
756.563843	201.700000
756.601135	212.500000
756.638428	208.900000
756.675659	201.600000
756.712952	206.800000
756.750244	206.300000
756.787476	203.200000
756.824768	209.200000
756.862061	200.100000
756.899292	248.900000
756.936584	206.900000
756.973816	213.500000
757.011047	215.000000
757.048340	205.200000
757.085632	203.600000
757.122864	219.900000
757.160156	203.100000
757.197327	206.000000
757.234619	209.300000
757.271912	202.900000
757.309082	209.400000
757.346375	201.200000
757.383667	210.900000
757.420837	206.000000
757.458130	205.800000
757.495422	205.200000
757.532593	208.200000
757.569885	198.800000
757.607117	200.800000
757.644348	207.600000
757.681580	220.400000
757.718811	194.600000
757.756042	206.500000
757.793335	204.800000
757.830505	210.200000
757.867798	203.200000
757.905029	204.700000
757.942200	208.000000
757.979492	204.500000
758.016724	206.700000
758.053894	205.500000
758.091187	225.500000
758.128418	209.500000
758.165588	207.300000
758.202820	219.700000
758.240112	204.200000
758.277283	220.100000
758.314514	209.900000
758.351685	206.800000
758.388916	219.500000
758.426147	217.500000
758.463379	218.700000
758.500610	212.800000
758.537842	210.800000
758.575012	217.900000
758.612244	207.000000
758.649475	223.100000
758.686646	203.000000
758.723877	216.800000
758.761108	218.500000
758.798279	211.300000
758.835510	213.000000
758.872742	217.600000
758.909851	215.400000
758.947083	215.600000
758.984253	215.600000
759.021484	218.400000
759.058716	217.800000
759.095886	216.500000
759.133057	213.500000
759.170288	217.500000
759.207458	209.800000
759.244690	225.000000
759.281860	225.200000
759.319031	214.400000
759.356262	213.300000
759.393433	213.500000
759.430603	214.300000
759.467773	215.000000
759.505005	222.700000
759.542175	221.900000
759.579346	214.800000
759.616516	217.800000
759.653687	219.800000
759.690918	212.300000
759.728027	218.700000
759.765259	218.600000
759.802429	219.200000
759.839539	219.100000
759.876770	223.600000
759.913940	227.000000
759.951111	220.200000
759.988281	217.800000
760.025452	215.000000
760.062561	212.800000
760.099792	226.400000
760.136963	220.000000
760.174072	218.000000
760.211243	212.100000
760.248413	213.700000
760.285583	213.100000
760.322754	231.200000
760.359863	226.300000
760.397034	227.100000
760.434204	218.300000
760.471375	220.500000
760.508545	218.500000
760.545715	219.200000
760.582825	215.400000
760.619995	225.700000
760.657166	214.700000
760.694275	229.300000
760.731445	224.800000
760.768555	224.900000
760.805664	226.000000
760.842834	225.900000
760.879944	227.900000
760.917114	224.200000
760.954285	223.400000
760.991394	219.000000
761.028564	230.500000
761.065674	229.200000
761.102783	220.900000
761.139954	230.400000
761.177124	231.500000
761.214172	233.100000
761.251343	226.100000
761.288452	227.500000
761.325562	232.300000
761.362732	226.000000
761.399841	230.100000
761.436951	232.100000
761.474121	227.100000
761.511169	230.500000
761.548340	237.200000
761.585449	234.400000
761.622559	235.000000
761.659668	233.300000
761.696838	240.200000
761.733887	236.000000
761.771057	232.800000
761.808167	235.500000
761.845276	240.100000
761.882385	247.400000
761.919434	237.500000
761.956604	255.700000
761.993713	233.700000
762.030762	243.500000
762.067871	238.400000
762.105042	235.900000
762.142090	246.900000
762.179199	241.600000
762.216309	244.900000
762.253418	257.400000
762.290527	251.200000
762.327637	246.800000
762.364685	236.200000
762.401794	248.500000
762.438904	245.000000
762.475952	240.100000
762.513062	239.200000
762.550110	242.100000
762.587219	253.400000
762.624329	255.000000
762.661377	248.900000
762.698486	249.000000
762.735596	247.700000
762.772644	241.600000
762.809753	239.000000
762.846863	249.000000
762.883911	252.100000
762.921021	252.600000
762.958069	250.000000
762.995117	258.200000
763.032227	259.300000
763.069336	251.300000
763.106323	247.300000
763.143433	247.200000
763.180481	253.100000
763.217590	255.000000
763.254639	250.700000
763.291687	253.200000
763.328735	260.800000
763.365845	256.800000
763.402893	252.400000
763.439941	258.400000
763.477051	260.700000
763.514038	261.400000
763.551147	255.100000
763.588196	259.500000
763.625244	255.800000
763.662292	265.700000
763.699402	266.900000
763.736389	263.400000
763.773499	271.300000
763.810486	265.100000
763.847534	262.700000
763.884644	267.400000
763.921631	261.500000
763.958679	272.500000
763.995728	262.700000
764.032776	272.900000
764.069824	258.600000
764.106873	267.700000
764.143860	277.400000
764.180969	268.600000
764.218018	275.900000
764.255005	267.900000
764.292053	271.400000
764.329102	280.700000
764.366089	280.600000
764.403137	279.400000
764.440125	269.500000
764.477173	272.600000
764.514221	275.500000
764.551208	273.700000
764.588257	269.200000
764.625305	282.000000
764.662292	286.200000
764.699341	290.300000
764.736389	282.100000
764.773376	296.200000
764.810425	285.600000
764.847473	291.200000
764.884399	286.200000
764.921448	294.400000
764.958435	293.500000
764.995483	282.700000
765.032532	299.600000
765.069458	284.400000
765.106506	285.800000
765.143555	285.300000
765.180481	290.500000
765.217529	296.500000
765.254578	282.400000
765.291504	291.600000
765.328552	291.400000
765.365540	285.700000
765.402527	301.900000
765.439575	285.500000
765.476501	282.800000
765.513550	285.300000
765.550537	289.700000
765.587463	297.600000
765.624512	290.000000
765.661499	281.400000
765.698486	298.800000
765.735474	288.600000
765.772461	291.800000
765.809448	299.700000
765.846436	298.500000
765.883423	304.600000
765.920410	297.800000
765.957397	291.200000
765.994385	297.900000
766.031311	307.000000
766.068359	299.900000
766.105286	301.600000
766.142273	307.100000
766.179260	304.700000
766.216187	295.800000
766.253174	294.900000
766.290161	303.600000
766.327148	306.500000
766.364136	306.500000
766.401123	324.100000
766.438049	301.100000
766.475037	317.800000
766.512024	311.500000
766.548950	328.200000
766.585937	322.900000
766.622864	317.800000
766.659790	316.500000
766.696777	306.200000
766.733704	322.100000
766.770691	312.700000
766.807678	326.900000
766.844604	323.300000
766.881531	324.400000
766.918518	333.300000
766.955444	332.200000
766.992432	326.900000
767.029358	331.300000
767.066284	333.800000
767.103271	331.500000
767.140198	360.900000
767.177124	343.300000
767.214050	339.800000
767.251038	340.500000
767.287964	338.200000
767.324890	336.600000
767.361816	341.100000
767.398743	347.200000
767.435730	340.900000
767.472595	346.100000
767.509583	352.200000
767.546509	339.300000
767.583374	349.600000
767.620361	340.800000
767.657288	349.000000
767.694214	348.100000
767.731140	348.600000
767.768066	349.800000
767.804993	356.900000
767.841919	347.800000
767.878845	353.700000
767.915710	362.800000
767.952698	354.300000
767.989563	359.000000
768.026489	360.400000
768.063416	357.000000
768.100281	358.900000
768.137207	371.300000
768.174133	367.700000
768.211060	367.800000
768.247986	366.600000
768.284912	367.600000
768.321777	369.400000
768.358704	368.500000
768.395630	373.700000
768.432495	367.800000
768.469421	372.500000
768.506348	381.000000
768.543152	385.100000
768.580078	383.400000
768.616943	383.000000
768.653870	385.400000
768.690796	385.300000
768.727661	381.000000
768.764587	386.000000
768.801453	380.100000
768.838318	393.100000
768.875244	391.700000
768.912109	395.700000
768.948975	390.500000
768.985901	392.200000
769.022766	391.300000
769.059631	398.800000
769.096558	395.700000
769.133362	395.300000
769.170288	394.300000
769.207214	399.800000
769.244019	405.900000
769.280945	402.500000
769.317810	411.600000
769.354675	407.700000
769.391541	417.500000
769.428406	411.600000
769.465271	425.000000
769.502136	412.200000
769.539062	414.200000
769.575867	413.600000
769.612732	417.900000
769.649597	424.000000
769.686462	428.200000
769.723328	421.400000
769.760193	419.400000
769.797058	422.300000
769.833923	431.100000
769.870728	429.300000
769.907593	430.100000
769.944519	432.300000
769.981323	434.300000
770.018188	437.200000
770.055054	431.400000
770.091858	430.100000
770.128723	444.300000
770.165588	452.900000
770.202393	435.800000
770.239258	447.800000
770.276062	441.800000
770.312927	445.600000
770.349792	452.300000
770.386597	451.300000
770.423462	458.100000
770.460327	467.100000
770.497131	449.500000
770.533997	446.800000
770.570862	461.200000
770.607605	463.100000
770.644470	454.200000
770.681335	456.000000
770.718140	454.900000
770.754944	448.800000
770.791809	449.300000
770.828613	451.600000
770.865479	453.300000
770.902222	465.700000
770.939087	456.800000
770.975952	447.200000
771.012695	454.600000
771.049561	471.600000
771.086365	457.200000
771.123169	453.200000
771.159973	460.600000
771.196838	460.300000
771.233582	461.900000
771.270447	463.000000
771.307251	469.300000
771.344055	466.000000
771.380859	468.800000
771.417664	464.100000
771.454468	474.400000
771.491272	476.700000
771.528076	475.000000
771.564880	474.300000
771.601685	483.100000
771.638428	473.300000
771.675293	477.600000
771.712097	472.400000
771.748840	490.100000
771.785645	479.800000
771.822449	485.300000
771.859253	486.200000
771.896057	484.400000
771.932861	497.900000
771.969604	485.100000
772.006409	479.600000
772.043213	497.600000
772.079956	492.200000
772.116760	485.800000
772.153503	491.500000
772.190308	505.100000
772.227112	495.100000
772.263855	492.500000
772.300659	496.400000
772.337463	506.700000
772.374207	494.300000
772.411011	493.700000
772.447754	497.100000
772.484497	516.300000
772.521301	509.300000
772.558105	510.400000
772.594849	512.100000
772.631592	517.500000
772.668396	518.100000
772.705139	525.100000
772.741882	524.600000
772.778625	538.200000
772.815430	545.300000
772.852173	535.800000
772.888916	544.600000
772.925720	547.900000
772.962463	551.700000
772.999207	550.500000
773.035950	557.200000
773.072754	555.600000
773.109436	551.300000
773.146240	553.500000
773.182922	554.100000
773.219727	564.000000
773.256470	560.500000
773.293152	547.100000
773.329956	555.200000
773.366699	564.600000
773.403381	556.000000
773.440186	567.400000
773.476929	571.400000
773.513611	561.100000
773.550354	563.600000
773.587158	566.100000
773.623840	563.600000
773.660583	575.600000
773.697327	590.300000
773.734009	578.600000
773.770813	578.100000
773.807495	577.200000
773.844238	582.400000
773.880981	598.800000
773.917664	596.000000
773.954407	599.300000
773.991150	588.900000
774.027832	594.100000
774.064575	589.400000
774.101318	602.400000
774.138000	608.600000
774.174744	599.300000
774.211487	606.300000
774.248108	596.600000
774.284851	593.100000
774.321594	605.800000
774.358276	611.900000
774.395020	622.800000
774.431702	623.100000
774.468384	617.000000
774.505127	607.000000
774.541809	623.300000
774.578491	638.200000
774.615234	642.900000
774.651917	631.700000
774.688599	637.300000
774.725342	644.100000
774.762024	642.400000
774.798706	653.600000
774.835449	655.400000
774.872070	663.900000
774.908813	654.300000
774.945496	647.200000
774.982178	653.200000
775.018860	659.400000
775.055542	663.600000
775.092224	664.400000
775.128967	671.200000
775.165588	666.900000
775.202271	656.900000
775.239014	669.600000
775.275635	675.600000
775.312317	671.900000
775.349060	678.700000
775.385681	675.100000
775.422363	664.600000
775.459045	682.800000
775.495667	684.100000
775.532410	692.200000
775.569092	688.800000
775.605713	684.600000
775.642395	682.500000
775.679016	690.400000
775.715698	697.800000
775.752380	696.000000
775.789001	695.200000
775.825684	692.600000
775.862366	694.700000
775.898987	708.600000
775.935669	697.000000
775.972351	723.100000
776.008972	716.300000
776.045654	717.800000
776.082336	709.700000
776.118958	710.100000
776.155640	712.800000
776.192322	720.800000
776.228882	728.600000
776.265564	723.800000
776.302185	714.900000
776.338867	721.500000
776.375488	708.200000
776.412109	726.400000
776.448792	734.000000
776.485413	739.000000
776.522034	729.800000
776.558716	720.800000
776.595337	717.500000
776.631958	726.600000
776.668579	728.600000
776.705261	736.800000
776.741882	730.000000
776.778503	729.600000
776.815186	724.200000
776.851746	744.400000
776.888367	735.600000
776.924988	742.800000
776.961609	731.000000
776.998291	733.700000
777.034851	720.000000
777.071472	739.500000
777.108154	736.900000
777.144714	753.800000
777.181335	748.400000
777.218018	745.200000
777.254578	747.100000
777.291199	745.700000
777.327759	753.000000
777.364380	760.300000
777.401062	769.600000
777.437622	780.100000
777.474243	765.600000
777.510864	774.400000
777.547424	770.000000
777.584045	774.700000
777.620667	780.400000
777.657227	785.700000
777.693848	783.300000
777.730469	798.400000
777.767029	791.600000
777.803650	798.500000
777.840271	789.900000
777.876831	788.700000
777.913452	798.700000
777.950012	778.000000
777.986633	783.200000
778.023193	781.600000
778.059753	784.300000
778.096375	788.300000
778.132996	796.400000
778.169556	784.600000
778.206116	791.700000
778.242737	786.000000
778.279297	797.600000
778.315857	783.700000
778.352478	792.900000
778.389038	803.700000
778.425598	806.600000
778.462219	817.400000
778.498718	814.900000
778.535339	821.000000
778.571838	828.500000
778.608459	839.700000
778.645020	829.300000
778.681580	845.200000
778.718140	845.500000
778.754761	836.200000
778.791260	843.200000
778.827881	858.600000
778.864441	859.100000
778.900940	864.500000
778.937561	859.600000
778.974121	863.200000
779.010620	848.700000
779.047241	856.500000
779.083801	865.300000
779.120300	865.500000
779.156860	868.200000
779.193359	864.600000
779.229980	866.800000
779.266541	874.300000
779.303040	882.000000
779.339600	871.500000
779.376160	877.400000
779.412659	876.500000
779.449219	865.200000
779.485779	880.300000
779.522278	885.300000
779.558838	892.200000
779.595398	890.600000
779.631897	896.300000
779.668457	888.900000
779.705017	890.100000
779.741516	882.200000
779.778076	879.200000
779.814575	890.100000
779.851074	899.700000
779.887634	897.800000
779.924133	909.100000
779.960693	897.100000
779.997253	904.400000
780.033691	917.200000
780.070251	919.000000
780.106812	924.800000
780.143250	929.700000
780.179810	920.700000
780.216370	926.500000
780.252808	936.900000
780.289368	950.100000
780.325867	952.500000
780.362366	948.600000
780.398865	963.600000
780.435364	953.400000
780.471863	964.400000
780.508423	965.800000
780.544861	977.000000
780.581421	984.500000
780.617920	975.600000
780.654419	963.300000
780.690918	976.300000
780.727417	982.000000
780.763916	982.500000
780.800415	997.500000
780.836914	974.300000
780.873352	977.200000
780.909912	967.300000
780.946411	975.100000
780.982849	988.100000
781.019348	1013.700000
781.055786	1003.000000
781.092346	1000.200000
781.128845	1009.300000
781.165283	1016.700000
781.201782	1023.600000
781.238281	1035.400000
781.274719	1035.500000
781.311218	1021.500000
781.347717	1029.300000
781.384155	1023.500000
781.420654	1024.200000
781.457092	1036.700000
781.493591	1036.100000
781.530090	1024.200000
781.566528	1026.100000
781.602966	1027.600000
781.639465	1023.700000
781.675903	1027.500000
781.712402	1048.500000
781.748901	1052.900000
781.785278	1036.300000
781.821777	1040.600000
781.858276	1039.500000
781.894714	1056.100000
781.931152	1045.900000
781.967651	1059.300000
782.004089	1045.500000
782.040527	1050.400000
782.076965	1053.300000
782.113403	1062.700000
782.149902	1067.800000
782.186340	1058.400000
782.222778	1069.000000
782.259277	1055.000000
782.295654	1061.200000
782.332092	1062.600000
782.368591	1051.100000
782.404968	1040.300000
782.441467	1056.900000
782.477905	1055.000000
782.514282	1051.400000
782.550781	1064.400000
782.587219	1061.600000
782.623596	1062.200000
782.660095	1067.100000
782.696472	1076.500000
782.732910	1080.200000
782.769348	1080.100000
782.805786	1098.300000
782.842224	1092.100000
782.878662	1088.700000
782.915039	1096.400000
782.951477	1090.900000
782.987915	1087.100000
783.024292	1101.500000
783.060730	1099.300000
783.097168	1086.300000
783.133545	1078.000000
783.169983	1071.700000
783.206421	1060.500000
783.242798	1062.700000
783.279236	1051.000000
783.315613	1044.000000
783.352051	1040.300000
783.388489	1029.400000
783.424866	1018.300000
783.461304	1019.100000
783.497681	1026.700000
783.534058	1023.000000
783.570496	1016.300000
783.606934	1018.000000
783.643250	1020.600000
783.679687	1036.100000
783.716125	1026.100000
783.752441	1040.400000
783.788879	1054.800000
783.825317	1064.300000
783.861633	1064.400000
783.898071	1073.500000
783.934448	1090.900000
783.970825	1103.400000
784.007263	1108.000000
784.043579	1100.800000
784.080017	1085.700000
784.116394	1021.200000
784.152710	906.900000
784.189148	745.400000
784.225525	566.600000
784.261902	416.800000
784.298279	373.500000
784.334656	403.300000
784.371033	426.300000
784.407410	436.600000
784.443787	408.800000
784.480164	376.600000
784.516541	403.300000
784.552856	542.200000
784.589233	714.800000
784.625610	872.300000
784.661987	1017.100000
784.698364	1046.700000
784.734741	1057.000000
784.771057	1058.200000
784.807434	1079.300000
784.843811	1098.700000
784.880127	1095.800000
784.916504	1124.400000
784.952881	1131.400000
784.989197	1125.400000
785.025574	1121.200000
785.061951	1137.400000
785.098267	1172.200000
785.134644	1172.000000
785.170959	1174.500000
785.207275	1176.700000
785.243652	1175.900000
785.279968	1162.000000
785.316345	1166.400000
785.352722	1172.700000
785.388977	1180.100000
785.425354	1155.800000
785.461731	1129.600000
785.498047	1119.500000
785.534363	1116.200000
785.570679	1112.600000
785.606995	1114.700000
785.643372	1127.800000
785.679687	1116.600000
785.716003	1103.200000
785.752380	1093.500000
785.788635	1099.400000
785.825012	1124.800000
785.861328	1140.900000
785.897644	1126.200000
785.933960	1137.800000
785.970337	1145.300000
786.006592	1162.900000
786.042908	1178.100000
786.079285	1199.300000
786.115540	1209.800000
786.151855	1208.700000
786.188171	1198.500000
786.224487	1203.900000
786.260803	1203.500000
786.297119	1214.000000
786.333435	1215.900000
786.369751	1211.100000
786.406006	1210.700000
786.442322	1191.200000
786.478638	1189.300000
786.514954	1216.300000
786.551270	1208.700000
786.587585	1213.500000
786.623840	1202.200000
786.660156	1192.000000
786.696472	1176.800000
786.732727	1173.400000
786.769043	1178.400000
786.805298	1169.500000
786.841614	1168.600000
786.877930	1168.400000
786.914124	1153.500000
786.950439	1172.800000
786.986755	1182.900000
787.023010	1203.900000
787.059326	1221.100000
787.095642	1210.100000
787.131836	1225.900000
787.168152	1210.700000
787.204468	1226.000000
787.240723	1254.200000
787.276978	1269.700000
787.313293	1273.300000
787.349548	1271.100000
787.385803	1261.400000
787.422058	1254.300000
787.458313	1263.200000
787.494629	1258.700000
787.530823	1271.100000
787.567139	1256.800000
787.603455	1236.800000
787.639648	1219.700000
787.675903	1217.200000
787.712219	1221.900000
787.748413	1210.600000
787.784729	1226.100000
787.820984	1213.500000
787.857178	1201.200000
787.893494	1194.000000
787.929749	1191.900000
787.965942	1200.500000
788.002258	1218.400000
788.038452	1231.300000
788.074707	1214.500000
788.110962	1212.000000
788.147217	1203.400000
788.183472	1216.600000
788.219727	1231.700000
788.255920	1245.800000
788.292175	1249.700000
788.328430	1242.200000
788.364624	1222.700000
788.400879	1223.900000
788.437134	1233.700000
788.473328	1227.800000
788.509583	1227.400000
788.545837	1220.100000
788.582031	1219.300000
788.618286	1192.200000
788.654480	1197.000000
788.690735	1207.200000
788.726990	1227.300000
788.763184	1234.700000
788.799377	1244.500000
788.835632	1232.000000
788.871826	1249.900000
788.908081	1249.200000
788.944336	1246.200000
788.980469	1262.300000
789.016724	1259.000000
789.052979	1259.300000
789.089111	1232.900000
789.125366	1234.400000
789.161621	1213.200000
789.197754	1229.000000
789.234009	1234.000000
789.270142	1212.900000
789.306396	1203.200000
789.342590	1185.800000
789.378784	1157.200000
789.414978	1159.200000
789.451233	1183.400000
789.487366	1186.900000
789.523621	1187.500000
789.559814	1180.500000
789.595947	1166.500000
789.632202	1178.600000
789.668335	1189.200000
789.704529	1219.000000
789.740784	1240.300000
789.776917	1238.400000
789.813110	1218.700000
789.849304	1240.900000
789.885498	1238.300000
789.921692	1257.800000
789.957886	1266.200000
789.994019	1258.500000
790.030212	1256.600000
790.066406	1251.800000
790.102539	1246.300000
790.138733	1260.700000
790.174927	1262.900000
790.211060	1282.600000
790.247253	1265.700000
790.283386	1245.100000
790.319580	1229.200000
790.355774	1212.800000
790.391907	1227.400000
790.428101	1241.500000
790.464294	1240.600000
790.500427	1246.900000
790.536621	1224.800000
790.572754	1205.000000
790.608887	1214.500000
790.645081	1226.200000
790.681274	1242.100000
790.717346	1236.500000
790.753540	1198.600000
790.789734	1122.100000
790.825867	1072.400000
790.862000	1079.600000
790.898132	1140.500000
790.934265	1224.400000
790.970459	1299.000000
791.006592	1319.800000
791.042725	1313.200000
791.078918	1314.300000
791.114990	1316.900000
791.151184	1333.700000
791.187317	1365.200000
791.223389	1352.400000
791.259583	1333.400000
791.295715	1346.700000
791.331848	1354.200000
791.367981	1363.900000
791.404114	1379.500000
791.440247	1374.600000
791.476379	1361.900000
791.512451	1334.400000
791.548584	1341.500000
791.584778	1341.700000
791.620850	1362.000000
791.656982	1368.600000
791.693115	1369.300000
791.729187	1364.400000
791.765381	1348.300000
791.801514	1344.800000
791.837585	1347.500000
791.873718	1355.600000
791.909851	1372.400000
791.945923	1378.000000
791.982056	1340.100000
792.018188	1341.000000
792.054260	1338.100000
792.090393	1350.200000
792.126465	1340.500000
792.162598	1343.700000
792.198669	1330.400000
792.234741	1330.400000
792.270874	1322.700000
792.307007	1305.400000
792.343079	1311.800000
792.379150	1327.700000
792.415283	1311.500000
792.451355	1308.800000
792.487488	1282.400000
792.523560	1285.400000
792.559631	1284.200000
792.595764	1286.400000
792.631836	1291.200000
792.667908	1300.800000
792.703979	1276.600000
792.740051	1279.000000
792.776184	1277.400000
792.812256	1285.300000
792.848328	1301.300000
792.884399	1309.800000
792.920471	1304.500000
792.956543	1295.300000
792.992615	1288.600000
793.028748	1280.600000
793.064758	1286.100000
793.100830	1317.400000
793.136963	1332.700000
793.172974	1323.100000
793.209045	1316.400000
793.245178	1327.000000
793.281189	1309.400000
793.317261	1322.500000
793.353271	1315.500000
793.389404	1331.700000
793.425476	1320.100000
793.461487	1297.400000
793.497559	1299.600000
793.533630	1307.700000
793.569641	1311.800000
793.605713	1312.100000
793.641785	1323.500000
793.677795	1334.700000
793.713867	1309.000000
793.749878	1306.500000
793.785950	1322.200000
793.822021	1329.800000
793.858032	1310.700000
793.894104	1326.500000
793.930176	1321.000000
793.966187	1322.400000
794.002258	1304.100000
794.038269	1301.400000
794.074280	1299.500000
794.110352	1323.900000
794.146423	1298.800000
794.182373	1301.700000
794.218445	1286.900000
794.254517	1275.600000
794.290466	1264.000000
794.326538	1262.900000
794.362549	1267.600000
794.398560	1270.600000
794.434631	1266.900000
794.470581	1240.500000
794.506653	1230.300000
794.542664	1234.500000
794.578674	1239.600000
794.614685	1232.100000
794.650757	1227.600000
794.686707	1231.500000
794.722778	1215.400000
794.758789	1215.900000
794.794739	1225.600000
794.830811	1259.900000
794.866821	1279.700000
794.902771	1271.900000
794.938843	1261.600000
794.974792	1255.200000
795.010803	1245.400000
795.046814	1249.100000
795.082825	1237.500000
795.118835	1248.700000
795.154846	1229.000000
795.190796	1243.500000
795.226807	1215.200000
795.262817	1220.100000
795.298767	1214.600000
795.334778	1218.400000
795.370850	1209.400000
795.406799	1212.400000
795.442810	1182.200000
795.478821	1181.000000
795.514709	1191.400000
795.550720	1203.900000
795.586670	1186.500000
795.622681	1189.900000
795.658691	1183.700000
795.694641	1172.500000
795.730652	1157.300000
795.766663	1166.800000
795.802551	1174.600000
795.838562	1189.000000
795.874573	1173.700000
795.910522	1174.400000
795.946472	1157.600000
795.982483	1155.500000
796.018433	1156.800000
796.054382	1180.700000
796.090393	1170.500000
796.126282	1162.600000
796.162292	1151.000000
796.198242	1141.400000
796.234192	1139.500000
796.270203	1138.200000
796.306091	1152.300000
796.342041	1161.900000
796.378052	1139.600000
796.413940	1148.400000
796.449951	1145.000000
796.485901	1140.700000
796.521790	1143.700000
796.557800	1159.600000
796.593689	1158.800000
796.629639	1148.800000
796.665649	1141.300000
796.701599	1137.700000
796.737488	1132.300000
796.773437	1134.700000
796.809387	1136.500000
796.845337	1137.800000
796.881287	1128.300000
796.917175	1106.700000
796.953125	1106.400000
796.989075	1119.600000
797.024963	1125.500000
797.060913	1124.300000
797.096863	1121.800000
797.132751	1110.800000
797.168701	1089.000000
797.204590	1092.900000
797.240540	1100.900000
797.276489	1109.900000
797.312439	1111.500000
797.348328	1107.700000
797.384277	1093.900000
797.420166	1084.400000
797.456055	1081.800000
797.492004	1078.300000
797.527893	1086.700000
797.563843	1093.300000
797.599731	1083.900000
797.635620	1065.600000
797.671570	1073.500000
797.707520	1076.000000
797.743347	1077.600000
797.779297	1088.400000
797.815125	1078.300000
797.851074	1070.500000
797.887024	1062.100000
797.922913	1045.800000
797.958801	1061.200000
797.994690	1063.400000
798.030579	1068.600000
798.066467	1074.200000
798.102356	1055.500000
798.138245	1048.100000
798.174133	1040.800000
798.210083	1048.000000
798.245911	1064.000000
798.281799	1064.600000
798.317749	1051.000000
798.353577	1040.100000
798.389465	1043.100000
798.425293	1041.100000
798.461243	1035.700000
798.497131	1042.300000
798.532959	1047.700000
798.568848	1048.100000
798.604736	1031.400000
798.640564	1019.200000
798.676453	1018.800000
798.712402	1025.600000
798.748230	1030.500000
798.784119	1024.900000
798.820007	1022.900000
798.855835	1019.400000
798.891724	1016.700000
798.927551	1013.300000
798.963379	1016.900000
798.999268	1015.400000
799.035095	1015.200000
799.070984	1008.500000
799.106873	989.300000
799.142700	1004.300000
799.178528	988.700000
799.214417	990.300000
799.250244	1009.900000
799.286133	1006.100000
799.321960	1001.200000
799.357788	990.500000
799.393677	992.200000
799.429504	992.900000
799.465332	990.600000
799.501221	1002.500000
799.537048	994.100000
799.572876	983.600000
799.608704	982.100000
799.644531	989.300000
799.680359	987.500000
799.716248	1000.300000
799.752014	1004.300000
799.787903	989.600000
799.823730	980.300000
799.859558	976.600000
799.895386	978.900000
799.931213	982.400000
799.967041	969.400000
800.002869	967.100000
800.038696	978.000000
800.074463	953.500000
800.110352	957.000000
800.146179	950.000000
800.181946	960.100000
800.217773	953.800000
800.253540	946.100000
800.289429	940.100000
800.325256	934.700000
800.361023	929.500000
800.396851	929.400000
800.432678	932.000000
800.468445	933.000000
800.504272	929.100000
800.540100	912.900000
800.575867	908.200000
800.611694	911.000000
800.647461	905.600000
800.683289	906.900000
800.719116	907.300000
800.754883	902.200000
800.790649	878.800000
800.826477	876.400000
800.862244	899.500000
800.898071	880.900000
800.933838	878.400000
800.969604	873.800000
801.005432	869.500000
801.041199	873.000000
801.076965	864.900000
801.112793	854.900000
801.148560	846.100000
801.184326	849.400000
801.220154	855.700000
801.255859	842.900000
801.291687	838.500000
801.327454	832.100000
801.363281	828.500000
801.398987	830.300000
801.434814	829.100000
801.470520	833.200000
801.506287	819.700000
801.542114	812.900000
801.577820	817.000000
801.613647	820.200000
801.649414	812.400000
801.685120	807.900000
801.720886	806.300000
801.756714	798.100000
801.792419	793.800000
801.828186	782.900000
801.863892	796.000000
801.899719	784.500000
801.935486	781.900000
801.971252	790.400000
802.006958	784.800000
802.042725	778.400000
802.078430	778.900000
802.114197	770.400000
802.149963	793.000000
802.185669	776.800000
802.221436	767.400000
802.257202	766.800000
802.292908	763.800000
802.328674	776.300000
802.364441	780.100000
802.400146	766.300000
802.435913	765.300000
802.471558	758.300000
802.507324	748.800000
802.543091	741.300000
802.578796	756.100000
802.614502	756.500000
802.650269	762.900000
802.685974	744.300000
802.721741	749.100000
802.757446	750.600000
802.793152	739.900000
802.828918	749.700000
802.864624	746.000000
802.900330	743.500000
802.936035	739.100000
802.971802	735.100000
803.007446	730.800000
803.043213	725.300000
803.078857	730.100000
803.114624	716.600000
803.150330	722.000000
803.185974	711.400000
803.221741	712.600000
803.257446	719.600000
803.293152	721.800000
803.328857	715.300000
803.364563	713.100000
803.400208	700.600000
803.435974	706.800000
803.471680	697.800000
803.507324	696.000000
803.543030	703.800000
803.578735	705.500000
803.614441	688.600000
803.650146	703.200000
803.685791	688.500000
803.721497	685.300000
803.757202	675.700000
803.792847	689.500000
803.828552	678.700000
803.864258	679.400000
803.899902	677.400000
803.935608	664.500000
803.971313	665.800000
804.006958	664.500000
804.042664	658.800000
804.078308	666.200000
804.113953	659.300000
804.149658	665.300000
804.185364	652.500000
804.221008	663.000000
804.256714	654.700000
804.292297	651.500000
804.328003	648.100000
804.363708	639.300000
804.399292	637.100000
804.434998	638.400000
804.470703	628.800000
804.506287	641.200000
804.541992	638.400000
804.577637	637.700000
804.613281	623.400000
804.648926	619.200000
804.684570	626.400000
804.720215	621.700000
804.755920	622.300000
804.791565	616.200000
804.827209	623.100000
804.862854	617.000000
804.898437	606.400000
804.934143	608.300000
804.969788	614.800000
805.005371	613.500000
805.041077	612.400000
805.076721	609.200000
805.112305	599.300000
805.147949	601.100000
805.183655	596.000000
805.219238	598.400000
805.254883	600.500000
805.290466	603.400000
805.326111	594.000000
805.361755	586.600000
805.397400	589.200000
805.432983	592.900000
805.468628	594.200000
805.504211	598.000000
805.539856	595.800000
805.575500	597.600000
805.611084	588.800000
805.646729	575.000000
805.682373	579.600000
805.717957	592.800000
805.753601	595.900000
805.789246	574.700000
805.824768	585.000000
805.860413	587.100000
805.895996	571.900000
805.931641	573.100000
805.967224	582.800000
806.002869	576.400000
806.038452	586.600000
806.074036	577.100000
806.109619	565.900000
806.145264	563.300000
806.180847	564.300000
806.216431	565.800000
806.252014	566.600000
806.287659	563.500000
806.323181	573.300000
806.358826	567.400000
806.394409	542.200000
806.429993	545.200000
806.465576	561.800000
806.501160	542.900000
806.536743	536.800000
806.572327	548.700000
806.607910	541.700000
806.643494	541.700000
806.679077	537.000000
806.714661	540.300000
806.750244	542.100000
806.785828	534.200000
806.821350	532.500000
806.856934	536.100000
806.892517	531.400000
806.928101	522.000000
806.963684	523.100000
806.999268	533.400000
807.034790	512.900000
807.070374	522.800000
807.105896	518.700000
807.141479	511.800000
807.177063	516.100000
807.212585	508.000000
807.248169	508.900000
807.283752	518.000000
807.319275	510.200000
807.354858	509.700000
807.390381	505.600000
807.425903	505.400000
807.461487	501.000000
807.497070	495.500000
807.532593	496.700000
807.568115	493.100000
807.603699	487.500000
807.639221	481.200000
807.674744	487.100000
807.710266	491.800000
807.745850	497.000000
807.781372	486.500000
807.816895	482.100000
807.852417	485.200000
807.888000	483.400000
807.923523	478.400000
807.959045	483.500000
807.994629	469.300000
808.030090	470.500000
808.065613	475.000000
808.101135	475.900000
808.136658	472.200000
808.172241	470.200000
808.207764	467.700000
808.243225	463.500000
808.278809	457.200000
808.314270	466.700000
808.349792	453.100000
808.385315	451.700000
808.420837	456.500000
808.456360	461.700000
808.491882	459.700000
808.527344	453.400000
808.562866	462.700000
808.598389	455.400000
808.633850	448.300000
808.669434	445.000000
808.704895	452.300000
808.740417	459.000000
808.775940	448.400000
808.811462	442.500000
808.846924	435.100000
808.882385	431.600000
808.917847	432.600000
808.953369	432.800000
808.988892	428.800000
809.024353	437.800000
809.059875	433.500000
809.095398	431.300000
809.130798	425.600000
809.166321	424.500000
809.201843	423.200000
809.237305	423.600000
809.272766	428.300000
809.308228	412.600000
809.343750	415.000000
809.379211	417.600000
809.414734	417.300000
809.450134	422.900000
809.485657	403.600000
809.521118	410.600000
809.556580	409.200000
809.592102	407.200000
809.627502	404.800000
809.663025	401.400000
809.698486	399.200000
809.733887	392.900000
809.769409	400.500000
809.804871	387.200000
809.840271	393.500000
809.875793	394.600000
809.911194	397.500000
809.946655	386.500000
809.982178	384.300000
810.017639	387.900000
810.053040	386.600000
810.088501	382.400000
810.123901	384.400000
810.159424	380.700000
810.194885	375.000000
810.230286	376.400000
810.265747	371.600000
810.301208	368.600000
810.336609	372.000000
810.372070	366.400000
810.407532	368.000000
810.442932	368.600000
810.478394	372.200000
810.513794	367.400000
810.549255	365.800000
810.584717	366.000000
810.620117	358.000000
810.655518	365.900000
810.690979	362.200000
810.726379	365.500000
810.761841	350.300000
810.797302	353.100000
810.832642	354.700000
810.868103	363.500000
810.903564	350.000000
810.938904	358.400000
810.974365	346.500000
811.009827	352.100000
811.045166	344.100000
811.080627	338.600000
811.115967	345.500000
811.151428	353.500000
811.186829	342.200000
811.222229	343.400000
811.257629	336.400000
811.293091	345.000000
811.328430	348.500000
811.363892	345.700000
811.399292	346.400000
811.434631	340.600000
811.470093	343.500000
811.505493	335.000000
811.540833	333.600000
811.576294	340.100000
811.611694	336.300000
811.647034	331.200000
811.682434	331.900000
811.717773	334.000000
811.753235	337.400000
811.788635	329.800000
811.823975	332.300000
811.859375	340.000000
811.894775	324.100000
811.930115	328.200000
811.965515	327.800000
812.000916	329.600000
812.036255	321.500000
812.071655	331.200000
812.106995	323.100000
812.142395	322.700000
812.177795	329.100000
812.213196	324.700000
812.248474	325.000000
812.283875	318.300000
812.319214	322.100000
812.354614	323.500000
812.390015	319.400000
812.425293	319.600000
812.460693	319.000000
812.496094	316.100000
812.531433	310.100000
812.566772	311.400000
812.602173	315.200000
812.637451	314.000000
812.672852	310.300000
812.708191	311.700000
812.743530	306.800000
812.778931	300.000000
812.814270	305.900000
812.849609	309.600000
812.884949	305.000000
812.920227	296.600000
812.955627	313.100000
812.990967	305.700000
813.026306	299.500000
813.061646	288.100000
813.096985	286.300000
813.132324	284.700000
813.167664	289.600000
813.203003	294.600000
813.238281	283.700000
813.273682	283.600000
813.308960	279.900000
813.344299	280.800000
813.379639	291.900000
813.414978	283.000000
813.450256	281.400000
813.485596	286.500000
813.520874	278.800000
813.556213	282.800000
813.591614	286.900000
813.626831	276.700000
813.662170	282.100000
813.697510	292.800000
813.732788	275.800000
813.768127	282.400000
813.803467	281.300000
813.838745	275.200000
813.874084	278.900000
813.909363	279.100000
813.944641	280.300000
813.979980	268.800000
814.015320	274.000000
814.050598	270.900000
814.085876	277.000000
814.121155	274.100000
814.156494	270.700000
814.191772	273.000000
814.227051	268.200000
814.262390	272.300000
814.297668	271.100000
814.332947	273.000000
814.368225	264.600000
814.403564	267.800000
814.438782	263.600000
814.474121	266.200000
814.509338	262.700000
814.544617	270.700000
814.579956	260.100000
814.615173	273.900000
814.650513	266.900000
814.685791	259.500000
814.721008	263.700000
814.756348	263.700000
814.791626	256.300000
814.826843	259.100000
814.862122	257.200000
814.897400	254.900000
814.932678	258.500000
814.967957	258.300000
815.003235	256.300000
815.038452	250.400000
815.073730	248.000000
815.108948	259.600000
815.144226	255.300000
815.179504	258.900000
815.214722	244.700000
815.250000	244.300000
815.285278	251.600000
815.320496	243.700000
815.355774	248.000000
815.391052	252.500000
815.426270	246.900000
815.461487	243.900000
815.496765	243.400000
815.531982	238.800000
815.567261	244.900000
815.602539	254.600000
815.637695	246.400000
815.672974	249.700000
815.708191	248.800000
815.743408	249.000000
815.778687	242.800000
815.813904	250.200000
815.849121	233.800000
815.884399	237.600000
815.919556	237.600000
815.954834	237.900000
815.990051	241.200000
816.025269	245.800000
816.060486	236.200000
816.095703	234.400000
816.130920	239.200000
816.166199	234.000000
816.201416	238.400000
816.236572	244.500000
816.271851	235.200000
816.307007	238.900000
816.342224	229.400000
816.377441	233.300000
816.412659	226.300000
816.447876	236.400000
816.483093	233.000000
816.518250	232.400000
816.553467	228.400000
816.588745	233.400000
816.623901	226.900000
816.659119	220.600000
816.694275	227.300000
816.729492	223.900000
816.764709	260.500000
816.799927	221.900000
816.835083	227.300000
816.870300	219.000000
816.905457	223.800000
816.940674	225.900000
816.975830	220.800000
817.010986	218.700000
817.046204	220.700000
817.081421	217.600000
817.116577	218.200000
817.151733	227.200000
817.186951	227.400000
817.222107	222.100000
817.257324	226.800000
817.292419	222.400000
817.327637	214.000000
817.362854	221.500000
817.398010	213.500000
817.433167	215.800000
817.468323	216.000000
817.503479	217.900000
817.538635	225.700000
817.573853	221.700000
817.608948	218.700000
817.644165	213.900000
817.679321	212.800000
817.714478	213.600000
817.749634	217.300000
817.784790	228.800000
817.819946	223.500000
817.855103	205.400000
817.890198	214.200000
817.925415	207.000000
817.960571	215.500000
817.995667	214.700000
818.030823	216.400000
818.066040	209.200000
818.101135	211.300000
818.136292	211.600000
818.171448	205.400000
818.206543	211.900000
818.241699	213.000000
818.276855	212.900000
818.311951	209.300000
818.347107	206.500000
818.382263	213.000000
818.417358	216.900000
818.452515	216.400000
818.487610	218.100000
818.522766	207.000000
818.557922	219.100000
818.593018	212.300000
818.628113	211.400000
818.663269	205.800000
818.698364	208.900000
818.733521	207.500000
818.768677	212.300000
818.803711	202.500000
818.838867	204.400000
818.874023	208.000000
818.909058	205.300000
818.944214	204.500000
818.979370	210.300000
819.014404	208.100000
819.049561	204.900000
819.084595	211.000000
819.119751	201.000000
819.154846	209.900000
819.189941	205.900000
819.225037	201.300000
819.260193	196.200000
819.295227	199.400000
819.330322	193.900000
819.365479	195.300000
819.400513	227.000000
819.435608	194.000000
819.470764	192.300000
819.505798	196.100000
819.540894	198.700000
819.575989	198.200000
819.611084	206.000000
819.646179	206.600000
819.681213	201.700000
819.716309	198.800000
819.751404	197.700000
819.786438	204.500000
819.821533	193.900000
819.856628	201.400000
819.891663	204.200000
819.926758	208.300000
819.961853	206.000000
819.996887	196.100000
820.031982	202.100000
820.067017	198.200000
820.102112	224.100000
820.137207	195.400000
820.172302	214.200000
820.207275	195.100000
820.242371	194.200000
820.277405	196.000000
820.312500	197.600000
820.347534	199.100000
820.382568	202.800000
820.417664	196.700000
820.452759	195.900000
820.487732	193.700000
820.522827	195.500000
820.557861	194.000000
820.592896	195.500000
820.627930	196.800000
820.662964	195.500000
820.698059	198.700000
820.733093	195.800000
820.768127	201.400000
820.803162	196.500000
820.838196	193.800000
820.873230	198.100000
820.908264	197.600000
820.943298	195.400000
820.978333	201.800000
821.013367	198.700000
821.048401	201.800000
821.083435	202.500000
821.118469	188.000000
821.153503	202.400000
821.188477	198.200000
821.223511	188.900000
821.258484	196.900000
821.293579	196.800000
821.328613	188.300000
821.363647	196.000000
821.398621	188.200000
821.433655	193.000000
821.468628	207.800000
821.503662	193.600000
821.538696	196.100000
821.573669	190.200000
821.608704	198.500000
821.643677	192.000000
821.678650	197.500000
821.713684	203.300000
821.748718	193.100000
821.783691	193.100000
821.818726	196.300000
821.853638	197.100000
821.888672	193.100000
821.923706	195.400000
821.958618	190.500000
821.993652	191.500000
822.028687	199.300000
822.063599	200.400000
822.098633	196.100000
822.133667	190.900000
822.168579	192.800000
822.203613	196.300000
822.238586	191.900000
822.273560	197.600000
822.308533	191.200000
822.343567	192.200000
822.378479	193.700000
822.413452	192.600000
822.448425	189.800000
822.483398	198.400000
822.518372	200.500000
822.553345	192.000000
822.588318	203.000000
822.623291	193.400000
822.658203	192.500000
822.693237	194.100000
822.728210	191.200000
822.763123	193.600000
822.798096	188.800000
822.833069	194.600000
822.867981	194.800000
822.902954	196.200000
822.937927	198.000000
822.972900	205.200000
823.007874	188.000000
823.042725	196.900000
823.077698	207.000000
823.112671	188.700000
823.147583	193.400000
823.182556	196.800000
823.217529	200.000000
823.252441	191.100000
823.287415	207.800000
823.322388	195.100000
823.357239	193.900000
823.392212	201.600000
823.427185	197.300000
823.462097	188.900000
823.497009	198.200000
823.531982	190.000000
823.566895	194.200000
823.601807	189.800000
823.636719	191.200000
823.671631	198.000000
823.706604	192.700000
823.741455	195.900000
823.776428	187.600000
823.811340	198.700000
823.846252	200.800000
823.881165	202.700000
823.916138	195.800000
823.950989	202.800000
823.985901	190.800000
824.020813	195.500000
824.055725	192.000000
824.090637	191.500000
824.125610	194.500000
824.160461	197.300000
824.195374	196.300000
824.230225	198.600000
824.265198	185.900000
824.300110	191.500000
824.334961	205.300000
824.369873	185.900000
824.404785	197.800000
824.439636	201.500000
824.474548	186.700000
824.509460	183.700000
824.544312	198.800000
824.579224	197.200000
824.614075	196.700000
824.648987	194.200000
824.683899	192.800000
824.718811	191.900000
824.753662	200.700000
824.788574	198.300000
824.823364	194.400000
824.858276	191.300000
824.893188	198.700000
824.928040	200.200000
824.962952	196.200000
824.997803	197.200000
825.032654	194.900000
825.067566	197.000000
825.102417	190.000000
825.137268	191.500000
825.172119	194.400000
825.206970	191.000000
825.241882	191.400000
825.276733	190.300000
825.311646	190.500000
825.346436	189.900000
825.381348	188.500000
825.416138	195.200000
825.450989	190.600000
825.485901	184.200000
825.520691	185.500000
825.555542	187.100000
825.590454	194.700000
825.625244	186.000000
825.660095	200.700000
825.695007	197.200000
825.729797	191.600000
825.764648	188.800000
825.799438	193.400000
825.834290	195.200000
825.869202	186.400000
825.903992	194.800000
825.938843	190.700000
825.973694	188.300000
826.008484	206.700000
826.043335	188.500000
826.078186	184.300000
826.112976	200.000000
826.147827	199.800000
826.182678	203.000000
826.217468	186.300000
826.252319	198.400000
826.287109	188.200000
826.321899	200.900000
826.356750	191.600000
826.391541	186.800000
826.426392	198.600000
826.461182	191.800000
826.495972	186.200000
826.530823	182.200000
826.565613	192.000000
826.600403	186.500000
826.635254	194.300000
826.670044	183.700000
826.704834	184.900000
826.739685	187.800000
826.774475	193.600000
826.809265	191.600000
826.844055	189.900000
826.878906	196.800000
826.913635	194.900000
826.948425	195.300000
826.983215	193.800000
827.018005	197.000000
827.052856	192.000000
827.087585	196.000000
827.122375	185.300000
827.157227	191.800000
827.191956	204.400000
827.226746	188.200000
827.261536	196.500000
827.296265	185.400000
827.331116	190.900000
827.365906	196.200000
827.400635	188.100000
827.435425	185.000000
827.470215	198.500000
827.504944	191.900000
827.539734	196.400000
827.574463	192.800000
827.609253	200.500000
827.644043	194.000000
827.678772	199.000000
827.713562	190.900000
827.748352	191.000000
827.783081	189.400000
827.817871	192.800000
827.852600	189.100000
827.887329	194.200000
827.922119	183.300000
827.956848	195.400000
827.991638	206.900000
828.026367	193.600000
828.061157	194.100000
828.095886	190.700000
828.130615	206.900000
828.165344	182.400000
828.200073	192.000000
828.234863	188.800000
828.269592	192.800000
828.304321	197.800000
828.339111	192.500000
828.373779	188.000000
828.408569	196.800000
828.443298	197.700000
828.477966	190.100000
828.512756	193.000000
828.547424	187.100000
828.582214	190.700000
828.616943	191.100000
828.651672	190.100000
828.686340	197.200000
828.721130	189.100000
828.755798	190.600000
828.790527	193.200000
828.825256	193.500000
828.859924	192.400000
828.894714	198.500000
828.929443	201.300000
828.964111	188.600000
828.998840	190.500000
829.033569	189.500000
829.068237	189.900000
829.102966	190.100000
829.137634	194.400000
829.172363	193.000000
829.207092	194.000000
829.241821	188.400000
829.276489	184.200000
829.311157	194.100000
829.345825	191.700000
829.380554	197.000000
829.415283	188.500000
829.449951	184.800000
829.484619	200.400000
829.519348	199.500000
829.554016	192.100000
829.588745	192.400000
829.623413	187.800000
829.658081	202.600000
829.692749	187.200000
829.727417	196.300000
829.762146	194.500000
829.796814	187.900000
829.831482	191.000000
829.866150	193.000000
829.900879	189.600000
829.935486	194.800000
829.970154	189.800000
830.004883	202.100000
830.039490	192.500000
830.074219	189.800000
830.108887	193.000000
830.143494	191.600000
830.178223	185.400000
830.212891	190.800000
830.247498	191.100000
830.282166	199.400000
830.316772	198.200000
830.351501	188.300000
830.386169	191.700000
830.420776	189.100000
830.455444	192.400000
830.490112	190.800000
830.524719	183.200000
830.559387	196.300000
830.594055	195.000000
830.628662	192.400000
830.663330	192.400000
830.697998	201.100000
830.732605	192.300000
830.767273	197.200000
830.801941	192.600000
830.836487	202.400000
830.871155	195.300000
830.905762	195.100000
830.940430	184.800000
830.975098	189.700000
831.009644	192.700000
831.044312	201.400000
831.078979	194.000000
831.113525	184.500000
831.148193	192.000000
831.182861	191.500000
831.217407	194.600000
831.252075	211.100000
831.286621	190.000000
831.321289	188.000000
831.355896	191.400000
831.390564	198.700000
831.425110	192.200000
831.459778	198.700000
831.494324	205.100000
831.528931	195.300000
831.563599	195.200000
831.598145	185.600000
831.632751	192.200000
831.667419	189.900000
831.701965	194.200000
831.736572	196.100000
831.771179	184.800000
831.805786	190.800000
831.840393	197.400000
831.874939	183.000000
831.909546	197.600000
831.944153	184.000000
831.978760	190.800000
832.013306	186.700000
832.047913	199.800000
832.082458	199.900000
832.117065	190.300000
832.151672	200.300000
832.186218	192.800000
832.220825	194.500000
832.255432	184.200000
832.289978	187.900000
832.324585	194.400000
832.359192	194.000000
832.393677	191.000000
832.428284	193.800000
832.462830	190.400000
832.497437	190.200000
832.531982	197.100000
832.566589	190.700000
832.601135	193.200000
832.635681	183.600000
832.670227	191.500000
832.704773	199.600000
832.739380	195.500000
832.773926	191.700000
832.808472	188.500000
832.843079	191.200000
832.877563	195.600000
832.912170	190.000000
832.946716	186.200000
832.981201	197.300000
833.015808	194.800000
833.050293	190.700000
833.084839	186.600000
833.119446	190.000000
833.153992	195.300000
833.188477	190.600000
833.223022	187.800000
833.257568	192.700000
833.292114	197.800000
833.326660	203.700000
833.361145	188.700000
833.395691	183.600000
833.430237	190.200000
833.464783	194.900000
833.499329	187.200000
833.533875	185.500000
833.568359	195.600000
833.602905	198.000000
833.637390	197.600000
833.671875	188.600000
833.706421	191.700000
833.740906	188.700000
833.775452	181.700000
833.809998	190.100000
833.844482	199.400000
833.879028	192.200000
833.913513	190.000000
833.947998	195.100000
833.982544	187.900000
834.017090	190.500000
834.051514	181.600000
834.086060	195.900000
834.120544	190.200000
834.155029	194.600000
834.189575	190.400000
834.223999	196.500000
834.258545	192.600000
834.293030	193.300000
834.327515	192.000000
834.362000	188.700000
834.396545	195.700000
834.430969	191.200000
834.465454	195.600000
834.500000	184.300000
834.534424	194.700000
834.568970	182.500000
834.603455	182.600000
834.637878	189.200000
834.672363	191.800000
834.706909	192.500000
834.741333	190.700000
834.775818	185.700000
834.810242	187.400000
834.844727	193.700000
834.879211	189.600000
834.913635	192.300000
834.948181	194.100000
834.982666	192.300000
835.017090	188.900000
835.051575	195.000000
835.086060	189.100000
835.120483	195.900000
835.154907	196.500000
835.189331	191.300000
835.223816	193.400000
835.258301	187.000000
835.292786	185.600000
835.327209	197.200000
835.361694	188.700000
835.396057	189.100000
835.430542	195.100000
835.465027	192.700000
835.499390	186.600000
835.533875	211.100000
835.568359	190.500000
835.602722	185.000000
835.637207	194.000000
835.671692	185.100000
835.706055	209.900000
835.740540	194.600000
835.774902	196.900000
835.809387	193.500000
835.843811	187.700000
835.878235	199.200000
835.912659	186.600000
835.947083	188.600000
835.981506	192.200000
836.015930	184.800000
836.050354	197.000000
836.084778	200.800000
836.119202	196.800000
836.153625	203.400000
836.187988	188.600000
836.222473	188.900000
836.256897	194.200000
836.291260	191.100000
836.325684	194.100000
836.360046	189.400000
836.394470	190.800000
836.428894	198.700000
836.463318	189.500000
836.497681	197.500000
836.532104	198.500000
836.566467	191.800000
836.600891	191.500000
836.635315	195.700000
836.669678	194.700000
836.704102	197.000000
836.738525	192.500000
836.772888	183.200000
836.807251	189.400000
836.841675	193.400000
836.876038	186.900000
836.910461	188.800000
836.944763	195.800000
836.979187	189.400000
837.013611	198.100000
837.047974	185.500000
837.082336	203.800000
837.116699	196.800000
837.151062	192.500000
837.185486	186.200000
837.219849	190.400000
837.254211	195.800000
837.288574	191.500000
837.322937	187.700000
837.357300	179.000000
837.391663	205.800000
837.426086	197.800000
837.460388	193.100000
837.494751	198.300000
837.529114	190.300000
837.563477	197.800000
837.597839	194.300000
837.632141	191.200000
837.666565	189.400000
837.700928	194.200000
837.735229	196.800000
837.769592	194.900000
837.803955	197.300000
837.838257	188.200000
837.872620	189.200000
837.906982	198.600000
837.941284	192.500000
837.975647	192.800000
838.010010	198.900000
838.044312	190.200000
838.078674	190.400000
838.112976	193.000000
838.147339	195.700000
838.181702	192.000000
838.216003	201.500000
838.250366	194.500000
838.284668	195.700000
838.318970	184.100000
838.353333	193.100000
838.387634	189.800000
838.421936	193.100000
838.456299	193.000000
838.490601	199.600000
838.524902	195.600000
838.559265	197.600000
838.593567	195.600000
838.627869	186.500000
838.662170	194.900000
838.696472	185.300000
838.730774	188.700000
838.765137	198.100000
838.799377	179.300000
838.833740	193.900000
838.868042	199.900000
838.902283	184.000000
838.936646	199.200000
838.970947	194.200000
839.005188	196.900000
839.039551	184.700000
839.073792	199.300000
839.108093	190.200000
839.142395	203.100000
839.176697	185.800000
839.210937	194.400000
839.245300	202.700000
839.279541	187.000000
839.313843	190.200000
839.348145	196.500000
839.382385	196.100000
839.416687	198.400000
839.450989	195.600000
839.485229	191.400000
839.519531	187.600000
839.553833	198.600000
839.588013	191.400000
839.622314	192.300000
839.656555	194.200000
839.690857	192.600000
839.725159	185.300000
839.759460	188.700000
839.793640	188.800000
839.827942	190.500000
839.862183	187.200000
839.896423	193.300000
839.930725	200.800000
839.964966	199.300000
839.999207	198.900000
840.033508	199.100000
840.067688	188.500000
840.101990	201.100000
840.136230	191.700000
840.170471	199.400000
840.204712	188.200000
840.238953	187.900000
840.273193	194.800000
840.307434	196.400000
840.341736	187.900000
840.375916	186.600000
840.410217	191.000000
840.444397	196.200000
840.478638	196.200000
840.512878	198.700000
840.547119	193.600000
840.581360	195.300000
840.615601	204.100000
840.649780	200.800000
840.684021	194.100000
840.718262	199.600000
840.752441	199.300000
840.786682	193.800000
840.820862	195.600000
840.855103	199.500000
840.889343	194.200000
840.923584	197.200000
840.957764	194.900000
840.992004	194.000000
841.026184	205.900000
841.060425	190.100000
841.094666	189.600000
841.128845	194.600000
841.163025	195.100000
841.197266	194.600000
841.231445	194.400000
841.265686	193.000000
841.299866	189.300000
841.334045	198.900000
841.368286	191.400000
841.402405	198.800000
841.436646	196.300000
841.470825	190.600000
841.505005	191.600000
841.539185	189.900000
841.573425	188.800000
841.607544	191.900000
841.641785	192.700000
841.675964	186.800000
841.710144	192.400000
841.744324	190.000000
841.778503	190.600000
841.812683	189.100000
841.846863	202.100000
841.881042	199.000000
841.915222	189.400000
841.949402	209.500000
841.983521	184.600000
842.017700	191.700000
842.051880	195.100000
842.086060	195.600000
842.120239	193.900000
842.154419	191.900000
842.188538	193.900000
842.222717	190.500000
842.256897	202.900000
842.291016	191.300000
842.325195	194.900000
842.359375	204.600000
842.393494	201.000000
842.427673	194.600000
842.461853	194.600000
842.495911	201.500000
842.530090	194.300000
842.564209	192.800000
842.598389	194.000000
842.632568	194.600000
842.666626	196.400000
842.700806	189.200000
842.734985	189.600000
842.769043	196.500000
842.803223	189.400000
842.837402	191.700000
842.871460	189.400000
842.905640	201.500000
842.939697	188.200000
842.973877	195.000000
843.007996	198.000000
843.042175	202.500000
843.076233	190.500000
843.110413	195.700000
843.144470	201.000000
843.178589	196.200000
843.212769	188.900000
843.246826	197.700000
843.280945	190.900000
843.315125	191.000000
843.349182	188.200000
843.383301	199.900000
843.417419	205.600000
843.451538	193.700000
843.485657	192.600000
843.519714	191.400000
843.553833	196.500000
843.587952	192.100000
843.622070	189.300000
843.656128	196.800000
843.690247	192.600000
843.724304	190.900000
843.758423	195.500000
843.792542	190.900000
843.826599	193.500000
843.860718	191.100000
843.894836	188.100000
843.928894	194.400000
843.963013	196.200000
843.997070	188.400000
844.031128	186.800000
844.065247	199.300000
844.099304	199.800000
844.133362	194.800000
844.167480	196.500000
844.201599	199.700000
844.235596	196.400000
844.269714	194.800000
844.303711	194.600000
844.337830	185.100000
844.371948	197.300000
844.405945	191.500000
844.440063	187.700000
844.474121	206.000000
844.508118	192.000000
844.542236	191.200000
844.576294	192.400000
844.610352	186.400000
844.644409	192.600000
844.678406	184.400000
844.712524	196.700000
844.746582	199.900000
844.780640	194.400000
844.814636	193.100000
844.848755	203.100000
844.882751	192.500000
844.916809	198.900000
844.950867	195.100000
844.984863	202.500000
845.018921	192.400000
845.052979	189.400000
845.086975	194.200000
845.121033	187.700000
845.155090	188.900000
845.189087	201.100000
845.223145	191.200000
845.257141	193.200000
845.291199	197.400000
845.325256	200.800000
845.359253	193.300000
845.393250	203.300000
845.427307	192.400000
845.461304	194.000000
845.495361	195.200000
845.529358	203.100000
845.563354	191.300000
845.597412	190.400000
845.631409	201.000000
845.665405	200.000000
845.699463	199.600000
845.733459	191.500000
845.767456	200.900000
845.801453	192.800000
845.835449	201.000000
845.869446	196.700000
845.903503	198.400000
845.937439	190.100000
845.971497	201.100000
846.005493	185.600000
846.039429	197.000000
846.073486	202.900000
846.107483	192.400000
846.141418	194.200000
846.175476	193.800000
846.209473	199.700000
846.243408	190.000000
846.277405	194.100000
846.311401	188.500000
846.345337	193.400000
846.379395	199.200000
846.413330	189.800000
846.447327	201.800000
846.481323	186.700000
846.515259	190.900000
846.549255	195.500000
846.583252	196.200000
846.617187	187.800000
846.651184	196.300000
846.685120	192.200000
846.719055	202.300000
846.753052	200.000000
846.786987	198.900000
846.820984	187.900000
846.854980	200.400000
846.888916	189.500000
846.922852	196.700000
846.956848	202.700000
846.990723	190.200000
847.024719	195.900000
847.058716	193.600000
847.092590	202.200000
847.126587	196.400000
847.160522	192.800000
847.194458	198.300000
847.228455	190.700000
847.262390	189.700000
847.296265	193.700000
847.330261	200.300000
847.364136	191.500000
847.398132	189.200000
847.432068	195.200000
847.466003	192.300000
847.499939	193.500000
847.533875	195.800000
847.567749	192.400000
847.601746	190.500000
847.635681	198.300000
847.669556	184.300000
847.703491	199.900000
847.737427	208.100000
847.771301	190.400000
847.805237	194.800000
847.839233	194.900000
847.873108	193.000000
847.907043	192.200000
847.940918	199.400000
847.974854	195.400000
848.008789	197.500000
848.042664	194.600000
848.076538	197.500000
848.110474	194.300000
848.144348	195.500000
848.178284	187.200000
848.212219	194.600000
848.246094	192.300000
848.279968	196.600000
848.313904	196.800000
848.347778	194.400000
848.381653	193.200000
848.415588	190.300000
848.449463	191.400000
848.483337	198.200000
848.517212	199.500000
848.551086	195.700000
848.585022	189.000000
848.618835	202.300000
848.652771	192.200000
848.686646	189.900000
848.720520	201.400000
848.754395	193.300000
848.788330	198.000000
848.822144	198.200000
848.856018	190.800000
848.889954	204.300000
848.923767	189.100000
848.957642	191.800000
848.991577	197.000000
849.025391	192.700000
849.059265	193.000000
849.093079	189.500000
849.126953	188.500000
849.160828	200.200000
849.194641	194.000000
849.228577	192.300000
849.262451	193.100000
849.296265	191.800000
849.330139	188.300000
849.364014	194.700000
849.397827	196.200000
849.431702	194.700000
849.465515	198.200000
849.499329	185.900000
849.533203	189.100000
849.567078	183.200000
849.600891	197.300000
849.634766	192.300000
849.668518	198.700000
849.702393	194.700000
849.736267	186.600000
849.770020	206.100000
849.803894	197.800000
849.837769	194.200000
849.871521	193.600000
849.905396	200.100000
849.939270	190.100000
849.973022	192.200000
850.006897	197.700000
850.040710	197.000000
850.074524	199.000000
850.108337	193.500000
850.142151	199.100000
850.175964	200.800000
850.209778	195.100000
850.243530	182.000000
850.277405	200.600000
850.311218	193.000000
850.344971	191.900000
850.378845	201.900000
850.412659	192.100000
850.446411	193.700000
850.480225	194.300000
850.514038	199.800000
850.547791	196.300000
850.581665	193.300000
850.615417	191.400000
850.649231	194.000000
850.683044	194.200000
850.716858	193.000000
850.750610	194.500000
850.784424	198.300000
850.818176	191.400000
850.851929	190.700000
850.885742	192.300000
850.919495	193.100000
850.953308	199.700000
850.987122	201.600000
851.020874	188.700000
851.054626	185.900000
851.088440	198.000000
851.122192	196.600000
851.156006	195.100000
851.189697	192.900000
851.223511	186.800000
851.257263	197.900000
851.291077	197.100000
851.324829	192.700000
851.358582	192.000000
851.392334	191.400000
851.426086	191.600000
851.459900	201.100000
851.493591	193.900000
851.527344	195.600000
851.561157	194.000000
851.594849	198.300000
851.628662	197.200000
851.662415	201.700000
851.696106	197.100000
851.729858	199.100000
851.763611	188.500000
851.797363	194.800000
851.831116	191.000000
851.864868	196.900000
851.898560	198.000000
851.932312	193.100000
851.966064	196.300000
851.999817	195.100000
852.033569	193.000000
852.067261	198.800000
852.101013	190.100000
852.134766	194.200000
852.168457	183.200000
852.202209	198.700000
852.235901	189.600000
852.269592	197.400000
852.303345	201.800000
852.337036	196.800000
852.370789	193.900000
852.404541	198.300000
852.438171	188.600000
852.471924	193.900000
852.505676	187.100000
852.539307	196.100000
852.573059	190.100000
852.606812	191.800000
852.640442	192.800000
852.674194	198.500000
852.707886	202.700000
852.741577	200.600000
852.775269	188.100000
852.809021	195.100000
852.842651	196.400000
852.876404	199.200000
852.910034	193.900000
852.943787	199.400000
852.977478	196.000000
853.011108	190.900000
853.044861	192.000000
853.078552	201.900000
853.112183	196.000000
853.145874	197.200000
853.179626	185.400000
853.213257	196.200000
853.246948	192.200000
853.280640	202.800000
853.314270	194.500000
853.347961	201.700000
853.381653	197.300000
853.415283	199.200000
853.448975	191.900000
853.482605	195.300000
853.516296	195.100000
853.549988	188.800000
853.583618	197.100000
853.617310	195.500000
853.651001	196.400000
853.684631	189.200000
853.718323	192.700000
853.751953	202.200000
853.785583	185.900000
853.819275	198.100000
853.852966	195.000000
853.886536	184.500000
853.920227	189.700000
853.953918	198.700000
853.987488	191.500000
854.021179	198.100000
854.054749	202.100000
854.088440	194.800000
854.122131	189.300000
854.155701	196.900000
854.189331	188.900000
854.223022	196.100000
854.256592	197.100000
854.290283	189.800000
854.323914	197.200000
854.357483	195.300000
854.391174	197.900000
854.424744	202.900000
854.458374	195.900000
854.492065	204.900000
854.525696	195.400000
854.559265	200.500000
854.592896	205.400000
854.626465	194.600000
854.660095	194.400000
854.693787	195.900000
854.727356	194.400000
854.760986	199.000000
854.794617	195.300000
854.828186	193.100000
854.861816	197.600000
854.895447	197.100000
854.929016	196.400000
854.962585	198.100000
854.996155	203.200000
855.029785	196.600000
855.063416	197.300000
855.097046	201.100000
855.130615	189.800000
855.164185	202.000000
855.197754	194.800000
855.231384	199.000000
855.264954	192.300000
855.298523	199.800000
855.332153	194.800000
855.365723	203.500000
855.399292	189.900000
855.432922	194.300000
855.466492	197.200000
855.500061	190.300000
855.533630	189.700000
855.567200	198.100000
855.600769	200.100000
855.634338	199.700000
855.667969	196.100000
855.701477	191.100000
855.735046	189.800000
855.768616	186.100000
855.802185	196.400000
855.835754	208.600000
855.869324	186.500000
855.902893	192.500000
855.936401	199.200000
855.969971	195.200000
856.003540	187.000000
856.037109	198.700000
856.070618	194.400000
856.104187	188.800000
856.137695	192.600000
856.171265	184.500000
856.204834	193.800000
856.238403	198.700000
856.271912	190.900000
856.305481	195.900000
856.338989	188.400000
856.372559	198.800000
856.406128	196.200000
856.439636	199.800000
856.473145	192.400000
856.506653	201.000000
856.540222	195.300000
856.573792	201.000000
856.607300	198.200000
856.640808	189.000000
856.674377	195.500000
856.707825	223.500000
856.741394	199.900000
856.774902	192.200000
856.808472	185.600000
856.841980	198.000000
856.875488	204.100000
856.908936	187.100000
856.942505	193.300000
856.976013	193.200000
857.009521	190.300000
857.043030	194.400000
857.076477	192.700000
857.110046	198.100000
857.143555	195.400000
857.177063	199.700000
857.210571	192.000000
857.244080	186.300000
857.277527	196.900000
857.311035	192.700000
857.344543	197.800000
857.378052	192.400000
857.411499	198.300000
857.445068	203.000000
857.478516	192.700000
857.512024	188.800000
857.545532	192.800000
857.578979	196.300000
857.612427	193.600000
857.645874	191.200000
857.679382	194.900000
857.712891	198.100000
857.746399	193.400000
857.779846	199.500000
857.813354	199.400000
857.846741	194.100000
857.880249	189.600000
857.913757	194.800000
857.947266	196.700000
857.980652	200.100000
858.014160	191.900000
858.047546	193.200000
858.081055	193.200000
858.114563	202.500000
858.147949	188.800000
858.181458	198.900000
858.214844	193.300000
858.248352	187.800000
858.281799	199.500000
858.315308	208.800000
858.348694	196.400000
858.382141	204.400000
858.415588	198.600000
858.449036	200.700000
858.482483	196.500000
858.515930	191.100000
858.549377	194.500000
858.582825	202.000000
858.616211	197.500000
858.649658	197.000000
858.683105	189.000000
858.716553	192.100000
858.750000	187.100000
858.783386	191.300000
858.816833	185.700000
858.850281	196.600000
858.883728	197.400000
858.917114	194.000000
858.950562	202.400000
858.983948	204.300000
859.017395	197.600000
859.050781	192.900000
859.084167	191.000000
859.117615	187.600000
859.151062	196.300000
859.184448	191.100000
859.217834	191.600000
859.251282	192.600000
859.284668	189.700000
859.318054	184.800000
859.351440	192.000000
859.384888	203.100000
859.418274	186.400000
859.451721	185.700000
859.485046	198.400000
859.518494	195.700000
859.551819	191.000000
859.585266	197.700000
859.618652	197.900000
859.652039	189.300000
859.685425	190.300000
859.718811	188.400000
859.752197	182.900000
859.785583	201.300000
859.819031	202.400000
859.852356	195.800000
859.885742	190.900000
859.919067	194.000000
859.952454	192.900000
859.985901	198.900000
860.019287	192.100000
860.052612	0.000000
860.085999	0.000000
860.119324	0.000000
860.152710	0.000000
860.186096	0.000000
860.219421	0.000000
860.252808	0.000000
860.286133	0.000000
860.319519	0.000000
860.352905	0.000000
860.386292	0.000000
860.419617	0.000000
860.452942	0.000000
860.486267	0.000000
860.519653	0.000000
860.553040	0.000000
860.586365	0.000000
860.619690	0.000000
860.653076	0.000000
860.686340	0.000000
860.719727	0.000000
860.753113	0.000000
860.786377	0.000000
860.819763	0.000000
860.853027	0.000000
860.886414	0.000000
860.919739	0.000000
860.953125	0.000000
860.986389	0.000000
861.019714	0.000000
861.053040	0.000000
861.086365	0.000000
861.119690	0.000000
861.153076	0.000000
861.186340	0.000000
861.219666	0.000000
861.252930	0.000000
861.286316	0.000000
861.319641	0.000000
861.352905	0.000000
861.386230	0.000000
861.419495	0.000000
861.452820	0.000000
861.486145	0.000000
861.519470	0.000000
861.552734	0.000000
861.586060	0.000000
861.619324	0.000000
861.652649	0.000000
861.685974	0.000000
861.719238	0.000000
861.752563	0.000000
861.785828	0.000000
861.819092	0.000000
861.852417	0.000000
861.885742	0.000000
861.918945	0.000000
861.952271	0.000000
861.985535	0.000000
862.018799	0.000000
862.052124	0.000000
862.085449	0.000000
862.118652	0.000000
862.151978	0.000000
862.185181	0.000000
862.218506	0.000000
862.251770	0.000000
862.285034	0.000000
862.318298	0.000000
862.351562	0.000000
862.384827	0.000000
862.418091	0.000000
862.451355	0.000000
862.484619	0.000000
862.517883	0.000000
862.551086	0.000000
862.584351	0.000000
862.617676	0.000000
862.650940	0.000000
862.684143	0.000000
862.717407	0.000000
862.750610	0.000000
862.783875	0.000000
862.817139	0.000000
862.850342	0.000000
862.883606	0.000000
862.916870	0.000000
862.950073	0.000000
862.983337	0.000000
863.016602	0.000000
863.049805	0.000000
863.083069	0.000000
863.116211	0.000000
863.149475	0.000000
863.182739	0.000000
863.216003	0.000000
863.249146	0.000000
863.282410	0.000000
863.315613	0.000000
863.348816	0.000000
863.382080	0.000000
863.415222	0.000000
863.448486	0.000000
863.481689	0.000000
863.514893	0.000000
863.548157	0.000000
863.581360	0.000000
863.614502	0.000000
863.647766	0.000000
863.680908	0.000000
863.714172	0.000000
863.747375	0.000000
863.780579	0.000000
863.813721	0.000000
863.846985	0.000000
863.880127	0.000000
863.913330	0.000000
863.946533	0.000000
863.979675	0.000000
864.012939	0.000000
