Model Number: SPM-001-M   
Serial Number: 10090201
Firmware Version: 004.17.6
Exposure Time: 500000.000000us
Data Taken on: 10-03-2021 10:36:33.998
Wavelength	Amplitude
733.770752	0.000000
733.808716	0.000000
733.846619	0.000000
733.884583	0.000000
733.922546	0.000000
733.960449	0.000000
733.998413	0.000000
734.036377	0.000000
734.074219	0.000000
734.112183	0.000000
734.150085	0.000000
734.188049	0.000000
734.226013	0.000000
734.263916	0.000000
734.301819	0.000000
734.339783	0.000000
734.377686	0.000000
734.415588	0.000000
734.453552	0.000000
734.491455	0.000000
734.529419	0.000000
734.567322	0.000000
734.605225	0.000000
734.643127	0.000000
734.681091	0.000000
734.718994	0.000000
734.756897	0.000000
734.794800	0.000000
734.832703	0.000000
734.870667	0.000000
734.908508	0.000000
734.946472	0.000000
734.984375	0.000000
735.022278	0.000000
735.060181	0.000000
735.098083	0.000000
735.135986	0.000000
735.173889	0.000000
735.211792	0.000000
735.249695	0.000000
735.287598	0.000000
735.325439	0.000000
735.363403	0.000000
735.401306	0.000000
735.439148	0.000000
735.477051	0.000000
735.515015	0.000000
735.552856	0.000000
735.590759	0.000000
735.628662	0.000000
735.666504	0.000000
735.704407	0.000000
735.742310	0.000000
735.780212	0.000000
735.818115	0.000000
735.856018	0.000000
735.893860	0.000000
735.931763	0.000000
735.969604	0.000000
736.007507	0.000000
736.045410	0.000000
736.083252	0.000000
736.121094	0.000000
736.158997	0.000000
736.196838	0.000000
736.234741	0.000000
736.272644	0.000000
736.310486	0.000000
736.348389	0.000000
736.386230	0.000000
736.424072	0.000000
736.461975	0.000000
736.499878	0.000000
736.537720	0.000000
736.575562	0.000000
736.613403	0.000000
736.651306	0.000000
736.689148	0.000000
736.726990	0.000000
736.764893	0.000000
736.802734	0.000000
736.840576	0.000000
736.878418	0.000000
736.916321	0.000000
736.954102	0.000000
736.992004	0.000000
737.029846	0.000000
737.067688	0.000000
737.105530	0.000000
737.143372	0.000000
737.181213	0.000000
737.219116	0.000000
737.256897	0.000000
737.294739	0.000000
737.332642	0.000000
737.370422	0.000000
737.408325	0.000000
737.446167	0.000000
737.483948	0.000000
737.521790	0.000000
737.559692	0.000000
737.597473	0.000000
737.635315	0.000000
737.673157	0.000000
737.710999	0.000000
737.748840	0.000000
737.786621	0.000000
737.824463	0.000000
737.862305	0.000000
737.900085	0.000000
737.937927	0.000000
737.975769	0.000000
738.013550	0.000000
738.051392	0.000000
738.089233	0.000000
738.127014	0.000000
738.164856	0.000000
738.202698	0.000000
738.240479	0.000000
738.278320	0.000000
738.316162	0.000000
738.353943	0.000000
738.391785	0.000000
738.429565	0.000000
738.467407	0.000000
738.505188	0.000000
738.542969	0.000000
738.580811	0.000000
738.618652	0.000000
738.656372	0.000000
738.694214	0.000000
738.732056	0.000000
738.769836	0.000000
738.807617	0.000000
738.845459	0.000000
738.883240	0.000000
738.921021	0.000000
738.958862	0.000000
738.996582	0.000000
739.034424	0.000000
739.072205	0.000000
739.109985	0.000000
739.147827	0.000000
739.185547	0.000000
739.223389	0.000000
739.261169	0.000000
739.298889	0.000000
739.336731	0.000000
739.374512	0.000000
739.412292	0.000000
739.450073	0.000000
739.487854	0.000000
739.525635	0.000000
739.563416	0.000000
739.601135	0.000000
739.638977	0.000000
739.676758	0.000000
739.714478	0.000000
739.752258	0.000000
739.790100	0.000000
739.827820	0.000000
739.865601	0.000000
739.903381	0.000000
739.941101	0.000000
739.978882	194.900000
740.016724	192.200000
740.054443	197.500000
740.092224	188.600000
740.130005	189.900000
740.167725	189.500000
740.205505	189.600000
740.243225	198.600000
740.281006	194.400000
740.318787	186.500000
740.356506	199.600000
740.394287	197.900000
740.432068	188.800000
740.469727	185.900000
740.507507	196.800000
740.545288	192.900000
740.583008	195.300000
740.620789	192.800000
740.658569	184.400000
740.696228	191.600000
740.734009	198.900000
740.771790	180.800000
740.809509	196.500000
740.847229	188.400000
740.884949	190.400000
740.922729	185.500000
740.960449	190.800000
740.998169	187.100000
741.035950	188.500000
741.073669	193.300000
741.111389	193.000000
741.149170	202.600000
741.186890	203.100000
741.224609	195.400000
741.262329	194.200000
741.300110	202.900000
741.337769	185.900000
741.375549	186.900000
741.413208	192.900000
741.450989	187.600000
741.488708	189.000000
741.526367	189.700000
741.564148	195.500000
741.601868	196.600000
741.639526	192.300000
741.677307	193.100000
741.715027	194.500000
741.752686	188.500000
741.790466	198.500000
741.828186	195.700000
741.865845	188.400000
741.903564	184.400000
741.941345	192.000000
741.979004	189.700000
742.016724	195.500000
742.054382	193.400000
742.092102	197.200000
742.129822	186.200000
742.167480	190.700000
742.205200	191.900000
742.242920	194.500000
742.280640	197.700000
742.318359	188.400000
742.356079	189.500000
742.393738	195.800000
742.431396	191.600000
742.469116	195.500000
742.506775	181.100000
742.544495	194.200000
742.582214	197.200000
742.619873	191.000000
742.657593	199.400000
742.695251	196.300000
742.732971	192.200000
742.770630	193.000000
742.808289	191.300000
742.846008	191.700000
742.883728	195.500000
742.921326	191.500000
742.959045	189.700000
742.996765	191.000000
743.034424	192.400000
743.072083	190.200000
743.109802	191.400000
743.147400	185.400000
743.185120	193.800000
743.222839	191.500000
743.260437	196.700000
743.298157	192.700000
743.335754	184.700000
743.373474	189.800000
743.411133	183.200000
743.448792	192.900000
743.486450	192.800000
743.524170	184.200000
743.561768	192.200000
743.599487	198.000000
743.637146	203.400000
743.674744	192.100000
743.712463	190.000000
743.750122	194.500000
743.787720	194.600000
743.825439	188.600000
743.863037	191.200000
743.900696	193.400000
743.938416	215.900000
743.976013	192.000000
744.013672	200.100000
744.051331	198.800000
744.088928	202.600000
744.126587	199.200000
744.164307	194.300000
744.201904	190.500000
744.239563	194.500000
744.277222	194.700000
744.314819	192.200000
744.352478	200.200000
744.390137	192.300000
744.427734	195.600000
744.465393	188.600000
744.502991	187.300000
744.540649	194.900000
744.578308	192.800000
744.615906	185.600000
744.653564	182.200000
744.691223	196.400000
744.728821	184.400000
744.766418	191.200000
744.804077	194.300000
744.841675	189.200000
744.879333	186.200000
744.916992	191.400000
744.954529	188.500000
744.992187	198.100000
745.029785	189.700000
745.067444	188.300000
745.105042	192.200000
745.142639	194.700000
745.180298	201.600000
745.217896	190.200000
745.255493	190.900000
745.293152	196.900000
745.330750	196.600000
745.368347	200.100000
745.405945	194.300000
745.443604	193.400000
745.481140	197.100000
745.518799	192.700000
745.556396	196.000000
745.593994	197.800000
745.631592	192.600000
745.669189	188.600000
745.706787	194.000000
745.744385	189.800000
745.781982	195.100000
745.819580	190.800000
745.857178	190.200000
745.894775	192.900000
745.932373	192.700000
745.969971	194.000000
746.007568	183.900000
746.045166	203.000000
746.082764	197.600000
746.120300	196.200000
746.157898	195.100000
746.195557	192.600000
746.233093	184.900000
746.270691	196.400000
746.308228	194.300000
746.345825	197.600000
746.383423	196.800000
746.420959	188.600000
746.458557	189.100000
746.496155	189.600000
746.533691	191.400000
746.571289	186.800000
746.608887	193.800000
746.646423	193.700000
746.684021	193.400000
746.721619	191.200000
746.759155	193.800000
746.796753	185.300000
746.834351	186.000000
746.871826	186.900000
746.909424	200.400000
746.946960	194.900000
746.984558	192.100000
747.022156	191.800000
747.059631	199.700000
747.097229	195.000000
747.134827	190.500000
747.172363	200.000000
747.209900	194.600000
747.247498	187.800000
747.285034	200.600000
747.322571	200.400000
747.360168	191.100000
747.397644	185.600000
747.435242	196.100000
747.472778	199.800000
747.510315	191.000000
747.547913	190.800000
747.585388	201.000000
747.622925	192.700000
747.660522	184.300000
747.697998	189.000000
747.735596	192.800000
747.773132	188.800000
747.810669	192.800000
747.848206	195.700000
747.885742	187.400000
747.923279	186.700000
747.960815	194.700000
747.998352	193.100000
748.035889	198.300000
748.073425	197.600000
748.110901	190.200000
748.148437	187.800000
748.185974	192.600000
748.223511	202.400000
748.261047	195.300000
748.298584	195.300000
748.336060	192.600000
748.373596	195.300000
748.411133	210.400000
748.448608	187.800000
748.486145	196.900000
748.523682	199.300000
748.561218	198.900000
748.598755	193.800000
748.636292	196.400000
748.673706	189.600000
748.711243	199.300000
748.748718	196.300000
748.786255	192.400000
748.823792	193.800000
748.861267	188.000000
748.898804	195.200000
748.936340	194.600000
748.973816	190.300000
749.011292	198.500000
749.048828	194.800000
749.086304	197.600000
749.123840	205.900000
749.161316	188.700000
749.198792	203.600000
749.236328	201.000000
749.273743	194.300000
749.311279	190.400000
749.348816	194.600000
749.386230	192.800000
749.423767	181.400000
749.461304	195.100000
749.498718	193.400000
749.536255	199.600000
749.573730	206.500000
749.611206	199.000000
749.648682	191.500000
749.686218	191.800000
749.723633	197.200000
749.761169	191.100000
749.798645	189.500000
749.836060	192.200000
749.873596	189.200000
749.911011	193.000000
749.948547	200.400000
749.986023	193.200000
750.023437	192.000000
750.060913	185.700000
750.098450	186.300000
750.135864	191.900000
750.173340	193.000000
750.210815	198.200000
750.248291	187.900000
750.285767	192.700000
750.323242	200.700000
750.360657	194.200000
750.398132	187.800000
750.435608	197.100000
750.473022	187.400000
750.510498	189.200000
750.547974	189.100000
750.585449	191.200000
750.622925	182.900000
750.660339	200.600000
750.697815	193.000000
750.735291	192.900000
750.772644	194.300000
750.810120	192.000000
750.847595	195.600000
750.885010	189.200000
750.922485	202.500000
750.959961	191.700000
750.997375	200.600000
751.034851	196.900000
751.072266	197.900000
751.109680	186.200000
751.147156	198.600000
751.184570	196.400000
751.221985	195.100000
751.259460	183.500000
751.296875	193.000000
751.334290	193.700000
751.371765	198.000000
751.409180	196.300000
751.446594	196.800000
751.484070	195.600000
751.521423	193.900000
751.558899	194.000000
751.596375	200.300000
751.633728	200.200000
751.671204	205.500000
751.708618	188.800000
751.746033	193.300000
751.783447	185.400000
751.820801	188.700000
751.858276	195.000000
751.895691	192.600000
751.933105	190.900000
751.970520	188.400000
752.007935	191.400000
752.045349	196.400000
752.082764	192.500000
752.120178	191.200000
752.157532	188.000000
752.195007	189.500000
752.232422	195.300000
752.269775	198.000000
752.307190	195.200000
752.344543	189.100000
752.382019	190.600000
752.419434	191.600000
752.456787	195.100000
752.494202	197.800000
752.531616	196.100000
752.568970	198.000000
752.606384	193.700000
752.643799	196.400000
752.681152	202.000000
752.718567	196.300000
752.755981	185.500000
752.793335	196.000000
752.830750	185.900000
752.868164	200.300000
752.905518	188.900000
752.942932	198.500000
752.980225	187.100000
753.017639	197.400000
753.055054	192.200000
753.092407	195.700000
753.129822	198.600000
753.167175	203.600000
753.204529	192.900000
753.241943	190.400000
753.279358	186.800000
753.316650	197.100000
753.354065	195.000000
753.391479	198.000000
753.428772	201.800000
753.466187	195.900000
753.503479	187.200000
753.540894	192.000000
753.578308	186.200000
753.615601	186.300000
753.653015	193.900000
753.690369	191.900000
753.727722	188.800000
753.765076	186.000000
753.802490	187.000000
753.839783	183.500000
753.877136	190.500000
753.914551	209.100000
753.951843	187.000000
753.989258	197.000000
754.026611	193.700000
754.063904	194.200000
754.101257	188.000000
754.138611	185.000000
754.175964	193.600000
754.213318	205.200000
754.250610	184.500000
754.288025	190.400000
754.325378	188.200000
754.362671	198.600000
754.400024	191.500000
754.437378	202.500000
754.474670	205.100000
754.512085	189.300000
754.549438	194.900000
754.586731	190.900000
754.624084	193.700000
754.661438	187.200000
754.698730	200.600000
754.736084	190.300000
754.773376	191.500000
754.810730	195.300000
754.848083	193.500000
754.885315	197.700000
754.922668	184.800000
754.960022	186.700000
754.997314	198.500000
755.034668	193.700000
755.072021	194.200000
755.109253	190.800000
755.146606	201.600000
755.183960	192.000000
755.221252	201.500000
755.258545	198.300000
755.295898	199.700000
755.333191	200.600000
755.370544	197.200000
755.407776	194.900000
755.445129	195.000000
755.482422	198.700000
755.519714	190.300000
755.557068	186.500000
755.594360	185.900000
755.631653	198.800000
755.668945	203.800000
755.706299	197.900000
755.743530	206.400000
755.780884	203.600000
755.818176	201.500000
755.855408	200.500000
755.892761	198.300000
755.930054	196.800000
755.967346	198.400000
756.004639	201.400000
756.041870	197.100000
756.079224	202.700000
756.116516	192.500000
756.153748	201.400000
756.191040	205.400000
756.228394	200.500000
756.265625	193.100000
756.302917	198.100000
756.340210	193.800000
756.377441	203.300000
756.414795	204.200000
756.452087	198.300000
756.489319	190.300000
756.526611	200.600000
756.563843	198.800000
756.601135	210.400000
756.638428	207.400000
756.675659	196.700000
756.712952	203.400000
756.750244	203.400000
756.787476	199.600000
756.824768	206.000000
756.862061	197.500000
756.899292	245.500000
756.936584	203.300000
756.973816	210.600000
757.011047	212.600000
757.048340	200.500000
757.085632	199.300000
757.122864	216.000000
757.160156	196.600000
757.197327	202.900000
757.234619	205.000000
757.271912	200.000000
757.309082	205.700000
757.346375	198.100000
757.383667	207.300000
757.420837	202.800000
757.458130	202.500000
757.495422	200.300000
757.532593	203.500000
757.569885	194.500000
757.607117	198.100000
757.644348	204.700000
757.681580	215.800000
757.718811	190.300000
757.756042	202.500000
757.793335	200.300000
757.830505	206.500000
757.867798	200.400000
757.905029	199.200000
757.942200	205.700000
757.979492	199.800000
758.016724	202.500000
758.053894	202.300000
758.091187	223.100000
758.128418	204.800000
758.165588	204.200000
758.202820	218.100000
758.240112	202.200000
758.277283	214.500000
758.314514	205.900000
758.351685	203.300000
758.388916	214.300000
758.426147	215.000000
758.463379	214.900000
758.500610	209.600000
758.537842	206.600000
758.575012	212.900000
758.612244	202.000000
758.649475	219.900000
758.686646	199.700000
758.723877	214.600000
758.761108	213.100000
758.798279	207.400000
758.835510	210.200000
758.872742	216.100000
758.909851	209.400000
758.947083	210.500000
758.984253	210.200000
759.021484	212.600000
759.058716	213.600000
759.095886	213.200000
759.133057	207.800000
759.170288	211.500000
759.207458	205.300000
759.244690	220.200000
759.281860	219.900000
759.319031	208.400000
759.356262	207.700000
759.393433	208.300000
759.430603	209.700000
759.467773	209.200000
759.505005	217.700000
759.542175	215.100000
759.579346	210.100000
759.616516	212.900000
759.653687	213.700000
759.690918	207.400000
759.728027	214.400000
759.765259	212.800000
759.802429	215.800000
759.839539	214.300000
759.876770	219.700000
759.913940	223.100000
759.951111	215.200000
759.988281	213.600000
760.025452	212.000000
760.062561	207.300000
760.099792	223.100000
760.136963	216.200000
760.174072	212.800000
760.211243	207.800000
760.248413	210.500000
760.285583	209.800000
760.322754	224.400000
760.359863	220.900000
760.397034	221.700000
760.434204	212.700000
760.471375	216.100000
760.508545	212.200000
760.545715	215.000000
760.582825	210.300000
760.619995	221.600000
760.657166	206.300000
760.694275	222.900000
760.731445	218.000000
760.768555	218.400000
760.805664	219.700000
760.842834	218.900000
760.879944	220.600000
760.917114	218.200000
760.954285	216.500000
760.991394	212.100000
761.028564	224.100000
761.065674	222.000000
761.102783	215.400000
761.139954	224.500000
761.177124	226.000000
761.214172	226.800000
761.251343	219.100000
761.288452	220.800000
761.325562	224.800000
761.362732	219.100000
761.399841	221.900000
761.436951	223.200000
761.474121	220.700000
761.511169	223.600000
761.548340	227.900000
761.585449	228.100000
761.622559	227.800000
761.659668	225.200000
761.696838	232.600000
761.733887	228.200000
761.771057	224.500000
761.808167	226.400000
761.845276	232.200000
761.882385	240.200000
761.919434	229.400000
761.956604	249.500000
761.993713	225.100000
762.030762	235.100000
762.067871	229.900000
762.105042	229.300000
762.142090	238.300000
762.179199	232.700000
762.216309	237.800000
762.253418	245.500000
762.290527	241.600000
762.327637	238.500000
762.364685	227.800000
762.401794	237.400000
762.438904	236.400000
762.475952	231.400000
762.513062	229.400000
762.550110	231.100000
762.587219	246.800000
762.624329	245.400000
762.661377	239.900000
762.698486	239.100000
762.735596	239.200000
762.772644	232.200000
762.809753	230.900000
762.846863	239.000000
762.883911	243.100000
762.921021	242.200000
762.958069	239.800000
762.995117	248.400000
763.032227	249.000000
763.069336	241.400000
763.106323	237.000000
763.143433	236.000000
763.180481	243.100000
763.217590	244.300000
763.254639	243.800000
763.291687	243.100000
763.328735	250.100000
763.365845	243.700000
763.402893	240.800000
763.439941	246.700000
763.477051	250.500000
763.514038	251.000000
763.551147	242.900000
763.588196	248.300000
763.625244	244.500000
763.662292	254.900000
763.699402	255.800000
763.736389	252.200000
763.773499	260.000000
763.810486	254.300000
763.847534	248.600000
763.884644	255.100000
763.921631	249.900000
763.958679	260.400000
763.995728	251.300000
764.032776	261.500000
764.069824	247.900000
764.106873	257.200000
764.143860	262.900000
764.180969	254.800000
764.218018	262.200000
764.255005	255.100000
764.292053	256.100000
764.329102	266.700000
764.366089	265.700000
764.403137	264.600000
764.440125	254.400000
764.477173	259.500000
764.514221	261.800000
764.551208	259.400000
764.588257	254.900000
764.625305	266.000000
764.662292	272.900000
764.699341	275.400000
764.736389	267.700000
764.773376	281.600000
764.810425	270.800000
764.847473	277.300000
764.884399	271.300000
764.921448	280.700000
764.958435	278.100000
764.995483	266.800000
765.032532	284.200000
765.069458	270.100000
765.106506	271.200000
765.143555	269.700000
765.180481	275.000000
765.217529	280.500000
765.254578	268.200000
765.291504	277.000000
765.328552	274.900000
765.365540	269.700000
765.402527	287.400000
765.439575	271.600000
765.476501	266.000000
765.513550	267.300000
765.550537	273.900000
765.587463	280.900000
765.624512	271.600000
765.661499	264.300000
765.698486	284.600000
765.735474	271.000000
765.772461	274.700000
765.809448	282.500000
765.846436	281.700000
765.883423	285.000000
765.920410	280.000000
765.957397	277.700000
765.994385	281.800000
766.031311	289.200000
766.068359	281.200000
766.105286	283.000000
766.142273	289.500000
766.179260	284.600000
766.216187	277.700000
766.253174	276.000000
766.290161	284.600000
766.327148	287.900000
766.364136	289.400000
766.401123	305.200000
766.438049	281.300000
766.475037	298.300000
766.512024	291.300000
766.548950	307.100000
766.585937	302.000000
766.622864	298.300000
766.659790	297.400000
766.696777	287.900000
766.733704	304.400000
766.770691	296.000000
766.807678	310.100000
766.844604	304.700000
766.881531	302.900000
766.918518	311.800000
766.955444	309.600000
766.992432	305.800000
767.029358	307.800000
767.066284	311.900000
767.103271	307.600000
767.140198	337.200000
767.177124	324.900000
767.214050	316.500000
767.251038	319.100000
767.287964	314.100000
767.324890	310.600000
767.361816	317.400000
767.398743	322.900000
767.435730	317.700000
767.472595	322.900000
767.509583	327.500000
767.546509	316.900000
767.583374	324.100000
767.620361	315.800000
767.657288	326.200000
767.694214	323.100000
767.731140	323.400000
767.768066	324.400000
767.804993	331.200000
767.841919	320.600000
767.878845	329.200000
767.915710	337.500000
767.952698	329.900000
767.989563	333.500000
768.026489	335.600000
768.063416	328.800000
768.100281	327.700000
768.137207	341.700000
768.174133	341.200000
768.211060	341.100000
768.247986	340.100000
768.284912	339.100000
768.321777	341.300000
768.358704	337.800000
768.395630	344.000000
768.432495	336.700000
768.469421	345.900000
768.506348	352.000000
768.543152	356.400000
768.580078	354.800000
768.616943	354.000000
768.653870	356.400000
768.690796	355.000000
768.727661	354.400000
768.764587	358.700000
768.801453	349.900000
768.838318	361.700000
768.875244	359.400000
768.912109	365.500000
768.948975	358.100000
768.985901	361.100000
769.022766	360.700000
769.059631	367.900000
769.096558	363.200000
769.133362	362.900000
769.170288	363.000000
769.207214	363.300000
769.244019	372.100000
769.280945	368.600000
769.317810	376.900000
769.354675	372.600000
769.391541	384.000000
769.428406	378.400000
769.465271	388.900000
769.502136	378.300000
769.539062	380.700000
769.575867	377.300000
769.612732	381.600000
769.649597	386.600000
769.686462	390.100000
769.723328	385.100000
769.760193	382.300000
769.797058	384.600000
769.833923	393.500000
769.870728	391.000000
769.907593	394.900000
769.944519	392.400000
769.981323	395.600000
770.018188	398.100000
770.055054	395.100000
770.091858	395.300000
770.128723	406.700000
770.165588	414.900000
770.202393	394.600000
770.239258	408.900000
770.276062	404.600000
770.312927	404.100000
770.349792	411.700000
770.386597	409.700000
770.423462	418.200000
770.460327	426.800000
770.497131	407.200000
770.533997	403.400000
770.570862	420.500000
770.607605	419.300000
770.644470	413.500000
770.681335	419.600000
770.718140	417.400000
770.754944	407.400000
770.791809	409.300000
770.828613	415.400000
770.865479	413.000000
770.902222	425.200000
770.939087	416.000000
770.975952	408.200000
771.012695	413.300000
771.049561	430.900000
771.086365	415.500000
771.123169	415.500000
771.159973	418.400000
771.196838	417.800000
771.233582	421.300000
771.270447	424.200000
771.307251	425.900000
771.344055	421.000000
771.380859	427.500000
771.417664	417.200000
771.454468	429.500000
771.491272	428.800000
771.528076	429.400000
771.564880	427.000000
771.601685	440.400000
771.638428	429.900000
771.675293	436.200000
771.712097	425.600000
771.748840	445.500000
771.785645	436.400000
771.822449	441.100000
771.859253	442.000000
771.896057	440.800000
771.932861	453.700000
771.969604	442.400000
772.006409	438.800000
772.043213	450.200000
772.079956	449.000000
772.116760	439.700000
772.153503	443.000000
772.190308	457.800000
772.227112	447.600000
772.263855	442.200000
772.300659	451.300000
772.337463	457.800000
772.374207	449.000000
772.411011	446.900000
772.447754	451.500000
772.484497	471.700000
772.521301	462.100000
772.558105	460.900000
772.594849	461.900000
772.631592	469.300000
772.668396	469.300000
772.705139	474.200000
772.741882	470.600000
772.778625	486.600000
772.815430	490.100000
772.852173	484.800000
772.888916	491.000000
772.925720	492.900000
772.962463	499.400000
772.999207	494.500000
773.035950	503.900000
773.072754	500.100000
773.109436	495.300000
773.146240	497.300000
773.182922	497.300000
773.219727	509.900000
773.256470	504.800000
773.293152	490.000000
773.329956	500.700000
773.366699	503.900000
773.403381	497.300000
773.440186	506.500000
773.476929	510.500000
773.513611	505.700000
773.550354	507.000000
773.587158	510.600000
773.623840	501.700000
773.660583	514.600000
773.697327	528.800000
773.734009	516.600000
773.770813	517.800000
773.807495	516.800000
773.844238	522.200000
773.880981	538.800000
773.917664	535.800000
773.954407	538.700000
773.991150	532.600000
774.027832	534.700000
774.064575	529.400000
774.101318	538.500000
774.138000	545.400000
774.174744	536.100000
774.211487	545.000000
774.248108	532.900000
774.284851	534.100000
774.321594	547.500000
774.358276	550.200000
774.395020	559.300000
774.431702	554.500000
774.468384	546.400000
774.505127	544.900000
774.541809	562.600000
774.578491	573.000000
774.615234	571.400000
774.651917	561.500000
774.688599	566.300000
774.725342	577.600000
774.762024	573.100000
774.798706	583.200000
774.835449	583.100000
774.872070	586.200000
774.908813	586.500000
774.945496	580.200000
774.982178	580.900000
775.018860	587.100000
775.055542	591.700000
775.092224	592.000000
775.128967	599.500000
775.165588	595.800000
775.202271	588.000000
775.239014	604.300000
775.275635	603.900000
775.312317	596.800000
775.349060	604.200000
775.385681	603.700000
775.422363	594.700000
775.459045	601.200000
775.495667	609.200000
775.532410	614.400000
775.569092	614.600000
775.605713	609.700000
775.642395	608.300000
775.679016	614.900000
775.715698	617.800000
775.752380	619.800000
775.789001	614.300000
775.825684	615.000000
775.862366	618.100000
775.898987	631.000000
775.935669	618.700000
775.972351	642.700000
776.008972	635.700000
776.045654	637.900000
776.082336	631.000000
776.118958	631.600000
776.155640	634.800000
776.192322	643.000000
776.228882	644.900000
776.265564	640.500000
776.302185	639.100000
776.338867	644.300000
776.375488	634.100000
776.412109	648.000000
776.448792	652.900000
776.485413	654.200000
776.522034	648.000000
776.558716	639.000000
776.595337	642.400000
776.631958	647.200000
776.668579	644.700000
776.705261	650.000000
776.741882	645.400000
776.778503	646.600000
776.815186	640.800000
776.851746	649.600000
776.888367	647.000000
776.924988	657.900000
776.961609	646.900000
776.998291	650.200000
777.034851	636.600000
777.071472	656.800000
777.108154	653.700000
777.144714	664.300000
777.181335	661.200000
777.218018	653.100000
777.254578	661.900000
777.291199	659.700000
777.327759	669.200000
777.364380	674.100000
777.401062	677.900000
777.437622	690.800000
777.474243	674.800000
777.510864	686.100000
777.547424	680.700000
777.584045	688.100000
777.620667	688.200000
777.657227	695.700000
777.693848	694.900000
777.730469	711.800000
777.767029	698.600000
777.803650	705.600000
777.840271	695.800000
777.876831	696.900000
777.913452	703.100000
777.950012	687.700000
777.986633	688.800000
778.023193	691.200000
778.059753	691.100000
778.096375	695.900000
778.132996	701.500000
778.169556	691.800000
778.206116	695.100000
778.242737	691.800000
778.279297	704.500000
778.315857	696.300000
778.352478	701.400000
778.389038	717.300000
778.425598	715.900000
778.462219	724.800000
778.498718	724.800000
778.535339	728.700000
778.571838	731.200000
778.608459	739.800000
778.645020	729.500000
778.681580	743.500000
778.718140	744.400000
778.754761	739.000000
778.791260	745.800000
778.827881	758.100000
778.864441	753.200000
778.900940	757.800000
778.937561	753.600000
778.974121	758.500000
779.010620	744.500000
779.047241	751.600000
779.083801	765.600000
779.120300	767.200000
779.156860	771.300000
779.193359	768.600000
779.229980	764.900000
779.266541	770.600000
779.303040	778.000000
779.339600	772.100000
779.376160	765.000000
779.412659	773.100000
779.449219	767.800000
779.485779	777.000000
779.522278	777.500000
779.558838	781.900000
779.595398	784.000000
779.631897	786.200000
779.668457	776.100000
779.705017	784.100000
779.741516	775.700000
779.778076	771.800000
779.814575	785.400000
779.851074	794.500000
779.887634	787.200000
779.924133	791.800000
779.960693	782.900000
779.997253	794.000000
780.033691	799.400000
780.070251	807.100000
780.106812	814.400000
780.143250	811.100000
780.179810	808.800000
780.216370	815.500000
780.252808	824.000000
780.289368	840.100000
780.325867	835.200000
780.362366	832.300000
780.398865	845.100000
780.435364	832.200000
780.471863	848.900000
780.508423	851.100000
780.544861	855.000000
780.581421	860.400000
780.617920	849.800000
780.654419	845.200000
780.690918	858.300000
780.727417	863.000000
780.763916	861.600000
780.800415	870.700000
780.836914	852.700000
780.873352	859.700000
780.909912	847.300000
780.946411	858.300000
780.982849	864.400000
781.019348	881.900000
781.055786	877.000000
781.092346	876.100000
781.128845	882.000000
781.165283	886.600000
781.201782	895.000000
781.238281	899.900000
781.274719	902.500000
781.311218	895.600000
781.347717	908.400000
781.384155	894.400000
781.420654	895.700000
781.457092	904.200000
781.493591	902.600000
781.530090	896.500000
781.566528	898.600000
781.602966	906.300000
781.639465	903.600000
781.675903	896.400000
781.712402	908.100000
781.748901	912.600000
781.785278	908.000000
781.821777	910.300000
781.858276	905.600000
781.894714	918.600000
781.931152	915.300000
781.967651	919.700000
782.004089	912.300000
782.040527	920.100000
782.076965	919.200000
782.113403	921.700000
782.149902	927.500000
782.186340	923.700000
782.222778	937.700000
782.259277	920.600000
782.295654	910.400000
782.332092	923.900000
782.368591	923.800000
782.404968	915.400000
782.441467	922.700000
782.477905	922.500000
782.514282	914.700000
782.550781	934.500000
782.587219	932.500000
782.623596	934.200000
782.660095	937.200000
782.696472	941.000000
782.732910	941.200000
782.769348	951.000000
782.805786	964.000000
782.842224	962.700000
782.878662	949.500000
782.915039	955.300000
782.951477	962.200000
782.987915	950.800000
783.024292	955.300000
783.060730	955.200000
783.097168	945.000000
783.133545	936.500000
783.169983	932.700000
783.206421	928.200000
783.242798	924.400000
783.279236	917.100000
783.315613	916.600000
783.352051	910.800000
783.388489	896.700000
783.424866	880.700000
783.461304	893.200000
783.497681	900.600000
783.534058	888.500000
783.570496	887.400000
783.606934	883.800000
783.643250	891.600000
783.679687	902.300000
783.716125	896.000000
783.752441	907.500000
783.788879	927.300000
783.825317	925.000000
783.861633	929.500000
783.898071	935.500000
783.934448	952.700000
783.970825	960.800000
784.007263	959.600000
784.043579	954.500000
784.080017	939.100000
784.116394	873.900000
784.152710	758.400000
784.189148	611.900000
784.225525	463.400000
784.261902	352.400000
784.298279	321.900000
784.334656	330.700000
784.371033	333.000000
784.407410	337.000000
784.443787	322.400000
784.480164	326.200000
784.516541	384.300000
784.552856	519.400000
784.589233	663.100000
784.625610	785.700000
784.661987	899.100000
784.698364	923.700000
784.734741	925.300000
784.771057	925.300000
784.807434	934.300000
784.843811	952.600000
784.880127	953.400000
784.916504	981.200000
784.952881	987.300000
784.989197	982.700000
785.025574	982.000000
785.061951	989.600000
785.098267	1019.100000
785.134644	1012.900000
785.170959	1011.000000
785.207275	1021.100000
785.243652	1024.800000
785.279968	1006.700000
785.316345	1019.200000
785.352722	1026.000000
785.388977	1027.000000
785.425354	1007.600000
785.461731	980.900000
785.498047	979.400000
785.534363	975.500000
785.570679	973.000000
785.606995	972.900000
785.643372	982.000000
785.679687	972.900000
785.716003	954.400000
785.752380	954.100000
785.788635	962.400000
785.825012	977.900000
785.861328	990.200000
785.897644	976.500000
785.933960	993.000000
785.970337	995.200000
786.006592	1014.400000
786.042908	1031.500000
786.079285	1049.900000
786.115540	1055.900000
786.151855	1056.700000
786.188171	1048.500000
786.224487	1050.100000
786.260803	1050.300000
786.297119	1064.800000
786.333435	1065.100000
786.369751	1056.900000
786.406006	1054.700000
786.442322	1034.100000
786.478638	1031.400000
786.514954	1044.500000
786.551270	1043.300000
786.587585	1056.700000
786.623840	1046.800000
786.660156	1037.900000
786.696472	1023.200000
786.732727	1012.000000
786.769043	1019.600000
786.805298	1014.100000
786.841614	1019.400000
786.877930	1015.700000
786.914124	996.600000
786.950439	1018.100000
786.986755	1026.900000
787.023010	1039.100000
787.059326	1053.300000
787.095642	1057.700000
787.131836	1069.300000
787.168152	1058.800000
787.204468	1063.100000
787.240723	1085.800000
787.276978	1095.400000
787.313293	1100.400000
787.349548	1100.700000
787.385803	1103.400000
787.422058	1092.100000
787.458313	1089.800000
787.494629	1091.400000
787.530823	1094.300000
787.567139	1078.600000
787.603455	1076.900000
787.639648	1059.700000
787.675903	1063.000000
787.712219	1061.000000
787.748413	1057.400000
787.784729	1070.200000
787.820984	1058.100000
787.857178	1043.900000
787.893494	1029.400000
787.929749	1026.800000
787.965942	1035.000000
788.002258	1052.600000
788.038452	1060.000000
788.074707	1050.000000
788.110962	1050.400000
788.147217	1044.700000
788.183472	1056.900000
788.219727	1067.600000
788.255920	1085.500000
788.292175	1088.900000
788.328430	1090.400000
788.364624	1070.200000
788.400879	1059.300000
788.437134	1067.000000
788.473328	1067.200000
788.509583	1067.600000
788.545837	1056.700000
788.582031	1057.400000
788.618286	1041.600000
788.654480	1037.400000
788.690735	1049.000000
788.726990	1063.800000
788.763184	1067.200000
788.799377	1079.000000
788.835632	1068.200000
788.871826	1081.700000
788.908081	1084.700000
788.944336	1083.100000
788.980469	1094.200000
789.016724	1085.600000
789.052979	1084.800000
789.089111	1066.600000
789.125366	1072.500000
789.161621	1055.100000
789.197754	1067.500000
789.234009	1065.800000
789.270142	1049.800000
789.306396	1036.800000
789.342590	1027.600000
789.378784	1004.200000
789.414978	1009.200000
789.451233	1024.700000
789.487366	1018.500000
789.523621	1028.100000
789.559814	1026.400000
789.595947	1015.200000
789.632202	1023.300000
789.668335	1031.800000
789.704529	1050.100000
789.740784	1067.200000
789.776917	1065.300000
789.813110	1051.700000
789.849304	1070.900000
789.885498	1076.800000
789.921692	1085.500000
789.957886	1094.400000
789.994019	1093.300000
790.030212	1083.800000
790.066406	1087.300000
790.102539	1086.100000
790.138733	1090.800000
790.174927	1086.500000
790.211060	1101.500000
790.247253	1087.200000
790.283386	1068.500000
790.319580	1057.600000
790.355774	1038.300000
790.391907	1049.200000
790.428101	1077.300000
790.464294	1077.800000
790.500427	1077.700000
790.536621	1056.100000
790.572754	1042.500000
790.608887	1046.600000
790.645081	1060.100000
790.681274	1072.700000
790.717346	1061.300000
790.753540	1031.900000
790.789734	956.500000
790.825867	902.600000
790.862000	908.300000
790.898132	948.400000
790.934265	1006.500000
790.970459	1061.600000
791.006592	1079.100000
791.042725	1077.100000
791.078918	1072.500000
791.114990	1080.200000
791.151184	1082.200000
791.187317	1114.200000
791.223389	1103.300000
791.259583	1085.100000
791.295715	1091.500000
791.331848	1101.900000
791.367981	1113.700000
791.404114	1117.200000
791.440247	1120.000000
791.476379	1117.600000
791.512451	1093.700000
791.548584	1097.600000
791.584778	1092.400000
791.620850	1112.300000
791.656982	1113.800000
791.693115	1107.800000
791.729187	1107.900000
791.765381	1104.100000
791.801514	1091.300000
791.837585	1098.700000
791.873718	1106.900000
791.909851	1119.400000
791.945923	1127.100000
791.982056	1090.100000
792.018188	1090.600000
792.054260	1094.500000
792.090393	1096.000000
792.126465	1092.500000
792.162598	1103.100000
792.198669	1087.000000
792.234741	1081.700000
792.270874	1073.400000
792.307007	1061.500000
792.343079	1069.400000
792.379150	1082.100000
792.415283	1065.900000
792.451355	1068.300000
792.487488	1044.400000
792.523560	1048.600000
792.559631	1052.300000
792.595764	1049.400000
792.631836	1054.000000
792.667908	1063.200000
792.703979	1043.900000
792.740051	1045.800000
792.776184	1051.600000
792.812256	1052.900000
792.848328	1060.900000
792.884399	1065.300000
792.920471	1060.300000
792.956543	1056.400000
792.992615	1052.600000
793.028748	1046.500000
793.064758	1049.200000
793.100830	1068.100000
793.136963	1084.100000
793.172974	1075.400000
793.209045	1067.900000
793.245178	1080.000000
793.281189	1061.300000
793.317261	1074.000000
793.353271	1074.500000
793.389404	1084.300000
793.425476	1079.700000
793.461487	1058.000000
793.497559	1049.800000
793.533630	1065.800000
793.569641	1065.600000
793.605713	1071.800000
793.641785	1069.500000
793.677795	1074.600000
793.713867	1060.600000
793.749878	1060.400000
793.785950	1078.200000
793.822021	1085.500000
793.858032	1069.000000
793.894104	1079.100000
793.930176	1073.700000
793.966187	1071.700000
794.002258	1058.500000
794.038269	1069.200000
794.074280	1067.500000
794.110352	1087.800000
794.146423	1059.900000
794.182373	1045.500000
794.218445	1043.700000
794.254517	1041.500000
794.290466	1026.900000
794.326538	1031.700000
794.362549	1040.200000
794.398560	1039.600000
794.434631	1042.600000
794.470581	1014.600000
794.506653	1007.900000
794.542664	1004.800000
794.578674	1010.800000
794.614685	1009.100000
794.650757	1001.900000
794.686707	994.800000
794.722778	984.900000
794.758789	994.400000
794.794739	1003.000000
794.830811	1024.800000
794.866821	1042.600000
794.902771	1033.200000
794.938843	1022.800000
794.974792	1017.900000
795.010803	1019.900000
795.046814	1023.200000
795.082825	1011.900000
795.118835	1025.000000
795.154846	1005.000000
795.190796	1011.200000
795.226807	986.200000
795.262817	988.500000
795.298767	992.200000
795.334778	990.500000
795.370850	979.300000
795.406799	981.100000
795.442810	961.800000
795.478821	962.900000
795.514709	957.200000
795.550720	980.500000
795.586670	960.600000
795.622681	968.700000
795.658691	961.500000
795.694641	957.200000
795.730652	943.000000
795.766663	949.300000
795.802551	959.300000
795.838562	971.900000
795.874573	957.600000
795.910522	959.300000
795.946472	947.000000
795.982483	952.900000
796.018433	955.500000
796.054382	967.200000
796.090393	952.700000
796.126282	945.800000
796.162292	935.600000
796.198242	924.000000
796.234192	927.600000
796.270203	926.400000
796.306091	933.500000
796.342041	949.100000
796.378052	933.200000
796.413940	931.300000
796.449951	933.200000
796.485901	926.300000
796.521790	930.500000
796.557800	944.700000
796.593689	943.900000
796.629639	926.200000
796.665649	920.600000
796.701599	924.800000
796.737488	922.400000
796.773437	933.800000
796.809387	934.900000
796.845337	927.300000
796.881287	916.300000
796.917175	899.000000
796.953125	900.500000
796.989075	911.100000
797.024963	915.800000
797.060913	914.200000
797.096863	912.900000
797.132751	903.500000
797.168701	889.200000
797.204590	894.800000
797.240540	903.200000
797.276489	905.000000
797.312439	907.900000
797.348328	902.100000
797.384277	891.900000
797.420166	883.800000
797.456055	889.800000
797.492004	880.700000
797.527893	885.900000
797.563843	892.300000
797.599731	875.200000
797.635620	865.300000
797.671570	878.800000
797.707520	876.400000
797.743347	872.800000
797.779297	886.800000
797.815125	880.100000
797.851074	871.400000
797.887024	864.300000
797.922913	856.800000
797.958801	874.900000
797.994690	867.000000
798.030579	874.200000
798.066467	877.500000
798.102356	862.200000
798.138245	859.300000
798.174133	856.000000
798.210083	860.200000
798.245911	869.400000
798.281799	869.500000
798.317749	859.400000
798.353577	851.800000
798.389465	851.400000
798.425293	845.300000
798.461243	838.700000
798.497131	844.700000
798.532959	852.600000
798.568848	853.700000
798.604736	836.100000
798.640564	829.000000
798.676453	830.400000
798.712402	837.000000
798.748230	838.900000
798.784119	843.400000
798.820007	844.000000
798.855835	833.400000
798.891724	828.600000
798.927551	832.300000
798.963379	836.100000
798.999268	832.200000
799.035095	825.300000
799.070984	823.500000
799.106873	810.200000
799.142700	817.600000
799.178528	805.300000
799.214417	806.200000
799.250244	825.400000
799.286133	821.300000
799.321960	812.300000
799.357788	810.900000
799.393677	814.400000
799.429504	808.200000
799.465332	807.300000
799.501221	816.900000
799.537048	811.600000
799.572876	803.500000
799.608704	800.300000
799.644531	803.500000
799.680359	806.900000
799.716248	819.100000
799.752014	824.000000
799.787903	810.900000
799.823730	805.800000
799.859558	796.700000
799.895386	799.400000
799.931213	801.000000
799.967041	787.900000
800.002869	787.200000
800.038696	799.400000
800.074463	778.300000
800.110352	785.100000
800.146179	777.000000
800.181946	784.200000
800.217773	788.000000
800.253540	783.800000
800.289429	777.500000
800.325256	771.900000
800.361023	762.300000
800.396851	768.000000
800.432678	764.900000
800.468445	765.500000
800.504272	761.200000
800.540100	743.900000
800.575867	746.000000
800.611694	750.300000
800.647461	743.000000
800.683289	746.100000
800.719116	748.800000
800.754883	738.800000
800.790649	726.500000
800.826477	716.400000
800.862244	739.400000
800.898071	721.600000
800.933838	720.500000
800.969604	716.900000
801.005432	717.200000
801.041199	717.000000
801.076965	715.400000
801.112793	702.000000
801.148560	691.600000
801.184326	698.300000
801.220154	699.100000
801.255859	688.600000
801.291687	683.600000
801.327454	678.400000
801.363281	680.700000
801.398987	683.500000
801.434814	682.700000
801.470520	693.900000
801.506287	675.500000
801.542114	672.100000
801.577820	676.900000
801.613647	674.100000
801.649414	668.600000
801.685120	670.100000
801.720886	674.400000
801.756714	664.800000
801.792419	658.900000
801.828186	650.900000
801.863892	661.400000
801.899719	652.100000
801.935486	647.400000
801.971252	656.400000
802.006958	648.000000
802.042725	640.700000
802.078430	644.300000
802.114197	635.600000
802.149963	656.100000
802.185669	642.100000
802.221436	640.300000
802.257202	639.000000
802.292908	637.900000
802.328674	638.100000
802.364441	641.600000
802.400146	639.300000
802.435913	630.800000
802.471558	628.600000
802.507324	626.400000
802.543091	615.400000
802.578796	629.300000
802.614502	625.500000
802.650269	629.700000
802.685974	617.900000
802.721741	620.500000
802.757446	623.900000
802.793152	617.500000
802.828918	629.000000
802.864624	622.400000
802.900330	618.600000
802.936035	616.000000
802.971802	616.300000
803.007446	611.800000
803.043213	604.400000
803.078857	610.700000
803.114624	596.400000
803.150330	604.900000
803.185974	592.400000
803.221741	592.600000
803.257446	602.600000
803.293152	603.100000
803.328857	594.400000
803.364563	587.400000
803.400208	582.800000
803.435974	590.900000
803.471680	583.200000
803.507324	578.600000
803.543030	585.600000
803.578735	587.300000
803.614441	576.500000
803.650146	584.100000
803.685791	570.700000
803.721497	577.100000
803.757202	563.900000
803.792847	578.300000
803.828552	563.600000
803.864258	566.000000
803.899902	564.000000
803.935608	549.800000
803.971313	557.400000
804.006958	558.900000
804.042664	551.200000
804.078308	555.000000
804.113953	547.900000
804.149658	556.100000
804.185364	548.100000
804.221008	557.500000
804.256714	549.800000
804.292297	546.000000
804.328003	542.900000
804.363708	531.800000
804.399292	536.900000
804.434998	535.800000
804.470703	525.500000
804.506287	542.500000
804.541992	533.200000
804.577637	533.500000
804.613281	523.100000
804.648926	522.200000
804.684570	527.400000
804.720215	524.900000
804.755920	524.300000
804.791565	514.000000
804.827209	521.900000
804.862854	515.100000
804.898437	512.400000
804.934143	515.200000
804.969788	512.500000
805.005371	514.600000
805.041077	518.800000
805.076721	514.500000
805.112305	506.500000
805.147949	506.700000
805.183655	500.600000
805.219238	504.400000
805.254883	505.500000
805.290466	512.800000
805.326111	503.500000
805.361755	492.100000
805.397400	499.900000
805.432983	503.900000
805.468628	501.800000
805.504211	508.200000
805.539856	503.700000
805.575500	508.600000
805.611084	498.000000
805.646729	484.500000
805.682373	489.500000
805.717957	502.700000
805.753601	501.200000
805.789246	482.800000
805.824768	493.400000
805.860413	496.100000
805.895996	485.800000
805.931641	484.600000
805.967224	492.000000
806.002869	484.200000
806.038452	491.100000
806.074036	492.000000
806.109619	475.700000
806.145264	476.600000
806.180847	475.500000
806.216431	473.300000
806.252014	478.800000
806.287659	477.200000
806.323181	485.200000
806.358826	479.800000
806.394409	460.800000
806.429993	464.700000
806.465576	480.700000
806.501160	465.600000
806.536743	455.200000
806.572327	467.000000
806.607910	462.000000
806.643494	464.200000
806.679077	456.400000
806.714661	458.300000
806.750244	459.600000
806.785828	451.600000
806.821350	454.200000
806.856934	458.500000
806.892517	453.900000
806.928101	449.600000
806.963684	447.600000
806.999268	457.500000
807.034790	435.300000
807.070374	444.800000
807.105896	437.000000
807.141479	438.000000
807.177063	441.200000
807.212585	434.300000
807.248169	434.800000
807.283752	438.700000
807.319275	434.100000
807.354858	432.100000
807.390381	430.000000
807.425903	431.800000
807.461487	428.600000
807.497070	419.900000
807.532593	423.300000
807.568115	422.700000
807.603699	419.200000
807.639221	414.200000
807.674744	419.600000
807.710266	423.800000
807.745850	427.400000
807.781372	417.700000
807.816895	413.700000
807.852417	416.700000
807.888000	414.600000
807.923523	411.100000
807.959045	415.900000
807.994629	405.500000
808.030090	403.900000
808.065613	410.000000
808.101135	411.600000
808.136658	407.600000
808.172241	403.100000
808.207764	400.700000
808.243225	397.200000
808.278809	395.300000
808.314270	405.100000
808.349792	390.100000
808.385315	390.200000
808.420837	394.800000
808.456360	399.000000
808.491882	397.500000
808.527344	394.000000
808.562866	402.400000
808.598389	394.900000
808.633850	385.900000
808.669434	383.900000
808.704895	393.100000
808.740417	400.000000
808.775940	390.400000
808.811462	385.100000
808.846924	377.200000
808.882385	375.200000
808.917847	374.300000
808.953369	378.000000
808.988892	371.300000
809.024353	380.200000
809.059875	377.600000
809.095398	376.500000
809.130798	366.500000
809.166321	368.100000
809.201843	367.100000
809.237305	369.600000
809.272766	374.400000
809.308228	359.300000
809.343750	361.300000
809.379211	362.700000
809.414734	361.100000
809.450134	370.400000
809.485657	351.200000
809.521118	361.400000
809.556580	359.100000
809.592102	357.000000
809.627502	358.100000
809.663025	351.400000
809.698486	349.100000
809.733887	344.000000
809.769409	349.400000
809.804871	339.300000
809.840271	344.400000
809.875793	344.800000
809.911194	347.600000
809.946655	341.200000
809.982178	336.900000
810.017639	340.900000
810.053040	340.500000
810.088501	336.800000
810.123901	335.400000
810.159424	332.000000
810.194885	327.500000
810.230286	334.200000
810.265747	329.100000
810.301208	326.500000
810.336609	331.200000
810.372070	323.100000
810.407532	323.500000
810.442932	324.700000
810.478394	331.400000
810.513794	327.200000
810.549255	323.700000
810.584717	322.800000
810.620117	317.100000
810.655518	325.300000
810.690979	324.100000
810.726379	323.200000
810.761841	313.000000
810.797302	313.200000
810.832642	312.400000
810.868103	323.200000
810.903564	310.000000
810.938904	321.100000
810.974365	308.200000
811.009827	313.600000
811.045166	308.500000
811.080627	302.500000
811.115967	307.400000
811.151428	317.800000
811.186829	307.700000
811.222229	307.400000
811.257629	300.100000
811.293091	308.000000
811.328430	313.500000
811.363892	309.400000
811.399292	310.400000
811.434631	303.900000
811.470093	307.600000
811.505493	300.300000
811.540833	300.300000
811.576294	307.600000
811.611694	300.000000
811.647034	297.600000
811.682434	299.400000
811.717773	301.800000
811.753235	305.300000
811.788635	297.900000
811.823975	297.600000
811.859375	308.200000
811.894775	292.000000
811.930115	298.000000
811.965515	295.900000
812.000916	298.800000
812.036255	291.600000
812.071655	300.300000
812.106995	288.700000
812.142395	292.300000
812.177795	297.800000
812.213196	295.600000
812.248474	295.200000
812.283875	287.000000
812.319214	291.100000
812.354614	291.000000
812.390015	289.300000
812.425293	288.700000
812.460693	289.000000
812.496094	284.600000
812.531433	281.200000
812.566772	280.600000
812.602173	286.100000
812.637451	285.800000
812.672852	280.300000
812.708191	285.900000
812.743530	279.500000
812.778931	272.200000
812.814270	278.900000
812.849609	284.100000
812.884949	279.900000
812.920227	271.900000
812.955627	290.500000
812.990967	278.700000
813.026306	275.200000
813.061646	263.800000
813.096985	262.600000
813.132324	259.800000
813.167664	266.700000
813.203003	271.600000
813.238281	258.800000
813.273682	260.000000
813.308960	257.300000
813.344299	260.200000
813.379639	269.800000
813.414978	260.100000
813.450256	258.100000
813.485596	264.800000
813.520874	256.900000
813.556213	259.900000
813.591614	265.100000
813.626831	255.500000
813.662170	261.100000
813.697510	270.100000
813.732788	252.400000
813.768127	258.100000
813.803467	260.600000
813.838745	253.500000
813.874084	256.900000
813.909363	258.100000
813.944641	258.700000
813.979980	248.100000
814.015320	253.700000
814.050598	250.600000
814.085876	255.300000
814.121155	253.200000
814.156494	250.200000
814.191772	252.500000
814.227051	246.500000
814.262390	250.900000
814.297668	250.900000
814.332947	253.100000
814.368225	244.600000
814.403564	247.800000
814.438782	243.900000
814.474121	247.000000
814.509338	244.500000
814.544617	254.000000
814.579956	241.400000
814.615173	254.800000
814.650513	249.700000
814.685791	242.200000
814.721008	244.000000
814.756348	246.100000
814.791626	241.300000
814.826843	243.300000
814.862122	242.300000
814.897400	239.500000
814.932678	241.800000
814.967957	242.900000
815.003235	239.400000
815.038452	235.000000
815.073730	232.800000
815.108948	245.600000
815.144226	240.800000
815.179504	245.300000
815.214722	228.000000
815.250000	229.200000
815.285278	237.300000
815.320496	231.800000
815.355774	234.600000
815.391052	235.400000
815.426270	232.700000
815.461487	231.700000
815.496765	228.400000
815.531982	224.500000
815.567261	230.700000
815.602539	238.900000
815.637695	233.200000
815.672974	235.800000
815.708191	235.700000
815.743408	234.500000
815.778687	228.000000
815.813904	237.800000
815.849121	221.000000
815.884399	223.900000
815.919556	225.100000
815.954834	223.600000
815.990051	230.000000
816.025269	232.500000
816.060486	224.800000
816.095703	223.300000
816.130920	227.000000
816.166199	221.100000
816.201416	228.200000
816.236572	232.900000
816.271851	223.100000
816.307007	230.300000
816.342224	219.700000
816.377441	223.700000
816.412659	216.600000
816.447876	225.600000
816.483093	222.700000
816.518250	223.100000
816.553467	221.600000
816.588745	225.700000
816.623901	218.200000
816.659119	211.800000
816.694275	217.600000
816.729492	214.000000
816.764709	251.200000
816.799927	211.400000
816.835083	217.300000
816.870300	211.500000
816.905457	215.900000
816.940674	218.400000
816.975830	214.200000
817.010986	210.700000
817.046204	212.400000
817.081421	209.700000
817.116577	210.100000
817.151733	218.800000
817.186951	219.500000
817.222107	215.300000
817.257324	216.100000
817.292419	215.700000
817.327637	206.000000
817.362854	212.400000
817.398010	206.800000
817.433167	210.000000
817.468323	209.500000
817.503479	210.000000
817.538635	218.800000
817.573853	213.900000
817.608948	210.800000
817.644165	207.700000
817.679321	206.100000
817.714478	207.000000
817.749634	209.700000
817.784790	222.500000
817.819946	217.100000
817.855103	198.800000
817.890198	209.300000
817.925415	201.100000
817.960571	209.600000
817.995667	208.600000
818.030823	209.100000
818.066040	203.700000
818.101135	207.700000
818.136292	206.600000
818.171448	200.200000
818.206543	207.900000
818.241699	208.700000
818.276855	208.200000
818.311951	205.700000
818.347107	201.300000
818.382263	208.800000
818.417358	213.500000
818.452515	214.400000
818.487610	213.000000
818.522766	201.800000
818.557922	213.500000
818.593018	209.600000
818.628113	207.600000
818.663269	201.200000
818.698364	205.400000
818.733521	202.100000
818.768677	208.000000
818.803711	199.400000
818.838867	202.000000
818.874023	204.100000
818.909058	200.700000
818.944214	198.100000
818.979370	206.400000
819.014404	204.100000
819.049561	199.800000
819.084595	204.500000
819.119751	195.000000
819.154846	204.500000
819.189941	200.600000
819.225037	195.500000
819.260193	192.500000
819.295227	196.700000
819.330322	190.400000
819.365479	191.200000
819.400513	225.100000
819.435608	189.600000
819.470764	188.500000
819.505798	193.400000
819.540894	194.400000
819.575989	194.800000
819.611084	202.400000
819.646179	203.600000
819.681213	198.700000
819.716309	197.100000
819.751404	195.400000
819.786438	200.700000
819.821533	192.200000
819.856628	198.900000
819.891663	201.000000
819.926758	207.500000
819.961853	203.400000
819.996887	194.700000
820.031982	200.600000
820.067017	195.700000
820.102112	224.400000
820.137207	193.500000
820.172302	212.300000
820.207275	194.200000
820.242371	191.600000
820.277405	193.400000
820.312500	194.800000
820.347534	197.800000
820.382568	200.500000
820.417664	193.100000
820.452759	195.000000
820.487732	191.900000
820.522827	193.600000
820.557861	190.300000
820.592896	193.100000
820.627930	193.900000
820.662964	193.100000
820.698059	196.200000
820.733093	193.000000
820.768127	198.300000
820.803162	194.000000
820.838196	192.000000
820.873230	195.600000
820.908264	195.800000
820.943298	191.500000
820.978333	200.100000
821.013367	194.700000
821.048401	198.200000
821.083435	202.000000
821.118469	185.900000
821.153503	201.400000
821.188477	196.000000
821.223511	187.800000
821.258484	193.700000
821.293579	197.100000
821.328613	186.800000
821.363647	193.400000
821.398621	188.700000
821.433655	191.400000
821.468628	205.400000
821.503662	192.600000
821.538696	195.300000
821.573669	189.800000
821.608704	197.400000
821.643677	190.500000
821.678650	197.200000
821.713684	202.800000
821.748718	192.300000
821.783691	193.000000
821.818726	194.700000
821.853638	195.200000
821.888672	191.400000
821.923706	193.500000
821.958618	191.100000
821.993652	190.700000
822.028687	197.400000
822.063599	199.900000
822.098633	195.400000
822.133667	188.900000
822.168579	191.100000
822.203613	192.800000
822.238586	190.600000
822.273560	196.100000
822.308533	188.900000
822.343567	190.300000
822.378479	192.300000
822.413452	190.300000
822.448425	189.600000
822.483398	197.400000
822.518372	199.100000
822.553345	190.100000
822.588318	200.600000
822.623291	191.200000
822.658203	192.200000
822.693237	191.700000
822.728210	188.600000
822.763123	194.600000
822.798096	188.500000
822.833069	192.900000
822.867981	192.800000
822.902954	194.700000
822.937927	196.800000
822.972900	204.100000
823.007874	186.100000
823.042725	197.100000
823.077698	204.600000
823.112671	188.100000
823.147583	192.400000
823.182556	196.000000
823.217529	198.100000
823.252441	190.900000
823.287415	206.900000
823.322388	195.200000
823.357239	193.100000
823.392212	200.700000
823.427185	196.900000
823.462097	188.900000
823.497009	194.800000
823.531982	190.700000
823.566895	193.900000
823.601807	188.500000
823.636719	190.500000
823.671631	196.300000
823.706604	190.800000
823.741455	195.800000
823.776428	185.400000
823.811340	197.000000
823.846252	198.800000
823.881165	199.500000
823.916138	194.200000
823.950989	201.300000
823.985901	190.200000
824.020813	194.200000
824.055725	191.100000
824.090637	189.100000
824.125610	194.900000
824.160461	193.800000
824.195374	194.800000
824.230225	199.300000
824.265198	184.500000
824.300110	190.200000
824.334961	203.600000
824.369873	183.100000
824.404785	194.800000
824.439636	199.900000
824.474548	185.200000
824.509460	184.200000
824.544312	198.200000
824.579224	194.200000
824.614075	197.400000
824.648987	192.700000
824.683899	191.500000
824.718811	191.500000
824.753662	199.400000
824.788574	198.200000
824.823364	193.900000
824.858276	191.500000
824.893188	198.400000
824.928040	198.700000
824.962952	194.700000
824.997803	197.300000
825.032654	195.200000
825.067566	197.700000
825.102417	190.700000
825.137268	193.000000
825.172119	192.500000
825.206970	189.700000
825.241882	190.400000
825.276733	189.800000
825.311646	191.400000
825.346436	187.800000
825.381348	186.500000
825.416138	193.300000
825.450989	187.600000
825.485901	184.500000
825.520691	184.700000
825.555542	185.800000
825.590454	193.100000
825.625244	184.200000
825.660095	199.300000
825.695007	198.500000
825.729797	190.600000
825.764648	189.300000
825.799438	192.200000
825.834290	192.700000
825.869202	185.700000
825.903992	194.300000
825.938843	189.800000
825.973694	188.600000
826.008484	205.000000
826.043335	187.700000
826.078186	184.200000
826.112976	199.200000
826.147827	196.400000
826.182678	201.900000
826.217468	184.900000
826.252319	196.800000
826.287109	188.600000
826.321899	199.700000
826.356750	191.800000
826.391541	188.200000
826.426392	198.300000
826.461182	191.600000
826.495972	186.500000
826.530823	184.700000
826.565613	193.500000
826.600403	186.300000
826.635254	195.800000
826.670044	183.100000
826.704834	185.300000
826.739685	187.800000
826.774475	194.600000
826.809265	191.400000
826.844055	189.900000
826.878906	197.600000
826.913635	195.200000
826.948425	195.500000
826.983215	193.500000
827.018005	197.200000
827.052856	189.800000
827.087585	194.900000
827.122375	184.600000
827.157227	191.900000
827.191956	203.900000
827.226746	187.600000
827.261536	196.100000
827.296265	183.800000
827.331116	189.500000
827.365906	195.700000
827.400635	186.700000
827.435425	183.200000
827.470215	197.500000
827.504944	189.700000
827.539734	196.000000
827.574463	192.400000
827.609253	198.300000
827.644043	194.100000
827.678772	197.100000
827.713562	189.300000
827.748352	189.400000
827.783081	188.900000
827.817871	192.800000
827.852600	188.400000
827.887329	192.200000
827.922119	182.000000
827.956848	194.200000
827.991638	205.500000
828.026367	193.500000
828.061157	192.900000
828.095886	192.200000
828.130615	205.700000
828.165344	182.100000
828.200073	193.700000
828.234863	189.900000
828.269592	193.100000
828.304321	196.300000
828.339111	192.100000
828.373779	187.000000
828.408569	195.700000
828.443298	196.700000
828.477966	189.200000
828.512756	192.800000
828.547424	186.200000
828.582214	188.800000
828.616943	189.700000
828.651672	191.000000
828.686340	195.900000
828.721130	187.800000
828.755798	192.000000
828.790527	192.500000
828.825256	192.700000
828.859924	192.200000
828.894714	198.600000
828.929443	200.500000
828.964111	187.800000
828.998840	195.000000
829.033569	188.300000
829.068237	189.800000
829.102966	188.400000
829.137634	194.600000
829.172363	193.300000
829.207092	193.000000
829.241821	186.700000
829.276489	182.700000
829.311157	192.600000
829.345825	190.500000
829.380554	195.000000
829.415283	187.400000
829.449951	184.200000
829.484619	200.700000
829.519348	200.000000
829.554016	191.800000
829.588745	192.100000
829.623413	186.600000
829.658081	204.200000
829.692749	186.200000
829.727417	196.600000
829.762146	193.600000
829.796814	187.200000
829.831482	191.000000
829.866150	192.700000
829.900879	188.600000
829.935486	194.700000
829.970154	189.700000
830.004883	203.200000
830.039490	193.900000
830.074219	188.900000
830.108887	191.900000
830.143494	190.300000
830.178223	186.700000
830.212891	189.000000
830.247498	190.900000
830.282166	200.200000
830.316772	198.000000
830.351501	189.300000
830.386169	190.600000
830.420776	188.900000
830.455444	190.900000
830.490112	189.800000
830.524719	182.900000
830.559387	194.700000
830.594055	194.600000
830.628662	189.800000
830.663330	190.900000
830.697998	201.200000
830.732605	191.400000
830.767273	194.500000
830.801941	191.700000
830.836487	201.000000
830.871155	192.300000
830.905762	193.700000
830.940430	184.100000
830.975098	189.600000
831.009644	192.600000
831.044312	201.500000
831.078979	193.800000
831.113525	184.800000
831.148193	190.800000
831.182861	190.900000
831.217407	195.900000
831.252075	209.500000
831.286621	188.200000
831.321289	189.300000
831.355896	191.900000
831.390564	200.300000
831.425110	193.200000
831.459778	198.100000
831.494324	205.100000
831.528931	195.500000
831.563599	195.000000
831.598145	186.100000
831.632751	191.900000
831.667419	190.400000
831.701965	193.500000
831.736572	194.400000
831.771179	185.300000
831.805786	189.300000
831.840393	197.600000
831.874939	182.900000
831.909546	196.100000
831.944153	183.700000
831.978760	190.800000
832.013306	187.000000
832.047913	198.400000
832.082458	200.200000
832.117065	187.900000
832.151672	200.700000
832.186218	192.800000
832.220825	195.300000
832.255432	183.900000
832.289978	187.700000
832.324585	194.400000
832.359192	194.500000
832.393677	189.200000
832.428284	192.300000
832.462830	191.600000
832.497437	190.100000
832.531982	196.700000
832.566589	190.800000
832.601135	194.300000
832.635681	184.300000
832.670227	192.500000
832.704773	198.800000
832.739380	194.300000
832.773926	190.700000
832.808472	190.000000
832.843079	192.300000
832.877563	196.000000
832.912170	187.300000
832.946716	184.900000
832.981201	196.500000
833.015808	195.600000
833.050293	191.200000
833.084839	187.600000
833.119446	190.500000
833.153992	195.400000
833.188477	191.400000
833.223022	188.600000
833.257568	193.100000
833.292114	198.900000
833.326660	202.900000
833.361145	189.700000
833.395691	184.700000
833.430237	190.500000
833.464783	195.400000
833.499329	188.800000
833.533875	185.900000
833.568359	194.800000
833.602905	198.200000
833.637390	196.300000
833.671875	189.300000
833.706421	190.400000
833.740906	188.400000
833.775452	181.900000
833.809998	190.400000
833.844482	199.100000
833.879028	191.900000
833.913513	189.200000
833.947998	193.700000
833.982544	189.300000
834.017090	188.900000
834.051514	180.000000
834.086060	194.100000
834.120544	191.800000
834.155029	193.200000
834.189575	189.800000
834.223999	194.600000
834.258545	192.500000
834.293030	193.600000
834.327515	192.600000
834.362000	188.700000
834.396545	195.800000
834.430969	191.200000
834.465454	196.100000
834.500000	184.800000
834.534424	194.200000
834.568970	182.100000
834.603455	183.800000
834.637878	188.400000
834.672363	192.600000
834.706909	194.200000
834.741333	192.200000
834.775818	183.400000
834.810242	187.600000
834.844727	193.700000
834.879211	190.000000
834.913635	192.300000
834.948181	194.100000
834.982666	191.200000
835.017090	190.600000
835.051575	195.800000
835.086060	188.400000
835.120483	195.000000
835.154907	196.400000
835.189331	192.100000
835.223816	194.900000
835.258301	186.000000
835.292786	186.800000
835.327209	196.100000
835.361694	188.500000
835.396057	190.000000
835.430542	194.800000
835.465027	193.700000
835.499390	187.400000
835.533875	209.500000
835.568359	190.200000
835.602722	183.100000
835.637207	192.900000
835.671692	186.400000
835.706055	207.500000
835.740540	194.200000
835.774902	194.800000
835.809387	191.800000
835.843811	186.100000
835.878235	200.100000
835.912659	185.600000
835.947083	189.000000
835.981506	193.600000
836.015930	184.400000
836.050354	196.200000
836.084778	200.200000
836.119202	197.200000
836.153625	203.100000
836.187988	188.700000
836.222473	189.200000
836.256897	193.800000
836.291260	191.300000
836.325684	194.100000
836.360046	190.100000
836.394470	189.200000
836.428894	198.300000
836.463318	189.400000
836.497681	195.900000
836.532104	198.900000
836.566467	193.700000
836.600891	190.200000
836.635315	196.400000
836.669678	195.400000
836.704102	195.200000
836.738525	193.200000
836.772888	182.700000
836.807251	188.900000
836.841675	194.200000
836.876038	186.900000
836.910461	188.100000
836.944763	195.000000
836.979187	188.800000
837.013611	197.800000
837.047974	184.500000
837.082336	203.400000
837.116699	194.500000
837.151062	190.600000
837.185486	185.800000
837.219849	189.400000
837.254211	196.300000
837.288574	190.800000
837.322937	187.400000
837.357300	180.400000
837.391663	206.700000
837.426086	197.300000
837.460388	192.900000
837.494751	197.000000
837.529114	190.800000
837.563477	196.900000
837.597839	194.000000
837.632141	191.100000
837.666565	189.200000
837.700928	193.200000
837.735229	195.100000
837.769592	192.900000
837.803955	198.400000
837.838257	188.400000
837.872620	189.700000
837.906982	199.900000
837.941284	193.300000
837.975647	193.000000
838.010010	197.900000
838.044312	188.700000
838.078674	188.700000
838.112976	193.300000
838.147339	195.400000
838.181702	191.300000
838.216003	200.800000
838.250366	193.400000
838.284668	195.100000
838.318970	184.700000
838.353333	191.600000
838.387634	189.100000
838.421936	193.400000
838.456299	193.900000
838.490601	199.000000
838.524902	195.800000
838.559265	196.600000
838.593567	194.600000
838.627869	186.200000
838.662170	195.700000
838.696472	183.800000
838.730774	188.000000
838.765137	195.800000
838.799377	176.500000
838.833740	191.800000
838.868042	199.600000
838.902283	184.000000
838.936646	198.000000
838.970947	192.800000
839.005188	196.700000
839.039551	183.300000
839.073792	199.900000
839.108093	188.800000
839.142395	200.800000
839.176697	185.900000
839.210937	194.400000
839.245300	202.700000
839.279541	184.800000
839.313843	189.500000
839.348145	195.100000
839.382385	197.200000
839.416687	195.700000
839.450989	195.300000
839.485229	192.700000
839.519531	187.300000
839.553833	198.100000
839.588013	192.300000
839.622314	193.200000
839.656555	193.800000
839.690857	192.500000
839.725159	185.900000
839.759460	190.500000
839.793640	189.000000
839.827942	190.500000
839.862183	187.300000
839.896423	193.900000
839.930725	200.100000
839.964966	198.700000
839.999207	199.400000
840.033508	200.700000
840.067688	189.100000
840.101990	200.900000
840.136230	191.500000
840.170471	199.600000
840.204712	188.700000
840.238953	187.800000
840.273193	193.500000
840.307434	196.000000
840.341736	188.200000
840.375916	184.900000
840.410217	189.700000
840.444397	196.300000
840.478638	195.200000
840.512878	197.000000
840.547119	192.500000
840.581360	195.000000
840.615601	202.900000
840.649780	200.000000
840.684021	193.500000
840.718262	201.500000
840.752441	198.100000
840.786682	192.700000
840.820862	195.000000
840.855103	199.300000
840.889343	194.000000
840.923584	197.100000
840.957764	195.500000
840.992004	194.900000
841.026184	206.700000
841.060425	190.900000
841.094666	189.100000
841.128845	195.400000
841.163025	193.500000
841.197266	195.300000
841.231445	194.000000
841.265686	192.800000
841.299866	189.600000
841.334045	199.500000
841.368286	192.000000
841.402405	199.800000
841.436646	196.600000
841.470825	190.100000
841.505005	191.100000
841.539185	188.200000
841.573425	188.400000
841.607544	192.400000
841.641785	192.700000
841.675964	186.600000
841.710144	192.900000
841.744324	190.700000
841.778503	191.100000
841.812683	188.300000
841.846863	200.000000
841.881042	199.000000
841.915222	189.900000
841.949402	207.700000
841.983521	184.800000
842.017700	192.000000
842.051880	193.200000
842.086060	194.500000
842.120239	194.200000
842.154419	191.000000
842.188538	192.200000
842.222717	190.800000
842.256897	202.200000
842.291016	192.400000
842.325195	195.800000
842.359375	205.400000
842.393494	200.600000
842.427673	195.200000
842.461853	197.300000
842.495911	201.100000
842.530090	194.200000
842.564209	193.200000
842.598389	194.600000
842.632568	193.400000
842.666626	197.100000
842.700806	190.200000
842.734985	190.200000
842.769043	195.400000
842.803223	191.500000
842.837402	191.600000
842.871460	189.300000
842.905640	201.400000
842.939697	189.100000
842.973877	194.500000
843.007996	199.100000
843.042175	202.500000
843.076233	190.400000
843.110413	196.000000
843.144470	201.800000
843.178589	197.100000
843.212769	190.000000
843.246826	196.800000
843.280945	190.900000
843.315125	190.700000
843.349182	188.800000
843.383301	198.700000
843.417419	204.800000
843.451538	192.400000
843.485657	192.000000
843.519714	190.800000
843.553833	195.000000
843.587952	191.000000
843.622070	189.800000
843.656128	196.500000
843.690247	191.400000
843.724304	192.000000
843.758423	195.100000
843.792542	191.800000
843.826599	193.000000
843.860718	191.000000
843.894836	186.000000
843.928894	193.900000
843.963013	195.900000
843.997070	189.000000
844.031128	186.700000
844.065247	198.600000
844.099304	198.900000
844.133362	194.500000
844.167480	196.200000
844.201599	200.600000
844.235596	196.200000
844.269714	194.100000
844.303711	196.700000
844.337830	183.900000
844.371948	195.400000
844.405945	192.500000
844.440063	188.400000
844.474121	207.700000
844.508118	191.800000
844.542236	192.100000
844.576294	192.600000
844.610352	188.400000
844.644409	192.700000
844.678406	184.800000
844.712524	196.900000
844.746582	199.900000
844.780640	192.800000
844.814636	193.800000
844.848755	202.600000
844.882751	190.800000
844.916809	197.900000
844.950867	194.400000
844.984863	202.400000
845.018921	192.800000
845.052979	188.500000
845.086975	193.800000
845.121033	186.300000
845.155090	188.000000
845.189087	200.300000
845.223145	189.800000
845.257141	192.300000
845.291199	196.900000
845.325256	201.600000
845.359253	194.000000
845.393250	203.000000
845.427307	192.900000
845.461304	194.300000
845.495361	193.800000
845.529358	203.300000
845.563354	191.400000
845.597412	188.000000
845.631409	201.300000
845.665405	200.000000
845.699463	199.800000
845.733459	191.300000
845.767456	200.000000
845.801453	192.500000
845.835449	200.400000
845.869446	196.700000
845.903503	198.500000
845.937439	189.600000
845.971497	200.600000
846.005493	187.000000
846.039429	198.800000
846.073486	203.200000
846.107483	191.100000
846.141418	193.900000
846.175476	193.400000
846.209473	199.600000
846.243408	189.900000
846.277405	192.200000
846.311401	188.800000
846.345337	193.400000
846.379395	199.100000
846.413330	191.200000
846.447327	201.600000
846.481323	186.500000
846.515259	190.600000
846.549255	194.200000
846.583252	195.200000
846.617187	189.000000
846.651184	195.500000
846.685120	191.900000
846.719055	201.600000
846.753052	198.500000
846.786987	198.200000
846.820984	186.200000
846.854980	200.000000
846.888916	189.600000
846.922852	194.500000
846.956848	202.800000
846.990723	188.000000
847.024719	195.500000
847.058716	191.600000
847.092590	201.300000
847.126587	194.600000
847.160522	192.700000
847.194458	198.000000
847.228455	191.500000
847.262390	187.500000
847.296265	192.500000
847.330261	199.500000
847.364136	192.200000
847.398132	189.300000
847.432068	193.500000
847.466003	191.800000
847.499939	192.600000
847.533875	195.800000
847.567749	192.500000
847.601746	191.200000
847.635681	198.000000
847.669556	185.500000
847.703491	199.400000
847.737427	209.600000
847.771301	188.000000
847.805237	194.400000
847.839233	193.700000
847.873108	193.600000
847.907043	192.300000
847.940918	201.000000
847.974854	195.400000
848.008789	197.900000
848.042664	193.900000
848.076538	196.500000
848.110474	193.700000
848.144348	194.200000
848.178284	187.600000
848.212219	194.600000
848.246094	192.000000
848.279968	195.200000
848.313904	197.800000
848.347778	194.100000
848.381653	193.200000
848.415588	189.700000
848.449463	190.800000
848.483337	196.600000
848.517212	200.000000
848.551086	194.700000
848.585022	188.800000
848.618835	202.400000
848.652771	191.400000
848.686646	189.100000
848.720520	203.200000
848.754395	193.400000
848.788330	197.900000
848.822144	198.300000
848.856018	191.400000
848.889954	202.900000
848.923767	189.300000
848.957642	189.900000
848.991577	199.100000
849.025391	191.300000
849.059265	193.600000
849.093079	192.500000
849.126953	187.000000
849.160828	199.400000
849.194641	193.600000
849.228577	191.300000
849.262451	192.100000
849.296265	191.800000
849.330139	188.300000
849.364014	194.600000
849.397827	195.800000
849.431702	194.400000
849.465515	197.200000
849.499329	184.700000
849.533203	188.100000
849.567078	184.400000
849.600891	196.500000
849.634766	192.900000
849.668518	198.200000
849.702393	192.900000
849.736267	187.100000
849.770020	206.100000
849.803894	197.300000
849.837769	193.100000
849.871521	193.600000
849.905396	199.000000
849.939270	189.800000
849.973022	191.600000
850.006897	196.800000
850.040710	196.500000
850.074524	197.100000
850.108337	192.400000
850.142151	196.700000
850.175964	199.800000
850.209778	194.200000
850.243530	180.200000
850.277405	198.600000
850.311218	193.600000
850.344971	190.800000
850.378845	202.000000
850.412659	189.900000
850.446411	193.500000
850.480225	193.100000
850.514038	199.600000
850.547791	197.200000
850.581665	192.200000
850.615417	191.100000
850.649231	194.300000
850.683044	192.700000
850.716858	191.900000
850.750610	193.400000
850.784424	197.500000
850.818176	191.600000
850.851929	191.000000
850.885742	190.600000
850.919495	193.700000
850.953308	199.700000
850.987122	201.000000
851.020874	188.200000
851.054626	185.600000
851.088440	198.100000
851.122192	197.600000
851.156006	194.300000
851.189697	192.100000
851.223511	188.100000
851.257263	197.700000
851.291077	197.500000
851.324829	192.600000
851.358582	191.800000
851.392334	191.600000
851.426086	192.700000
851.459900	201.000000
851.493591	193.700000
851.527344	194.800000
851.561157	192.200000
851.594849	195.600000
851.628662	195.600000
851.662415	201.400000
851.696106	197.600000
851.729858	198.400000
851.763611	187.400000
851.797363	195.500000
851.831116	189.400000
851.864868	196.100000
851.898560	197.100000
851.932312	193.000000
851.966064	195.800000
851.999817	193.600000
852.033569	192.700000
852.067261	198.200000
852.101013	190.200000
852.134766	194.200000
852.168457	182.400000
852.202209	197.900000
852.235901	190.300000
852.269592	198.200000
852.303345	202.800000
852.337036	198.400000
852.370789	193.100000
852.404541	197.100000
852.438171	190.600000
852.471924	191.400000
852.505676	186.700000
852.539307	195.200000
852.573059	189.600000
852.606812	191.100000
852.640442	192.800000
852.674194	199.100000
852.707886	204.300000
852.741577	200.100000
852.775269	189.600000
852.809021	194.600000
852.842651	196.400000
852.876404	197.200000
852.910034	195.000000
852.943787	199.900000
852.977478	196.700000
853.011108	189.900000
853.044861	189.800000
853.078552	201.300000
853.112183	195.000000
853.145874	195.600000
853.179626	185.000000
853.213257	194.000000
853.246948	191.700000
853.280640	201.600000
853.314270	193.800000
853.347961	200.100000
853.381653	195.800000
853.415283	196.400000
853.448975	190.400000
853.482605	195.300000
853.516296	193.000000
853.549988	186.600000
853.583618	195.200000
853.617310	195.700000
853.651001	196.600000
853.684631	189.200000
853.718323	191.800000
853.751953	201.200000
853.785583	184.400000
853.819275	196.900000
853.852966	194.600000
853.886536	185.100000
853.920227	188.100000
853.953918	199.700000
853.987488	192.700000
854.021179	198.000000
854.054749	202.000000
854.088440	195.600000
854.122131	189.200000
854.155701	198.400000
854.189331	190.300000
854.223022	197.300000
854.256592	197.000000
854.290283	190.500000
854.323914	196.800000
854.357483	194.800000
854.391174	197.200000
854.424744	204.000000
854.458374	196.200000
854.492065	204.600000
854.525696	193.000000
854.559265	201.400000
854.592896	204.900000
854.626465	193.200000
854.660095	194.800000
854.693787	194.500000
854.727356	192.800000
854.760986	198.800000
854.794617	195.000000
854.828186	193.200000
854.861816	196.700000
854.895447	193.700000
854.929016	195.100000
854.962585	196.800000
854.996155	201.700000
855.029785	195.300000
855.063416	196.700000
855.097046	198.300000
855.130615	187.900000
855.164185	200.200000
855.197754	193.700000
855.231384	197.900000
855.264954	193.100000
855.298523	198.600000
855.332153	193.100000
855.365723	202.100000
855.399292	190.400000
855.432922	192.800000
855.466492	196.200000
855.500061	190.700000
855.533630	191.400000
855.567200	198.200000
855.600769	198.800000
855.634338	198.100000
855.667969	196.300000
855.701477	189.000000
855.735046	189.400000
855.768616	186.600000
855.802185	196.800000
855.835754	208.300000
855.869324	186.400000
855.902893	193.900000
855.936401	200.600000
855.969971	195.400000
856.003540	187.200000
856.037109	198.500000
856.070618	194.400000
856.104187	187.600000
856.137695	193.000000
856.171265	184.500000
856.204834	193.800000
856.238403	199.800000
856.271912	191.300000
856.305481	195.100000
856.338989	188.000000
856.372559	196.300000
856.406128	195.300000
856.439636	198.400000
856.473145	193.100000
856.506653	201.400000
856.540222	195.000000
856.573792	200.700000
856.607300	198.200000
856.640808	188.900000
856.674377	195.900000
856.707825	222.200000
856.741394	199.000000
856.774902	189.400000
856.808472	185.800000
856.841980	195.700000
856.875488	202.900000
856.908936	185.300000
856.942505	191.700000
856.976013	192.600000
857.009521	187.900000
857.043030	194.800000
857.076477	192.700000
857.110046	198.900000
857.143555	195.600000
857.177063	199.800000
857.210571	191.800000
857.244080	186.300000
857.277527	197.500000
857.311035	191.900000
857.344543	197.900000
857.378052	191.200000
857.411499	199.100000
857.445068	203.200000
857.478516	193.400000
857.512024	188.000000
857.545532	193.000000
857.578979	193.700000
857.612427	193.900000
857.645874	189.800000
857.679382	195.600000
857.712891	198.200000
857.746399	194.100000
857.779846	198.700000
857.813354	199.000000
857.846741	194.000000
857.880249	189.600000
857.913757	195.500000
857.947266	195.500000
857.980652	197.700000
858.014160	190.000000
858.047546	192.300000
858.081055	193.100000
858.114563	201.600000
858.147949	188.100000
858.181458	197.800000
858.214844	191.000000
858.248352	185.200000
858.281799	198.400000
858.315308	207.800000
858.348694	197.200000
858.382141	202.800000
858.415588	197.000000
858.449036	199.600000
858.482483	197.400000
858.515930	191.300000
858.549377	194.900000
858.582825	201.700000
858.616211	196.500000
858.649658	196.300000
858.683105	189.300000
858.716553	191.300000
858.750000	187.600000
858.783386	192.400000
858.816833	186.800000
858.850281	195.200000
858.883728	197.600000
858.917114	193.500000
858.950562	203.100000
858.983948	203.100000
859.017395	198.100000
859.050781	193.400000
859.084167	190.300000
859.117615	187.800000
859.151062	196.900000
859.184448	189.600000
859.217834	191.900000
859.251282	191.100000
859.284668	191.000000
859.318054	184.800000
859.351440	191.900000
859.384888	201.900000
859.418274	184.700000
859.451721	185.800000
859.485046	196.000000
859.518494	194.700000
859.551819	190.300000
859.585266	196.000000
859.618652	197.200000
859.652039	188.100000
859.685425	188.500000
859.718811	186.700000
859.752197	182.800000
859.785583	201.000000
859.819031	201.400000
859.852356	196.300000
859.885742	191.100000
859.919067	192.500000
859.952454	192.200000
859.985901	198.600000
860.019287	191.500000
860.052612	0.000000
860.085999	0.000000
860.119324	0.000000
860.152710	0.000000
860.186096	0.000000
860.219421	0.000000
860.252808	0.000000
860.286133	0.000000
860.319519	0.000000
860.352905	0.000000
860.386292	0.000000
860.419617	0.000000
860.452942	0.000000
860.486267	0.000000
860.519653	0.000000
860.553040	0.000000
860.586365	0.000000
860.619690	0.000000
860.653076	0.000000
860.686340	0.000000
860.719727	0.000000
860.753113	0.000000
860.786377	0.000000
860.819763	0.000000
860.853027	0.000000
860.886414	0.000000
860.919739	0.000000
860.953125	0.000000
860.986389	0.000000
861.019714	0.000000
861.053040	0.000000
861.086365	0.000000
861.119690	0.000000
861.153076	0.000000
861.186340	0.000000
861.219666	0.000000
861.252930	0.000000
861.286316	0.000000
861.319641	0.000000
861.352905	0.000000
861.386230	0.000000
861.419495	0.000000
861.452820	0.000000
861.486145	0.000000
861.519470	0.000000
861.552734	0.000000
861.586060	0.000000
861.619324	0.000000
861.652649	0.000000
861.685974	0.000000
861.719238	0.000000
861.752563	0.000000
861.785828	0.000000
861.819092	0.000000
861.852417	0.000000
861.885742	0.000000
861.918945	0.000000
861.952271	0.000000
861.985535	0.000000
862.018799	0.000000
862.052124	0.000000
862.085449	0.000000
862.118652	0.000000
862.151978	0.000000
862.185181	0.000000
862.218506	0.000000
862.251770	0.000000
862.285034	0.000000
862.318298	0.000000
862.351562	0.000000
862.384827	0.000000
862.418091	0.000000
862.451355	0.000000
862.484619	0.000000
862.517883	0.000000
862.551086	0.000000
862.584351	0.000000
862.617676	0.000000
862.650940	0.000000
862.684143	0.000000
862.717407	0.000000
862.750610	0.000000
862.783875	0.000000
862.817139	0.000000
862.850342	0.000000
862.883606	0.000000
862.916870	0.000000
862.950073	0.000000
862.983337	0.000000
863.016602	0.000000
863.049805	0.000000
863.083069	0.000000
863.116211	0.000000
863.149475	0.000000
863.182739	0.000000
863.216003	0.000000
863.249146	0.000000
863.282410	0.000000
863.315613	0.000000
863.348816	0.000000
863.382080	0.000000
863.415222	0.000000
863.448486	0.000000
863.481689	0.000000
863.514893	0.000000
863.548157	0.000000
863.581360	0.000000
863.614502	0.000000
863.647766	0.000000
863.680908	0.000000
863.714172	0.000000
863.747375	0.000000
863.780579	0.000000
863.813721	0.000000
863.846985	0.000000
863.880127	0.000000
863.913330	0.000000
863.946533	0.000000
863.979675	0.000000
864.012939	0.000000
