Model Number: SPM-001-M   
Serial Number: 10090201
Firmware Version: 004.17.6
Exposure Time: 500000.000000us
Data Taken on: 10-03-2021 10:40:06.996
Wavelength	Amplitude
733.770752	0.000000
733.808716	0.000000
733.846619	0.000000
733.884583	0.000000
733.922546	0.000000
733.960449	0.000000
733.998413	0.000000
734.036377	0.000000
734.074219	0.000000
734.112183	0.000000
734.150085	0.000000
734.188049	0.000000
734.226013	0.000000
734.263916	0.000000
734.301819	0.000000
734.339783	0.000000
734.377686	0.000000
734.415588	0.000000
734.453552	0.000000
734.491455	0.000000
734.529419	0.000000
734.567322	0.000000
734.605225	0.000000
734.643127	0.000000
734.681091	0.000000
734.718994	0.000000
734.756897	0.000000
734.794800	0.000000
734.832703	0.000000
734.870667	0.000000
734.908508	0.000000
734.946472	0.000000
734.984375	0.000000
735.022278	0.000000
735.060181	0.000000
735.098083	0.000000
735.135986	0.000000
735.173889	0.000000
735.211792	0.000000
735.249695	0.000000
735.287598	0.000000
735.325439	0.000000
735.363403	0.000000
735.401306	0.000000
735.439148	0.000000
735.477051	0.000000
735.515015	0.000000
735.552856	0.000000
735.590759	0.000000
735.628662	0.000000
735.666504	0.000000
735.704407	0.000000
735.742310	0.000000
735.780212	0.000000
735.818115	0.000000
735.856018	0.000000
735.893860	0.000000
735.931763	0.000000
735.969604	0.000000
736.007507	0.000000
736.045410	0.000000
736.083252	0.000000
736.121094	0.000000
736.158997	0.000000
736.196838	0.000000
736.234741	0.000000
736.272644	0.000000
736.310486	0.000000
736.348389	0.000000
736.386230	0.000000
736.424072	0.000000
736.461975	0.000000
736.499878	0.000000
736.537720	0.000000
736.575562	0.000000
736.613403	0.000000
736.651306	0.000000
736.689148	0.000000
736.726990	0.000000
736.764893	0.000000
736.802734	0.000000
736.840576	0.000000
736.878418	0.000000
736.916321	0.000000
736.954102	0.000000
736.992004	0.000000
737.029846	0.000000
737.067688	0.000000
737.105530	0.000000
737.143372	0.000000
737.181213	0.000000
737.219116	0.000000
737.256897	0.000000
737.294739	0.000000
737.332642	0.000000
737.370422	0.000000
737.408325	0.000000
737.446167	0.000000
737.483948	0.000000
737.521790	0.000000
737.559692	0.000000
737.597473	0.000000
737.635315	0.000000
737.673157	0.000000
737.710999	0.000000
737.748840	0.000000
737.786621	0.000000
737.824463	0.000000
737.862305	0.000000
737.900085	0.000000
737.937927	0.000000
737.975769	0.000000
738.013550	0.000000
738.051392	0.000000
738.089233	0.000000
738.127014	0.000000
738.164856	0.000000
738.202698	0.000000
738.240479	0.000000
738.278320	0.000000
738.316162	0.000000
738.353943	0.000000
738.391785	0.000000
738.429565	0.000000
738.467407	0.000000
738.505188	0.000000
738.542969	0.000000
738.580811	0.000000
738.618652	0.000000
738.656372	0.000000
738.694214	0.000000
738.732056	0.000000
738.769836	0.000000
738.807617	0.000000
738.845459	0.000000
738.883240	0.000000
738.921021	0.000000
738.958862	0.000000
738.996582	0.000000
739.034424	0.000000
739.072205	0.000000
739.109985	0.000000
739.147827	0.000000
739.185547	0.000000
739.223389	0.000000
739.261169	0.000000
739.298889	0.000000
739.336731	0.000000
739.374512	0.000000
739.412292	0.000000
739.450073	0.000000
739.487854	0.000000
739.525635	0.000000
739.563416	0.000000
739.601135	0.000000
739.638977	0.000000
739.676758	0.000000
739.714478	0.000000
739.752258	0.000000
739.790100	0.000000
739.827820	0.000000
739.865601	0.000000
739.903381	0.000000
739.941101	0.000000
739.978882	195.300000
740.016724	191.300000
740.054443	197.200000
740.092224	189.300000
740.130005	188.500000
740.167725	190.000000
740.205505	188.200000
740.243225	198.900000
740.281006	194.700000
740.318787	184.400000
740.356506	199.500000
740.394287	197.900000
740.432068	187.500000
740.469727	185.000000
740.507507	197.500000
740.545288	192.300000
740.583008	195.500000
740.620789	193.700000
740.658569	183.900000
740.696228	192.000000
740.734009	199.100000
740.771790	180.200000
740.809509	197.700000
740.847229	186.400000
740.884949	190.600000
740.922729	185.100000
740.960449	192.300000
740.998169	186.100000
741.035950	189.200000
741.073669	193.400000
741.111389	194.000000
741.149170	202.800000
741.186890	203.400000
741.224609	195.000000
741.262329	194.700000
741.300110	201.500000
741.337769	187.800000
741.375549	185.500000
741.413208	194.500000
741.450989	187.100000
741.488708	189.400000
741.526367	191.000000
741.564148	196.300000
741.601868	196.100000
741.639526	192.300000
741.677307	192.900000
741.715027	195.300000
741.752686	188.700000
741.790466	199.100000
741.828186	195.300000
741.865845	187.400000
741.903564	181.800000
741.941345	191.500000
741.979004	188.900000
742.016724	195.200000
742.054382	194.900000
742.092102	198.800000
742.129822	184.200000
742.167480	188.600000
742.205200	193.000000
742.242920	195.400000
742.280640	196.400000
742.318359	189.600000
742.356079	189.300000
742.393738	196.600000
742.431396	192.400000
742.469116	196.300000
742.506775	182.400000
742.544495	194.900000
742.582214	196.500000
742.619873	192.200000
742.657593	200.200000
742.695251	196.200000
742.732971	192.200000
742.770630	193.700000
742.808289	192.600000
742.846008	192.600000
742.883728	196.200000
742.921326	192.600000
742.959045	189.300000
742.996765	190.500000
743.034424	192.900000
743.072083	189.400000
743.109802	193.500000
743.147400	186.600000
743.185120	193.100000
743.222839	190.000000
743.260437	198.900000
743.298157	193.800000
743.335754	183.600000
743.373474	190.200000
743.411133	185.700000
743.448792	191.500000
743.486450	192.500000
743.524170	183.700000
743.561768	192.100000
743.599487	198.700000
743.637146	203.200000
743.674744	190.200000
743.712463	187.900000
743.750122	192.400000
743.787720	194.800000
743.825439	187.800000
743.863037	190.200000
743.900696	191.800000
743.938416	216.600000
743.976013	190.900000
744.013672	200.800000
744.051331	197.500000
744.088928	201.500000
744.126587	201.300000
744.164307	193.500000
744.201904	190.700000
744.239563	195.600000
744.277222	196.000000
744.314819	192.800000
744.352478	200.700000
744.390137	194.700000
744.427734	195.400000
744.465393	190.700000
744.502991	189.200000
744.540649	194.900000
744.578308	194.300000
744.615906	185.800000
744.653564	183.100000
744.691223	196.000000
744.728821	185.300000
744.766418	192.100000
744.804077	196.000000
744.841675	189.300000
744.879333	187.600000
744.916992	192.000000
744.954529	191.300000
744.992187	197.600000
745.029785	190.900000
745.067444	188.800000
745.105042	193.900000
745.142639	194.200000
745.180298	201.700000
745.217896	189.900000
745.255493	190.700000
745.293152	195.300000
745.330750	195.800000
745.368347	200.200000
745.405945	195.300000
745.443604	192.400000
745.481140	197.800000
745.518799	191.400000
745.556396	195.800000
745.593994	197.500000
745.631592	191.600000
745.669189	186.100000
745.706787	194.500000
745.744385	190.100000
745.781982	194.900000
745.819580	190.700000
745.857178	191.200000
745.894775	192.900000
745.932373	195.400000
745.969971	194.000000
746.007568	184.500000
746.045166	202.600000
746.082764	197.300000
746.120300	197.000000
746.157898	196.000000
746.195557	192.600000
746.233093	186.500000
746.270691	196.800000
746.308228	194.400000
746.345825	199.900000
746.383423	196.100000
746.420959	188.700000
746.458557	190.000000
746.496155	191.000000
746.533691	191.000000
746.571289	188.700000
746.608887	193.000000
746.646423	195.300000
746.684021	193.200000
746.721619	189.800000
746.759155	192.400000
746.796753	185.800000
746.834351	186.400000
746.871826	188.800000
746.909424	198.500000
746.946960	193.900000
746.984558	191.700000
747.022156	189.500000
747.059631	198.500000
747.097229	195.500000
747.134827	190.400000
747.172363	202.000000
747.209900	194.700000
747.247498	187.100000
747.285034	199.700000
747.322571	198.300000
747.360168	191.400000
747.397644	186.200000
747.435242	195.500000
747.472778	200.000000
747.510315	190.200000
747.547913	190.000000
747.585388	199.900000
747.622925	191.400000
747.660522	184.000000
747.697998	190.300000
747.735596	192.500000
747.773132	189.400000
747.810669	192.500000
747.848206	196.200000
747.885742	188.100000
747.923279	187.200000
747.960815	196.600000
747.998352	192.700000
748.035889	199.500000
748.073425	197.900000
748.110901	190.500000
748.148437	187.300000
748.185974	195.200000
748.223511	203.900000
748.261047	194.800000
748.298584	194.300000
748.336060	193.300000
748.373596	196.000000
748.411133	211.200000
748.448608	190.300000
748.486145	196.900000
748.523682	200.500000
748.561218	199.500000
748.598755	194.400000
748.636292	195.500000
748.673706	191.100000
748.711243	199.400000
748.748718	193.700000
748.786255	194.000000
748.823792	193.100000
748.861267	188.100000
748.898804	195.100000
748.936340	195.000000
748.973816	190.700000
749.011292	198.700000
749.048828	194.700000
749.086304	197.300000
749.123840	203.600000
749.161316	187.800000
749.198792	205.000000
749.236328	199.800000
749.273743	194.700000
749.311279	192.400000
749.348816	195.500000
749.386230	192.700000
749.423767	182.200000
749.461304	196.400000
749.498718	193.000000
749.536255	200.100000
749.573730	206.200000
749.611206	198.600000
749.648682	193.400000
749.686218	192.900000
749.723633	197.900000
749.761169	190.200000
749.798645	189.500000
749.836060	191.700000
749.873596	189.800000
749.911011	192.500000
749.948547	200.300000
749.986023	192.400000
750.023437	192.800000
750.060913	187.300000
750.098450	187.200000
750.135864	190.600000
750.173340	193.800000
750.210815	197.600000
750.248291	187.600000
750.285767	192.600000
750.323242	199.500000
750.360657	194.900000
750.398132	188.800000
750.435608	197.000000
750.473022	189.300000
750.510498	187.000000
750.547974	187.900000
750.585449	191.000000
750.622925	182.900000
750.660339	202.200000
750.697815	192.500000
750.735291	192.100000
750.772644	193.900000
750.810120	193.500000
750.847595	196.200000
750.885010	188.200000
750.922485	203.200000
750.959961	192.200000
750.997375	200.800000
751.034851	197.600000
751.072266	197.800000
751.109680	186.500000
751.147156	197.800000
751.184570	197.200000
751.221985	193.700000
751.259460	183.100000
751.296875	192.200000
751.334290	195.300000
751.371765	197.900000
751.409180	197.100000
751.446594	199.200000
751.484070	195.200000
751.521423	194.600000
751.558899	195.000000
751.596375	202.000000
751.633728	201.300000
751.671204	206.100000
751.708618	189.200000
751.746033	193.900000
751.783447	188.400000
751.820801	188.800000
751.858276	194.900000
751.895691	192.000000
751.933105	190.800000
751.970520	187.900000
752.007935	190.200000
752.045349	197.900000
752.082764	194.700000
752.120178	191.700000
752.157532	189.500000
752.195007	189.700000
752.232422	195.300000
752.269775	199.200000
752.307190	195.800000
752.344543	187.800000
752.382019	192.800000
752.419434	192.600000
752.456787	195.800000
752.494202	196.200000
752.531616	194.000000
752.568970	197.600000
752.606384	193.700000
752.643799	195.500000
752.681152	201.200000
752.718567	196.200000
752.755981	185.300000
752.793335	197.000000
752.830750	185.300000
752.868164	200.300000
752.905518	189.600000
752.942932	198.000000
752.980225	188.400000
753.017639	199.500000
753.055054	192.000000
753.092407	196.800000
753.129822	199.400000
753.167175	204.000000
753.204529	193.100000
753.241943	190.400000
753.279358	187.800000
753.316650	197.400000
753.354065	195.000000
753.391479	198.700000
753.428772	201.200000
753.466187	199.700000
753.503479	187.000000
753.540894	193.700000
753.578308	188.500000
753.615601	188.000000
753.653015	194.100000
753.690369	191.600000
753.727722	188.900000
753.765076	187.500000
753.802490	187.400000
753.839783	185.700000
753.877136	189.200000
753.914551	208.900000
753.951843	186.900000
753.989258	198.300000
754.026611	194.600000
754.063904	196.400000
754.101257	187.600000
754.138611	186.200000
754.175964	193.300000
754.213318	204.900000
754.250610	185.100000
754.288025	190.000000
754.325378	185.700000
754.362671	198.800000
754.400024	191.200000
754.437378	202.000000
754.474670	203.000000
754.512085	189.900000
754.549438	193.300000
754.586731	190.400000
754.624084	192.900000
754.661438	187.800000
754.698730	202.000000
754.736084	191.500000
754.773376	192.400000
754.810730	195.100000
754.848083	192.400000
754.885315	197.600000
754.922668	186.700000
754.960022	187.400000
754.997314	197.600000
755.034668	195.300000
755.072021	196.800000
755.109253	192.800000
755.146606	201.900000
755.183960	193.200000
755.221252	204.400000
755.258545	199.500000
755.295898	202.300000
755.333191	201.900000
755.370544	199.700000
755.407776	195.800000
755.445129	196.200000
755.482422	200.000000
755.519714	192.300000
755.557068	187.000000
755.594360	188.200000
755.631653	200.800000
755.668945	204.900000
755.706299	197.900000
755.743530	208.800000
755.780884	204.900000
755.818176	202.500000
755.855408	201.800000
755.892761	200.200000
755.930054	199.000000
755.967346	199.400000
756.004639	200.800000
756.041870	198.500000
756.079224	201.600000
756.116516	192.900000
756.153748	201.900000
756.191040	205.700000
756.228394	201.200000
756.265625	193.900000
756.302917	198.500000
756.340210	195.000000
756.377441	205.100000
756.414795	206.100000
756.452087	199.500000
756.489319	193.900000
756.526611	201.900000
756.563843	201.700000
756.601135	210.200000
756.638428	209.100000
756.675659	199.700000
756.712952	206.400000
756.750244	205.400000
756.787476	201.900000
756.824768	208.300000
756.862061	199.200000
756.899292	248.100000
756.936584	204.800000
756.973816	212.700000
757.011047	215.000000
757.048340	204.500000
757.085632	203.300000
757.122864	218.600000
757.160156	201.100000
757.197327	205.400000
757.234619	206.100000
757.271912	202.600000
757.309082	206.800000
757.346375	199.400000
757.383667	209.300000
757.420837	205.000000
757.458130	205.000000
757.495422	203.400000
757.532593	207.000000
757.569885	198.000000
757.607117	200.200000
757.644348	205.300000
757.681580	217.600000
757.718811	193.000000
757.756042	205.000000
757.793335	202.500000
757.830505	208.300000
757.867798	201.600000
757.905029	203.400000
757.942200	207.500000
757.979492	202.200000
758.016724	205.300000
758.053894	204.400000
758.091187	225.600000
758.128418	206.700000
758.165588	206.700000
758.202820	217.800000
758.240112	204.300000
758.277283	217.100000
758.314514	207.800000
758.351685	205.200000
758.388916	217.800000
758.426147	215.800000
758.463379	218.300000
758.500610	212.900000
758.537842	209.500000
758.575012	217.400000
758.612244	206.500000
758.649475	223.600000
758.686646	202.700000
758.723877	218.000000
758.761108	218.200000
758.798279	210.600000
758.835510	212.100000
758.872742	218.600000
758.909851	213.400000
758.947083	214.900000
758.984253	213.800000
759.021484	218.600000
759.058716	216.500000
759.095886	217.100000
759.133057	211.200000
759.170288	217.200000
759.207458	209.100000
759.244690	224.400000
759.281860	223.100000
759.319031	213.100000
759.356262	212.100000
759.393433	211.100000
759.430603	212.500000
759.467773	212.300000
759.505005	221.200000
759.542175	219.900000
759.579346	213.700000
759.616516	215.300000
759.653687	216.500000
759.690918	211.000000
759.728027	216.200000
759.765259	216.700000
759.802429	218.500000
759.839539	218.400000
759.876770	223.000000
759.913940	226.100000
759.951111	217.600000
759.988281	216.500000
760.025452	215.200000
760.062561	210.900000
760.099792	226.100000
760.136963	219.400000
760.174072	216.800000
760.211243	212.000000
760.248413	214.800000
760.285583	213.800000
760.322754	230.300000
760.359863	223.700000
760.397034	225.300000
760.434204	216.900000
760.471375	219.200000
760.508545	218.100000
760.545715	220.000000
760.582825	214.600000
760.619995	225.500000
760.657166	213.400000
760.694275	227.500000
760.731445	221.700000
760.768555	225.200000
760.805664	223.500000
760.842834	224.100000
760.879944	225.600000
760.917114	224.200000
760.954285	220.500000
760.991394	216.200000
761.028564	228.900000
761.065674	226.400000
761.102783	218.600000
761.139954	230.400000
761.177124	229.600000
761.214172	231.500000
761.251343	222.400000
761.288452	225.600000
761.325562	229.000000
761.362732	222.700000
761.399841	227.300000
761.436951	230.000000
761.474121	223.100000
761.511169	229.100000
761.548340	232.400000
761.585449	232.100000
761.622559	233.800000
761.659668	232.000000
761.696838	238.000000
761.733887	236.400000
761.771057	231.100000
761.808167	232.300000
761.845276	239.100000
761.882385	247.700000
761.919434	236.600000
761.956604	256.100000
761.993713	232.400000
762.030762	243.400000
762.067871	237.000000
762.105042	237.100000
762.142090	244.100000
762.179199	239.200000
762.216309	245.000000
762.253418	255.400000
762.290527	250.100000
762.327637	246.700000
762.364685	236.600000
762.401794	245.800000
762.438904	245.200000
762.475952	239.000000
762.513062	239.200000
762.550110	238.200000
762.587219	255.200000
762.624329	252.300000
762.661377	247.900000
762.698486	247.500000
762.735596	246.500000
762.772644	239.700000
762.809753	237.300000
762.846863	245.400000
762.883911	250.600000
762.921021	250.500000
762.958069	248.700000
762.995117	257.500000
763.032227	257.100000
763.069336	249.200000
763.106323	244.100000
763.143433	243.900000
763.180481	250.400000
763.217590	252.700000
763.254639	248.800000
763.291687	252.400000
763.328735	259.600000
763.365845	252.700000
763.402893	252.600000
763.439941	256.800000
763.477051	259.900000
763.514038	260.600000
763.551147	250.600000
763.588196	254.900000
763.625244	255.500000
763.662292	263.000000
763.699402	266.800000
763.736389	261.000000
763.773499	271.200000
763.810486	266.000000
763.847534	259.900000
763.884644	265.900000
763.921631	261.000000
763.958679	274.100000
763.995728	262.700000
764.032776	271.200000
764.069824	256.100000
764.106873	269.800000
764.143860	272.600000
764.180969	265.900000
764.218018	274.800000
764.255005	266.100000
764.292053	266.900000
764.329102	280.300000
764.366089	279.400000
764.403137	278.000000
764.440125	268.000000
764.477173	269.100000
764.514221	272.400000
764.551208	272.700000
764.588257	265.100000
764.625305	280.000000
764.662292	283.900000
764.699341	287.200000
764.736389	279.000000
764.773376	295.100000
764.810425	281.900000
764.847473	289.700000
764.884399	284.700000
764.921448	292.900000
764.958435	292.000000
764.995483	280.400000
765.032532	297.100000
765.069458	282.700000
765.106506	284.300000
765.143555	283.400000
765.180481	288.600000
765.217529	294.500000
765.254578	279.800000
765.291504	289.400000
765.328552	287.000000
765.365540	283.500000
765.402527	298.800000
765.439575	283.800000
765.476501	280.300000
765.513550	281.600000
765.550537	287.600000
765.587463	294.900000
765.624512	286.200000
765.661499	279.100000
765.698486	297.400000
765.735474	284.700000
765.772461	291.300000
765.809448	297.700000
765.846436	295.500000
765.883423	299.700000
765.920410	296.000000
765.957397	287.500000
765.994385	297.300000
766.031311	304.900000
766.068359	298.900000
766.105286	298.000000
766.142273	305.300000
766.179260	300.700000
766.216187	295.700000
766.253174	291.100000
766.290161	299.700000
766.327148	304.100000
766.364136	305.800000
766.401123	319.000000
766.438049	296.200000
766.475037	311.800000
766.512024	306.800000
766.548950	324.000000
766.585937	317.400000
766.622864	315.300000
766.659790	312.900000
766.696777	303.000000
766.733704	320.800000
766.770691	311.400000
766.807678	328.300000
766.844604	321.000000
766.881531	321.600000
766.918518	329.200000
766.955444	328.800000
766.992432	323.900000
767.029358	326.000000
767.066284	331.900000
767.103271	326.400000
767.140198	355.800000
767.177124	345.100000
767.214050	335.900000
767.251038	337.900000
767.287964	334.200000
767.324890	330.400000
767.361816	338.000000
767.398743	344.400000
767.435730	339.600000
767.472595	343.900000
767.509583	350.100000
767.546509	337.100000
767.583374	347.000000
767.620361	336.200000
767.657288	346.100000
767.694214	344.700000
767.731140	343.900000
767.768066	343.900000
767.804993	352.100000
767.841919	342.700000
767.878845	351.900000
767.915710	358.400000
767.952698	351.400000
767.989563	354.600000
768.026489	358.600000
768.063416	349.900000
768.100281	352.500000
768.137207	362.600000
768.174133	363.900000
768.211060	362.800000
768.247986	364.500000
768.284912	361.600000
768.321777	364.500000
768.358704	362.900000
768.395630	369.000000
768.432495	363.400000
768.469421	368.500000
768.506348	377.500000
768.543152	381.100000
768.580078	378.900000
768.616943	381.400000
768.653870	383.700000
768.690796	380.500000
768.727661	377.000000
768.764587	382.300000
768.801453	377.900000
768.838318	389.700000
768.875244	386.500000
768.912109	392.000000
768.948975	386.500000
768.985901	388.600000
769.022766	388.400000
769.059631	396.100000
769.096558	390.000000
769.133362	387.200000
769.170288	391.500000
769.207214	392.900000
769.244019	400.400000
769.280945	398.800000
769.317810	407.700000
769.354675	401.600000
769.391541	413.700000
769.428406	407.200000
769.465271	420.400000
769.502136	407.700000
769.539062	411.800000
769.575867	411.500000
769.612732	416.100000
769.649597	418.400000
769.686462	423.000000
769.723328	417.700000
769.760193	417.500000
769.797058	418.600000
769.833923	430.100000
769.870728	421.900000
769.907593	425.100000
769.944519	426.100000
769.981323	428.900000
770.018188	431.100000
770.055054	425.700000
770.091858	427.800000
770.128723	442.000000
770.165588	445.200000
770.202393	430.100000
770.239258	442.800000
770.276062	438.500000
770.312927	438.500000
770.349792	446.100000
770.386597	444.500000
770.423462	453.500000
770.460327	460.500000
770.497131	446.200000
770.533997	438.200000
770.570862	454.100000
770.607605	460.200000
770.644470	449.900000
770.681335	453.000000
770.718140	451.800000
770.754944	445.800000
770.791809	445.700000
770.828613	448.700000
770.865479	449.600000
770.902222	463.300000
770.939087	453.600000
770.975952	444.800000
771.012695	449.600000
771.049561	468.700000
771.086365	455.200000
771.123169	453.300000
771.159973	455.700000
771.196838	458.500000
771.233582	457.200000
771.270447	462.500000
771.307251	464.800000
771.344055	461.800000
771.380859	464.200000
771.417664	457.900000
771.454468	465.500000
771.491272	468.600000
771.528076	466.800000
771.564880	467.300000
771.601685	477.500000
771.638428	466.800000
771.675293	474.300000
771.712097	464.300000
771.748840	484.400000
771.785645	472.000000
771.822449	478.800000
771.859253	481.700000
771.896057	477.400000
771.932861	492.200000
771.969604	481.800000
772.006409	475.800000
772.043213	491.000000
772.079956	485.200000
772.116760	481.000000
772.153503	486.100000
772.190308	497.100000
772.227112	486.400000
772.263855	484.400000
772.300659	491.800000
772.337463	499.700000
772.374207	488.700000
772.411011	485.600000
772.447754	493.500000
772.484497	509.700000
772.521301	503.700000
772.558105	505.000000
772.594849	505.500000
772.631592	512.100000
772.668396	508.500000
772.705139	519.200000
772.741882	519.900000
772.778625	531.900000
772.815430	531.500000
772.852173	528.300000
772.888916	536.700000
772.925720	537.700000
772.962463	548.400000
772.999207	542.900000
773.035950	548.400000
773.072754	548.000000
773.109436	545.800000
773.146240	548.600000
773.182922	546.000000
773.219727	558.000000
773.256470	553.100000
773.293152	540.400000
773.329956	546.000000
773.366699	554.600000
773.403381	547.000000
773.440186	559.100000
773.476929	562.500000
773.513611	556.700000
773.550354	555.800000
773.587158	559.300000
773.623840	554.500000
773.660583	568.800000
773.697327	580.100000
773.734009	565.400000
773.770813	567.500000
773.807495	570.300000
773.844238	574.000000
773.880981	591.300000
773.917664	590.100000
773.954407	592.400000
773.991150	585.100000
774.027832	586.300000
774.064575	580.900000
774.101318	598.000000
774.138000	600.200000
774.174744	595.900000
774.211487	596.200000
774.248108	590.600000
774.284851	589.600000
774.321594	602.400000
774.358276	607.700000
774.395020	614.800000
774.431702	612.400000
774.468384	604.300000
774.505127	601.500000
774.541809	618.900000
774.578491	632.700000
774.615234	635.600000
774.651917	624.100000
774.688599	627.300000
774.725342	637.300000
774.762024	635.300000
774.798706	643.500000
774.835449	644.200000
774.872070	652.500000
774.908813	645.200000
774.945496	641.600000
774.982178	642.700000
775.018860	650.100000
775.055542	651.300000
775.092224	655.900000
775.128967	662.500000
775.165588	656.900000
775.202271	649.900000
775.239014	664.000000
775.275635	664.800000
775.312317	661.300000
775.349060	666.800000
775.385681	668.700000
775.422363	658.500000
775.459045	671.800000
775.495667	675.800000
775.532410	680.100000
775.569092	680.100000
775.605713	677.700000
775.642395	675.800000
775.679016	678.800000
775.715698	683.500000
775.752380	691.900000
775.789001	684.300000
775.825684	682.600000
775.862366	682.700000
775.898987	697.000000
775.935669	687.900000
775.972351	713.700000
776.008972	708.900000
776.045654	706.500000
776.082336	700.200000
776.118958	699.600000
776.155640	706.200000
776.192322	718.700000
776.228882	720.000000
776.265564	712.800000
776.302185	708.100000
776.338867	716.300000
776.375488	703.400000
776.412109	718.400000
776.448792	724.400000
776.485413	730.400000
776.522034	720.800000
776.558716	712.000000
776.595337	711.500000
776.631958	719.000000
776.668579	718.800000
776.705261	723.000000
776.741882	721.100000
776.778503	718.000000
776.815186	712.400000
776.851746	721.900000
776.888367	722.300000
776.924988	729.800000
776.961609	722.300000
776.998291	723.400000
777.034851	712.000000
777.071472	724.600000
777.108154	727.700000
777.144714	738.700000
777.181335	735.900000
777.218018	731.000000
777.254578	735.000000
777.291199	734.100000
777.327759	740.900000
777.364380	748.400000
777.401062	754.700000
777.437622	765.300000
777.474243	750.800000
777.510864	762.000000
777.547424	753.600000
777.584045	761.700000
777.620667	764.600000
777.657227	775.200000
777.693848	772.900000
777.730469	787.100000
777.767029	778.200000
777.803650	790.200000
777.840271	779.300000
777.876831	782.900000
777.913452	787.900000
777.950012	767.300000
777.986633	768.700000
778.023193	766.100000
778.059753	767.200000
778.096375	772.900000
778.132996	784.200000
778.169556	772.500000
778.206116	771.800000
778.242737	771.800000
778.279297	783.500000
778.315857	771.100000
778.352478	785.900000
778.389038	800.100000
778.425598	796.700000
778.462219	814.200000
778.498718	806.200000
778.535339	814.900000
778.571838	817.800000
778.608459	827.500000
778.645020	817.700000
778.681580	829.300000
778.718140	837.400000
778.754761	833.200000
778.791260	834.800000
778.827881	848.700000
778.864441	845.200000
778.900940	851.500000
778.937561	849.000000
778.974121	848.200000
779.010620	833.800000
779.047241	837.800000
779.083801	854.500000
779.120300	852.900000
779.156860	858.900000
779.193359	852.300000
779.229980	857.500000
779.266541	866.300000
779.303040	873.900000
779.339600	860.300000
779.376160	857.900000
779.412659	860.100000
779.449219	856.800000
779.485779	872.900000
779.522278	874.800000
779.558838	876.700000
779.595398	882.400000
779.631897	877.300000
779.668457	873.100000
779.705017	883.900000
779.741516	872.700000
779.778076	868.300000
779.814575	879.900000
779.851074	888.000000
779.887634	882.500000
779.924133	891.500000
779.960693	881.100000
779.997253	892.600000
780.033691	898.800000
780.070251	903.900000
780.106812	914.600000
780.143250	911.100000
780.179810	903.700000
780.216370	913.700000
780.252808	922.400000
780.289368	935.800000
780.325867	938.400000
780.362366	936.400000
780.398865	945.900000
780.435364	938.800000
780.471863	953.500000
780.508423	952.900000
780.544861	963.700000
780.581421	967.400000
780.617920	954.200000
780.654419	951.100000
780.690918	958.600000
780.727417	972.000000
780.763916	966.900000
780.800415	972.400000
780.836914	954.200000
780.873352	965.300000
780.909912	956.700000
780.946411	965.800000
780.982849	974.100000
781.019348	993.700000
781.055786	988.900000
781.092346	981.600000
781.128845	991.100000
781.165283	1000.000000
781.201782	1009.100000
781.238281	1011.500000
781.274719	1011.700000
781.311218	1006.100000
781.347717	1016.400000
781.384155	1009.100000
781.420654	1011.200000
781.457092	1023.900000
781.493591	1016.600000
781.530090	1007.600000
781.566528	1012.200000
781.602966	1015.800000
781.639465	1012.900000
781.675903	1007.600000
781.712402	1020.000000
781.748901	1025.900000
781.785278	1017.200000
781.821777	1021.200000
781.858276	1020.600000
781.894714	1038.500000
781.931152	1029.400000
781.967651	1036.000000
782.004089	1023.100000
782.040527	1034.200000
782.076965	1035.100000
782.113403	1040.200000
782.149902	1041.700000
782.186340	1033.800000
782.222778	1047.100000
782.259277	1032.100000
782.295654	1027.900000
782.332092	1042.900000
782.368591	1038.900000
782.404968	1024.900000
782.441467	1034.200000
782.477905	1036.400000
782.514282	1029.900000
782.550781	1051.300000
782.587219	1053.100000
782.623596	1057.800000
782.660095	1053.300000
782.696472	1063.100000
782.732910	1060.100000
782.769348	1068.400000
782.805786	1085.700000
782.842224	1082.100000
782.878662	1076.800000
782.915039	1080.900000
782.951477	1075.900000
782.987915	1070.300000
783.024292	1083.500000
783.060730	1080.000000
783.097168	1063.600000
783.133545	1053.600000
783.169983	1049.600000
783.206421	1038.000000
783.242798	1040.800000
783.279236	1033.600000
783.315613	1030.300000
783.352051	1022.700000
783.388489	1009.800000
783.424866	995.900000
783.461304	1003.300000
783.497681	1010.200000
783.534058	1005.800000
783.570496	1001.300000
783.606934	995.500000
783.643250	1002.900000
783.679687	1014.800000
783.716125	1010.600000
783.752441	1030.500000
783.788879	1046.300000
783.825317	1050.400000
783.861633	1056.700000
783.898071	1058.900000
783.934448	1075.600000
783.970825	1074.800000
784.007263	1048.900000
784.043579	977.300000
784.080017	852.700000
784.116394	690.300000
784.152710	559.300000
784.189148	491.300000
784.225525	488.400000
784.261902	554.200000
784.298279	666.400000
784.334656	804.700000
784.371033	922.500000
784.407410	1018.500000
784.443787	1054.000000
784.480164	1060.300000
784.516541	1044.200000
784.552856	1054.900000
784.589233	1044.500000
784.625610	1046.600000
784.661987	1080.400000
784.698364	1062.000000
784.734741	1054.100000
784.771057	1053.500000
784.807434	1062.700000
784.843811	1082.500000
784.880127	1085.300000
784.916504	1111.200000
784.952881	1117.100000
784.989197	1106.700000
785.025574	1111.100000
785.061951	1123.500000
785.098267	1157.500000
785.134644	1148.900000
785.170959	1148.300000
785.207275	1148.700000
785.243652	1154.300000
785.279968	1138.700000
785.316345	1150.300000
785.352722	1152.700000
785.388977	1156.900000
785.425354	1135.000000
785.461731	1116.000000
785.498047	1099.400000
785.534363	1100.600000
785.570679	1097.900000
785.606995	1100.600000
785.643372	1100.600000
785.679687	1093.000000
785.716003	1079.400000
785.752380	1075.900000
785.788635	1083.300000
785.825012	1107.300000
785.861328	1122.600000
785.897644	1107.200000
785.933960	1127.600000
785.970337	1128.100000
786.006592	1148.900000
786.042908	1165.700000
786.079285	1187.000000
786.115540	1189.000000
786.151855	1183.100000
786.188171	1174.800000
786.224487	1177.100000
786.260803	1182.100000
786.297119	1199.400000
786.333435	1195.900000
786.369751	1191.600000
786.406006	1191.200000
786.442322	1172.100000
786.478638	1160.400000
786.514954	1184.300000
786.551270	1176.800000
786.587585	1190.900000
786.623840	1169.500000
786.660156	1165.800000
786.696472	1154.700000
786.732727	1149.600000
786.769043	1156.800000
786.805298	1151.400000
786.841614	1150.500000
786.877930	1153.100000
786.914124	1139.800000
786.950439	1149.400000
786.986755	1159.400000
787.023010	1174.700000
787.059326	1185.400000
787.095642	1188.900000
787.131836	1202.300000
787.168152	1191.600000
787.204468	1202.000000
787.240723	1223.800000
787.276978	1242.400000
787.313293	1245.200000
787.349548	1236.900000
787.385803	1244.700000
787.422058	1230.900000
787.458313	1237.600000
787.494629	1241.600000
787.530823	1229.300000
787.567139	1216.800000
787.603455	1208.800000
787.639648	1190.600000
787.675903	1194.100000
787.712219	1195.500000
787.748413	1191.700000
787.784729	1198.800000
787.820984	1184.800000
787.857178	1178.400000
787.893494	1166.900000
787.929749	1167.800000
787.965942	1168.700000
788.002258	1187.800000
788.038452	1196.500000
788.074707	1187.700000
788.110962	1184.200000
788.147217	1181.200000
788.183472	1196.800000
788.219727	1208.000000
788.255920	1227.800000
788.292175	1232.900000
788.328430	1229.800000
788.364624	1207.600000
788.400879	1203.800000
788.437134	1205.900000
788.473328	1211.200000
788.509583	1208.800000
788.545837	1198.400000
788.582031	1194.400000
788.618286	1177.800000
788.654480	1172.000000
788.690735	1183.400000
788.726990	1206.400000
788.763184	1207.600000
788.799377	1213.000000
788.835632	1198.700000
788.871826	1221.400000
788.908081	1223.600000
788.944336	1219.500000
788.980469	1236.200000
789.016724	1234.400000
789.052979	1224.900000
789.089111	1202.900000
789.125366	1213.600000
789.161621	1191.700000
789.197754	1205.700000
789.234009	1202.300000
789.270142	1182.800000
789.306396	1162.500000
789.342590	1153.100000
789.378784	1128.500000
789.414978	1132.700000
789.451233	1156.700000
789.487366	1155.700000
789.523621	1161.800000
789.559814	1154.000000
789.595947	1139.100000
789.632202	1148.700000
789.668335	1162.400000
789.704529	1183.800000
789.740784	1206.500000
789.776917	1205.900000
789.813110	1198.800000
789.849304	1208.700000
789.885498	1204.500000
789.921692	1226.500000
789.957886	1235.200000
789.994019	1237.400000
790.030212	1222.700000
790.066406	1226.300000
790.102539	1219.600000
790.138733	1232.300000
790.174927	1233.200000
790.211060	1248.000000
790.247253	1228.500000
790.283386	1208.200000
790.319580	1190.400000
790.355774	1176.000000
790.391907	1180.300000
790.428101	1208.000000
790.464294	1212.000000
790.500427	1211.000000
790.536621	1189.500000
790.572754	1175.900000
790.608887	1178.400000
790.645081	1189.100000
790.681274	1202.600000
790.717346	1201.000000
790.753540	1153.100000
790.789734	1069.400000
790.825867	990.900000
790.862000	978.100000
790.898132	1010.300000
790.934265	1062.400000
790.970459	1116.500000
791.006592	1136.200000
791.042725	1136.200000
791.078918	1125.400000
791.114990	1124.800000
791.151184	1143.700000
791.187317	1167.500000
791.223389	1166.400000
791.259583	1147.500000
791.295715	1158.400000
791.331848	1155.100000
791.367981	1168.600000
791.404114	1172.700000
791.440247	1173.500000
791.476379	1170.800000
791.512451	1152.600000
791.548584	1152.700000
791.584778	1151.200000
791.620850	1169.100000
791.656982	1173.300000
791.693115	1170.300000
791.729187	1165.400000
791.765381	1158.300000
791.801514	1145.100000
791.837585	1153.900000
791.873718	1164.500000
791.909851	1180.000000
791.945923	1190.200000
791.982056	1152.100000
792.018188	1143.200000
792.054260	1150.700000
792.090393	1155.000000
792.126465	1155.200000
792.162598	1160.200000
792.198669	1141.100000
792.234741	1139.400000
792.270874	1122.600000
792.307007	1108.800000
792.343079	1123.300000
792.379150	1135.100000
792.415283	1121.600000
792.451355	1126.900000
792.487488	1100.500000
792.523560	1100.800000
792.559631	1103.400000
792.595764	1106.100000
792.631836	1112.700000
792.667908	1113.100000
792.703979	1094.900000
792.740051	1093.500000
792.776184	1102.900000
792.812256	1105.900000
792.848328	1118.700000
792.884399	1122.700000
792.920471	1114.900000
792.956543	1101.600000
792.992615	1104.700000
793.028748	1101.600000
793.064758	1112.400000
793.100830	1136.200000
793.136963	1148.900000
793.172974	1138.000000
793.209045	1128.600000
793.245178	1140.100000
793.281189	1123.000000
793.317261	1128.400000
793.353271	1127.100000
793.389404	1134.700000
793.425476	1130.100000
793.461487	1109.800000
793.497559	1110.100000
793.533630	1116.500000
793.569641	1117.100000
793.605713	1128.600000
793.641785	1129.600000
793.677795	1138.600000
793.713867	1120.800000
793.749878	1121.900000
793.785950	1136.400000
793.822021	1139.900000
793.858032	1125.200000
793.894104	1140.200000
793.930176	1129.100000
793.966187	1127.500000
794.002258	1116.400000
794.038269	1118.000000
794.074280	1112.500000
794.110352	1143.800000
794.146423	1109.100000
794.182373	1103.800000
794.218445	1094.400000
794.254517	1093.900000
794.290466	1076.500000
794.326538	1087.700000
794.362549	1083.100000
794.398560	1090.200000
794.434631	1101.000000
794.470581	1063.800000
794.506653	1053.800000
794.542664	1056.700000
794.578674	1053.000000
794.614685	1056.600000
794.650757	1054.500000
794.686707	1045.100000
794.722778	1032.600000
794.758789	1049.200000
794.794739	1054.300000
794.830811	1079.900000
794.866821	1093.800000
794.902771	1088.000000
794.938843	1077.500000
794.974792	1073.400000
795.010803	1073.100000
795.046814	1067.700000
795.082825	1054.900000
795.118835	1075.300000
795.154846	1056.300000
795.190796	1060.100000
795.226807	1039.900000
795.262817	1044.100000
795.298767	1045.800000
795.334778	1048.300000
795.370850	1037.900000
795.406799	1035.700000
795.442810	1016.900000
795.478821	1014.500000
795.514709	1015.000000
795.550720	1031.200000
795.586670	1012.100000
795.622681	1017.800000
795.658691	1018.400000
795.694641	1010.200000
795.730652	1000.000000
795.766663	1005.200000
795.802551	1005.600000
795.838562	1021.400000
795.874573	1009.500000
795.910522	1003.500000
795.946472	993.200000
795.982483	1007.000000
796.018433	1005.900000
796.054382	1015.600000
796.090393	998.800000
796.126282	998.900000
796.162292	978.600000
796.198242	973.000000
796.234192	979.500000
796.270203	975.100000
796.306091	982.300000
796.342041	998.200000
796.378052	985.400000
796.413940	977.600000
796.449951	976.700000
796.485901	974.100000
796.521790	978.200000
796.557800	996.600000
796.593689	990.800000
796.629639	977.800000
796.665649	978.900000
796.701599	979.900000
796.737488	974.500000
796.773437	979.800000
796.809387	977.200000
796.845337	976.500000
796.881287	962.700000
796.917175	945.700000
796.953125	948.500000
796.989075	961.400000
797.024963	965.200000
797.060913	960.100000
797.096863	962.600000
797.132751	956.400000
797.168701	936.300000
797.204590	946.600000
797.240540	945.000000
797.276489	950.000000
797.312439	956.800000
797.348328	950.600000
797.384277	939.600000
797.420166	931.800000
797.456055	932.000000
797.492004	930.800000
797.527893	938.100000
797.563843	939.000000
797.599731	924.800000
797.635620	912.900000
797.671570	921.800000
797.707520	923.000000
797.743347	924.400000
797.779297	931.100000
797.815125	927.300000
797.851074	915.000000
797.887024	909.100000
797.922913	903.400000
797.958801	914.300000
797.994690	916.400000
798.030579	917.000000
798.066467	918.700000
798.102356	902.800000
798.138245	897.500000
798.174133	897.400000
798.210083	904.500000
798.245911	913.600000
798.281799	914.900000
798.317749	905.100000
798.353577	895.100000
798.389465	894.000000
798.425293	892.300000
798.461243	893.700000
798.497131	896.600000
798.532959	898.400000
798.568848	902.100000
798.604736	885.100000
798.640564	873.300000
798.676453	876.300000
798.712402	881.900000
798.748230	889.300000
798.784119	879.600000
798.820007	882.700000
798.855835	876.700000
798.891724	875.400000
798.927551	870.700000
798.963379	880.500000
798.999268	874.900000
799.035095	868.300000
799.070984	859.800000
799.106873	851.300000
799.142700	861.000000
799.178528	855.400000
799.214417	852.900000
799.250244	866.600000
799.286133	855.400000
799.321960	858.500000
799.357788	848.000000
799.393677	850.500000
799.429504	847.600000
799.465332	850.900000
799.501221	858.400000
799.537048	851.400000
799.572876	843.400000
799.608704	844.800000
799.644531	848.500000
799.680359	849.700000
799.716248	856.900000
799.752014	856.400000
799.787903	848.600000
799.823730	847.300000
799.859558	839.800000
799.895386	839.400000
799.931213	848.700000
799.967041	834.700000
800.002869	832.800000
800.038696	841.800000
800.074463	817.800000
800.110352	819.200000
800.146179	812.600000
800.181946	820.100000
800.217773	823.800000
800.253540	818.600000
800.289429	815.800000
800.325256	810.100000
800.361023	803.400000
800.396851	802.500000
800.432678	814.600000
800.468445	807.700000
800.504272	800.700000
800.540100	781.300000
800.575867	784.100000
800.611694	786.500000
800.647461	781.400000
800.683289	782.200000
800.719116	786.200000
800.754883	774.500000
800.790649	766.000000
800.826477	756.500000
800.862244	777.300000
800.898071	761.200000
800.933838	755.400000
800.969604	759.500000
801.005432	758.300000
801.041199	754.000000
801.076965	748.300000
801.112793	737.800000
801.148560	727.000000
801.184326	734.200000
801.220154	738.500000
801.255859	723.600000
801.291687	722.400000
801.327454	717.000000
801.363281	718.100000
801.398987	718.600000
801.434814	718.200000
801.470520	726.200000
801.506287	712.700000
801.542114	709.000000
801.577820	706.500000
801.613647	704.900000
801.649414	699.000000
801.685120	700.700000
801.720886	709.700000
801.756714	696.600000
801.792419	685.200000
801.828186	684.000000
801.863892	692.500000
801.899719	682.900000
801.935486	680.100000
801.971252	689.100000
802.006958	680.700000
802.042725	676.300000
802.078430	676.300000
802.114197	671.300000
802.149963	685.400000
802.185669	671.800000
802.221436	668.900000
802.257202	668.300000
802.292908	664.300000
802.328674	674.400000
802.364441	674.800000
802.400146	666.600000
802.435913	660.400000
802.471558	658.300000
802.507324	652.000000
802.543091	648.100000
802.578796	662.000000
802.614502	661.300000
802.650269	658.800000
802.685974	641.600000
802.721741	648.900000
802.757446	651.400000
802.793152	650.100000
802.828918	659.300000
802.864624	652.500000
802.900330	651.200000
802.936035	648.000000
802.971802	637.900000
803.007446	638.900000
803.043213	629.100000
803.078857	640.300000
803.114624	626.100000
803.150330	631.200000
803.185974	619.400000
803.221741	622.300000
803.257446	632.200000
803.293152	630.500000
803.328857	623.000000
803.364563	616.800000
803.400208	612.000000
803.435974	621.000000
803.471680	613.400000
803.507324	608.700000
803.543030	617.800000
803.578735	617.800000
803.614441	606.800000
803.650146	612.400000
803.685791	597.400000
803.721497	601.800000
803.757202	590.700000
803.792847	602.900000
803.828552	593.000000
803.864258	595.800000
803.899902	591.400000
803.935608	578.000000
803.971313	584.300000
804.006958	585.100000
804.042664	579.100000
804.078308	587.000000
804.113953	574.600000
804.149658	583.800000
804.185364	571.500000
804.221008	581.800000
804.256714	574.100000
804.292297	570.800000
804.328003	564.100000
804.363708	556.400000
804.399292	559.500000
804.434998	560.700000
804.470703	553.900000
804.506287	566.300000
804.541992	558.300000
804.577637	561.600000
804.613281	551.200000
804.648926	547.200000
804.684570	554.300000
804.720215	548.700000
804.755920	544.900000
804.791565	542.500000
804.827209	547.800000
804.862854	539.000000
804.898437	537.700000
804.934143	540.100000
804.969788	537.300000
805.005371	539.600000
805.041077	540.700000
805.076721	539.600000
805.112305	529.500000
805.147949	528.100000
805.183655	527.600000
805.219238	531.600000
805.254883	528.400000
805.290466	530.800000
805.326111	524.000000
805.361755	516.200000
805.397400	522.000000
805.432983	524.300000
805.468628	523.000000
805.504211	531.700000
805.539856	529.700000
805.575500	529.400000
805.611084	521.200000
805.646729	506.700000
805.682373	514.100000
805.717957	523.200000
805.753601	525.800000
805.789246	506.700000
805.824768	518.800000
805.860413	519.700000
805.895996	507.900000
805.931641	506.000000
805.967224	512.100000
806.002869	505.600000
806.038452	515.900000
806.074036	511.000000
806.109619	500.800000
806.145264	501.100000
806.180847	496.200000
806.216431	494.200000
806.252014	500.600000
806.287659	498.900000
806.323181	506.500000
806.358826	499.400000
806.394409	483.100000
806.429993	487.100000
806.465576	502.300000
806.501160	486.200000
806.536743	474.800000
806.572327	486.100000
806.607910	483.000000
806.643494	479.800000
806.679077	476.300000
806.714661	478.900000
806.750244	482.400000
806.785828	475.700000
806.821350	475.300000
806.856934	478.800000
806.892517	474.100000
806.928101	468.400000
806.963684	468.300000
806.999268	477.400000
807.034790	456.400000
807.070374	465.400000
807.105896	459.400000
807.141479	457.800000
807.177063	465.300000
807.212585	454.200000
807.248169	454.300000
807.283752	462.300000
807.319275	454.100000
807.354858	457.100000
807.390381	449.900000
807.425903	453.000000
807.461487	446.100000
807.497070	442.400000
807.532593	442.000000
807.568115	440.400000
807.603699	435.100000
807.639221	431.400000
807.674744	437.700000
807.710266	439.500000
807.745850	443.500000
807.781372	436.000000
807.816895	431.100000
807.852417	435.000000
807.888000	431.600000
807.923523	429.000000
807.959045	433.600000
807.994629	419.600000
808.030090	417.400000
808.065613	426.200000
808.101135	428.800000
808.136658	424.400000
808.172241	422.700000
808.207764	418.100000
808.243225	414.400000
808.278809	410.000000
808.314270	420.800000
808.349792	404.800000
808.385315	409.300000
808.420837	410.600000
808.456360	416.200000
808.491882	413.300000
808.527344	408.600000
808.562866	419.200000
808.598389	410.900000
808.633850	404.300000
808.669434	401.700000
808.704895	410.000000
808.740417	413.700000
808.775940	406.100000
808.811462	401.800000
808.846924	392.300000
808.882385	390.100000
808.917847	388.600000
808.953369	392.500000
808.988892	383.200000
809.024353	393.800000
809.059875	392.900000
809.095398	387.800000
809.130798	383.700000
809.166321	380.800000
809.201843	381.300000
809.237305	383.100000
809.272766	390.000000
809.308228	374.000000
809.343750	375.400000
809.379211	378.200000
809.414734	377.000000
809.450134	383.700000
809.485657	364.100000
809.521118	376.200000
809.556580	371.100000
809.592102	370.700000
809.627502	366.000000
809.663025	365.900000
809.698486	363.400000
809.733887	356.600000
809.769409	362.900000
809.804871	350.600000
809.840271	354.900000
809.875793	357.300000
809.911194	360.300000
809.946655	354.100000
809.982178	352.000000
810.017639	356.500000
810.053040	354.300000
810.088501	349.100000
810.123901	348.500000
810.159424	344.900000
810.194885	343.100000
810.230286	345.600000
810.265747	342.600000
810.301208	336.600000
810.336609	340.400000
810.372070	334.500000
810.407532	338.400000
810.442932	338.300000
810.478394	340.700000
810.513794	335.200000
810.549255	335.800000
810.584717	335.500000
810.620117	327.400000
810.655518	335.000000
810.690979	333.900000
810.726379	333.900000
810.761841	323.400000
810.797302	323.700000
810.832642	322.600000
810.868103	334.200000
810.903564	323.100000
810.938904	328.500000
810.974365	316.900000
811.009827	322.600000
811.045166	314.700000
811.080627	309.100000
811.115967	317.000000
811.151428	325.800000
811.186829	316.600000
811.222229	315.600000
811.257629	309.500000
811.293091	316.100000
811.328430	320.600000
811.363892	317.000000
811.399292	319.000000
811.434631	312.000000
811.470093	316.900000
811.505493	310.100000
811.540833	310.900000
811.576294	317.200000
811.611694	311.600000
811.647034	306.200000
811.682434	308.800000
811.717773	310.800000
811.753235	315.200000
811.788635	306.600000
811.823975	307.300000
811.859375	316.700000
811.894775	300.900000
811.930115	305.300000
811.965515	305.600000
812.000916	306.600000
812.036255	301.300000
812.071655	305.700000
812.106995	295.900000
812.142395	300.200000
812.177795	307.500000
812.213196	304.700000
812.248474	304.100000
812.283875	295.900000
812.319214	299.900000
812.354614	300.600000
812.390015	295.300000
812.425293	297.400000
812.460693	294.800000
812.496094	294.000000
812.531433	287.100000
812.566772	289.400000
812.602173	289.800000
812.637451	289.800000
812.672852	288.200000
812.708191	290.400000
812.743530	287.000000
812.778931	281.000000
812.814270	283.200000
812.849609	291.600000
812.884949	283.800000
812.920227	276.400000
812.955627	295.500000
812.990967	285.600000
813.026306	282.900000
813.061646	270.400000
813.096985	268.100000
813.132324	266.700000
813.167664	272.100000
813.203003	278.000000
813.238281	264.600000
813.273682	266.200000
813.308960	263.300000
813.344299	264.000000
813.379639	275.300000
813.414978	267.100000
813.450256	266.200000
813.485596	271.000000
813.520874	263.500000
813.556213	266.500000
813.591614	271.500000
813.626831	262.800000
813.662170	266.300000
813.697510	276.000000
813.732788	259.400000
813.768127	266.400000
813.803467	266.900000
813.838745	261.500000
813.874084	266.100000
813.909363	263.900000
813.944641	265.300000
813.979980	253.200000
814.015320	260.900000
814.050598	257.600000
814.085876	262.800000
814.121155	259.700000
814.156494	256.700000
814.191772	258.200000
814.227051	253.500000
814.262390	254.100000
814.297668	255.300000
814.332947	257.500000
814.368225	249.800000
814.403564	253.700000
814.438782	250.300000
814.474121	252.600000
814.509338	248.300000
814.544617	256.900000
814.579956	247.600000
814.615173	258.200000
814.650513	253.700000
814.685791	245.700000
814.721008	248.700000
814.756348	250.200000
814.791626	245.400000
814.826843	246.100000
814.862122	247.200000
814.897400	242.500000
814.932678	247.800000
814.967957	246.900000
815.003235	243.100000
815.038452	238.500000
815.073730	236.300000
815.108948	247.000000
815.144226	246.000000
815.179504	248.400000
815.214722	236.000000
815.250000	233.500000
815.285278	241.400000
815.320496	233.900000
815.355774	238.300000
815.391052	241.900000
815.426270	238.400000
815.461487	236.900000
815.496765	231.800000
815.531982	229.600000
815.567261	232.500000
815.602539	243.100000
815.637695	236.300000
815.672974	240.200000
815.708191	237.200000
815.743408	239.700000
815.778687	232.400000
815.813904	242.500000
815.849121	223.500000
815.884399	226.800000
815.919556	226.200000
815.954834	230.100000
815.990051	231.600000
816.025269	235.300000
816.060486	225.300000
816.095703	225.400000
816.130920	230.800000
816.166199	224.200000
816.201416	230.900000
816.236572	237.000000
816.271851	224.600000
816.307007	233.200000
816.342224	220.600000
816.377441	225.200000
816.412659	217.800000
816.447876	229.400000
816.483093	223.500000
816.518250	225.400000
816.553467	222.700000
816.588745	227.400000
816.623901	220.800000
816.659119	213.600000
816.694275	221.000000
816.729492	218.400000
816.764709	254.200000
816.799927	213.800000
816.835083	219.900000
816.870300	213.800000
816.905457	218.500000
816.940674	222.100000
816.975830	216.800000
817.010986	212.700000
817.046204	214.700000
817.081421	211.800000
817.116577	211.900000
817.151733	221.800000
817.186951	221.300000
817.222107	217.000000
817.257324	221.100000
817.292419	217.600000
817.327637	210.100000
817.362854	214.100000
817.398010	209.600000
817.433167	210.300000
817.468323	212.500000
817.503479	211.200000
817.538635	220.800000
817.573853	213.800000
817.608948	212.200000
817.644165	209.600000
817.679321	208.600000
817.714478	208.600000
817.749634	213.700000
817.784790	223.700000
817.819946	218.600000
817.855103	199.700000
817.890198	210.900000
817.925415	202.200000
817.960571	209.700000
817.995667	211.300000
818.030823	212.100000
818.066040	204.500000
818.101135	208.400000
818.136292	207.400000
818.171448	201.100000
818.206543	206.700000
818.241699	212.700000
818.276855	207.600000
818.311951	205.900000
818.347107	203.100000
818.382263	209.400000
818.417358	214.400000
818.452515	215.300000
818.487610	215.300000
818.522766	202.500000
818.557922	214.800000
818.593018	210.500000
818.628113	207.200000
818.663269	201.800000
818.698364	208.000000
818.733521	203.700000
818.768677	208.800000
818.803711	200.700000
818.838867	202.500000
818.874023	204.300000
818.909058	202.600000
818.944214	198.600000
818.979370	208.400000
819.014404	205.000000
819.049561	200.400000
819.084595	206.200000
819.119751	198.600000
819.154846	206.300000
819.189941	202.200000
819.225037	197.700000
819.260193	193.700000
819.295227	196.100000
819.330322	193.600000
819.365479	191.200000
819.400513	225.600000
819.435608	191.600000
819.470764	188.600000
819.505798	193.400000
819.540894	195.300000
819.575989	194.800000
819.611084	204.500000
819.646179	202.800000
819.681213	199.200000
819.716309	196.800000
819.751404	196.800000
819.786438	200.400000
819.821533	193.200000
819.856628	199.300000
819.891663	201.600000
819.926758	208.900000
819.961853	203.500000
819.996887	194.600000
820.031982	200.100000
820.067017	196.700000
820.102112	224.800000
820.137207	194.800000
820.172302	211.200000
820.207275	194.500000
820.242371	193.000000
820.277405	193.500000
820.312500	195.400000
820.347534	199.000000
820.382568	201.700000
820.417664	193.900000
820.452759	194.900000
820.487732	192.600000
820.522827	195.100000
820.557861	192.500000
820.592896	193.200000
820.627930	195.000000
820.662964	192.000000
820.698059	198.700000
820.733093	194.200000
820.768127	199.000000
820.803162	194.400000
820.838196	192.800000
820.873230	195.500000
820.908264	196.200000
820.943298	191.500000
820.978333	199.600000
821.013367	194.600000
821.048401	199.700000
821.083435	201.800000
821.118469	186.900000
821.153503	199.100000
821.188477	195.900000
821.223511	187.600000
821.258484	194.400000
821.293579	196.600000
821.328613	187.700000
821.363647	193.100000
821.398621	189.100000
821.433655	190.300000
821.468628	207.200000
821.503662	194.800000
821.538696	196.200000
821.573669	189.300000
821.608704	196.400000
821.643677	190.400000
821.678650	198.200000
821.713684	203.300000
821.748718	192.400000
821.783691	193.600000
821.818726	195.400000
821.853638	195.800000
821.888672	193.500000
821.923706	194.200000
821.958618	190.300000
821.993652	191.200000
822.028687	199.200000
822.063599	200.500000
822.098633	195.600000
822.133667	190.000000
822.168579	192.900000
822.203613	196.700000
822.238586	189.900000
822.273560	196.500000
822.308533	189.600000
822.343567	189.900000
822.378479	190.600000
822.413452	191.100000
822.448425	188.100000
822.483398	198.800000
822.518372	198.600000
822.553345	190.200000
822.588318	201.000000
822.623291	192.700000
822.658203	190.800000
822.693237	193.100000
822.728210	189.300000
822.763123	194.500000
822.798096	189.200000
822.833069	193.100000
822.867981	192.900000
822.902954	195.600000
822.937927	196.500000
822.972900	203.100000
823.007874	184.300000
823.042725	196.800000
823.077698	205.800000
823.112671	188.200000
823.147583	192.000000
823.182556	195.400000
823.217529	196.400000
823.252441	191.400000
823.287415	207.800000
823.322388	195.800000
823.357239	193.000000
823.392212	201.200000
823.427185	196.800000
823.462097	188.100000
823.497009	196.700000
823.531982	191.200000
823.566895	194.400000
823.601807	188.200000
823.636719	191.500000
823.671631	196.200000
823.706604	191.700000
823.741455	195.600000
823.776428	187.800000
823.811340	197.600000
823.846252	199.100000
823.881165	201.100000
823.916138	195.100000
823.950989	202.500000
823.985901	190.100000
824.020813	193.400000
824.055725	191.600000
824.090637	189.100000
824.125610	195.600000
824.160461	193.200000
824.195374	195.900000
824.230225	197.900000
824.265198	185.900000
824.300110	189.600000
824.334961	204.300000
824.369873	183.100000
824.404785	194.500000
824.439636	200.900000
824.474548	183.400000
824.509460	182.700000
824.544312	198.200000
824.579224	195.500000
824.614075	195.700000
824.648987	191.100000
824.683899	193.000000
824.718811	190.500000
824.753662	200.300000
824.788574	198.500000
824.823364	194.400000
824.858276	190.100000
824.893188	198.100000
824.928040	199.200000
824.962952	195.900000
824.997803	196.800000
825.032654	195.500000
825.067566	197.100000
825.102417	191.100000
825.137268	193.600000
825.172119	193.000000
825.206970	191.100000
825.241882	192.300000
825.276733	190.100000
825.311646	191.200000
825.346436	187.100000
825.381348	187.200000
825.416138	194.000000
825.450989	190.000000
825.485901	185.700000
825.520691	183.700000
825.555542	186.700000
825.590454	192.900000
825.625244	187.500000
825.660095	200.000000
825.695007	196.400000
825.729797	192.900000
825.764648	189.000000
825.799438	192.900000
825.834290	194.600000
825.869202	186.300000
825.903992	193.000000
825.938843	188.300000
825.973694	188.400000
826.008484	204.500000
826.043335	188.300000
826.078186	183.400000
826.112976	199.800000
826.147827	196.600000
826.182678	202.700000
826.217468	185.400000
826.252319	197.700000
826.287109	189.000000
826.321899	200.500000
826.356750	190.900000
826.391541	187.700000
826.426392	197.600000
826.461182	192.100000
826.495972	186.700000
826.530823	184.100000
826.565613	192.500000
826.600403	187.500000
826.635254	195.800000
826.670044	185.800000
826.704834	185.600000
826.739685	189.500000
826.774475	194.700000
826.809265	191.900000
826.844055	189.600000
826.878906	198.700000
826.913635	193.700000
826.948425	195.400000
826.983215	193.700000
827.018005	198.200000
827.052856	191.800000
827.087585	195.900000
827.122375	185.600000
827.157227	192.500000
827.191956	206.300000
827.226746	188.200000
827.261536	198.300000
827.296265	186.500000
827.331116	189.800000
827.365906	195.900000
827.400635	189.900000
827.435425	182.600000
827.470215	198.000000
827.504944	189.300000
827.539734	196.400000
827.574463	192.100000
827.609253	200.500000
827.644043	192.000000
827.678772	197.800000
827.713562	188.900000
827.748352	189.700000
827.783081	188.300000
827.817871	194.400000
827.852600	187.600000
827.887329	194.100000
827.922119	182.100000
827.956848	194.300000
827.991638	205.600000
828.026367	193.500000
828.061157	193.100000
828.095886	191.100000
828.130615	207.600000
828.165344	181.500000
828.200073	192.700000
828.234863	189.800000
828.269592	190.400000
828.304321	196.900000
828.339111	194.400000
828.373779	188.400000
828.408569	198.100000
828.443298	197.400000
828.477966	189.400000
828.512756	193.300000
828.547424	188.000000
828.582214	190.500000
828.616943	190.600000
828.651672	190.400000
828.686340	197.200000
828.721130	188.300000
828.755798	189.800000
828.790527	192.600000
828.825256	194.000000
828.859924	192.000000
828.894714	198.300000
828.929443	199.900000
828.964111	188.300000
828.998840	194.000000
829.033569	189.100000
829.068237	189.100000
829.102966	190.500000
829.137634	193.700000
829.172363	193.800000
829.207092	191.800000
829.241821	187.200000
829.276489	184.100000
829.311157	192.100000
829.345825	189.900000
829.380554	196.600000
829.415283	187.500000
829.449951	185.700000
829.484619	200.200000
829.519348	198.900000
829.554016	192.400000
829.588745	191.000000
829.623413	186.500000
829.658081	202.500000
829.692749	185.000000
829.727417	197.900000
829.762146	193.500000
829.796814	188.100000
829.831482	191.400000
829.866150	193.400000
829.900879	188.300000
829.935486	196.200000
829.970154	189.800000
830.004883	203.100000
830.039490	192.800000
830.074219	189.300000
830.108887	194.100000
830.143494	190.200000
830.178223	186.800000
830.212891	190.200000
830.247498	193.000000
830.282166	199.700000
830.316772	198.500000
830.351501	190.600000
830.386169	190.900000
830.420776	189.700000
830.455444	192.100000
830.490112	188.400000
830.524719	182.800000
830.559387	195.100000
830.594055	194.700000
830.628662	190.800000
830.663330	191.800000
830.697998	200.100000
830.732605	191.000000
830.767273	194.000000
830.801941	191.600000
830.836487	200.400000
830.871155	194.300000
830.905762	194.000000
830.940430	184.700000
830.975098	188.500000
831.009644	192.500000
831.044312	199.600000
831.078979	193.700000
831.113525	183.800000
831.148193	190.400000
831.182861	190.100000
831.217407	194.600000
831.252075	208.800000
831.286621	189.300000
831.321289	187.100000
831.355896	190.500000
831.390564	199.400000
831.425110	193.700000
831.459778	199.100000
831.494324	205.500000
831.528931	195.700000
831.563599	196.100000
831.598145	186.200000
831.632751	191.800000
831.667419	190.200000
831.701965	194.600000
831.736572	195.200000
831.771179	184.200000
831.805786	190.800000
831.840393	199.300000
831.874939	183.500000
831.909546	197.100000
831.944153	184.600000
831.978760	190.300000
832.013306	186.700000
832.047913	200.100000
832.082458	199.600000
832.117065	188.800000
832.151672	201.000000
832.186218	193.000000
832.220825	196.100000
832.255432	183.800000
832.289978	188.800000
832.324585	193.400000
832.359192	195.300000
832.393677	189.900000
832.428284	193.200000
832.462830	191.000000
832.497437	192.000000
832.531982	195.600000
832.566589	190.600000
832.601135	191.600000
832.635681	184.000000
832.670227	191.600000
832.704773	198.800000
832.739380	193.400000
832.773926	191.500000
832.808472	186.300000
832.843079	191.400000
832.877563	195.200000
832.912170	190.300000
832.946716	184.600000
832.981201	197.700000
833.015808	195.100000
833.050293	191.500000
833.084839	186.900000
833.119446	190.200000
833.153992	196.800000
833.188477	192.000000
833.223022	188.900000
833.257568	192.600000
833.292114	199.100000
833.326660	203.900000
833.361145	189.600000
833.395691	184.700000
833.430237	192.400000
833.464783	195.800000
833.499329	189.400000
833.533875	187.200000
833.568359	195.800000
833.602905	198.500000
833.637390	198.000000
833.671875	188.700000
833.706421	191.400000
833.740906	188.900000
833.775452	182.900000
833.809998	188.800000
833.844482	198.800000
833.879028	190.400000
833.913513	190.100000
833.947998	193.800000
833.982544	189.200000
834.017090	188.800000
834.051514	181.300000
834.086060	195.000000
834.120544	190.600000
834.155029	193.100000
834.189575	190.200000
834.223999	193.900000
834.258545	192.300000
834.293030	192.600000
834.327515	191.000000
834.362000	188.300000
834.396545	194.900000
834.430969	190.600000
834.465454	194.600000
834.500000	183.900000
834.534424	194.900000
834.568970	182.700000
834.603455	182.000000
834.637878	187.600000
834.672363	192.400000
834.706909	192.700000
834.741333	191.700000
834.775818	184.200000
834.810242	187.100000
834.844727	193.900000
834.879211	190.800000
834.913635	193.300000
834.948181	193.500000
834.982666	192.700000
835.017090	190.400000
835.051575	193.800000
835.086060	189.600000
835.120483	195.600000
835.154907	197.000000
835.189331	192.200000
835.223816	194.100000
835.258301	188.600000
835.292786	187.000000
835.327209	198.100000
835.361694	187.200000
835.396057	189.800000
835.430542	195.000000
835.465027	192.600000
835.499390	186.900000
835.533875	211.500000
835.568359	189.100000
835.602722	184.400000
835.637207	193.400000
835.671692	186.500000
835.706055	206.800000
835.740540	195.100000
835.774902	195.000000
835.809387	192.900000
835.843811	185.200000
835.878235	198.700000
835.912659	185.300000
835.947083	188.500000
835.981506	191.400000
836.015930	184.500000
836.050354	196.100000
836.084778	199.800000
836.119202	195.400000
836.153625	204.800000
836.187988	187.900000
836.222473	188.700000
836.256897	192.600000
836.291260	191.400000
836.325684	194.000000
836.360046	189.100000
836.394470	191.800000
836.428894	197.800000
836.463318	189.000000
836.497681	196.400000
836.532104	198.000000
836.566467	192.100000
836.600891	190.600000
836.635315	196.300000
836.669678	194.500000
836.704102	195.400000
836.738525	193.900000
836.772888	183.900000
836.807251	190.100000
836.841675	194.800000
836.876038	188.100000
836.910461	187.800000
836.944763	195.600000
836.979187	187.200000
837.013611	197.100000
837.047974	184.600000
837.082336	204.500000
837.116699	193.800000
837.151062	192.300000
837.185486	185.400000
837.219849	190.500000
837.254211	196.300000
837.288574	191.000000
837.322937	187.700000
837.357300	179.800000
837.391663	204.300000
837.426086	197.000000
837.460388	192.700000
837.494751	197.200000
837.529114	189.600000
837.563477	195.400000
837.597839	193.600000
837.632141	190.200000
837.666565	188.400000
837.700928	193.700000
837.735229	195.000000
837.769592	193.500000
837.803955	196.500000
837.838257	189.300000
837.872620	188.400000
837.906982	199.800000
837.941284	193.000000
837.975647	191.900000
838.010010	198.800000
838.044312	189.500000
838.078674	189.900000
838.112976	193.500000
838.147339	194.600000
838.181702	192.400000
838.216003	201.000000
838.250366	192.300000
838.284668	194.500000
838.318970	184.400000
838.353333	191.700000
838.387634	190.800000
838.421936	191.500000
838.456299	193.000000
838.490601	199.100000
838.524902	195.200000
838.559265	198.100000
838.593567	197.400000
838.627869	187.700000
838.662170	194.500000
838.696472	185.800000
838.730774	189.200000
838.765137	197.800000
838.799377	177.400000
838.833740	193.500000
838.868042	199.100000
838.902283	183.000000
838.936646	198.500000
838.970947	194.000000
839.005188	196.700000
839.039551	183.500000
839.073792	198.900000
839.108093	189.600000
839.142395	201.100000
839.176697	185.000000
839.210937	193.700000
839.245300	203.300000
839.279541	185.800000
839.313843	189.100000
839.348145	195.800000
839.382385	196.200000
839.416687	196.300000
839.450989	194.500000
839.485229	191.300000
839.519531	187.400000
839.553833	198.000000
839.588013	192.300000
839.622314	191.900000
839.656555	196.100000
839.690857	192.800000
839.725159	185.200000
839.759460	192.100000
839.793640	189.900000
839.827942	191.800000
839.862183	187.600000
839.896423	194.100000
839.930725	201.900000
839.964966	199.100000
839.999207	200.000000
840.033508	200.500000
840.067688	188.600000
840.101990	202.300000
840.136230	192.100000
840.170471	200.500000
840.204712	187.900000
840.238953	187.800000
840.273193	191.300000
840.307434	197.300000
840.341736	186.400000
840.375916	187.400000
840.410217	189.600000
840.444397	196.500000
840.478638	195.500000
840.512878	198.000000
840.547119	192.700000
840.581360	196.400000
840.615601	201.700000
840.649780	201.200000
840.684021	192.000000
840.718262	200.700000
840.752441	197.200000
840.786682	193.800000
840.820862	193.400000
840.855103	200.900000
840.889343	194.500000
840.923584	198.700000
840.957764	195.200000
840.992004	194.000000
841.026184	207.800000
841.060425	189.200000
841.094666	189.800000
841.128845	196.000000
841.163025	192.500000
841.197266	194.000000
841.231445	194.000000
841.265686	191.300000
841.299866	187.600000
841.334045	199.500000
841.368286	192.200000
841.402405	201.200000
841.436646	197.100000
841.470825	190.100000
841.505005	192.000000
841.539185	188.200000
841.573425	189.400000
841.607544	192.500000
841.641785	193.900000
841.675964	187.500000
841.710144	192.600000
841.744324	189.800000
841.778503	190.700000
841.812683	187.800000
841.846863	201.800000
841.881042	201.000000
841.915222	189.900000
841.949402	207.400000
841.983521	184.900000
842.017700	190.600000
842.051880	194.900000
842.086060	195.400000
842.120239	193.800000
842.154419	190.600000
842.188538	194.700000
842.222717	189.800000
842.256897	201.700000
842.291016	191.500000
842.325195	194.200000
842.359375	202.500000
842.393494	199.800000
842.427673	193.100000
842.461853	194.100000
842.495911	200.400000
842.530090	195.300000
842.564209	191.600000
842.598389	192.500000
842.632568	193.700000
842.666626	197.700000
842.700806	189.300000
842.734985	190.700000
842.769043	196.600000
842.803223	189.500000
842.837402	191.200000
842.871460	190.600000
842.905640	201.700000
842.939697	188.600000
842.973877	195.500000
843.007996	197.500000
843.042175	203.000000
843.076233	190.500000
843.110413	194.200000
843.144470	201.300000
843.178589	197.900000
843.212769	190.000000
843.246826	197.800000
843.280945	190.200000
843.315125	191.800000
843.349182	189.000000
843.383301	200.800000
843.417419	204.800000
843.451538	193.200000
843.485657	191.100000
843.519714	192.500000
843.553833	194.900000
843.587952	190.500000
843.622070	188.900000
843.656128	197.900000
843.690247	190.600000
843.724304	190.800000
843.758423	194.900000
843.792542	191.600000
843.826599	192.600000
843.860718	192.300000
843.894836	186.000000
843.928894	193.700000
843.963013	194.800000
843.997070	187.800000
844.031128	186.000000
844.065247	198.700000
844.099304	197.600000
844.133362	193.500000
844.167480	196.300000
844.201599	199.900000
844.235596	195.300000
844.269714	195.400000
844.303711	196.100000
844.337830	184.300000
844.371948	195.900000
844.405945	191.100000
844.440063	188.100000
844.474121	208.500000
844.508118	191.900000
844.542236	191.600000
844.576294	192.300000
844.610352	187.000000
844.644409	192.700000
844.678406	185.100000
844.712524	199.000000
844.746582	199.800000
844.780640	193.800000
844.814636	192.700000
844.848755	203.400000
844.882751	192.300000
844.916809	198.900000
844.950867	195.200000
844.984863	201.700000
845.018921	192.000000
845.052979	191.600000
845.086975	193.500000
845.121033	187.900000
845.155090	187.900000
845.189087	199.900000
845.223145	189.300000
845.257141	193.300000
845.291199	195.800000
845.325256	200.600000
845.359253	193.700000
845.393250	204.300000
845.427307	191.400000
845.461304	194.400000
845.495361	192.700000
845.529358	203.000000
845.563354	189.600000
845.597412	189.000000
845.631409	201.000000
845.665405	199.400000
845.699463	198.200000
845.733459	190.500000
845.767456	199.100000
845.801453	191.400000
845.835449	200.200000
845.869446	195.700000
845.903503	197.700000
845.937439	188.200000
845.971497	201.700000
846.005493	186.200000
846.039429	197.800000
846.073486	203.100000
846.107483	191.400000
846.141418	194.000000
846.175476	193.300000
846.209473	200.400000
846.243408	190.000000
846.277405	194.600000
846.311401	190.300000
846.345337	193.100000
846.379395	200.400000
846.413330	191.500000
846.447327	201.300000
846.481323	188.300000
846.515259	190.000000
846.549255	193.800000
846.583252	196.600000
846.617187	187.600000
846.651184	198.000000
846.685120	191.200000
846.719055	200.800000
846.753052	198.000000
846.786987	198.200000
846.820984	186.700000
846.854980	201.300000
846.888916	188.500000
846.922852	195.600000
846.956848	201.900000
846.990723	188.700000
847.024719	193.100000
847.058716	192.100000
847.092590	201.000000
847.126587	195.200000
847.160522	190.400000
847.194458	197.800000
847.228455	188.800000
847.262390	188.000000
847.296265	191.500000
847.330261	200.300000
847.364136	192.300000
847.398132	189.500000
847.432068	195.000000
847.466003	192.000000
847.499939	191.800000
847.533875	194.900000
847.567749	191.200000
847.601746	191.500000
847.635681	196.500000
847.669556	185.400000
847.703491	198.400000
847.737427	207.900000
847.771301	189.300000
847.805237	194.400000
847.839233	194.500000
847.873108	193.600000
847.907043	192.200000
847.940918	200.700000
847.974854	195.400000
848.008789	197.200000
848.042664	195.100000
848.076538	195.900000
848.110474	193.400000
848.144348	195.200000
848.178284	188.700000
848.212219	194.900000
848.246094	192.300000
848.279968	195.400000
848.313904	197.400000
848.347778	192.500000
848.381653	192.200000
848.415588	189.200000
848.449463	190.900000
848.483337	196.200000
848.517212	198.500000
848.551086	192.700000
848.585022	190.200000
848.618835	201.700000
848.652771	189.900000
848.686646	188.300000
848.720520	202.600000
848.754395	192.500000
848.788330	197.200000
848.822144	196.900000
848.856018	191.900000
848.889954	203.600000
848.923767	189.800000
848.957642	190.500000
848.991577	197.400000
849.025391	191.400000
849.059265	192.700000
849.093079	192.400000
849.126953	187.700000
849.160828	199.000000
849.194641	195.400000
849.228577	191.000000
849.262451	193.300000
849.296265	190.900000
849.330139	189.000000
849.364014	194.100000
849.397827	196.400000
849.431702	193.000000
849.465515	198.100000
849.499329	184.800000
849.533203	188.600000
849.567078	183.700000
849.600891	196.300000
849.634766	192.300000
849.668518	197.900000
849.702393	194.200000
849.736267	187.900000
849.770020	206.100000
849.803894	197.200000
849.837769	195.400000
849.871521	193.100000
849.905396	200.200000
849.939270	189.200000
849.973022	193.100000
850.006897	196.500000
850.040710	197.700000
850.074524	196.600000
850.108337	192.900000
850.142151	196.500000
850.175964	199.900000
850.209778	193.200000
850.243530	180.800000
850.277405	199.200000
850.311218	192.600000
850.344971	190.500000
850.378845	202.400000
850.412659	189.500000
850.446411	194.500000
850.480225	192.300000
850.514038	199.200000
850.547791	196.300000
850.581665	194.200000
850.615417	190.000000
850.649231	194.800000
850.683044	192.800000
850.716858	192.400000
850.750610	193.600000
850.784424	198.300000
850.818176	190.700000
850.851929	191.600000
850.885742	189.400000
850.919495	192.400000
850.953308	201.100000
850.987122	202.200000
851.020874	188.300000
851.054626	185.100000
851.088440	196.900000
851.122192	198.300000
851.156006	194.100000
851.189697	192.900000
851.223511	188.000000
851.257263	197.700000
851.291077	197.500000
851.324829	191.800000
851.358582	191.700000
851.392334	191.500000
851.426086	193.200000
851.459900	201.400000
851.493591	193.900000
851.527344	193.500000
851.561157	194.400000
851.594849	194.800000
851.628662	197.600000
851.662415	201.300000
851.696106	196.900000
851.729858	197.700000
851.763611	188.500000
851.797363	193.900000
851.831116	189.200000
851.864868	196.900000
851.898560	197.400000
851.932312	190.300000
851.966064	195.400000
851.999817	193.400000
852.033569	192.100000
852.067261	195.900000
852.101013	190.500000
852.134766	194.000000
852.168457	183.000000
852.202209	197.200000
852.235901	190.700000
852.269592	198.300000
852.303345	202.200000
852.337036	196.900000
852.370789	192.500000
852.404541	197.200000
852.438171	189.000000
852.471924	192.300000
852.505676	186.700000
852.539307	196.300000
852.573059	190.400000
852.606812	190.900000
852.640442	193.000000
852.674194	198.300000
852.707886	203.900000
852.741577	203.200000
852.775269	188.100000
852.809021	194.700000
852.842651	196.200000
852.876404	199.600000
852.910034	194.700000
852.943787	199.200000
852.977478	196.800000
853.011108	190.500000
853.044861	189.500000
853.078552	200.300000
853.112183	195.000000
853.145874	195.500000
853.179626	184.200000
853.213257	196.000000
853.246948	190.300000
853.280640	202.500000
853.314270	192.700000
853.347961	201.300000
853.381653	196.000000
853.415283	197.300000
853.448975	190.200000
853.482605	195.600000
853.516296	193.100000
853.549988	187.800000
853.583618	193.700000
853.617310	195.600000
853.651001	195.300000
853.684631	190.400000
853.718323	190.700000
853.751953	201.900000
853.785583	183.100000
853.819275	198.700000
853.852966	195.000000
853.886536	183.200000
853.920227	188.300000
853.953918	199.500000
853.987488	190.400000
854.021179	197.600000
854.054749	201.100000
854.088440	195.200000
854.122131	188.400000
854.155701	197.700000
854.189331	189.900000
854.223022	197.000000
854.256592	195.900000
854.290283	189.400000
854.323914	196.600000
854.357483	194.500000
854.391174	196.600000
854.424744	204.200000
854.458374	195.800000
854.492065	204.600000
854.525696	192.900000
854.559265	200.000000
854.592896	204.500000
854.626465	194.900000
854.660095	195.300000
854.693787	196.100000
854.727356	192.700000
854.760986	197.000000
854.794617	196.100000
854.828186	191.600000
854.861816	197.200000
854.895447	193.700000
854.929016	195.800000
854.962585	196.500000
854.996155	201.800000
855.029785	195.400000
855.063416	195.400000
855.097046	199.000000
855.130615	188.300000
855.164185	199.200000
855.197754	194.000000
855.231384	196.700000
855.264954	190.700000
855.298523	197.300000
855.332153	194.500000
855.365723	201.700000
855.399292	189.900000
855.432922	192.800000
855.466492	196.800000
855.500061	189.000000
855.533630	190.300000
855.567200	198.500000
855.600769	199.500000
855.634338	198.500000
855.667969	195.400000
855.701477	189.000000
855.735046	189.600000
855.768616	185.200000
855.802185	196.300000
855.835754	210.600000
855.869324	186.900000
855.902893	190.600000
855.936401	201.000000
855.969971	194.700000
856.003540	186.500000
856.037109	196.500000
856.070618	194.500000
856.104187	187.500000
856.137695	190.100000
856.171265	184.600000
856.204834	193.800000
856.238403	199.400000
856.271912	189.900000
856.305481	195.500000
856.338989	185.900000
856.372559	197.500000
856.406128	195.100000
856.439636	199.500000
856.473145	193.000000
856.506653	201.400000
856.540222	194.000000
856.573792	201.600000
856.607300	196.600000
856.640808	188.600000
856.674377	194.800000
856.707825	222.900000
856.741394	199.100000
856.774902	192.100000
856.808472	185.100000
856.841980	197.800000
856.875488	201.900000
856.908936	187.000000
856.942505	191.000000
856.976013	192.300000
857.009521	187.900000
857.043030	193.900000
857.076477	192.900000
857.110046	199.500000
857.143555	195.500000
857.177063	197.900000
857.210571	191.600000
857.244080	186.700000
857.277527	198.100000
857.311035	193.900000
857.344543	198.300000
857.378052	193.200000
857.411499	199.000000
857.445068	204.000000
857.478516	195.500000
857.512024	188.600000
857.545532	193.200000
857.578979	195.900000
857.612427	194.000000
857.645874	191.200000
857.679382	195.700000
857.712891	197.400000
857.746399	193.500000
857.779846	198.800000
857.813354	199.000000
857.846741	193.500000
857.880249	190.500000
857.913757	194.600000
857.947266	196.800000
857.980652	197.300000
858.014160	191.300000
858.047546	192.300000
858.081055	193.900000
858.114563	200.900000
858.147949	188.100000
858.181458	197.400000
858.214844	192.200000
858.248352	183.400000
858.281799	199.300000
858.315308	207.100000
858.348694	196.400000
858.382141	200.600000
858.415588	197.200000
858.449036	198.200000
858.482483	196.300000
858.515930	188.900000
858.549377	194.200000
858.582825	202.200000
858.616211	197.700000
858.649658	196.000000
858.683105	189.100000
858.716553	190.000000
858.750000	187.600000
858.783386	191.400000
858.816833	184.500000
858.850281	195.700000
858.883728	196.600000
858.917114	193.000000
858.950562	202.400000
858.983948	203.700000
859.017395	199.000000
859.050781	192.200000
859.084167	189.100000
859.117615	187.200000
859.151062	196.300000
859.184448	191.200000
859.217834	192.800000
859.251282	193.600000
859.284668	190.000000
859.318054	185.100000
859.351440	191.800000
859.384888	202.700000
859.418274	185.600000
859.451721	185.300000
859.485046	196.800000
859.518494	196.300000
859.551819	189.700000
859.585266	196.200000
859.618652	196.300000
859.652039	188.600000
859.685425	189.200000
859.718811	187.500000
859.752197	181.700000
859.785583	201.900000
859.819031	202.000000
859.852356	196.500000
859.885742	190.700000
859.919067	192.800000
859.952454	190.700000
859.985901	197.500000
860.019287	191.200000
860.052612	0.000000
860.085999	0.000000
860.119324	0.000000
860.152710	0.000000
860.186096	0.000000
860.219421	0.000000
860.252808	0.000000
860.286133	0.000000
860.319519	0.000000
860.352905	0.000000
860.386292	0.000000
860.419617	0.000000
860.452942	0.000000
860.486267	0.000000
860.519653	0.000000
860.553040	0.000000
860.586365	0.000000
860.619690	0.000000
860.653076	0.000000
860.686340	0.000000
860.719727	0.000000
860.753113	0.000000
860.786377	0.000000
860.819763	0.000000
860.853027	0.000000
860.886414	0.000000
860.919739	0.000000
860.953125	0.000000
860.986389	0.000000
861.019714	0.000000
861.053040	0.000000
861.086365	0.000000
861.119690	0.000000
861.153076	0.000000
861.186340	0.000000
861.219666	0.000000
861.252930	0.000000
861.286316	0.000000
861.319641	0.000000
861.352905	0.000000
861.386230	0.000000
861.419495	0.000000
861.452820	0.000000
861.486145	0.000000
861.519470	0.000000
861.552734	0.000000
861.586060	0.000000
861.619324	0.000000
861.652649	0.000000
861.685974	0.000000
861.719238	0.000000
861.752563	0.000000
861.785828	0.000000
861.819092	0.000000
861.852417	0.000000
861.885742	0.000000
861.918945	0.000000
861.952271	0.000000
861.985535	0.000000
862.018799	0.000000
862.052124	0.000000
862.085449	0.000000
862.118652	0.000000
862.151978	0.000000
862.185181	0.000000
862.218506	0.000000
862.251770	0.000000
862.285034	0.000000
862.318298	0.000000
862.351562	0.000000
862.384827	0.000000
862.418091	0.000000
862.451355	0.000000
862.484619	0.000000
862.517883	0.000000
862.551086	0.000000
862.584351	0.000000
862.617676	0.000000
862.650940	0.000000
862.684143	0.000000
862.717407	0.000000
862.750610	0.000000
862.783875	0.000000
862.817139	0.000000
862.850342	0.000000
862.883606	0.000000
862.916870	0.000000
862.950073	0.000000
862.983337	0.000000
863.016602	0.000000
863.049805	0.000000
863.083069	0.000000
863.116211	0.000000
863.149475	0.000000
863.182739	0.000000
863.216003	0.000000
863.249146	0.000000
863.282410	0.000000
863.315613	0.000000
863.348816	0.000000
863.382080	0.000000
863.415222	0.000000
863.448486	0.000000
863.481689	0.000000
863.514893	0.000000
863.548157	0.000000
863.581360	0.000000
863.614502	0.000000
863.647766	0.000000
863.680908	0.000000
863.714172	0.000000
863.747375	0.000000
863.780579	0.000000
863.813721	0.000000
863.846985	0.000000
863.880127	0.000000
863.913330	0.000000
863.946533	0.000000
863.979675	0.000000
864.012939	0.000000
