Model Number: SPM-001-M   
Serial Number: 10090201
Firmware Version: 004.17.6
Exposure Time: 500000.000000us
Data Taken on: 10-03-2021 10:38:50.495
Wavelength	Amplitude
733.770752	0.000000
733.808716	0.000000
733.846619	0.000000
733.884583	0.000000
733.922546	0.000000
733.960449	0.000000
733.998413	0.000000
734.036377	0.000000
734.074219	0.000000
734.112183	0.000000
734.150085	0.000000
734.188049	0.000000
734.226013	0.000000
734.263916	0.000000
734.301819	0.000000
734.339783	0.000000
734.377686	0.000000
734.415588	0.000000
734.453552	0.000000
734.491455	0.000000
734.529419	0.000000
734.567322	0.000000
734.605225	0.000000
734.643127	0.000000
734.681091	0.000000
734.718994	0.000000
734.756897	0.000000
734.794800	0.000000
734.832703	0.000000
734.870667	0.000000
734.908508	0.000000
734.946472	0.000000
734.984375	0.000000
735.022278	0.000000
735.060181	0.000000
735.098083	0.000000
735.135986	0.000000
735.173889	0.000000
735.211792	0.000000
735.249695	0.000000
735.287598	0.000000
735.325439	0.000000
735.363403	0.000000
735.401306	0.000000
735.439148	0.000000
735.477051	0.000000
735.515015	0.000000
735.552856	0.000000
735.590759	0.000000
735.628662	0.000000
735.666504	0.000000
735.704407	0.000000
735.742310	0.000000
735.780212	0.000000
735.818115	0.000000
735.856018	0.000000
735.893860	0.000000
735.931763	0.000000
735.969604	0.000000
736.007507	0.000000
736.045410	0.000000
736.083252	0.000000
736.121094	0.000000
736.158997	0.000000
736.196838	0.000000
736.234741	0.000000
736.272644	0.000000
736.310486	0.000000
736.348389	0.000000
736.386230	0.000000
736.424072	0.000000
736.461975	0.000000
736.499878	0.000000
736.537720	0.000000
736.575562	0.000000
736.613403	0.000000
736.651306	0.000000
736.689148	0.000000
736.726990	0.000000
736.764893	0.000000
736.802734	0.000000
736.840576	0.000000
736.878418	0.000000
736.916321	0.000000
736.954102	0.000000
736.992004	0.000000
737.029846	0.000000
737.067688	0.000000
737.105530	0.000000
737.143372	0.000000
737.181213	0.000000
737.219116	0.000000
737.256897	0.000000
737.294739	0.000000
737.332642	0.000000
737.370422	0.000000
737.408325	0.000000
737.446167	0.000000
737.483948	0.000000
737.521790	0.000000
737.559692	0.000000
737.597473	0.000000
737.635315	0.000000
737.673157	0.000000
737.710999	0.000000
737.748840	0.000000
737.786621	0.000000
737.824463	0.000000
737.862305	0.000000
737.900085	0.000000
737.937927	0.000000
737.975769	0.000000
738.013550	0.000000
738.051392	0.000000
738.089233	0.000000
738.127014	0.000000
738.164856	0.000000
738.202698	0.000000
738.240479	0.000000
738.278320	0.000000
738.316162	0.000000
738.353943	0.000000
738.391785	0.000000
738.429565	0.000000
738.467407	0.000000
738.505188	0.000000
738.542969	0.000000
738.580811	0.000000
738.618652	0.000000
738.656372	0.000000
738.694214	0.000000
738.732056	0.000000
738.769836	0.000000
738.807617	0.000000
738.845459	0.000000
738.883240	0.000000
738.921021	0.000000
738.958862	0.000000
738.996582	0.000000
739.034424	0.000000
739.072205	0.000000
739.109985	0.000000
739.147827	0.000000
739.185547	0.000000
739.223389	0.000000
739.261169	0.000000
739.298889	0.000000
739.336731	0.000000
739.374512	0.000000
739.412292	0.000000
739.450073	0.000000
739.487854	0.000000
739.525635	0.000000
739.563416	0.000000
739.601135	0.000000
739.638977	0.000000
739.676758	0.000000
739.714478	0.000000
739.752258	0.000000
739.790100	0.000000
739.827820	0.000000
739.865601	0.000000
739.903381	0.000000
739.941101	0.000000
739.978882	196.400000
740.016724	191.400000
740.054443	198.000000
740.092224	189.300000
740.130005	190.200000
740.167725	190.200000
740.205505	188.300000
740.243225	199.000000
740.281006	193.000000
740.318787	186.000000
740.356506	198.100000
740.394287	197.000000
740.432068	187.700000
740.469727	187.800000
740.507507	197.200000
740.545288	193.000000
740.583008	195.300000
740.620789	193.900000
740.658569	183.800000
740.696228	191.400000
740.734009	199.600000
740.771790	179.600000
740.809509	197.900000
740.847229	186.100000
740.884949	190.100000
740.922729	185.900000
740.960449	190.700000
740.998169	186.700000
741.035950	188.700000
741.073669	192.500000
741.111389	193.400000
741.149170	201.900000
741.186890	203.100000
741.224609	194.400000
741.262329	194.500000
741.300110	203.300000
741.337769	187.600000
741.375549	185.200000
741.413208	194.300000
741.450989	187.500000
741.488708	189.700000
741.526367	189.300000
741.564148	195.100000
741.601868	196.700000
741.639526	191.700000
741.677307	194.500000
741.715027	195.600000
741.752686	187.700000
741.790466	200.700000
741.828186	197.000000
741.865845	187.900000
741.903564	183.700000
741.941345	192.800000
741.979004	188.300000
742.016724	195.000000
742.054382	194.800000
742.092102	200.000000
742.129822	185.300000
742.167480	190.400000
742.205200	191.300000
742.242920	194.900000
742.280640	197.400000
742.318359	188.500000
742.356079	190.900000
742.393738	195.500000
742.431396	190.600000
742.469116	196.300000
742.506775	182.000000
742.544495	194.800000
742.582214	197.700000
742.619873	192.100000
742.657593	199.400000
742.695251	195.400000
742.732971	193.200000
742.770630	193.000000
742.808289	193.200000
742.846008	190.800000
742.883728	196.200000
742.921326	192.200000
742.959045	189.400000
742.996765	191.900000
743.034424	193.100000
743.072083	189.400000
743.109802	191.100000
743.147400	186.200000
743.185120	193.200000
743.222839	191.400000
743.260437	198.600000
743.298157	193.900000
743.335754	185.000000
743.373474	190.000000
743.411133	184.400000
743.448792	193.000000
743.486450	193.000000
743.524170	185.700000
743.561768	191.800000
743.599487	198.700000
743.637146	204.300000
743.674744	190.300000
743.712463	190.400000
743.750122	194.400000
743.787720	195.300000
743.825439	188.700000
743.863037	190.700000
743.900696	193.200000
743.938416	216.300000
743.976013	191.000000
744.013672	201.300000
744.051331	198.000000
744.088928	201.600000
744.126587	199.500000
744.164307	192.900000
744.201904	189.300000
744.239563	196.500000
744.277222	195.300000
744.314819	191.500000
744.352478	200.200000
744.390137	194.900000
744.427734	194.600000
744.465393	189.900000
744.502991	187.600000
744.540649	196.400000
744.578308	194.800000
744.615906	187.100000
744.653564	182.100000
744.691223	195.800000
744.728821	185.600000
744.766418	191.000000
744.804077	196.500000
744.841675	189.100000
744.879333	184.500000
744.916992	192.800000
744.954529	191.200000
744.992187	198.100000
745.029785	190.700000
745.067444	189.500000
745.105042	194.000000
745.142639	195.000000
745.180298	202.300000
745.217896	189.900000
745.255493	192.500000
745.293152	195.700000
745.330750	196.700000
745.368347	201.000000
745.405945	196.500000
745.443604	193.800000
745.481140	197.000000
745.518799	191.300000
745.556396	196.800000
745.593994	196.900000
745.631592	192.400000
745.669189	187.800000
745.706787	195.200000
745.744385	189.300000
745.781982	195.400000
745.819580	190.400000
745.857178	191.300000
745.894775	192.700000
745.932373	195.300000
745.969971	192.500000
746.007568	183.800000
746.045166	201.200000
746.082764	198.300000
746.120300	197.300000
746.157898	195.400000
746.195557	191.900000
746.233093	186.100000
746.270691	195.900000
746.308228	194.600000
746.345825	197.300000
746.383423	195.700000
746.420959	188.000000
746.458557	189.800000
746.496155	191.000000
746.533691	190.200000
746.571289	187.500000
746.608887	192.200000
746.646423	193.000000
746.684021	192.200000
746.721619	190.600000
746.759155	193.700000
746.796753	185.900000
746.834351	186.400000
746.871826	188.200000
746.909424	199.400000
746.946960	194.500000
746.984558	191.300000
747.022156	190.400000
747.059631	200.300000
747.097229	194.900000
747.134827	191.600000
747.172363	200.800000
747.209900	194.200000
747.247498	188.400000
747.285034	201.400000
747.322571	200.300000
747.360168	192.400000
747.397644	185.600000
747.435242	196.300000
747.472778	199.800000
747.510315	191.600000
747.547913	190.900000
747.585388	200.800000
747.622925	193.600000
747.660522	183.200000
747.697998	187.800000
747.735596	192.000000
747.773132	190.200000
747.810669	194.000000
747.848206	196.700000
747.885742	186.000000
747.923279	187.400000
747.960815	194.800000
747.998352	192.900000
748.035889	198.800000
748.073425	197.400000
748.110901	190.700000
748.148437	188.300000
748.185974	193.500000
748.223511	201.800000
748.261047	194.200000
748.298584	193.600000
748.336060	193.600000
748.373596	195.400000
748.411133	210.800000
748.448608	188.700000
748.486145	197.500000
748.523682	199.000000
748.561218	199.500000
748.598755	193.100000
748.636292	196.800000
748.673706	189.800000
748.711243	200.200000
748.748718	194.300000
748.786255	192.500000
748.823792	192.100000
748.861267	188.700000
748.898804	195.200000
748.936340	195.700000
748.973816	190.500000
749.011292	199.600000
749.048828	195.400000
749.086304	195.900000
749.123840	204.500000
749.161316	188.000000
749.198792	204.600000
749.236328	200.500000
749.273743	193.600000
749.311279	191.000000
749.348816	195.200000
749.386230	193.200000
749.423767	181.300000
749.461304	196.500000
749.498718	195.300000
749.536255	199.800000
749.573730	207.200000
749.611206	199.400000
749.648682	192.700000
749.686218	192.300000
749.723633	198.100000
749.761169	189.800000
749.798645	189.600000
749.836060	191.100000
749.873596	190.600000
749.911011	192.200000
749.948547	199.800000
749.986023	193.100000
750.023437	192.500000
750.060913	185.800000
750.098450	187.000000
750.135864	190.800000
750.173340	194.500000
750.210815	197.400000
750.248291	186.300000
750.285767	193.100000
750.323242	199.800000
750.360657	194.700000
750.398132	187.800000
750.435608	197.800000
750.473022	189.200000
750.510498	188.100000
750.547974	188.600000
750.585449	190.100000
750.622925	182.400000
750.660339	203.400000
750.697815	193.600000
750.735291	192.300000
750.772644	194.400000
750.810120	193.600000
750.847595	195.100000
750.885010	189.600000
750.922485	202.800000
750.959961	192.600000
750.997375	199.900000
751.034851	196.500000
751.072266	199.300000
751.109680	186.500000
751.147156	198.400000
751.184570	196.300000
751.221985	195.000000
751.259460	183.700000
751.296875	192.400000
751.334290	194.300000
751.371765	198.300000
751.409180	197.700000
751.446594	199.100000
751.484070	196.300000
751.521423	195.600000
751.558899	195.400000
751.596375	200.800000
751.633728	200.200000
751.671204	205.700000
751.708618	188.600000
751.746033	192.900000
751.783447	186.700000
751.820801	188.700000
751.858276	196.400000
751.895691	191.500000
751.933105	189.800000
751.970520	186.600000
752.007935	190.800000
752.045349	196.400000
752.082764	193.000000
752.120178	190.700000
752.157532	189.200000
752.195007	189.100000
752.232422	196.000000
752.269775	196.800000
752.307190	195.900000
752.344543	189.600000
752.382019	191.400000
752.419434	190.900000
752.456787	194.500000
752.494202	197.400000
752.531616	194.900000
752.568970	197.900000
752.606384	194.500000
752.643799	195.400000
752.681152	204.000000
752.718567	196.000000
752.755981	185.200000
752.793335	195.700000
752.830750	184.700000
752.868164	199.100000
752.905518	188.300000
752.942932	198.600000
752.980225	188.200000
753.017639	198.300000
753.055054	191.600000
753.092407	195.900000
753.129822	198.900000
753.167175	203.800000
753.204529	191.900000
753.241943	190.500000
753.279358	186.100000
753.316650	197.500000
753.354065	195.400000
753.391479	196.500000
753.428772	201.300000
753.466187	196.000000
753.503479	186.000000
753.540894	191.000000
753.578308	188.000000
753.615601	186.800000
753.653015	192.500000
753.690369	191.500000
753.727722	187.400000
753.765076	186.200000
753.802490	186.800000
753.839783	184.500000
753.877136	190.300000
753.914551	209.300000
753.951843	187.600000
753.989258	196.200000
754.026611	193.000000
754.063904	194.300000
754.101257	188.700000
754.138611	185.100000
754.175964	193.600000
754.213318	204.700000
754.250610	185.300000
754.288025	190.600000
754.325378	188.100000
754.362671	199.100000
754.400024	191.200000
754.437378	201.300000
754.474670	204.700000
754.512085	190.300000
754.549438	194.500000
754.586731	190.600000
754.624084	192.200000
754.661438	188.300000
754.698730	202.800000
754.736084	192.100000
754.773376	192.700000
754.810730	195.700000
754.848083	193.200000
754.885315	197.800000
754.922668	185.200000
754.960022	188.200000
754.997314	197.300000
755.034668	194.700000
755.072021	195.300000
755.109253	190.500000
755.146606	201.200000
755.183960	192.800000
755.221252	202.900000
755.258545	199.200000
755.295898	201.200000
755.333191	200.500000
755.370544	197.700000
755.407776	193.000000
755.445129	195.900000
755.482422	199.400000
755.519714	191.900000
755.557068	186.800000
755.594360	187.200000
755.631653	198.100000
755.668945	202.900000
755.706299	197.200000
755.743530	207.700000
755.780884	203.200000
755.818176	201.700000
755.855408	200.700000
755.892761	199.700000
755.930054	196.100000
755.967346	197.700000
756.004639	199.800000
756.041870	195.500000
756.079224	201.300000
756.116516	194.300000
756.153748	201.700000
756.191040	204.600000
756.228394	200.700000
756.265625	193.300000
756.302917	197.400000
756.340210	193.400000
756.377441	204.500000
756.414795	205.500000
756.452087	197.800000
756.489319	191.800000
756.526611	202.200000
756.563843	199.400000
756.601135	210.300000
756.638428	206.900000
756.675659	198.500000
756.712952	203.500000
756.750244	202.300000
756.787476	200.600000
756.824768	207.700000
756.862061	197.200000
756.899292	246.000000
756.936584	203.600000
756.973816	211.100000
757.011047	211.400000
757.048340	201.700000
757.085632	200.400000
757.122864	215.300000
757.160156	197.700000
757.197327	203.100000
757.234619	205.800000
757.271912	199.700000
757.309082	206.600000
757.346375	199.700000
757.383667	207.500000
757.420837	202.800000
757.458130	203.600000
757.495422	202.000000
757.532593	204.900000
757.569885	194.600000
757.607117	198.100000
757.644348	203.900000
757.681580	215.200000
757.718811	191.000000
757.756042	202.700000
757.793335	198.400000
757.830505	206.800000
757.867798	202.400000
757.905029	200.900000
757.942200	205.700000
757.979492	200.500000
758.016724	202.500000
758.053894	201.700000
758.091187	223.600000
758.128418	204.700000
758.165588	203.600000
758.202820	216.600000
758.240112	202.900000
758.277283	216.300000
758.314514	207.300000
758.351685	202.700000
758.388916	216.400000
758.426147	212.500000
758.463379	214.600000
758.500610	208.800000
758.537842	207.200000
758.575012	214.100000
758.612244	202.200000
758.649475	220.400000
758.686646	200.300000
758.723877	213.900000
758.761108	215.800000
758.798279	207.000000
758.835510	210.300000
758.872742	214.500000
758.909851	210.200000
758.947083	211.800000
758.984253	210.700000
759.021484	214.000000
759.058716	213.400000
759.095886	214.000000
759.133057	209.100000
759.170288	213.600000
759.207458	205.100000
759.244690	222.800000
759.281860	217.900000
759.319031	209.400000
759.356262	209.300000
759.393433	209.300000
759.430603	208.200000
759.467773	210.300000
759.505005	218.200000
759.542175	217.700000
759.579346	210.200000
759.616516	213.300000
759.653687	214.600000
759.690918	209.800000
759.728027	212.800000
759.765259	214.100000
759.802429	216.400000
759.839539	214.800000
759.876770	218.700000
759.913940	222.500000
759.951111	215.500000
759.988281	213.900000
760.025452	211.800000
760.062561	208.200000
760.099792	221.800000
760.136963	215.300000
760.174072	213.100000
760.211243	206.800000
760.248413	210.300000
760.285583	209.600000
760.322754	226.900000
760.359863	220.900000
760.397034	222.500000
760.434204	211.800000
760.471375	216.800000
760.508545	212.200000
760.545715	215.600000
760.582825	209.000000
760.619995	221.200000
760.657166	209.100000
760.694275	223.000000
760.731445	218.600000
760.768555	218.700000
760.805664	219.800000
760.842834	220.000000
760.879944	221.000000
760.917114	220.900000
760.954285	217.900000
760.991394	212.200000
761.028564	224.200000
761.065674	222.900000
761.102783	214.200000
761.139954	223.800000
761.177124	224.500000
761.214172	226.600000
761.251343	219.900000
761.288452	221.600000
761.325562	225.100000
761.362732	219.000000
761.399841	223.200000
761.436951	226.900000
761.474121	219.900000
761.511169	222.700000
761.548340	228.300000
761.585449	228.200000
761.622559	230.100000
761.659668	227.600000
761.696838	234.000000
761.733887	228.400000
761.771057	224.500000
761.808167	228.000000
761.845276	232.500000
761.882385	240.600000
761.919434	229.400000
761.956604	250.200000
761.993713	226.100000
762.030762	237.600000
762.067871	229.400000
762.105042	229.100000
762.142090	238.800000
762.179199	232.600000
762.216309	238.400000
762.253418	249.200000
762.290527	242.900000
762.327637	238.100000
762.364685	229.400000
762.401794	240.300000
762.438904	237.500000
762.475952	230.700000
762.513062	231.800000
762.550110	230.700000
762.587219	246.400000
762.624329	246.600000
762.661377	240.000000
762.698486	238.100000
762.735596	239.900000
762.772644	232.500000
762.809753	230.700000
762.846863	240.200000
762.883911	243.400000
762.921021	241.900000
762.958069	241.100000
762.995117	248.700000
763.032227	249.400000
763.069336	241.000000
763.106323	237.400000
763.143433	236.700000
763.180481	244.100000
763.217590	245.500000
763.254639	241.500000
763.291687	244.200000
763.328735	251.600000
763.365845	243.300000
763.402893	243.400000
763.439941	246.500000
763.477051	250.000000
763.514038	251.800000
763.551147	244.500000
763.588196	248.600000
763.625244	245.900000
763.662292	254.900000
763.699402	257.700000
763.736389	254.200000
763.773499	262.000000
763.810486	255.800000
763.847534	251.700000
763.884644	256.300000
763.921631	250.700000
763.958679	263.200000
763.995728	251.900000
764.032776	261.600000
764.069824	247.200000
764.106873	258.500000
764.143860	263.600000
764.180969	255.000000
764.218018	265.500000
764.255005	254.500000
764.292053	258.100000
764.329102	271.000000
764.366089	267.600000
764.403137	265.700000
764.440125	256.400000
764.477173	260.000000
764.514221	261.900000
764.551208	259.900000
764.588257	254.400000
764.625305	268.700000
764.662292	272.100000
764.699341	276.700000
764.736389	267.200000
764.773376	283.500000
764.810425	270.200000
764.847473	279.700000
764.884399	272.000000
764.921448	281.500000
764.958435	279.900000
764.995483	268.500000
765.032532	286.700000
765.069458	271.600000
765.106506	273.000000
765.143555	268.500000
765.180481	276.100000
765.217529	283.100000
765.254578	267.600000
765.291504	278.900000
765.328552	276.300000
765.365540	270.800000
765.402527	289.000000
765.439575	272.800000
765.476501	267.600000
765.513550	269.000000
765.550537	275.900000
765.587463	283.300000
765.624512	273.900000
765.661499	264.400000
765.698486	283.900000
765.735474	272.700000
765.772461	276.400000
765.809448	286.000000
765.846436	283.200000
765.883423	284.900000
765.920410	281.200000
765.957397	275.300000
765.994385	282.200000
766.031311	291.000000
766.068359	285.300000
766.105286	284.800000
766.142273	291.700000
766.179260	285.600000
766.216187	279.600000
766.253174	276.000000
766.290161	287.200000
766.327148	290.600000
766.364136	289.500000
766.401123	305.900000
766.438049	284.500000
766.475037	298.500000
766.512024	294.100000
766.548950	308.600000
766.585937	302.600000
766.622864	300.200000
766.659790	298.600000
766.696777	288.000000
766.733704	304.700000
766.770691	294.700000
766.807678	312.800000
766.844604	306.400000
766.881531	305.400000
766.918518	311.600000
766.955444	314.100000
766.992432	307.900000
767.029358	309.700000
767.066284	313.000000
767.103271	310.400000
767.140198	340.200000
767.177124	326.800000
767.214050	319.000000
767.251038	318.300000
767.287964	315.900000
767.324890	312.800000
767.361816	320.100000
767.398743	326.300000
767.435730	321.400000
767.472595	323.500000
767.509583	328.500000
767.546509	317.600000
767.583374	324.600000
767.620361	318.700000
767.657288	326.300000
767.694214	327.900000
767.731140	324.700000
767.768066	326.200000
767.804993	331.300000
767.841919	321.300000
767.878845	332.200000
767.915710	338.200000
767.952698	332.500000
767.989563	333.900000
768.026489	336.700000
768.063416	330.000000
768.100281	330.400000
768.137207	345.400000
768.174133	341.800000
768.211060	342.000000
768.247986	340.400000
768.284912	341.500000
768.321777	345.900000
768.358704	340.500000
768.395630	345.600000
768.432495	339.000000
768.469421	346.300000
768.506348	352.800000
768.543152	359.600000
768.580078	356.900000
768.616943	357.200000
768.653870	356.100000
768.690796	357.300000
768.727661	358.600000
768.764587	358.700000
768.801453	353.500000
768.838318	362.900000
768.875244	360.300000
768.912109	367.700000
768.948975	360.900000
768.985901	361.200000
769.022766	365.000000
769.059631	369.600000
769.096558	365.200000
769.133362	365.300000
769.170288	367.600000
769.207214	368.000000
769.244019	373.800000
769.280945	371.100000
769.317810	379.700000
769.354675	374.300000
769.391541	382.400000
769.428406	378.400000
769.465271	388.400000
769.502136	377.600000
769.539062	385.600000
769.575867	380.900000
769.612732	384.200000
769.649597	388.000000
769.686462	392.400000
769.723328	388.700000
769.760193	386.500000
769.797058	391.000000
769.833923	401.300000
769.870728	393.500000
769.907593	398.600000
769.944519	396.200000
769.981323	399.900000
770.018188	401.500000
770.055054	395.600000
770.091858	397.600000
770.128723	409.000000
770.165588	414.100000
770.202393	399.200000
770.239258	414.300000
770.276062	409.700000
770.312927	406.300000
770.349792	413.900000
770.386597	410.300000
770.423462	419.400000
770.460327	429.600000
770.497131	412.700000
770.533997	405.000000
770.570862	421.900000
770.607605	422.400000
770.644470	415.100000
770.681335	420.800000
770.718140	417.400000
770.754944	411.300000
770.791809	409.200000
770.828613	414.400000
770.865479	418.300000
770.902222	427.000000
770.939087	420.700000
770.975952	411.700000
771.012695	414.500000
771.049561	433.400000
771.086365	420.300000
771.123169	416.800000
771.159973	419.200000
771.196838	420.100000
771.233582	421.800000
771.270447	425.300000
771.307251	428.000000
771.344055	426.400000
771.380859	428.100000
771.417664	421.700000
771.454468	431.800000
771.491272	431.800000
771.528076	432.700000
771.564880	431.200000
771.601685	441.600000
771.638428	429.700000
771.675293	438.000000
771.712097	426.200000
771.748840	445.600000
771.785645	437.800000
771.822449	443.700000
771.859253	443.700000
771.896057	441.400000
771.932861	455.000000
771.969604	444.100000
772.006409	436.000000
772.043213	451.700000
772.079956	447.000000
772.116760	442.400000
772.153503	444.700000
772.190308	458.600000
772.227112	448.400000
772.263855	445.200000
772.300659	451.600000
772.337463	463.100000
772.374207	451.500000
772.411011	447.900000
772.447754	452.300000
772.484497	470.200000
772.521301	464.200000
772.558105	462.500000
772.594849	462.600000
772.631592	473.100000
772.668396	467.200000
772.705139	476.400000
772.741882	477.200000
772.778625	488.700000
772.815430	489.200000
772.852173	484.800000
772.888916	490.100000
772.925720	496.200000
772.962463	506.000000
772.999207	497.500000
773.035950	503.400000
773.072754	503.100000
773.109436	498.100000
773.146240	500.800000
773.182922	500.100000
773.219727	510.300000
773.256470	508.800000
773.293152	493.500000
773.329956	499.500000
773.366699	508.400000
773.403381	497.400000
773.440186	511.800000
773.476929	515.300000
773.513611	507.200000
773.550354	506.900000
773.587158	508.400000
773.623840	508.700000
773.660583	519.300000
773.697327	531.900000
773.734009	517.600000
773.770813	517.300000
773.807495	517.300000
773.844238	526.300000
773.880981	542.300000
773.917664	537.400000
773.954407	542.500000
773.991150	533.600000
774.027832	538.800000
774.064575	531.100000
774.101318	539.900000
774.138000	546.900000
774.174744	541.900000
774.211487	549.000000
774.248108	534.900000
774.284851	533.900000
774.321594	547.800000
774.358276	550.300000
774.395020	560.700000
774.431702	557.600000
774.468384	551.100000
774.505127	548.800000
774.541809	565.400000
774.578491	574.200000
774.615234	573.700000
774.651917	565.200000
774.688599	573.800000
774.725342	580.600000
774.762024	576.300000
774.798706	584.400000
774.835449	581.700000
774.872070	586.800000
774.908813	588.200000
774.945496	584.800000
774.982178	583.200000
775.018860	591.900000
775.055542	593.000000
775.092224	594.900000
775.128967	602.700000
775.165588	598.900000
775.202271	592.900000
775.239014	604.800000
775.275635	606.400000
775.312317	601.200000
775.349060	606.300000
775.385681	605.300000
775.422363	597.500000
775.459045	609.000000
775.495667	611.100000
775.532410	618.500000
775.569092	616.200000
775.605713	615.600000
775.642395	617.000000
775.679016	620.800000
775.715698	619.100000
775.752380	627.700000
775.789001	619.500000
775.825684	616.200000
775.862366	619.900000
775.898987	630.800000
775.935669	618.600000
775.972351	644.400000
776.008972	637.800000
776.045654	639.500000
776.082336	628.100000
776.118958	628.900000
776.155640	636.700000
776.192322	644.600000
776.228882	648.500000
776.265564	642.900000
776.302185	641.200000
776.338867	648.700000
776.375488	634.500000
776.412109	648.400000
776.448792	652.900000
776.485413	659.600000
776.522034	647.800000
776.558716	640.200000
776.595337	641.900000
776.631958	647.200000
776.668579	651.600000
776.705261	657.100000
776.741882	649.300000
776.778503	647.500000
776.815186	645.400000
776.851746	653.200000
776.888367	652.900000
776.924988	659.700000
776.961609	650.000000
776.998291	653.300000
777.034851	643.400000
777.071472	661.700000
777.108154	658.900000
777.144714	669.100000
777.181335	666.800000
777.218018	655.800000
777.254578	664.300000
777.291199	665.800000
777.327759	671.000000
777.364380	679.300000
777.401062	680.800000
777.437622	694.600000
777.474243	680.900000
777.510864	690.300000
777.547424	683.800000
777.584045	688.100000
777.620667	690.400000
777.657227	696.000000
777.693848	694.700000
777.730469	709.000000
777.767029	701.000000
777.803650	707.800000
777.840271	699.400000
777.876831	702.500000
777.913452	713.000000
777.950012	689.500000
777.986633	687.400000
778.023193	687.500000
778.059753	686.500000
778.096375	692.700000
778.132996	708.000000
778.169556	692.400000
778.206116	691.800000
778.242737	692.500000
778.279297	704.200000
778.315857	698.100000
778.352478	704.800000
778.389038	718.200000
778.425598	712.800000
778.462219	728.100000
778.498718	724.200000
778.535339	736.900000
778.571838	738.500000
778.608459	746.400000
778.645020	734.700000
778.681580	747.000000
778.718140	748.200000
778.754761	740.100000
778.791260	748.000000
778.827881	758.900000
778.864441	757.100000
778.900940	764.100000
778.937561	761.700000
778.974121	759.000000
779.010620	751.500000
779.047241	757.300000
779.083801	764.500000
779.120300	765.600000
779.156860	771.700000
779.193359	773.300000
779.229980	775.500000
779.266541	777.900000
779.303040	782.500000
779.339600	774.800000
779.376160	769.500000
779.412659	780.400000
779.449219	769.500000
779.485779	777.000000
779.522278	781.100000
779.558838	784.100000
779.595398	783.900000
779.631897	791.300000
779.668457	779.600000
779.705017	791.400000
779.741516	779.300000
779.778076	775.500000
779.814575	786.500000
779.851074	797.900000
779.887634	793.000000
779.924133	801.300000
779.960693	781.700000
779.997253	797.100000
780.033691	804.200000
780.070251	808.200000
780.106812	819.000000
780.143250	816.500000
780.179810	813.900000
780.216370	816.500000
780.252808	828.700000
780.289368	836.800000
780.325867	838.000000
780.362366	834.900000
780.398865	847.300000
780.435364	837.200000
780.471863	854.200000
780.508423	853.500000
780.544861	857.800000
780.581421	865.500000
780.617920	857.100000
780.654419	851.500000
780.690918	858.800000
780.727417	866.200000
780.763916	861.900000
780.800415	872.600000
780.836914	853.200000
780.873352	860.300000
780.909912	854.800000
780.946411	865.500000
780.982849	873.300000
781.019348	884.500000
781.055786	878.300000
781.092346	872.700000
781.128845	883.500000
781.165283	892.100000
781.201782	897.500000
781.238281	900.400000
781.274719	902.800000
781.311218	892.900000
781.347717	903.200000
781.384155	892.400000
781.420654	903.100000
781.457092	912.700000
781.493591	903.500000
781.530090	898.200000
781.566528	902.800000
781.602966	903.600000
781.639465	904.600000
781.675903	904.200000
781.712402	910.800000
781.748901	915.500000
781.785278	904.500000
781.821777	912.900000
781.858276	904.700000
781.894714	920.100000
781.931152	909.900000
781.967651	920.400000
782.004089	910.500000
782.040527	921.400000
782.076965	927.300000
782.113403	923.400000
782.149902	928.900000
782.186340	922.200000
782.222778	939.800000
782.259277	915.800000
782.295654	917.300000
782.332092	923.300000
782.368591	919.300000
782.404968	913.500000
782.441467	921.200000
782.477905	924.400000
782.514282	917.200000
782.550781	935.100000
782.587219	934.700000
782.623596	939.700000
782.660095	940.700000
782.696472	943.500000
782.732910	938.100000
782.769348	949.300000
782.805786	970.100000
782.842224	961.300000
782.878662	955.900000
782.915039	963.500000
782.951477	962.300000
782.987915	955.400000
783.024292	969.400000
783.060730	973.400000
783.097168	957.300000
783.133545	942.900000
783.169983	937.700000
783.206421	938.200000
783.242798	934.400000
783.279236	919.400000
783.315613	913.500000
783.352051	909.600000
783.388489	901.100000
783.424866	887.200000
783.461304	896.600000
783.497681	901.000000
783.534058	896.600000
783.570496	890.300000
783.606934	885.800000
783.643250	890.500000
783.679687	903.000000
783.716125	900.700000
783.752441	909.900000
783.788879	927.800000
783.825317	934.000000
783.861633	935.800000
783.898071	937.600000
783.934448	947.800000
783.970825	956.200000
784.007263	937.700000
784.043579	864.600000
784.080017	751.200000
784.116394	584.300000
784.152710	437.000000
784.189148	347.600000
784.225525	308.400000
784.261902	303.100000
784.298279	337.900000
784.334656	416.900000
784.371033	540.900000
784.407410	693.400000
784.443787	815.200000
784.480164	885.400000
784.516541	907.200000
784.552856	925.400000
784.589233	922.300000
784.625610	922.700000
784.661987	961.100000
784.698364	949.100000
784.734741	935.400000
784.771057	932.200000
784.807434	939.400000
784.843811	957.500000
784.880127	959.300000
784.916504	993.300000
784.952881	991.500000
784.989197	989.200000
785.025574	986.800000
785.061951	995.300000
785.098267	1023.600000
785.134644	1013.700000
785.170959	1017.000000
785.207275	1029.400000
785.243652	1028.100000
785.279968	1018.400000
785.316345	1031.500000
785.352722	1037.600000
785.388977	1034.200000
785.425354	1016.200000
785.461731	989.800000
785.498047	981.700000
785.534363	973.500000
785.570679	981.400000
785.606995	980.200000
785.643372	977.400000
785.679687	970.300000
785.716003	959.100000
785.752380	953.400000
785.788635	957.300000
785.825012	982.800000
785.861328	999.400000
785.897644	979.800000
785.933960	988.700000
785.970337	1003.200000
786.006592	1019.900000
786.042908	1031.900000
786.079285	1046.700000
786.115540	1058.300000
786.151855	1056.500000
786.188171	1048.900000
786.224487	1049.200000
786.260803	1048.800000
786.297119	1060.700000
786.333435	1062.000000
786.369751	1059.500000
786.406006	1058.200000
786.442322	1038.400000
786.478638	1029.500000
786.514954	1056.700000
786.551270	1047.600000
786.587585	1056.600000
786.623840	1043.200000
786.660156	1040.500000
786.696472	1028.300000
786.732727	1018.300000
786.769043	1024.400000
786.805298	1018.600000
786.841614	1021.500000
786.877930	1029.700000
786.914124	1007.700000
786.950439	1022.200000
786.986755	1029.100000
787.023010	1051.900000
787.059326	1062.800000
787.095642	1060.200000
787.131836	1076.400000
787.168152	1062.600000
787.204468	1065.200000
787.240723	1081.100000
787.276978	1092.700000
787.313293	1100.000000
787.349548	1099.500000
787.385803	1098.900000
787.422058	1090.700000
787.458313	1101.200000
787.494629	1100.000000
787.530823	1090.800000
787.567139	1075.700000
787.603455	1074.300000
787.639648	1053.900000
787.675903	1058.100000
787.712219	1061.600000
787.748413	1058.000000
787.784729	1067.700000
787.820984	1049.900000
787.857178	1046.900000
787.893494	1039.700000
787.929749	1034.800000
787.965942	1038.800000
788.002258	1049.900000
788.038452	1058.800000
788.074707	1048.900000
788.110962	1057.400000
788.147217	1047.800000
788.183472	1058.800000
788.219727	1064.500000
788.255920	1084.400000
788.292175	1094.800000
788.328430	1086.100000
788.364624	1069.600000
788.400879	1062.400000
788.437134	1071.000000
788.473328	1070.000000
788.509583	1069.700000
788.545837	1062.200000
788.582031	1061.400000
788.618286	1050.700000
788.654480	1045.200000
788.690735	1051.500000
788.726990	1071.800000
788.763184	1072.700000
788.799377	1085.100000
788.835632	1071.400000
788.871826	1087.600000
788.908081	1080.400000
788.944336	1075.300000
788.980469	1097.000000
789.016724	1089.200000
789.052979	1083.300000
789.089111	1064.900000
789.125366	1067.800000
789.161621	1049.200000
789.197754	1067.300000
789.234009	1061.400000
789.270142	1048.000000
789.306396	1037.800000
789.342590	1028.000000
789.378784	1004.900000
789.414978	1005.700000
789.451233	1024.400000
789.487366	1022.400000
789.523621	1033.300000
789.559814	1022.400000
789.595947	1017.600000
789.632202	1025.700000
789.668335	1035.400000
789.704529	1059.600000
789.740784	1077.000000
789.776917	1077.300000
789.813110	1059.600000
789.849304	1073.600000
789.885498	1075.000000
789.921692	1097.300000
789.957886	1099.200000
789.994019	1094.700000
790.030212	1081.100000
790.066406	1088.700000
790.102539	1086.300000
790.138733	1090.800000
790.174927	1087.400000
790.211060	1100.000000
790.247253	1083.000000
790.283386	1072.400000
790.319580	1063.000000
790.355774	1041.700000
790.391907	1052.500000
790.428101	1077.900000
790.464294	1073.700000
790.500427	1085.100000
790.536621	1061.800000
790.572754	1040.700000
790.608887	1044.300000
790.645081	1061.300000
790.681274	1068.000000
790.717346	1069.600000
790.753540	1033.800000
790.789734	964.300000
790.825867	923.700000
790.862000	934.500000
790.898132	990.000000
790.934265	1060.900000
790.970459	1117.400000
791.006592	1131.700000
791.042725	1137.700000
791.078918	1132.100000
791.114990	1136.700000
791.151184	1152.100000
791.187317	1177.500000
791.223389	1170.900000
791.259583	1151.800000
791.295715	1153.800000
791.331848	1163.900000
791.367981	1178.500000
791.404114	1188.300000
791.440247	1185.700000
791.476379	1184.500000
791.512451	1160.200000
791.548584	1166.100000
791.584778	1153.900000
791.620850	1173.400000
791.656982	1180.200000
791.693115	1172.700000
791.729187	1176.500000
791.765381	1163.100000
791.801514	1159.900000
791.837585	1160.500000
791.873718	1175.200000
791.909851	1188.700000
791.945923	1196.000000
791.982056	1155.400000
792.018188	1154.800000
792.054260	1158.000000
792.090393	1156.100000
792.126465	1158.100000
792.162598	1162.500000
792.198669	1148.400000
792.234741	1142.600000
792.270874	1133.300000
792.307007	1115.800000
792.343079	1126.200000
792.379150	1143.500000
792.415283	1128.300000
792.451355	1126.600000
792.487488	1101.800000
792.523560	1102.500000
792.559631	1111.700000
792.595764	1106.300000
792.631836	1112.000000
792.667908	1121.500000
792.703979	1103.000000
792.740051	1106.300000
792.776184	1112.800000
792.812256	1106.800000
792.848328	1114.700000
792.884399	1122.200000
792.920471	1117.900000
792.956543	1106.300000
792.992615	1111.700000
793.028748	1104.900000
793.064758	1112.500000
793.100830	1134.000000
793.136963	1142.500000
793.172974	1130.500000
793.209045	1127.600000
793.245178	1140.900000
793.281189	1124.900000
793.317261	1135.700000
793.353271	1133.000000
793.389404	1144.400000
793.425476	1136.800000
793.461487	1123.300000
793.497559	1107.900000
793.533630	1118.700000
793.569641	1121.100000
793.605713	1130.300000
793.641785	1134.400000
793.677795	1136.100000
793.713867	1116.900000
793.749878	1129.300000
793.785950	1143.900000
793.822021	1145.100000
793.858032	1121.200000
793.894104	1137.400000
793.930176	1128.700000
793.966187	1128.500000
794.002258	1118.700000
794.038269	1117.500000
794.074280	1118.300000
794.110352	1143.800000
794.146423	1115.000000
794.182373	1115.200000
794.218445	1104.200000
794.254517	1092.500000
794.290466	1079.600000
794.326538	1084.300000
794.362549	1090.300000
794.398560	1093.300000
794.434631	1095.400000
794.470581	1072.900000
794.506653	1066.000000
794.542664	1063.300000
794.578674	1065.800000
794.614685	1056.100000
794.650757	1053.500000
794.686707	1050.800000
794.722778	1046.400000
794.758789	1046.900000
794.794739	1058.300000
794.830811	1085.600000
794.866821	1098.300000
794.902771	1093.500000
794.938843	1080.500000
794.974792	1072.400000
795.010803	1073.200000
795.046814	1071.500000
795.082825	1065.700000
795.118835	1078.400000
795.154846	1052.300000
795.190796	1058.900000
795.226807	1034.900000
795.262817	1047.500000
795.298767	1043.100000
795.334778	1048.000000
795.370850	1040.300000
795.406799	1041.300000
795.442810	1015.200000
795.478821	1014.300000
795.514709	1018.800000
795.550720	1034.000000
795.586670	1015.500000
795.622681	1018.600000
795.658691	1018.600000
795.694641	1016.600000
795.730652	998.500000
795.766663	1005.300000
795.802551	1009.800000
795.838562	1026.100000
795.874573	1009.900000
795.910522	1005.400000
795.946472	994.500000
795.982483	1003.200000
796.018433	1002.000000
796.054382	1018.500000
796.090393	1007.300000
796.126282	998.000000
796.162292	984.700000
796.198242	976.800000
796.234192	974.400000
796.270203	976.500000
796.306091	985.700000
796.342041	999.700000
796.378052	981.500000
796.413940	977.500000
796.449951	986.200000
796.485901	976.900000
796.521790	976.100000
796.557800	989.600000
796.593689	989.800000
796.629639	980.100000
796.665649	976.700000
796.701599	976.400000
796.737488	970.900000
796.773437	979.200000
796.809387	977.800000
796.845337	972.400000
796.881287	957.900000
796.917175	942.800000
796.953125	947.100000
796.989075	961.400000
797.024963	968.300000
797.060913	961.200000
797.096863	954.700000
797.132751	947.700000
797.168701	932.200000
797.204590	935.500000
797.240540	936.400000
797.276489	942.600000
797.312439	950.700000
797.348328	945.800000
797.384277	935.600000
797.420166	927.800000
797.456055	932.900000
797.492004	923.900000
797.527893	938.400000
797.563843	945.500000
797.599731	927.000000
797.635620	914.100000
797.671570	921.200000
797.707520	922.900000
797.743347	925.200000
797.779297	934.600000
797.815125	926.500000
797.851074	915.200000
797.887024	903.100000
797.922913	900.500000
797.958801	913.500000
797.994690	909.700000
798.030579	914.800000
798.066467	913.000000
798.102356	898.800000
798.138245	896.300000
798.174133	893.000000
798.210083	901.100000
798.245911	906.700000
798.281799	906.800000
798.317749	901.100000
798.353577	891.500000
798.389465	891.400000
798.425293	888.900000
798.461243	883.100000
798.497131	884.300000
798.532959	892.500000
798.568848	896.100000
798.604736	881.800000
798.640564	866.900000
798.676453	871.500000
798.712402	869.500000
798.748230	880.900000
798.784119	878.900000
798.820007	880.500000
798.855835	874.700000
798.891724	868.600000
798.927551	868.800000
798.963379	878.200000
798.999268	875.100000
799.035095	865.700000
799.070984	855.100000
799.106873	848.600000
799.142700	857.400000
799.178528	850.400000
799.214417	852.700000
799.250244	867.800000
799.286133	856.500000
799.321960	847.700000
799.357788	841.800000
799.393677	848.300000
799.429504	843.900000
799.465332	845.400000
799.501221	852.800000
799.537048	850.400000
799.572876	846.200000
799.608704	840.100000
799.644531	844.200000
799.680359	844.400000
799.716248	854.500000
799.752014	859.900000
799.787903	847.400000
799.823730	839.900000
799.859558	834.700000
799.895386	838.500000
799.931213	839.600000
799.967041	827.700000
800.002869	824.700000
800.038696	840.500000
800.074463	816.000000
800.110352	815.000000
800.146179	807.100000
800.181946	820.400000
800.217773	823.000000
800.253540	817.500000
800.289429	808.200000
800.325256	800.000000
800.361023	796.800000
800.396851	800.000000
800.432678	799.800000
800.468445	799.100000
800.504272	792.000000
800.540100	772.800000
800.575867	773.200000
800.611694	783.900000
800.647461	778.000000
800.683289	773.300000
800.719116	778.800000
800.754883	771.400000
800.790649	755.600000
800.826477	751.800000
800.862244	778.100000
800.898071	757.700000
800.933838	753.900000
800.969604	749.600000
801.005432	749.200000
801.041199	751.800000
801.076965	743.500000
801.112793	736.500000
801.148560	725.500000
801.184326	731.800000
801.220154	732.100000
801.255859	720.800000
801.291687	718.400000
801.327454	711.800000
801.363281	714.600000
801.398987	716.000000
801.434814	717.200000
801.470520	725.600000
801.506287	713.000000
801.542114	702.500000
801.577820	703.500000
801.613647	707.500000
801.649414	696.700000
801.685120	698.100000
801.720886	704.400000
801.756714	693.100000
801.792419	683.300000
801.828186	677.800000
801.863892	688.900000
801.899719	678.100000
801.935486	677.100000
801.971252	687.000000
802.006958	677.700000
802.042725	672.000000
802.078430	673.800000
802.114197	663.100000
802.149963	682.400000
802.185669	673.600000
802.221436	665.500000
802.257202	663.600000
802.292908	662.400000
802.328674	673.500000
802.364441	669.500000
802.400146	659.600000
802.435913	654.100000
802.471558	657.000000
802.507324	649.400000
802.543091	642.500000
802.578796	653.400000
802.614502	655.700000
802.650269	655.200000
802.685974	641.300000
802.721741	645.200000
802.757446	651.600000
802.793152	644.600000
802.828918	655.900000
802.864624	647.000000
802.900330	645.100000
802.936035	643.600000
802.971802	641.000000
803.007446	637.800000
803.043213	628.700000
803.078857	633.200000
803.114624	620.800000
803.150330	626.900000
803.185974	619.900000
803.221741	620.000000
803.257446	625.400000
803.293152	627.500000
803.328857	619.300000
803.364563	610.700000
803.400208	604.400000
803.435974	615.200000
803.471680	603.800000
803.507324	602.800000
803.543030	607.100000
803.578735	608.500000
803.614441	598.200000
803.650146	608.900000
803.685791	593.700000
803.721497	597.400000
803.757202	585.700000
803.792847	596.300000
803.828552	586.700000
803.864258	589.600000
803.899902	586.100000
803.935608	572.000000
803.971313	579.300000
804.006958	574.900000
804.042664	572.900000
804.078308	581.100000
804.113953	574.200000
804.149658	581.100000
804.185364	568.700000
804.221008	578.800000
804.256714	569.200000
804.292297	566.900000
804.328003	563.200000
804.363708	556.700000
804.399292	557.600000
804.434998	558.200000
804.470703	549.100000
804.506287	562.100000
804.541992	554.200000
804.577637	557.200000
804.613281	546.200000
804.648926	542.200000
804.684570	550.500000
804.720215	542.900000
804.755920	543.100000
804.791565	536.600000
804.827209	542.800000
804.862854	538.000000
804.898437	528.400000
804.934143	533.100000
804.969788	534.200000
805.005371	535.400000
805.041077	536.300000
805.076721	531.700000
805.112305	521.800000
805.147949	520.700000
805.183655	519.800000
805.219238	523.900000
805.254883	525.100000
805.290466	526.700000
805.326111	520.900000
805.361755	511.500000
805.397400	515.600000
805.432983	520.400000
805.468628	521.700000
805.504211	526.300000
805.539856	520.000000
805.575500	526.800000
805.611084	516.700000
805.646729	499.000000
805.682373	507.300000
805.717957	515.900000
805.753601	516.700000
805.789246	499.400000
805.824768	514.400000
805.860413	513.300000
805.895996	502.500000
805.931641	505.200000
805.967224	508.600000
806.002869	499.600000
806.038452	510.900000
806.074036	507.500000
806.109619	495.000000
806.145264	492.500000
806.180847	491.800000
806.216431	490.600000
806.252014	495.300000
806.287659	494.900000
806.323181	506.000000
806.358826	499.700000
806.394409	480.600000
806.429993	482.900000
806.465576	496.800000
806.501160	478.300000
806.536743	472.200000
806.572327	486.900000
806.607910	479.100000
806.643494	478.400000
806.679077	472.400000
806.714661	478.600000
806.750244	475.800000
806.785828	469.600000
806.821350	468.200000
806.856934	474.300000
806.892517	466.500000
806.928101	462.400000
806.963684	460.100000
806.999268	474.200000
807.034790	453.100000
807.070374	460.900000
807.105896	453.800000
807.141479	451.500000
807.177063	460.200000
807.212585	450.400000
807.248169	447.500000
807.283752	457.000000
807.319275	444.900000
807.354858	450.200000
807.390381	445.500000
807.425903	446.200000
807.461487	442.700000
807.497070	435.100000
807.532593	436.800000
807.568115	434.600000
807.603699	434.800000
807.639221	427.100000
807.674744	431.900000
807.710266	435.800000
807.745850	439.900000
807.781372	431.600000
807.816895	426.000000
807.852417	430.400000
807.888000	427.300000
807.923523	422.300000
807.959045	427.700000
807.994629	415.600000
808.030090	415.400000
808.065613	422.300000
808.101135	422.300000
808.136658	419.100000
808.172241	414.600000
808.207764	414.500000
808.243225	410.200000
808.278809	407.300000
808.314270	417.400000
808.349792	400.900000
808.385315	401.500000
808.420837	404.100000
808.456360	412.600000
808.491882	407.200000
808.527344	405.600000
808.562866	411.400000
808.598389	405.300000
808.633850	399.300000
808.669434	397.400000
808.704895	404.200000
808.740417	410.500000
808.775940	399.900000
808.811462	397.000000
808.846924	389.500000
808.882385	383.500000
808.917847	382.800000
808.953369	386.800000
808.988892	379.600000
809.024353	388.100000
809.059875	387.400000
809.095398	385.900000
809.130798	376.300000
809.166321	378.100000
809.201843	375.400000
809.237305	379.600000
809.272766	384.000000
809.308228	370.800000
809.343750	372.300000
809.379211	372.500000
809.414734	374.800000
809.450134	379.600000
809.485657	363.000000
809.521118	368.700000
809.556580	368.300000
809.592102	364.700000
809.627502	363.100000
809.663025	360.700000
809.698486	357.000000
809.733887	352.400000
809.769409	357.000000
809.804871	349.000000
809.840271	354.300000
809.875793	356.200000
809.911194	355.500000
809.946655	347.500000
809.982178	346.900000
810.017639	351.200000
810.053040	346.100000
810.088501	344.500000
810.123901	345.600000
810.159424	342.600000
810.194885	337.800000
810.230286	341.600000
810.265747	336.200000
810.301208	334.100000
810.336609	338.000000
810.372070	329.700000
810.407532	333.000000
810.442932	333.000000
810.478394	340.900000
810.513794	334.200000
810.549255	332.000000
810.584717	329.300000
810.620117	325.100000
810.655518	332.800000
810.690979	330.400000
810.726379	328.100000
810.761841	316.700000
810.797302	319.800000
810.832642	321.200000
810.868103	331.100000
810.903564	317.800000
810.938904	326.700000
810.974365	314.300000
811.009827	318.400000
811.045166	312.400000
811.080627	306.800000
811.115967	314.900000
811.151428	321.600000
811.186829	313.900000
811.222229	313.900000
811.257629	308.000000
811.293091	313.500000
811.328430	321.100000
811.363892	315.200000
811.399292	315.300000
811.434631	309.400000
811.470093	314.900000
811.505493	305.900000
811.540833	307.500000
811.576294	313.800000
811.611694	308.600000
811.647034	304.400000
811.682434	304.900000
811.717773	306.500000
811.753235	312.300000
811.788635	305.600000
811.823975	303.800000
811.859375	314.600000
811.894775	298.000000
811.930115	301.200000
811.965515	300.000000
812.000916	304.600000
812.036255	299.400000
812.071655	304.300000
812.106995	295.200000
812.142395	297.100000
812.177795	302.100000
812.213196	301.100000
812.248474	299.300000
812.283875	292.100000
812.319214	295.300000
812.354614	296.600000
812.390015	294.000000
812.425293	293.100000
812.460693	293.100000
812.496094	290.200000
812.531433	284.400000
812.566772	286.600000
812.602173	288.000000
812.637451	291.700000
812.672852	284.400000
812.708191	289.400000
812.743530	286.200000
812.778931	278.500000
812.814270	281.400000
812.849609	290.100000
812.884949	281.900000
812.920227	276.300000
812.955627	292.400000
812.990967	282.900000
813.026306	279.200000
813.061646	269.500000
813.096985	268.100000
813.132324	264.400000
813.167664	270.900000
813.203003	276.900000
813.238281	262.900000
813.273682	262.800000
813.308960	260.000000
813.344299	262.800000
813.379639	273.000000
813.414978	263.500000
813.450256	263.000000
813.485596	266.700000
813.520874	259.900000
813.556213	264.200000
813.591614	268.400000
813.626831	259.200000
813.662170	265.700000
813.697510	272.200000
813.732788	257.000000
813.768127	261.200000
813.803467	264.400000
813.838745	258.300000
813.874084	262.500000
813.909363	260.000000
813.944641	263.400000
813.979980	251.600000
814.015320	257.900000
814.050598	252.100000
814.085876	260.000000
814.121155	255.400000
814.156494	254.200000
814.191772	255.500000
814.227051	251.600000
814.262390	254.200000
814.297668	254.000000
814.332947	253.900000
814.368225	247.000000
814.403564	250.400000
814.438782	248.700000
814.474121	250.800000
814.509338	247.700000
814.544617	257.200000
814.579956	245.700000
814.615173	256.500000
814.650513	251.500000
814.685791	245.300000
814.721008	247.600000
814.756348	248.000000
814.791626	243.500000
814.826843	246.300000
814.862122	244.500000
814.897400	241.300000
814.932678	244.600000
814.967957	245.100000
815.003235	243.100000
815.038452	238.900000
815.073730	235.000000
815.108948	247.300000
815.144226	244.500000
815.179504	248.000000
815.214722	232.900000
815.250000	233.900000
815.285278	239.400000
815.320496	234.600000
815.355774	237.300000
815.391052	240.400000
815.426270	233.400000
815.461487	235.000000
815.496765	229.100000
815.531982	226.500000
815.567261	231.600000
815.602539	242.100000
815.637695	235.700000
815.672974	237.600000
815.708191	236.500000
815.743408	238.000000
815.778687	230.400000
815.813904	240.400000
815.849121	222.000000
815.884399	227.000000
815.919556	224.200000
815.954834	226.300000
815.990051	229.900000
816.025269	235.000000
816.060486	224.200000
816.095703	225.600000
816.130920	229.500000
816.166199	224.000000
816.201416	229.300000
816.236572	235.500000
816.271851	224.400000
816.307007	231.700000
816.342224	221.300000
816.377441	224.200000
816.412659	216.900000
816.447876	228.400000
816.483093	225.300000
816.518250	224.800000
816.553467	221.700000
816.588745	226.000000
816.623901	220.200000
816.659119	214.300000
816.694275	219.600000
816.729492	215.300000
816.764709	252.300000
816.799927	212.900000
816.835083	219.900000
816.870300	213.200000
816.905457	216.900000
816.940674	221.000000
816.975830	214.400000
817.010986	212.400000
817.046204	213.500000
817.081421	211.400000
817.116577	211.900000
817.151733	219.800000
817.186951	220.400000
817.222107	214.900000
817.257324	219.900000
817.292419	216.400000
817.327637	208.200000
817.362854	214.900000
817.398010	209.300000
817.433167	209.600000
817.468323	209.100000
817.503479	209.100000
817.538635	220.800000
817.573853	214.700000
817.608948	213.100000
817.644165	207.100000
817.679321	207.900000
817.714478	208.200000
817.749634	212.100000
817.784790	223.100000
817.819946	218.900000
817.855103	201.100000
817.890198	210.800000
817.925415	200.900000
817.960571	210.900000
817.995667	208.900000
818.030823	211.600000
818.066040	204.200000
818.101135	210.000000
818.136292	208.200000
818.171448	202.200000
818.206543	207.000000
818.241699	209.700000
818.276855	207.200000
818.311951	207.100000
818.347107	201.900000
818.382263	209.000000
818.417358	213.400000
818.452515	214.400000
818.487610	214.700000
818.522766	202.100000
818.557922	214.500000
818.593018	209.200000
818.628113	206.900000
818.663269	201.400000
818.698364	206.600000
818.733521	202.300000
818.768677	208.600000
818.803711	198.100000
818.838867	201.700000
818.874023	203.600000
818.909058	200.500000
818.944214	199.600000
818.979370	206.800000
819.014404	203.100000
819.049561	201.200000
819.084595	205.100000
819.119751	197.200000
819.154846	206.400000
819.189941	201.300000
819.225037	195.300000
819.260193	192.400000
819.295227	195.500000
819.330322	192.200000
819.365479	191.200000
819.400513	225.300000
819.435608	189.900000
819.470764	189.600000
819.505798	192.800000
819.540894	196.600000
819.575989	195.200000
819.611084	203.900000
819.646179	203.100000
819.681213	199.900000
819.716309	197.700000
819.751404	196.800000
819.786438	202.000000
819.821533	192.500000
819.856628	197.600000
819.891663	201.500000
819.926758	207.900000
819.961853	205.000000
819.996887	194.300000
820.031982	200.000000
820.067017	196.200000
820.102112	224.200000
820.137207	195.800000
820.172302	212.600000
820.207275	192.900000
820.242371	192.600000
820.277405	193.200000
820.312500	196.200000
820.347534	198.900000
820.382568	200.100000
820.417664	193.700000
820.452759	193.800000
820.487732	193.600000
820.522827	193.600000
820.557861	190.600000
820.592896	193.400000
820.627930	194.200000
820.662964	190.200000
820.698059	197.500000
820.733093	192.500000
820.768127	198.200000
820.803162	193.400000
820.838196	191.600000
820.873230	196.000000
820.908264	195.200000
820.943298	191.000000
820.978333	200.100000
821.013367	195.400000
821.048401	199.900000
821.083435	200.700000
821.118469	187.100000
821.153503	199.800000
821.188477	196.100000
821.223511	187.900000
821.258484	194.900000
821.293579	195.900000
821.328613	187.900000
821.363647	192.500000
821.398621	187.500000
821.433655	191.200000
821.468628	207.700000
821.503662	194.100000
821.538696	196.900000
821.573669	189.600000
821.608704	196.400000
821.643677	191.600000
821.678650	197.600000
821.713684	202.500000
821.748718	191.300000
821.783691	193.100000
821.818726	193.500000
821.853638	195.700000
821.888672	192.100000
821.923706	193.700000
821.958618	189.800000
821.993652	191.600000
822.028687	197.900000
822.063599	200.400000
822.098633	194.300000
822.133667	191.200000
822.168579	192.200000
822.203613	195.200000
822.238586	188.800000
822.273560	195.400000
822.308533	188.800000
822.343567	191.500000
822.378479	191.300000
822.413452	191.000000
822.448425	188.600000
822.483398	199.400000
822.518372	198.800000
822.553345	190.800000
822.588318	200.700000
822.623291	192.700000
822.658203	191.000000
822.693237	192.900000
822.728210	189.600000
822.763123	194.900000
822.798096	188.100000
822.833069	193.600000
822.867981	193.500000
822.902954	194.100000
822.937927	196.700000
822.972900	203.300000
823.007874	185.600000
823.042725	196.400000
823.077698	205.900000
823.112671	189.500000
823.147583	193.100000
823.182556	195.500000
823.217529	196.800000
823.252441	191.700000
823.287415	207.600000
823.322388	195.200000
823.357239	194.700000
823.392212	202.200000
823.427185	196.700000
823.462097	188.400000
823.497009	197.500000
823.531982	190.500000
823.566895	193.100000
823.601807	187.600000
823.636719	191.500000
823.671631	195.600000
823.706604	190.200000
823.741455	195.200000
823.776428	186.900000
823.811340	195.600000
823.846252	200.000000
823.881165	201.100000
823.916138	195.200000
823.950989	200.800000
823.985901	191.400000
824.020813	193.100000
824.055725	192.200000
824.090637	189.900000
824.125610	195.800000
824.160461	194.000000
824.195374	195.500000
824.230225	198.500000
824.265198	184.400000
824.300110	189.600000
824.334961	203.900000
824.369873	182.100000
824.404785	196.600000
824.439636	201.000000
824.474548	184.000000
824.509460	183.300000
824.544312	199.900000
824.579224	195.000000
824.614075	195.300000
824.648987	193.100000
824.683899	192.300000
824.718811	189.700000
824.753662	200.100000
824.788574	198.600000
824.823364	195.200000
824.858276	189.700000
824.893188	199.900000
824.928040	199.900000
824.962952	196.000000
824.997803	198.200000
825.032654	193.200000
825.067566	197.500000
825.102417	192.100000
825.137268	192.200000
825.172119	193.700000
825.206970	191.500000
825.241882	190.900000
825.276733	190.800000
825.311646	190.000000
825.346436	186.400000
825.381348	187.700000
825.416138	192.300000
825.450989	187.500000
825.485901	183.600000
825.520691	184.500000
825.555542	186.900000
825.590454	191.700000
825.625244	185.400000
825.660095	198.900000
825.695007	196.700000
825.729797	191.000000
825.764648	190.500000
825.799438	191.300000
825.834290	192.900000
825.869202	184.800000
825.903992	194.400000
825.938843	187.200000
825.973694	188.000000
826.008484	204.500000
826.043335	188.100000
826.078186	182.500000
826.112976	199.700000
826.147827	197.600000
826.182678	201.900000
826.217468	185.200000
826.252319	197.800000
826.287109	189.100000
826.321899	200.400000
826.356750	190.500000
826.391541	186.800000
826.426392	197.300000
826.461182	194.000000
826.495972	186.200000
826.530823	182.600000
826.565613	192.600000
826.600403	187.100000
826.635254	194.000000
826.670044	182.600000
826.704834	184.500000
826.739685	185.800000
826.774475	194.300000
826.809265	191.200000
826.844055	189.100000
826.878906	196.900000
826.913635	195.000000
826.948425	193.700000
826.983215	194.600000
827.018005	195.200000
827.052856	189.100000
827.087585	195.500000
827.122375	184.400000
827.157227	191.900000
827.191956	204.600000
827.226746	187.300000
827.261536	195.900000
827.296265	184.600000
827.331116	190.000000
827.365906	194.800000
827.400635	189.600000
827.435425	182.800000
827.470215	199.200000
827.504944	188.500000
827.539734	196.800000
827.574463	191.500000
827.609253	199.700000
827.644043	191.500000
827.678772	199.000000
827.713562	188.900000
827.748352	190.400000
827.783081	187.900000
827.817871	192.800000
827.852600	188.600000
827.887329	193.700000
827.922119	182.400000
827.956848	195.300000
827.991638	205.800000
828.026367	193.800000
828.061157	192.900000
828.095886	192.900000
828.130615	207.100000
828.165344	183.100000
828.200073	191.900000
828.234863	190.100000
828.269592	192.500000
828.304321	197.700000
828.339111	194.100000
828.373779	188.700000
828.408569	197.700000
828.443298	197.100000
828.477966	189.700000
828.512756	192.500000
828.547424	185.400000
828.582214	188.700000
828.616943	190.900000
828.651672	189.500000
828.686340	196.400000
828.721130	187.700000
828.755798	190.900000
828.790527	191.100000
828.825256	192.300000
828.859924	190.200000
828.894714	198.700000
828.929443	198.300000
828.964111	187.900000
828.998840	194.400000
829.033569	188.700000
829.068237	188.900000
829.102966	189.900000
829.137634	194.100000
829.172363	192.900000
829.207092	192.400000
829.241821	188.900000
829.276489	182.300000
829.311157	192.800000
829.345825	190.800000
829.380554	196.800000
829.415283	187.500000
829.449951	186.600000
829.484619	200.600000
829.519348	200.100000
829.554016	191.400000
829.588745	190.600000
829.623413	185.000000
829.658081	202.000000
829.692749	185.300000
829.727417	197.000000
829.762146	194.300000
829.796814	188.200000
829.831482	191.400000
829.866150	193.100000
829.900879	190.000000
829.935486	194.100000
829.970154	190.800000
830.004883	203.100000
830.039490	192.300000
830.074219	188.400000
830.108887	192.600000
830.143494	190.400000
830.178223	186.200000
830.212891	189.400000
830.247498	192.700000
830.282166	199.100000
830.316772	197.600000
830.351501	188.200000
830.386169	192.000000
830.420776	190.400000
830.455444	193.600000
830.490112	188.400000
830.524719	182.800000
830.559387	192.800000
830.594055	193.400000
830.628662	189.800000
830.663330	191.600000
830.697998	199.400000
830.732605	191.100000
830.767273	194.300000
830.801941	192.600000
830.836487	200.500000
830.871155	193.000000
830.905762	193.000000
830.940430	184.300000
830.975098	189.300000
831.009644	192.400000
831.044312	199.600000
831.078979	194.900000
831.113525	183.800000
831.148193	191.800000
831.182861	191.000000
831.217407	195.700000
831.252075	209.600000
831.286621	189.600000
831.321289	188.200000
831.355896	191.600000
831.390564	200.300000
831.425110	192.900000
831.459778	198.300000
831.494324	205.000000
831.528931	194.900000
831.563599	196.900000
831.598145	185.600000
831.632751	191.900000
831.667419	191.200000
831.701965	193.300000
831.736572	197.000000
831.771179	184.300000
831.805786	188.900000
831.840393	196.600000
831.874939	185.700000
831.909546	195.800000
831.944153	183.900000
831.978760	190.000000
832.013306	186.700000
832.047913	198.000000
832.082458	200.300000
832.117065	186.700000
832.151672	201.200000
832.186218	192.100000
832.220825	194.700000
832.255432	181.900000
832.289978	187.900000
832.324585	192.700000
832.359192	195.200000
832.393677	189.300000
832.428284	193.100000
832.462830	189.900000
832.497437	192.200000
832.531982	195.500000
832.566589	191.200000
832.601135	191.400000
832.635681	183.400000
832.670227	192.300000
832.704773	199.800000
832.739380	194.100000
832.773926	193.000000
832.808472	187.400000
832.843079	191.300000
832.877563	195.300000
832.912170	188.800000
832.946716	184.600000
832.981201	198.000000
833.015808	195.500000
833.050293	191.700000
833.084839	188.300000
833.119446	190.800000
833.153992	195.200000
833.188477	191.000000
833.223022	188.600000
833.257568	193.400000
833.292114	198.500000
833.326660	202.700000
833.361145	188.000000
833.395691	183.900000
833.430237	192.300000
833.464783	195.100000
833.499329	187.500000
833.533875	185.400000
833.568359	193.600000
833.602905	198.200000
833.637390	197.500000
833.671875	187.500000
833.706421	191.900000
833.740906	187.600000
833.775452	181.800000
833.809998	188.600000
833.844482	199.300000
833.879028	189.100000
833.913513	189.800000
833.947998	193.400000
833.982544	187.700000
834.017090	188.300000
834.051514	181.000000
834.086060	193.400000
834.120544	191.600000
834.155029	192.700000
834.189575	190.700000
834.223999	193.800000
834.258545	192.400000
834.293030	191.300000
834.327515	192.300000
834.362000	187.400000
834.396545	196.600000
834.430969	191.600000
834.465454	195.300000
834.500000	183.200000
834.534424	193.900000
834.568970	182.300000
834.603455	183.400000
834.637878	188.400000
834.672363	192.900000
834.706909	193.300000
834.741333	193.100000
834.775818	184.100000
834.810242	187.700000
834.844727	193.800000
834.879211	189.700000
834.913635	192.800000
834.948181	194.300000
834.982666	192.900000
835.017090	189.600000
835.051575	194.900000
835.086060	188.600000
835.120483	195.800000
835.154907	195.900000
835.189331	190.200000
835.223816	193.700000
835.258301	186.900000
835.292786	186.700000
835.327209	196.500000
835.361694	186.700000
835.396057	188.800000
835.430542	193.100000
835.465027	192.300000
835.499390	183.600000
835.533875	210.900000
835.568359	188.000000
835.602722	184.200000
835.637207	192.000000
835.671692	185.900000
835.706055	207.800000
835.740540	194.500000
835.774902	193.800000
835.809387	192.600000
835.843811	184.600000
835.878235	199.400000
835.912659	186.000000
835.947083	188.300000
835.981506	192.700000
836.015930	184.300000
836.050354	196.800000
836.084778	201.300000
836.119202	196.900000
836.153625	203.800000
836.187988	188.700000
836.222473	187.600000
836.256897	193.500000
836.291260	192.400000
836.325684	193.400000
836.360046	188.900000
836.394470	191.700000
836.428894	199.600000
836.463318	188.800000
836.497681	195.500000
836.532104	199.800000
836.566467	193.200000
836.600891	190.500000
836.635315	197.400000
836.669678	195.200000
836.704102	194.900000
836.738525	192.900000
836.772888	183.000000
836.807251	189.400000
836.841675	193.900000
836.876038	187.800000
836.910461	187.000000
836.944763	196.200000
836.979187	185.700000
837.013611	197.000000
837.047974	183.800000
837.082336	202.800000
837.116699	194.000000
837.151062	192.600000
837.185486	184.100000
837.219849	188.900000
837.254211	194.700000
837.288574	191.800000
837.322937	185.800000
837.357300	179.200000
837.391663	203.700000
837.426086	197.800000
837.460388	191.000000
837.494751	198.300000
837.529114	189.400000
837.563477	196.400000
837.597839	193.400000
837.632141	191.300000
837.666565	188.800000
837.700928	195.000000
837.735229	195.600000
837.769592	193.300000
837.803955	196.600000
837.838257	191.600000
837.872620	188.200000
837.906982	199.900000
837.941284	194.000000
837.975647	190.600000
838.010010	198.600000
838.044312	188.300000
838.078674	189.500000
838.112976	192.500000
838.147339	197.400000
838.181702	191.500000
838.216003	203.100000
838.250366	192.500000
838.284668	194.300000
838.318970	184.600000
838.353333	191.900000
838.387634	190.600000
838.421936	192.800000
838.456299	191.600000
838.490601	199.400000
838.524902	194.800000
838.559265	196.700000
838.593567	194.800000
838.627869	186.900000
838.662170	194.300000
838.696472	185.400000
838.730774	187.100000
838.765137	195.600000
838.799377	176.300000
838.833740	192.900000
838.868042	196.800000
838.902283	182.800000
838.936646	196.300000
838.970947	194.200000
839.005188	195.600000
839.039551	184.700000
839.073792	198.200000
839.108093	189.500000
839.142395	201.700000
839.176697	186.700000
839.210937	191.700000
839.245300	204.800000
839.279541	185.900000
839.313843	190.600000
839.348145	194.000000
839.382385	197.500000
839.416687	198.000000
839.450989	197.300000
839.485229	191.900000
839.519531	188.800000
839.553833	198.300000
839.588013	192.700000
839.622314	193.300000
839.656555	195.200000
839.690857	192.900000
839.725159	186.700000
839.759460	192.500000
839.793640	190.300000
839.827942	190.900000
839.862183	186.200000
839.896423	194.700000
839.930725	202.000000
839.964966	200.100000
839.999207	200.000000
840.033508	199.600000
840.067688	188.300000
840.101990	200.800000
840.136230	190.800000
840.170471	201.000000
840.204712	188.000000
840.238953	188.300000
840.273193	192.300000
840.307434	195.200000
840.341736	186.800000
840.375916	185.800000
840.410217	188.400000
840.444397	197.300000
840.478638	195.000000
840.512878	199.900000
840.547119	192.300000
840.581360	195.300000
840.615601	200.900000
840.649780	201.700000
840.684021	191.000000
840.718262	201.100000
840.752441	196.500000
840.786682	193.200000
840.820862	193.800000
840.855103	200.300000
840.889343	192.500000
840.923584	198.600000
840.957764	194.100000
840.992004	195.100000
841.026184	206.600000
841.060425	190.000000
841.094666	188.500000
841.128845	195.600000
841.163025	194.300000
841.197266	193.900000
841.231445	193.800000
841.265686	193.200000
841.299866	187.500000
841.334045	200.900000
841.368286	194.000000
841.402405	200.600000
841.436646	197.300000
841.470825	190.100000
841.505005	192.500000
841.539185	188.000000
841.573425	189.900000
841.607544	191.400000
841.641785	193.800000
841.675964	187.300000
841.710144	194.900000
841.744324	189.500000
841.778503	191.600000
841.812683	187.700000
841.846863	202.300000
841.881042	198.900000
841.915222	189.900000
841.949402	206.400000
841.983521	184.000000
842.017700	190.000000
842.051880	194.200000
842.086060	192.600000
842.120239	193.200000
842.154419	190.300000
842.188538	192.700000
842.222717	189.100000
842.256897	203.600000
842.291016	190.500000
842.325195	194.900000
842.359375	204.400000
842.393494	201.700000
842.427673	193.500000
842.461853	196.000000
842.495911	200.300000
842.530090	195.100000
842.564209	193.000000
842.598389	194.600000
842.632568	193.300000
842.666626	197.000000
842.700806	188.900000
842.734985	190.800000
842.769043	195.600000
842.803223	191.100000
842.837402	192.800000
842.871460	189.500000
842.905640	202.200000
842.939697	188.600000
842.973877	195.000000
843.007996	198.900000
843.042175	200.700000
843.076233	188.800000
843.110413	194.600000
843.144470	202.200000
843.178589	195.800000
843.212769	189.600000
843.246826	197.700000
843.280945	189.400000
843.315125	189.800000
843.349182	188.000000
843.383301	200.100000
843.417419	204.200000
843.451538	193.800000
843.485657	191.400000
843.519714	191.600000
843.553833	194.100000
843.587952	191.500000
843.622070	188.500000
843.656128	197.000000
843.690247	190.800000
843.724304	190.800000
843.758423	193.300000
843.792542	192.800000
843.826599	191.400000
843.860718	191.400000
843.894836	185.200000
843.928894	192.500000
843.963013	194.900000
843.997070	190.100000
844.031128	186.200000
844.065247	198.600000
844.099304	197.900000
844.133362	194.400000
844.167480	195.500000
844.201599	200.900000
844.235596	195.000000
844.269714	195.200000
844.303711	196.400000
844.337830	186.100000
844.371948	197.100000
844.405945	192.700000
844.440063	188.400000
844.474121	208.100000
844.508118	192.200000
844.542236	191.800000
844.576294	193.300000
844.610352	186.900000
844.644409	193.000000
844.678406	184.600000
844.712524	198.300000
844.746582	198.700000
844.780640	192.300000
844.814636	192.500000
844.848755	203.100000
844.882751	189.800000
844.916809	197.500000
844.950867	194.400000
844.984863	201.500000
845.018921	190.600000
845.052979	190.500000
845.086975	192.700000
845.121033	187.100000
845.155090	187.800000
845.189087	199.700000
845.223145	188.500000
845.257141	192.500000
845.291199	195.100000
845.325256	201.100000
845.359253	191.700000
845.393250	203.400000
845.427307	191.700000
845.461304	194.500000
845.495361	193.000000
845.529358	204.100000
845.563354	189.800000
845.597412	188.200000
845.631409	200.800000
845.665405	200.500000
845.699463	198.100000
845.733459	192.200000
845.767456	198.300000
845.801453	192.900000
845.835449	199.400000
845.869446	196.800000
845.903503	197.500000
845.937439	190.400000
845.971497	201.900000
846.005493	187.200000
846.039429	196.600000
846.073486	202.100000
846.107483	191.700000
846.141418	192.800000
846.175476	193.200000
846.209473	199.000000
846.243408	190.200000
846.277405	193.300000
846.311401	188.500000
846.345337	193.300000
846.379395	199.300000
846.413330	189.900000
846.447327	202.000000
846.481323	187.400000
846.515259	191.400000
846.549255	193.700000
846.583252	196.800000
846.617187	186.200000
846.651184	196.100000
846.685120	191.100000
846.719055	201.200000
846.753052	196.900000
846.786987	198.300000
846.820984	185.700000
846.854980	201.000000
846.888916	186.600000
846.922852	196.700000
846.956848	202.000000
846.990723	187.700000
847.024719	193.600000
847.058716	192.600000
847.092590	199.300000
847.126587	196.200000
847.160522	191.500000
847.194458	198.200000
847.228455	188.600000
847.262390	188.900000
847.296265	190.600000
847.330261	199.500000
847.364136	191.900000
847.398132	189.900000
847.432068	194.100000
847.466003	192.900000
847.499939	192.100000
847.533875	197.000000
847.567749	191.700000
847.601746	191.000000
847.635681	196.100000
847.669556	183.600000
847.703491	200.000000
847.737427	208.800000
847.771301	188.100000
847.805237	195.200000
847.839233	195.700000
847.873108	192.300000
847.907043	192.900000
847.940918	199.500000
847.974854	195.900000
848.008789	197.300000
848.042664	193.600000
848.076538	196.400000
848.110474	193.300000
848.144348	194.800000
848.178284	186.300000
848.212219	193.100000
848.246094	191.100000
848.279968	195.500000
848.313904	198.100000
848.347778	193.900000
848.381653	192.000000
848.415588	188.600000
848.449463	191.300000
848.483337	194.900000
848.517212	199.600000
848.551086	191.900000
848.585022	190.300000
848.618835	200.300000
848.652771	192.000000
848.686646	189.700000
848.720520	202.300000
848.754395	191.100000
848.788330	199.400000
848.822144	197.200000
848.856018	193.000000
848.889954	203.500000
848.923767	188.300000
848.957642	189.400000
848.991577	198.000000
849.025391	189.700000
849.059265	193.400000
849.093079	191.300000
849.126953	188.700000
849.160828	200.700000
849.194641	194.800000
849.228577	190.400000
849.262451	191.600000
849.296265	192.700000
849.330139	188.800000
849.364014	196.000000
849.397827	197.700000
849.431702	194.100000
849.465515	198.600000
849.499329	184.700000
849.533203	188.800000
849.567078	184.400000
849.600891	195.000000
849.634766	192.700000
849.668518	198.700000
849.702393	193.300000
849.736267	185.700000
849.770020	205.700000
849.803894	195.500000
849.837769	193.500000
849.871521	192.700000
849.905396	199.900000
849.939270	188.700000
849.973022	191.700000
850.006897	196.400000
850.040710	195.600000
850.074524	196.400000
850.108337	193.100000
850.142151	196.500000
850.175964	199.700000
850.209778	192.900000
850.243530	180.900000
850.277405	197.800000
850.311218	194.700000
850.344971	188.600000
850.378845	202.100000
850.412659	189.900000
850.446411	195.000000
850.480225	192.000000
850.514038	199.800000
850.547791	195.100000
850.581665	194.200000
850.615417	190.400000
850.649231	194.400000
850.683044	193.100000
850.716858	191.500000
850.750610	195.100000
850.784424	199.000000
850.818176	191.900000
850.851929	191.700000
850.885742	190.900000
850.919495	193.800000
850.953308	199.800000
850.987122	201.800000
851.020874	189.500000
851.054626	185.900000
851.088440	197.900000
851.122192	197.300000
851.156006	195.600000
851.189697	191.400000
851.223511	188.800000
851.257263	197.600000
851.291077	196.800000
851.324829	191.300000
851.358582	191.300000
851.392334	191.400000
851.426086	193.900000
851.459900	200.800000
851.493591	194.300000
851.527344	193.300000
851.561157	191.700000
851.594849	194.500000
851.628662	195.600000
851.662415	199.400000
851.696106	196.500000
851.729858	196.600000
851.763611	188.900000
851.797363	193.600000
851.831116	189.000000
851.864868	196.000000
851.898560	197.900000
851.932312	191.100000
851.966064	196.900000
851.999817	192.300000
852.033569	194.400000
852.067261	197.600000
852.101013	190.900000
852.134766	193.400000
852.168457	184.100000
852.202209	198.200000
852.235901	189.000000
852.269592	197.500000
852.303345	203.200000
852.337036	198.300000
852.370789	194.100000
852.404541	198.300000
852.438171	189.800000
852.471924	193.100000
852.505676	188.200000
852.539307	196.100000
852.573059	189.800000
852.606812	193.700000
852.640442	191.500000
852.674194	201.200000
852.707886	205.000000
852.741577	201.200000
852.775269	188.500000
852.809021	195.300000
852.842651	196.200000
852.876404	199.700000
852.910034	193.900000
852.943787	200.000000
852.977478	194.600000
853.011108	190.300000
853.044861	188.600000
853.078552	201.300000
853.112183	194.400000
853.145874	195.900000
853.179626	182.400000
853.213257	195.900000
853.246948	189.800000
853.280640	202.500000
853.314270	192.300000
853.347961	201.000000
853.381653	195.100000
853.415283	197.500000
853.448975	189.900000
853.482605	195.600000
853.516296	192.400000
853.549988	188.500000
853.583618	194.900000
853.617310	195.300000
853.651001	196.000000
853.684631	188.400000
853.718323	190.800000
853.751953	202.400000
853.785583	183.100000
853.819275	199.000000
853.852966	195.000000
853.886536	184.900000
853.920227	187.600000
853.953918	200.400000
853.987488	191.600000
854.021179	198.200000
854.054749	203.200000
854.088440	196.200000
854.122131	190.000000
854.155701	196.800000
854.189331	189.800000
854.223022	196.000000
854.256592	196.300000
854.290283	190.300000
854.323914	196.900000
854.357483	194.700000
854.391174	195.700000
854.424744	203.300000
854.458374	195.800000
854.492065	204.700000
854.525696	194.800000
854.559265	199.400000
854.592896	205.600000
854.626465	194.300000
854.660095	194.300000
854.693787	195.500000
854.727356	192.900000
854.760986	197.100000
854.794617	195.800000
854.828186	191.300000
854.861816	197.700000
854.895447	194.300000
854.929016	195.500000
854.962585	196.200000
854.996155	200.400000
855.029785	196.600000
855.063416	197.600000
855.097046	196.800000
855.130615	188.200000
855.164185	200.700000
855.197754	194.500000
855.231384	196.700000
855.264954	192.700000
855.298523	197.000000
855.332153	195.700000
855.365723	203.900000
855.399292	190.200000
855.432922	193.100000
855.466492	197.000000
855.500061	188.900000
855.533630	191.200000
855.567200	198.500000
855.600769	199.500000
855.634338	200.500000
855.667969	195.700000
855.701477	189.800000
855.735046	189.200000
855.768616	186.000000
855.802185	195.400000
855.835754	209.600000
855.869324	186.100000
855.902893	193.300000
855.936401	201.400000
855.969971	196.800000
856.003540	187.200000
856.037109	198.000000
856.070618	193.500000
856.104187	189.100000
856.137695	191.100000
856.171265	183.600000
856.204834	193.600000
856.238403	198.100000
856.271912	192.200000
856.305481	196.400000
856.338989	185.500000
856.372559	196.300000
856.406128	194.400000
856.439636	199.700000
856.473145	189.300000
856.506653	201.600000
856.540222	192.900000
856.573792	202.300000
856.607300	196.100000
856.640808	188.100000
856.674377	194.800000
856.707825	223.200000
856.741394	197.300000
856.774902	190.700000
856.808472	184.200000
856.841980	197.600000
856.875488	202.500000
856.908936	186.600000
856.942505	190.500000
856.976013	194.600000
857.009521	189.000000
857.043030	194.200000
857.076477	194.600000
857.110046	199.600000
857.143555	196.200000
857.177063	199.700000
857.210571	191.800000
857.244080	188.300000
857.277527	197.300000
857.311035	193.000000
857.344543	198.000000
857.378052	192.900000
857.411499	200.200000
857.445068	202.600000
857.478516	193.900000
857.512024	188.900000
857.545532	192.800000
857.578979	194.600000
857.612427	192.900000
857.645874	189.300000
857.679382	194.700000
857.712891	198.300000
857.746399	193.000000
857.779846	198.900000
857.813354	200.300000
857.846741	192.600000
857.880249	189.600000
857.913757	194.100000
857.947266	196.500000
857.980652	196.400000
858.014160	191.200000
858.047546	191.300000
858.081055	192.400000
858.114563	200.100000
858.147949	189.200000
858.181458	196.800000
858.214844	192.800000
858.248352	184.200000
858.281799	199.800000
858.315308	207.500000
858.348694	198.000000
858.382141	202.700000
858.415588	196.400000
858.449036	199.300000
858.482483	197.400000
858.515930	190.700000
858.549377	194.600000
858.582825	202.200000
858.616211	197.400000
858.649658	196.600000
858.683105	189.400000
858.716553	191.300000
858.750000	189.400000
858.783386	192.200000
858.816833	186.100000
858.850281	196.900000
858.883728	197.300000
858.917114	193.200000
858.950562	202.900000
858.983948	203.600000
859.017395	198.900000
859.050781	193.100000
859.084167	189.400000
859.117615	188.200000
859.151062	195.500000
859.184448	190.400000
859.217834	192.500000
859.251282	192.400000
859.284668	187.900000
859.318054	183.900000
859.351440	191.500000
859.384888	202.300000
859.418274	185.700000
859.451721	185.300000
859.485046	194.700000
859.518494	194.500000
859.551819	189.200000
859.585266	197.200000
859.618652	195.700000
859.652039	187.500000
859.685425	187.600000
859.718811	187.300000
859.752197	182.300000
859.785583	201.800000
859.819031	200.400000
859.852356	196.900000
859.885742	190.000000
859.919067	192.200000
859.952454	192.100000
859.985901	198.500000
860.019287	191.800000
860.052612	0.000000
860.085999	0.000000
860.119324	0.000000
860.152710	0.000000
860.186096	0.000000
860.219421	0.000000
860.252808	0.000000
860.286133	0.000000
860.319519	0.000000
860.352905	0.000000
860.386292	0.000000
860.419617	0.000000
860.452942	0.000000
860.486267	0.000000
860.519653	0.000000
860.553040	0.000000
860.586365	0.000000
860.619690	0.000000
860.653076	0.000000
860.686340	0.000000
860.719727	0.000000
860.753113	0.000000
860.786377	0.000000
860.819763	0.000000
860.853027	0.000000
860.886414	0.000000
860.919739	0.000000
860.953125	0.000000
860.986389	0.000000
861.019714	0.000000
861.053040	0.000000
861.086365	0.000000
861.119690	0.000000
861.153076	0.000000
861.186340	0.000000
861.219666	0.000000
861.252930	0.000000
861.286316	0.000000
861.319641	0.000000
861.352905	0.000000
861.386230	0.000000
861.419495	0.000000
861.452820	0.000000
861.486145	0.000000
861.519470	0.000000
861.552734	0.000000
861.586060	0.000000
861.619324	0.000000
861.652649	0.000000
861.685974	0.000000
861.719238	0.000000
861.752563	0.000000
861.785828	0.000000
861.819092	0.000000
861.852417	0.000000
861.885742	0.000000
861.918945	0.000000
861.952271	0.000000
861.985535	0.000000
862.018799	0.000000
862.052124	0.000000
862.085449	0.000000
862.118652	0.000000
862.151978	0.000000
862.185181	0.000000
862.218506	0.000000
862.251770	0.000000
862.285034	0.000000
862.318298	0.000000
862.351562	0.000000
862.384827	0.000000
862.418091	0.000000
862.451355	0.000000
862.484619	0.000000
862.517883	0.000000
862.551086	0.000000
862.584351	0.000000
862.617676	0.000000
862.650940	0.000000
862.684143	0.000000
862.717407	0.000000
862.750610	0.000000
862.783875	0.000000
862.817139	0.000000
862.850342	0.000000
862.883606	0.000000
862.916870	0.000000
862.950073	0.000000
862.983337	0.000000
863.016602	0.000000
863.049805	0.000000
863.083069	0.000000
863.116211	0.000000
863.149475	0.000000
863.182739	0.000000
863.216003	0.000000
863.249146	0.000000
863.282410	0.000000
863.315613	0.000000
863.348816	0.000000
863.382080	0.000000
863.415222	0.000000
863.448486	0.000000
863.481689	0.000000
863.514893	0.000000
863.548157	0.000000
863.581360	0.000000
863.614502	0.000000
863.647766	0.000000
863.680908	0.000000
863.714172	0.000000
863.747375	0.000000
863.780579	0.000000
863.813721	0.000000
863.846985	0.000000
863.880127	0.000000
863.913330	0.000000
863.946533	0.000000
863.979675	0.000000
864.012939	0.000000
