Model Number: SPM-001-M   
Serial Number: 10090201
Firmware Version: 004.17.6
Exposure Time: 300000.000000us
Data Taken on: 21-01-2021 14:03:47.593
Wavelength	Amplitude
733.770752	0.000000
733.808716	0.000000
733.846619	0.000000
733.884583	0.000000
733.922546	0.000000
733.960449	0.000000
733.998413	0.000000
734.036377	0.000000
734.074219	0.000000
734.112183	0.000000
734.150085	0.000000
734.188049	0.000000
734.226013	0.000000
734.263916	0.000000
734.301819	0.000000
734.339783	0.000000
734.377686	0.000000
734.415588	0.000000
734.453552	0.000000
734.491455	0.000000
734.529419	0.000000
734.567322	0.000000
734.605225	0.000000
734.643127	0.000000
734.681091	0.000000
734.718994	0.000000
734.756897	0.000000
734.794800	0.000000
734.832703	0.000000
734.870667	0.000000
734.908508	0.000000
734.946472	0.000000
734.984375	0.000000
735.022278	0.000000
735.060181	0.000000
735.098083	0.000000
735.135986	0.000000
735.173889	0.000000
735.211792	0.000000
735.249695	0.000000
735.287598	0.000000
735.325439	0.000000
735.363403	0.000000
735.401306	0.000000
735.439148	0.000000
735.477051	0.000000
735.515015	0.000000
735.552856	0.000000
735.590759	0.000000
735.628662	0.000000
735.666504	0.000000
735.704407	0.000000
735.742310	0.000000
735.780212	0.000000
735.818115	0.000000
735.856018	0.000000
735.893860	0.000000
735.931763	0.000000
735.969604	0.000000
736.007507	0.000000
736.045410	0.000000
736.083252	0.000000
736.121094	0.000000
736.158997	0.000000
736.196838	0.000000
736.234741	0.000000
736.272644	0.000000
736.310486	0.000000
736.348389	0.000000
736.386230	0.000000
736.424072	0.000000
736.461975	0.000000
736.499878	0.000000
736.537720	0.000000
736.575562	0.000000
736.613403	0.000000
736.651306	0.000000
736.689148	0.000000
736.726990	0.000000
736.764893	0.000000
736.802734	0.000000
736.840576	0.000000
736.878418	0.000000
736.916321	0.000000
736.954102	0.000000
736.992004	0.000000
737.029846	0.000000
737.067688	0.000000
737.105530	0.000000
737.143372	0.000000
737.181213	0.000000
737.219116	0.000000
737.256897	0.000000
737.294739	0.000000
737.332642	0.000000
737.370422	0.000000
737.408325	0.000000
737.446167	0.000000
737.483948	0.000000
737.521790	0.000000
737.559692	0.000000
737.597473	0.000000
737.635315	0.000000
737.673157	0.000000
737.710999	0.000000
737.748840	0.000000
737.786621	0.000000
737.824463	0.000000
737.862305	0.000000
737.900085	0.000000
737.937927	0.000000
737.975769	0.000000
738.013550	0.000000
738.051392	0.000000
738.089233	0.000000
738.127014	0.000000
738.164856	0.000000
738.202698	0.000000
738.240479	0.000000
738.278320	0.000000
738.316162	0.000000
738.353943	0.000000
738.391785	0.000000
738.429565	0.000000
738.467407	0.000000
738.505188	0.000000
738.542969	0.000000
738.580811	0.000000
738.618652	0.000000
738.656372	0.000000
738.694214	0.000000
738.732056	0.000000
738.769836	0.000000
738.807617	0.000000
738.845459	0.000000
738.883240	0.000000
738.921021	0.000000
738.958862	0.000000
738.996582	0.000000
739.034424	0.000000
739.072205	0.000000
739.109985	0.000000
739.147827	0.000000
739.185547	0.000000
739.223389	0.000000
739.261169	0.000000
739.298889	0.000000
739.336731	0.000000
739.374512	0.000000
739.412292	0.000000
739.450073	0.000000
739.487854	0.000000
739.525635	0.000000
739.563416	0.000000
739.601135	0.000000
739.638977	0.000000
739.676758	0.000000
739.714478	0.000000
739.752258	0.000000
739.790100	0.000000
739.827820	0.000000
739.865601	0.000000
739.903381	0.000000
739.941101	0.000000
739.978882	195.300000
740.016724	191.100000
740.054443	195.000000
740.092224	189.300000
740.130005	189.500000
740.167725	187.700000
740.205505	189.700000
740.243225	196.600000
740.281006	191.200000
740.318787	187.100000
740.356506	195.900000
740.394287	193.700000
740.432068	188.000000
740.469727	186.600000
740.507507	194.100000
740.545288	190.800000
740.583008	193.300000
740.620789	191.300000
740.658569	185.600000
740.696228	191.200000
740.734009	193.900000
740.771790	182.100000
740.809509	192.900000
740.847229	186.400000
740.884949	188.400000
740.922729	185.300000
740.960449	190.000000
740.998169	187.200000
741.035950	187.500000
741.073669	192.200000
741.111389	192.000000
741.149170	198.600000
741.186890	198.500000
741.224609	194.800000
741.262329	192.600000
741.300110	198.200000
741.337769	187.300000
741.375549	188.400000
741.413208	191.100000
741.450989	189.200000
741.488708	188.800000
741.526367	189.300000
741.564148	195.100000
741.601868	195.300000
741.639526	189.900000
741.677307	192.900000
741.715027	193.300000
741.752686	187.800000
741.790466	196.600000
741.828186	193.000000
741.865845	187.200000
741.903564	185.800000
741.941345	192.200000
741.979004	187.800000
742.016724	194.700000
742.054382	190.100000
742.092102	194.000000
742.129822	186.200000
742.167480	188.800000
742.205200	189.000000
742.242920	192.800000
742.280640	194.300000
742.318359	188.000000
742.356079	189.600000
742.393738	194.500000
742.431396	189.000000
742.469116	194.400000
742.506775	183.700000
742.544495	192.700000
742.582214	193.500000
742.619873	190.700000
742.657593	196.100000
742.695251	195.800000
742.732971	190.600000
742.770630	192.400000
742.808289	192.300000
742.846008	191.900000
742.883728	192.700000
742.921326	192.200000
742.959045	189.100000
742.996765	191.200000
743.034424	191.400000
743.072083	190.500000
743.109802	191.100000
743.147400	188.300000
743.185120	191.700000
743.222839	192.600000
743.260437	197.600000
743.298157	194.100000
743.335754	185.500000
743.373474	190.400000
743.411133	186.200000
743.448792	192.200000
743.486450	190.500000
743.524170	187.200000
743.561768	191.500000
743.599487	196.500000
743.637146	199.500000
743.674744	190.900000
743.712463	189.100000
743.750122	191.300000
743.787720	191.100000
743.825439	188.800000
743.863037	189.500000
743.900696	191.600000
743.938416	217.000000
743.976013	190.100000
744.013672	197.600000
744.051331	195.400000
744.088928	197.100000
744.126587	195.100000
744.164307	191.700000
744.201904	187.500000
744.239563	193.200000
744.277222	193.300000
744.314819	191.000000
744.352478	194.900000
744.390137	193.100000
744.427734	193.000000
744.465393	189.400000
744.502991	187.800000
744.540649	194.600000
744.578308	191.300000
744.615906	188.700000
744.653564	184.300000
744.691223	194.600000
744.728821	186.300000
744.766418	193.300000
744.804077	193.100000
744.841675	190.000000
744.879333	187.400000
744.916992	189.900000
744.954529	190.400000
744.992187	195.800000
745.029785	189.200000
745.067444	190.200000
745.105042	191.700000
745.142639	191.100000
745.180298	199.200000
745.217896	189.900000
745.255493	188.700000
745.293152	193.500000
745.330750	196.100000
745.368347	197.100000
745.405945	194.300000
745.443604	191.000000
745.481140	194.500000
745.518799	190.700000
745.556396	193.400000
745.593994	192.200000
745.631592	192.800000
745.669189	186.200000
745.706787	191.700000
745.744385	187.100000
745.781982	193.200000
745.819580	188.500000
745.857178	192.300000
745.894775	191.400000
745.932373	191.700000
745.969971	191.800000
746.007568	186.300000
746.045166	196.600000
746.082764	198.000000
746.120300	193.900000
746.157898	193.600000
746.195557	189.800000
746.233093	188.400000
746.270691	193.000000
746.308228	194.600000
746.345825	194.600000
746.383423	194.600000
746.420959	187.600000
746.458557	191.300000
746.496155	188.300000
746.533691	192.300000
746.571289	187.900000
746.608887	191.800000
746.646423	192.100000
746.684021	191.800000
746.721619	188.700000
746.759155	193.600000
746.796753	185.800000
746.834351	186.700000
746.871826	187.600000
746.909424	196.400000
746.946960	190.500000
746.984558	189.700000
747.022156	189.800000
747.059631	197.100000
747.097229	193.100000
747.134827	190.400000
747.172363	196.500000
747.209900	192.400000
747.247498	186.400000
747.285034	195.500000
747.322571	198.000000
747.360168	189.100000
747.397644	186.200000
747.435242	193.800000
747.472778	195.400000
747.510315	189.900000
747.547913	191.600000
747.585388	196.500000
747.622925	190.400000
747.660522	185.200000
747.697998	189.800000
747.735596	188.700000
747.773132	191.200000
747.810669	191.300000
747.848206	194.200000
747.885742	187.700000
747.923279	187.700000
747.960815	191.600000
747.998352	191.900000
748.035889	196.200000
748.073425	195.700000
748.110901	189.700000
748.148437	188.300000
748.185974	190.600000
748.223511	197.900000
748.261047	192.800000
748.298584	191.500000
748.336060	191.000000
748.373596	192.000000
748.411133	215.700000
748.448608	188.700000
748.486145	193.800000
748.523682	195.700000
748.561218	197.800000
748.598755	191.400000
748.636292	192.900000
748.673706	190.400000
748.711243	198.100000
748.748718	191.600000
748.786255	192.000000
748.823792	190.100000
748.861267	186.600000
748.898804	193.700000
748.936340	193.300000
748.973816	188.700000
749.011292	197.800000
749.048828	192.500000
749.086304	193.300000
749.123840	199.000000
749.161316	189.100000
749.198792	197.200000
749.236328	197.100000
749.273743	190.300000
749.311279	189.500000
749.348816	193.600000
749.386230	192.800000
749.423767	182.200000
749.461304	194.900000
749.498718	192.000000
749.536255	194.800000
749.573730	200.000000
749.611206	196.600000
749.648682	189.700000
749.686218	191.500000
749.723633	193.400000
749.761169	190.400000
749.798645	188.800000
749.836060	189.800000
749.873596	187.000000
749.911011	191.700000
749.948547	195.400000
749.986023	191.000000
750.023437	190.100000
750.060913	185.700000
750.098450	184.700000
750.135864	189.800000
750.173340	190.800000
750.210815	194.100000
750.248291	186.800000
750.285767	190.900000
750.323242	195.100000
750.360657	192.700000
750.398132	188.200000
750.435608	193.800000
750.473022	188.600000
750.510498	186.700000
750.547974	188.000000
750.585449	189.900000
750.622925	183.100000
750.660339	200.800000
750.697815	192.300000
750.735291	191.800000
750.772644	191.700000
750.810120	190.500000
750.847595	194.000000
750.885010	187.400000
750.922485	199.100000
750.959961	191.400000
750.997375	195.900000
751.034851	194.300000
751.072266	195.700000
751.109680	185.300000
751.147156	197.600000
751.184570	193.400000
751.221985	192.000000
751.259460	185.400000
751.296875	191.400000
751.334290	190.200000
751.371765	193.900000
751.409180	194.900000
751.446594	196.700000
751.484070	193.200000
751.521423	192.100000
751.558899	191.400000
751.596375	197.600000
751.633728	196.300000
751.671204	199.600000
751.708618	188.500000
751.746033	191.400000
751.783447	186.800000
751.820801	187.300000
751.858276	193.800000
751.895691	190.500000
751.933105	189.700000
751.970520	188.600000
752.007935	191.300000
752.045349	194.100000
752.082764	190.900000
752.120178	188.800000
752.157532	189.900000
752.195007	189.400000
752.232422	192.500000
752.269775	194.100000
752.307190	193.800000
752.344543	187.100000
752.382019	191.600000
752.419434	190.000000
752.456787	195.000000
752.494202	194.800000
752.531616	194.500000
752.568970	193.900000
752.606384	193.600000
752.643799	193.200000
752.681152	197.100000
752.718567	194.000000
752.755981	186.600000
752.793335	192.600000
752.830750	186.300000
752.868164	194.200000
752.905518	188.200000
752.942932	194.500000
752.980225	188.500000
753.017639	192.800000
753.055054	194.600000
753.092407	192.100000
753.129822	195.300000
753.167175	198.300000
753.204529	190.000000
753.241943	188.600000
753.279358	186.800000
753.316650	193.500000
753.354065	191.900000
753.391479	194.700000
753.428772	196.600000
753.466187	192.900000
753.503479	187.200000
753.540894	190.400000
753.578308	185.900000
753.615601	187.700000
753.653015	190.900000
753.690369	190.400000
753.727722	189.100000
753.765076	186.500000
753.802490	185.900000
753.839783	186.100000
753.877136	189.000000
753.914551	201.400000
753.951843	188.800000
753.989258	195.800000
754.026611	190.700000
754.063904	194.500000
754.101257	188.600000
754.138611	186.600000
754.175964	193.600000
754.213318	199.800000
754.250610	185.600000
754.288025	190.800000
754.325378	187.600000
754.362671	194.700000
754.400024	190.600000
754.437378	197.800000
754.474670	196.800000
754.512085	189.100000
754.549438	191.700000
754.586731	188.700000
754.624084	190.000000
754.661438	186.900000
754.698730	196.800000
754.736084	190.000000
754.773376	189.600000
754.810730	192.400000
754.848083	189.800000
754.885315	194.600000
754.922668	184.400000
754.960022	185.900000
754.997314	193.900000
755.034668	190.900000
755.072021	193.800000
755.109253	189.500000
755.146606	196.000000
755.183960	189.200000
755.221252	195.900000
755.258545	194.300000
755.295898	196.000000
755.333191	195.600000
755.370544	194.300000
755.407776	191.100000
755.445129	193.500000
755.482422	194.500000
755.519714	190.900000
755.557068	186.400000
755.594360	185.900000
755.631653	194.900000
755.668945	199.200000
755.706299	192.100000
755.743530	201.500000
755.780884	198.200000
755.818176	196.200000
755.855408	195.100000
755.892761	194.200000
755.930054	191.400000
755.967346	194.100000
756.004639	192.700000
756.041870	192.300000
756.079224	196.300000
756.116516	191.200000
756.153748	194.300000
756.191040	199.400000
756.228394	194.400000
756.265625	189.400000
756.302917	193.300000
756.340210	189.400000
756.377441	195.500000
756.414795	196.900000
756.452087	190.900000
756.489319	187.000000
756.526611	195.400000
756.563843	193.200000
756.601135	200.600000
756.638428	200.200000
756.675659	193.600000
756.712952	196.400000
756.750244	196.800000
756.787476	194.900000
756.824768	198.100000
756.862061	193.000000
756.899292	240.200000
756.936584	197.000000
756.973816	202.300000
757.011047	202.900000
757.048340	195.700000
757.085632	194.800000
757.122864	209.200000
757.160156	192.800000
757.197327	198.100000
757.234619	198.200000
757.271912	194.400000
757.309082	198.000000
757.346375	193.700000
757.383667	198.700000
757.420837	197.300000
757.458130	195.900000
757.495422	193.400000
757.532593	198.200000
757.569885	191.000000
757.607117	193.000000
757.644348	197.000000
757.681580	207.000000
757.718811	187.800000
757.756042	193.800000
757.793335	193.500000
757.830505	197.300000
757.867798	192.900000
757.905029	194.300000
757.942200	196.600000
757.979492	194.500000
758.016724	194.300000
758.053894	193.900000
758.091187	208.400000
758.128418	195.800000
758.165588	195.400000
758.202820	205.300000
758.240112	196.000000
758.277283	205.500000
758.314514	197.800000
758.351685	195.800000
758.388916	202.600000
758.426147	203.600000
758.463379	203.400000
758.500610	200.300000
758.537842	196.500000
758.575012	203.600000
758.612244	193.600000
758.649475	209.700000
758.686646	192.500000
758.723877	204.300000
758.761108	205.000000
758.798279	199.500000
758.835510	198.900000
758.872742	204.900000
758.909851	202.100000
758.947083	201.800000
758.984253	201.400000
759.021484	203.200000
759.058716	201.000000
759.095886	203.400000
759.133057	198.500000
759.170288	203.200000
759.207458	198.100000
759.244690	209.400000
759.281860	205.900000
759.319031	201.400000
759.356262	199.300000
759.393433	198.300000
759.430603	199.800000
759.467773	199.400000
759.505005	203.400000
759.542175	206.100000
759.579346	200.900000
759.616516	201.400000
759.653687	204.900000
759.690918	199.400000
759.728027	202.500000
759.765259	202.400000
759.802429	205.900000
759.839539	203.900000
759.876770	207.600000
759.913940	208.900000
759.951111	204.600000
759.988281	203.800000
760.025452	202.200000
760.062561	200.100000
760.099792	212.600000
760.136963	205.600000
760.174072	203.600000
760.211243	201.000000
760.248413	202.900000
760.285583	200.800000
760.322754	213.900000
760.359863	209.800000
760.397034	210.100000
760.434204	203.600000
760.471375	204.600000
760.508545	203.100000
760.545715	205.200000
760.582825	201.300000
760.619995	208.100000
760.657166	201.400000
760.694275	210.700000
760.731445	206.100000
760.768555	207.700000
760.805664	208.800000
760.842834	208.400000
760.879944	208.400000
760.917114	207.200000
760.954285	204.500000
760.991394	201.200000
761.028564	209.800000
761.065674	207.200000
761.102783	204.200000
761.139954	209.500000
761.177124	209.700000
761.214172	211.100000
761.251343	206.400000
761.288452	206.600000
761.325562	211.000000
761.362732	205.200000
761.399841	206.900000
761.436951	209.100000
761.474121	205.700000
761.511169	208.500000
761.548340	211.500000
761.585449	209.500000
761.622559	210.100000
761.659668	209.000000
761.696838	214.700000
761.733887	209.900000
761.771057	209.500000
761.808167	210.600000
761.845276	214.300000
761.882385	219.900000
761.919434	212.300000
761.956604	224.100000
761.993713	209.500000
762.030762	215.200000
762.067871	210.500000
762.105042	210.600000
762.142090	217.700000
762.179199	211.900000
762.216309	215.300000
762.253418	223.200000
762.290527	218.900000
762.327637	216.200000
762.364685	208.300000
762.401794	216.000000
762.438904	214.300000
762.475952	210.800000
762.513062	209.100000
762.550110	211.500000
762.587219	221.500000
762.624329	219.700000
762.661377	215.900000
762.698486	215.000000
762.735596	213.900000
762.772644	211.700000
762.809753	209.900000
762.846863	215.100000
762.883911	218.400000
762.921021	218.300000
762.958069	214.900000
762.995117	222.100000
763.032227	222.400000
763.069336	216.400000
763.106323	213.800000
763.143433	212.800000
763.180481	217.300000
763.217590	219.400000
763.254639	217.200000
763.291687	217.800000
763.328735	223.400000
763.365845	219.600000
763.402893	216.200000
763.439941	220.000000
763.477051	220.500000
763.514038	221.900000
763.551147	216.700000
763.588196	221.200000
763.625244	218.400000
763.662292	227.000000
763.699402	227.100000
763.736389	223.100000
763.773499	228.600000
763.810486	224.100000
763.847534	221.400000
763.884644	224.000000
763.921631	220.700000
763.958679	228.800000
763.995728	223.400000
764.032776	228.600000
764.069824	220.200000
764.106873	227.100000
764.143860	230.300000
764.180969	223.600000
764.218018	230.300000
764.255005	224.600000
764.292053	225.400000
764.329102	232.300000
764.366089	233.900000
764.403137	232.200000
764.440125	227.100000
764.477173	228.100000
764.514221	232.200000
764.551208	229.200000
764.588257	226.600000
764.625305	232.200000
764.662292	239.200000
764.699341	240.400000
764.736389	234.100000
764.773376	243.800000
764.810425	237.400000
764.847473	240.300000
764.884399	239.600000
764.921448	243.900000
764.958435	242.300000
764.995483	236.000000
765.032532	247.600000
765.069458	233.800000
765.106506	238.500000
765.143555	235.100000
765.180481	240.100000
765.217529	244.000000
765.254578	235.400000
765.291504	241.900000
765.328552	241.500000
765.365540	236.000000
765.402527	248.400000
765.439575	239.300000
765.476501	236.700000
765.513550	235.400000
765.550537	242.300000
765.587463	248.200000
765.624512	240.000000
765.661499	234.800000
765.698486	244.700000
765.735474	238.800000
765.772461	241.700000
765.809448	248.300000
765.846436	245.600000
765.883423	249.300000
765.920410	244.900000
765.957397	242.100000
765.994385	247.100000
766.031311	252.300000
766.068359	248.800000
766.105286	249.300000
766.142273	252.300000
766.179260	249.800000
766.216187	246.700000
766.253174	243.500000
766.290161	248.800000
766.327148	253.600000
766.364136	253.700000
766.401123	264.100000
766.438049	247.400000
766.475037	258.700000
766.512024	254.200000
766.548950	266.400000
766.585937	259.600000
766.622864	255.500000
766.659790	256.800000
766.696777	249.200000
766.733704	259.600000
766.770691	251.800000
766.807678	262.900000
766.844604	259.600000
766.881531	258.700000
766.918518	260.900000
766.955444	263.300000
766.992432	258.400000
767.029358	262.900000
767.066284	262.400000
767.103271	262.900000
767.140198	293.900000
767.177124	272.400000
767.214050	263.100000
767.251038	263.400000
767.287964	262.400000
767.324890	261.400000
767.361816	264.600000
767.398743	268.500000
767.435730	263.700000
767.472595	267.400000
767.509583	270.900000
767.546509	262.400000
767.583374	265.000000
767.620361	261.800000
767.657288	268.500000
767.694214	268.500000
767.731140	264.500000
767.768066	267.700000
767.804993	271.100000
767.841919	264.100000
767.878845	267.200000
767.915710	275.100000
767.952698	270.100000
767.989563	271.700000
768.026489	271.900000
768.063416	268.000000
768.100281	265.400000
768.137207	274.700000
768.174133	272.500000
768.211060	274.200000
768.247986	271.600000
768.284912	270.300000
768.321777	272.500000
768.358704	270.100000
768.395630	273.100000
768.432495	270.200000
768.469421	275.900000
768.506348	276.300000
768.543152	282.900000
768.580078	279.600000
768.616943	280.400000
768.653870	281.300000
768.690796	281.400000
768.727661	278.400000
768.764587	281.600000
768.801453	277.000000
768.838318	284.700000
768.875244	282.900000
768.912109	285.400000
768.948975	280.100000
768.985901	282.700000
769.022766	282.400000
769.059631	287.600000
769.096558	283.600000
769.133362	286.200000
769.170288	283.900000
769.207214	285.300000
769.244019	287.300000
769.280945	288.000000
769.317810	296.100000
769.354675	291.500000
769.391541	295.200000
769.428406	293.400000
769.465271	300.300000
769.502136	293.200000
769.539062	294.900000
769.575867	294.500000
769.612732	297.500000
769.649597	300.400000
769.686462	301.600000
769.723328	300.700000
769.760193	297.400000
769.797058	298.600000
769.833923	304.800000
769.870728	301.100000
769.907593	305.200000
769.944519	305.100000
769.981323	309.100000
770.018188	306.900000
770.055054	305.600000
770.091858	303.100000
770.128723	314.100000
770.165588	318.000000
770.202393	307.600000
770.239258	315.300000
770.276062	312.100000
770.312927	312.900000
770.349792	319.700000
770.386597	317.400000
770.423462	325.400000
770.460327	330.400000
770.497131	318.200000
770.533997	314.900000
770.570862	328.200000
770.607605	326.900000
770.644470	327.300000
770.681335	327.900000
770.718140	330.600000
770.754944	326.000000
770.791809	323.600000
770.828613	325.800000
770.865479	328.700000
770.902222	336.500000
770.939087	333.200000
770.975952	323.400000
771.012695	327.500000
771.049561	340.000000
771.086365	335.700000
771.123169	330.700000
771.159973	332.100000
771.196838	331.500000
771.233582	335.300000
771.270447	335.400000
771.307251	340.500000
771.344055	336.700000
771.380859	338.700000
771.417664	336.300000
771.454468	344.100000
771.491272	337.700000
771.528076	339.100000
771.564880	340.300000
771.601685	345.900000
771.638428	340.000000
771.675293	348.100000
771.712097	336.900000
771.748840	352.600000
771.785645	346.400000
771.822449	349.000000
771.859253	353.400000
771.896057	347.800000
771.932861	355.800000
771.969604	348.400000
772.006409	345.800000
772.043213	357.200000
772.079956	355.400000
772.116760	347.500000
772.153503	352.800000
772.190308	360.000000
772.227112	352.600000
772.263855	349.200000
772.300659	355.800000
772.337463	361.700000
772.374207	355.900000
772.411011	350.800000
772.447754	356.500000
772.484497	367.900000
772.521301	364.300000
772.558105	361.100000
772.594849	361.800000
772.631592	362.000000
772.668396	363.000000
772.705139	364.500000
772.741882	365.200000
772.778625	373.600000
772.815430	373.300000
772.852173	369.600000
772.888916	375.000000
772.925720	377.700000
772.962463	381.800000
772.999207	379.000000
773.035950	383.200000
773.072754	382.100000
773.109436	378.500000
773.146240	378.000000
773.182922	375.000000
773.219727	382.900000
773.256470	380.500000
773.293152	371.600000
773.329956	376.100000
773.366699	380.100000
773.403381	373.500000
773.440186	382.200000
773.476929	382.700000
773.513611	379.500000
773.550354	379.200000
773.587158	380.100000
773.623840	376.900000
773.660583	381.300000
773.697327	390.500000
773.734009	383.800000
773.770813	382.300000
773.807495	382.900000
773.844238	381.200000
773.880981	397.800000
773.917664	390.400000
773.954407	395.300000
773.991150	391.000000
774.027832	395.600000
774.064575	388.100000
774.101318	393.600000
774.138000	396.700000
774.174744	397.700000
774.211487	396.800000
774.248108	388.500000
774.284851	388.900000
774.321594	399.300000
774.358276	397.900000
774.395020	404.600000
774.431702	400.600000
774.468384	394.700000
774.505127	395.300000
774.541809	400.800000
774.578491	405.900000
774.615234	408.600000
774.651917	403.600000
774.688599	408.000000
774.725342	412.400000
774.762024	410.700000
774.798706	412.900000
774.835449	415.300000
774.872070	421.800000
774.908813	419.200000
774.945496	417.300000
774.982178	416.300000
775.018860	415.500000
775.055542	419.500000
775.092224	419.100000
775.128967	425.000000
775.165588	423.600000
775.202271	418.300000
775.239014	430.800000
775.275635	432.900000
775.312317	431.500000
775.349060	435.400000
775.385681	434.500000
775.422363	426.800000
775.459045	436.200000
775.495667	435.000000
775.532410	439.500000
775.569092	437.600000
775.605713	437.400000
775.642395	435.600000
775.679016	439.600000
775.715698	442.300000
775.752380	445.700000
775.789001	439.500000
775.825684	441.700000
775.862366	444.200000
775.898987	456.300000
775.935669	447.500000
775.972351	466.100000
776.008972	463.800000
776.045654	465.100000
776.082336	458.500000
776.118958	454.600000
776.155640	461.400000
776.192322	470.200000
776.228882	469.800000
776.265564	469.500000
776.302185	469.300000
776.338867	475.800000
776.375488	466.100000
776.412109	475.800000
776.448792	478.900000
776.485413	485.000000
776.522034	480.400000
776.558716	476.000000
776.595337	478.100000
776.631958	480.800000
776.668579	485.300000
776.705261	491.700000
776.741882	485.600000
776.778503	488.200000
776.815186	486.900000
776.851746	491.900000
776.888367	490.900000
776.924988	500.200000
776.961609	491.900000
776.998291	494.100000
777.034851	488.400000
777.071472	498.000000
777.108154	491.300000
777.144714	502.700000
777.181335	505.100000
777.218018	496.400000
777.254578	505.800000
777.291199	502.200000
777.327759	508.100000
777.364380	517.000000
777.401062	519.200000
777.437622	522.900000
777.474243	515.900000
777.510864	522.100000
777.547424	517.800000
777.584045	520.400000
777.620667	523.900000
777.657227	521.900000
777.693848	523.000000
777.730469	538.800000
777.767029	526.800000
777.803650	534.700000
777.840271	528.000000
777.876831	524.900000
777.913452	538.200000
777.950012	524.300000
777.986633	525.100000
778.023193	522.800000
778.059753	523.600000
778.096375	530.800000
778.132996	537.900000
778.169556	527.900000
778.206116	525.100000
778.242737	525.200000
778.279297	530.700000
778.315857	524.100000
778.352478	531.600000
778.389038	537.400000
778.425598	536.500000
778.462219	542.200000
778.498718	539.100000
778.535339	545.600000
778.571838	547.300000
778.608459	552.200000
778.645020	543.000000
778.681580	551.000000
778.718140	549.300000
778.754761	547.500000
778.791260	552.600000
778.827881	559.500000
778.864441	558.000000
778.900940	565.300000
778.937561	559.600000
778.974121	558.500000
779.010620	549.300000
779.047241	554.600000
779.083801	562.100000
779.120300	563.100000
779.156860	561.400000
779.193359	554.700000
779.229980	556.900000
779.266541	561.000000
779.303040	563.100000
779.339600	560.900000
779.376160	560.700000
779.412659	562.000000
779.449219	560.100000
779.485779	562.200000
779.522278	565.400000
779.558838	570.000000
779.595398	570.200000
779.631897	564.000000
779.668457	558.900000
779.705017	565.100000
779.741516	559.600000
779.778076	560.500000
779.814575	563.800000
779.851074	563.400000
779.887634	564.000000
779.924133	570.800000
779.960693	562.100000
779.997253	568.800000
780.033691	571.100000
780.070251	574.900000
780.106812	585.600000
780.143250	581.100000
780.179810	575.600000
780.216370	575.100000
780.252808	587.300000
780.289368	588.400000
780.325867	592.700000
780.362366	589.000000
780.398865	598.400000
780.435364	592.000000
780.471863	598.900000
780.508423	591.800000
780.544861	600.900000
780.581421	600.100000
780.617920	594.500000
780.654419	593.100000
780.690918	597.200000
780.727417	603.700000
780.763916	601.200000
780.800415	608.800000
780.836914	599.600000
780.873352	604.700000
780.909912	601.800000
780.946411	606.700000
780.982849	610.200000
781.019348	618.600000
781.055786	612.000000
781.092346	612.900000
781.128845	613.700000
781.165283	621.500000
781.201782	629.100000
781.238281	634.000000
781.274719	639.100000
781.311218	644.000000
781.347717	646.100000
781.384155	633.500000
781.420654	639.700000
781.457092	650.100000
781.493591	643.700000
781.530090	641.500000
781.566528	643.500000
781.602966	641.100000
781.639465	641.900000
781.675903	640.200000
781.712402	639.800000
781.748901	645.200000
781.785278	638.000000
781.821777	642.300000
781.858276	648.200000
781.894714	659.100000
781.931152	649.500000
781.967651	652.100000
782.004089	650.800000
782.040527	658.300000
782.076965	658.000000
782.113403	661.600000
782.149902	667.900000
782.186340	661.200000
782.222778	675.500000
782.259277	662.700000
782.295654	652.400000
782.332092	637.800000
782.368591	596.000000
782.404968	515.900000
782.441467	428.900000
782.477905	344.500000
782.514282	291.900000
782.550781	296.600000
782.587219	314.600000
782.623596	328.400000
782.660095	321.300000
782.696472	307.500000
782.732910	307.500000
782.769348	354.100000
782.805786	457.800000
782.842224	556.700000
782.878662	635.200000
782.915039	683.400000
782.951477	710.700000
782.987915	710.500000
783.024292	721.000000
783.060730	723.300000
783.097168	719.800000
783.133545	713.900000
783.169983	716.100000
783.206421	711.700000
783.242798	707.100000
783.279236	701.500000
783.315613	699.100000
783.352051	697.600000
783.388489	696.400000
783.424866	680.900000
783.461304	693.800000
783.497681	703.300000
783.534058	702.000000
783.570496	695.600000
783.606934	695.500000
783.643250	702.700000
783.679687	709.900000
783.716125	705.900000
783.752441	716.200000
783.788879	732.900000
783.825317	736.700000
783.861633	738.100000
783.898071	748.600000
783.934448	759.800000
783.970825	768.400000
784.007263	774.500000
784.043579	776.400000
784.080017	775.700000
784.116394	767.900000
784.152710	779.700000
784.189148	781.400000
784.225525	772.000000
784.261902	765.900000
784.298279	761.700000
784.334656	761.400000
784.371033	755.600000
784.407410	759.400000
784.443787	748.400000
784.480164	733.300000
784.516541	722.400000
784.552856	721.200000
784.589233	721.900000
784.625610	720.200000
784.661987	747.700000
784.698364	741.100000
784.734741	729.800000
784.771057	734.900000
784.807434	741.700000
784.843811	753.700000
784.880127	746.200000
784.916504	764.500000
784.952881	771.700000
784.989197	770.700000
785.025574	775.200000
785.061951	783.900000
785.098267	800.900000
785.134644	792.000000
785.170959	785.300000
785.207275	791.000000
785.243652	800.900000
785.279968	784.000000
785.316345	778.800000
785.352722	779.900000
785.388977	780.300000
785.425354	755.800000
785.461731	734.000000
785.498047	733.000000
785.534363	734.100000
785.570679	734.100000
785.606995	733.600000
785.643372	736.000000
785.679687	737.300000
785.716003	721.700000
785.752380	719.500000
785.788635	731.200000
785.825012	741.200000
785.861328	749.600000
785.897644	742.800000
785.933960	749.400000
785.970337	754.300000
786.006592	777.500000
786.042908	781.000000
786.079285	791.200000
786.115540	799.800000
786.151855	810.200000
786.188171	802.800000
786.224487	806.600000
786.260803	802.400000
786.297119	806.600000
786.333435	802.900000
786.369751	803.500000
786.406006	799.200000
786.442322	786.700000
786.478638	775.400000
786.514954	783.500000
786.551270	773.400000
786.587585	776.600000
786.623840	760.900000
786.660156	765.200000
786.696472	754.600000
786.732727	752.200000
786.769043	752.100000
786.805298	750.900000
786.841614	755.000000
786.877930	758.900000
786.914124	752.400000
786.950439	773.200000
786.986755	785.200000
787.023010	797.600000
787.059326	802.800000
787.095642	802.900000
787.131836	818.600000
787.168152	820.800000
787.204468	822.900000
787.240723	833.200000
787.276978	846.100000
787.313293	850.200000
787.349548	846.500000
787.385803	846.800000
787.422058	833.300000
787.458313	832.100000
787.494629	832.600000
787.530823	835.400000
787.567139	823.500000
787.603455	813.200000
787.639648	799.400000
787.675903	800.100000
787.712219	796.800000
787.748413	800.200000
787.784729	805.000000
787.820984	795.100000
787.857178	792.900000
787.893494	792.900000
787.929749	795.600000
787.965942	806.200000
788.002258	816.800000
788.038452	827.200000
788.074707	812.600000
788.110962	826.400000
788.147217	827.900000
788.183472	838.500000
788.219727	841.700000
788.255920	864.500000
788.292175	873.200000
788.328430	873.200000
788.364624	855.100000
788.400879	857.700000
788.437134	867.200000
788.473328	861.100000
788.509583	860.300000
788.545837	850.300000
788.582031	850.300000
788.618286	858.100000
788.654480	853.700000
788.690735	857.700000
788.726990	874.100000
788.763184	879.300000
788.799377	883.700000
788.835632	874.700000
788.871826	886.700000
788.908081	880.500000
788.944336	875.400000
788.980469	889.600000
789.016724	882.300000
789.052979	890.000000
789.089111	875.500000
789.125366	880.500000
789.161621	867.400000
789.197754	881.500000
789.234009	874.400000
789.270142	873.900000
789.306396	866.700000
789.342590	863.800000
789.378784	847.900000
789.414978	839.400000
789.451233	845.200000
789.487366	844.100000
789.523621	850.300000
789.559814	851.000000
789.595947	850.400000
789.632202	863.800000
789.668335	875.800000
789.704529	894.800000
789.740784	904.200000
789.776917	903.700000
789.813110	904.000000
789.849304	912.500000
789.885498	911.700000
789.921692	929.400000
789.957886	926.000000
789.994019	942.600000
790.030212	944.300000
790.066406	940.800000
790.102539	934.300000
790.138733	944.500000
790.174927	946.700000
790.211060	951.600000
790.247253	941.500000
790.283386	942.500000
790.319580	932.900000
790.355774	923.000000
790.391907	918.900000
790.428101	928.800000
790.464294	926.400000
790.500427	932.000000
790.536621	911.500000
790.572754	895.300000
790.608887	897.600000
790.645081	906.900000
790.681274	919.800000
790.717346	913.800000
790.753540	907.800000
790.789734	896.400000
790.825867	883.300000
790.862000	882.500000
790.898132	896.400000
790.934265	894.400000
790.970459	895.800000
791.006592	892.600000
791.042725	887.700000
791.078918	870.200000
791.114990	875.100000
791.151184	879.400000
791.187317	897.300000
791.223389	892.700000
791.259583	884.000000
791.295715	876.400000
791.331848	882.400000
791.367981	896.400000
791.404114	905.700000
791.440247	907.300000
791.476379	900.700000
791.512451	881.200000
791.548584	883.700000
791.584778	875.400000
791.620850	890.900000
791.656982	903.800000
791.693115	903.900000
791.729187	905.400000
791.765381	890.900000
791.801514	893.500000
791.837585	893.100000
791.873718	898.000000
791.909851	910.600000
791.945923	919.600000
791.982056	902.300000
792.018188	903.500000
792.054260	898.000000
792.090393	898.400000
792.126465	888.600000
792.162598	902.200000
792.198669	891.000000
792.234741	882.600000
792.270874	869.500000
792.307007	868.900000
792.343079	872.200000
792.379150	879.300000
792.415283	877.700000
792.451355	880.600000
792.487488	865.000000
792.523560	860.800000
792.559631	845.800000
792.595764	814.300000
792.631836	785.500000
792.667908	770.700000
792.703979	745.600000
792.740051	758.200000
792.776184	782.500000
792.812256	794.000000
792.848328	808.500000
792.884399	827.600000
792.920471	831.000000
792.956543	832.500000
792.992615	821.800000
793.028748	818.400000
793.064758	822.000000
793.100830	839.600000
793.136963	855.100000
793.172974	853.200000
793.209045	853.400000
793.245178	862.800000
793.281189	844.800000
793.317261	853.500000
793.353271	858.300000
793.389404	871.000000
793.425476	863.100000
793.461487	843.600000
793.497559	839.000000
793.533630	842.100000
793.569641	838.100000
793.605713	847.700000
793.641785	854.300000
793.677795	863.300000
793.713867	850.100000
793.749878	843.500000
793.785950	854.800000
793.822021	870.200000
793.858032	861.700000
793.894104	873.400000
793.930176	873.700000
793.966187	873.300000
794.002258	863.600000
794.038269	873.200000
794.074280	872.200000
794.110352	898.000000
794.146423	878.300000
794.182373	870.300000
794.218445	860.800000
794.254517	855.800000
794.290466	846.100000
794.326538	853.300000
794.362549	854.200000
794.398560	859.000000
794.434631	861.300000
794.470581	837.300000
794.506653	822.300000
794.542664	836.700000
794.578674	838.300000
794.614685	839.500000
794.650757	840.800000
794.686707	841.000000
794.722778	827.600000
794.758789	841.100000
794.794739	847.900000
794.830811	866.000000
794.866821	882.200000
794.902771	888.900000
794.938843	880.800000
794.974792	885.200000
795.010803	877.000000
795.046814	884.100000
795.082825	873.600000
795.118835	896.300000
795.154846	871.500000
795.190796	877.500000
795.226807	863.600000
795.262817	867.600000
795.298767	864.300000
795.334778	875.500000
795.370850	859.000000
795.406799	863.600000
795.442810	856.800000
795.478821	853.600000
795.514709	847.500000
795.550720	866.000000
795.586670	850.800000
795.622681	863.600000
795.658691	865.600000
795.694641	859.700000
795.730652	856.900000
795.766663	861.000000
795.802551	867.500000
795.838562	878.400000
795.874573	871.500000
795.910522	872.300000
795.946472	866.200000
795.982483	871.700000
796.018433	866.500000
796.054382	874.400000
796.090393	869.100000
796.126282	855.800000
796.162292	844.300000
796.198242	839.800000
796.234192	834.700000
796.270203	837.600000
796.306091	837.500000
796.342041	852.800000
796.378052	848.100000
796.413940	846.400000
796.449951	845.500000
796.485901	843.700000
796.521790	855.000000
796.557800	869.400000
796.593689	870.400000
796.629639	860.200000
796.665649	859.000000
796.701599	857.300000
796.737488	857.700000
796.773437	862.800000
796.809387	868.300000
796.845337	866.800000
796.881287	860.600000
796.917175	840.900000
796.953125	838.100000
796.989075	839.200000
797.024963	844.900000
797.060913	850.900000
797.096863	845.100000
797.132751	834.700000
797.168701	824.900000
797.204590	831.600000
797.240540	831.100000
797.276489	838.800000
797.312439	848.300000
797.348328	842.500000
797.384277	837.700000
797.420166	827.700000
797.456055	831.000000
797.492004	827.200000
797.527893	832.800000
797.563843	837.600000
797.599731	829.700000
797.635620	818.500000
797.671570	833.600000
797.707520	835.100000
797.743347	827.200000
797.779297	836.300000
797.815125	838.700000
797.851074	836.600000
797.887024	822.700000
797.922913	811.300000
797.958801	813.600000
797.994690	809.900000
798.030579	820.500000
798.066467	831.000000
798.102356	816.500000
798.138245	803.900000
798.174133	799.100000
798.210083	806.200000
798.245911	817.700000
798.281799	816.100000
798.317749	815.600000
798.353577	810.600000
798.389465	804.300000
798.425293	811.100000
798.461243	803.200000
798.497131	810.200000
798.532959	817.300000
798.568848	829.200000
798.604736	812.900000
798.640564	797.700000
798.676453	797.100000
798.712402	797.700000
798.748230	803.400000
798.784119	801.800000
798.820007	809.600000
798.855835	806.600000
798.891724	793.100000
798.927551	785.800000
798.963379	791.300000
798.999268	790.100000
799.035095	788.000000
799.070984	785.400000
799.106873	771.400000
799.142700	776.500000
799.178528	767.700000
799.214417	775.000000
799.250244	783.300000
799.286133	776.200000
799.321960	780.800000
799.357788	767.900000
799.393677	760.900000
799.429504	770.000000
799.465332	767.900000
799.501221	775.100000
799.537048	783.800000
799.572876	772.400000
799.608704	768.400000
799.644531	771.200000
799.680359	779.100000
799.716248	782.900000
799.752014	787.300000
799.787903	782.600000
799.823730	777.900000
799.859558	769.700000
799.895386	768.700000
799.931213	769.100000
799.967041	765.200000
800.002869	768.700000
800.038696	778.800000
800.074463	759.900000
800.110352	758.900000
800.146179	752.900000
800.181946	769.300000
800.217773	767.200000
800.253540	767.200000
800.289429	761.000000
800.325256	757.600000
800.361023	753.000000
800.396851	760.900000
800.432678	761.100000
800.468445	762.900000
800.504272	770.700000
800.540100	751.600000
800.575867	744.400000
800.611694	746.700000
800.647461	747.700000
800.683289	764.700000
800.719116	761.800000
800.754883	756.400000
800.790649	743.400000
800.826477	735.700000
800.862244	751.500000
800.898071	736.200000
800.933838	739.800000
800.969604	743.000000
801.005432	744.900000
801.041199	745.200000
801.076965	736.900000
801.112793	723.300000
801.148560	721.700000
801.184326	725.200000
801.220154	724.500000
801.255859	713.700000
801.291687	713.600000
801.327454	707.600000
801.363281	719.100000
801.398987	720.800000
801.434814	716.800000
801.470520	726.100000
801.506287	714.000000
801.542114	706.900000
801.577820	704.700000
801.613647	697.900000
801.649414	698.300000
801.685120	704.900000
801.720886	705.700000
801.756714	694.400000
801.792419	693.200000
801.828186	689.700000
801.863892	693.300000
801.899719	689.200000
801.935486	689.100000
801.971252	694.600000
802.006958	685.100000
802.042725	681.900000
802.078430	686.100000
802.114197	684.200000
802.149963	700.500000
802.185669	695.200000
802.221436	684.400000
802.257202	684.300000
802.292908	680.900000
802.328674	683.500000
802.364441	685.600000
802.400146	686.500000
802.435913	684.300000
802.471558	685.800000
802.507324	680.000000
802.543091	675.200000
802.578796	691.700000
802.614502	687.600000
802.650269	692.200000
802.685974	681.400000
802.721741	684.000000
802.757446	682.400000
802.793152	679.000000
802.828918	689.100000
802.864624	692.100000
802.900330	686.800000
802.936035	685.700000
802.971802	681.700000
803.007446	667.500000
803.043213	657.500000
803.078857	674.200000
803.114624	660.400000
803.150330	663.900000
803.185974	661.000000
803.221741	660.500000
803.257446	664.000000
803.293152	667.100000
803.328857	667.000000
803.364563	667.400000
803.400208	659.400000
803.435974	661.000000
803.471680	658.100000
803.507324	658.100000
803.543030	657.900000
803.578735	663.100000
803.614441	655.600000
803.650146	664.200000
803.685791	653.900000
803.721497	653.600000
803.757202	641.900000
803.792847	651.200000
803.828552	640.000000
803.864258	642.100000
803.899902	638.500000
803.935608	630.400000
803.971313	635.500000
804.006958	629.700000
804.042664	632.300000
804.078308	642.000000
804.113953	631.900000
804.149658	641.900000
804.185364	628.500000
804.221008	639.900000
804.256714	623.700000
804.292297	628.100000
804.328003	621.600000
804.363708	619.200000
804.399292	622.400000
804.434998	620.400000
804.470703	608.600000
804.506287	621.100000
804.541992	614.000000
804.577637	616.100000
804.613281	603.400000
804.648926	603.200000
804.684570	606.800000
804.720215	601.500000
804.755920	601.500000
804.791565	599.300000
804.827209	604.500000
804.862854	602.200000
804.898437	600.500000
804.934143	596.400000
804.969788	591.100000
805.005371	594.500000
805.041077	592.300000
805.076721	594.200000
805.112305	587.500000
805.147949	585.000000
805.183655	582.100000
805.219238	586.000000
805.254883	578.800000
805.290466	585.600000
805.326111	585.300000
805.361755	580.900000
805.397400	578.100000
805.432983	577.500000
805.468628	575.200000
805.504211	572.300000
805.539856	574.300000
805.575500	580.600000
805.611084	575.300000
805.646729	567.000000
805.682373	573.600000
805.717957	575.000000
805.753601	578.600000
805.789246	567.800000
805.824768	577.900000
805.860413	575.900000
805.895996	565.700000
805.931641	559.200000
805.967224	569.800000
806.002869	569.500000
806.038452	575.800000
806.074036	580.700000
806.109619	565.700000
806.145264	561.200000
806.180847	559.400000
806.216431	557.600000
806.252014	558.600000
806.287659	560.900000
806.323181	567.000000
806.358826	561.600000
806.394409	549.300000
806.429993	549.600000
806.465576	554.300000
806.501160	547.700000
806.536743	540.900000
806.572327	552.900000
806.607910	552.700000
806.643494	544.800000
806.679077	543.400000
806.714661	541.500000
806.750244	544.600000
806.785828	540.800000
806.821350	536.200000
806.856934	538.500000
806.892517	532.700000
806.928101	532.500000
806.963684	535.800000
806.999268	542.900000
807.034790	524.200000
807.070374	529.300000
807.105896	521.500000
807.141479	517.500000
807.177063	525.100000
807.212585	517.600000
807.248169	516.700000
807.283752	525.500000
807.319275	523.400000
807.354858	523.900000
807.390381	518.400000
807.425903	516.700000
807.461487	512.800000
807.497070	507.400000
807.532593	511.700000
807.568115	505.900000
807.603699	506.200000
807.639221	501.800000
807.674744	505.400000
807.710266	504.400000
807.745850	505.700000
807.781372	502.500000
807.816895	500.800000
807.852417	499.300000
807.888000	496.100000
807.923523	494.300000
807.959045	500.100000
807.994629	493.100000
808.030090	492.300000
808.065613	492.700000
808.101135	497.700000
808.136658	492.900000
808.172241	493.200000
808.207764	498.500000
808.243225	492.800000
808.278809	485.200000
808.314270	489.800000
808.349792	480.700000
808.385315	482.100000
808.420837	485.700000
808.456360	492.100000
808.491882	490.600000
808.527344	485.700000
808.562866	490.400000
808.598389	483.500000
808.633850	481.000000
808.669434	476.500000
808.704895	484.900000
808.740417	489.400000
808.775940	481.800000
808.811462	480.300000
808.846924	475.100000
808.882385	473.900000
808.917847	470.200000
808.953369	470.600000
808.988892	471.600000
809.024353	474.100000
809.059875	472.900000
809.095398	470.000000
809.130798	463.000000
809.166321	463.600000
809.201843	463.800000
809.237305	466.100000
809.272766	471.600000
809.308228	457.700000
809.343750	459.900000
809.379211	462.300000
809.414734	462.200000
809.450134	466.700000
809.485657	454.600000
809.521118	457.100000
809.556580	452.600000
809.592102	451.900000
809.627502	449.400000
809.663025	449.100000
809.698486	452.700000
809.733887	448.700000
809.769409	451.000000
809.804871	438.800000
809.840271	444.900000
809.875793	444.500000
809.911194	445.600000
809.946655	438.200000
809.982178	436.200000
810.017639	440.900000
810.053040	438.300000
810.088501	435.300000
810.123901	433.700000
810.159424	428.600000
810.194885	428.200000
810.230286	432.000000
810.265747	426.400000
810.301208	422.900000
810.336609	425.400000
810.372070	413.600000
810.407532	419.700000
810.442932	421.000000
810.478394	422.100000
810.513794	415.100000
810.549255	413.800000
810.584717	413.200000
810.620117	409.100000
810.655518	413.300000
810.690979	411.800000
810.726379	410.200000
810.761841	404.000000
810.797302	402.500000
810.832642	398.600000
810.868103	414.900000
810.903564	403.100000
810.938904	407.200000
810.974365	395.500000
811.009827	399.900000
811.045166	394.800000
811.080627	389.400000
811.115967	393.100000
811.151428	400.100000
811.186829	394.600000
811.222229	395.900000
811.257629	387.000000
811.293091	392.300000
811.328430	398.400000
811.363892	390.600000
811.399292	390.600000
811.434631	387.400000
811.470093	389.100000
811.505493	384.800000
811.540833	380.400000
811.576294	386.800000
811.611694	382.500000
811.647034	381.600000
811.682434	384.300000
811.717773	385.800000
811.753235	387.500000
811.788635	380.400000
811.823975	381.500000
811.859375	388.100000
811.894775	373.600000
811.930115	380.600000
811.965515	375.900000
812.000916	378.100000
812.036255	373.600000
812.071655	378.800000
812.106995	370.400000
812.142395	369.400000
812.177795	378.000000
812.213196	372.200000
812.248474	368.500000
812.283875	364.900000
812.319214	370.300000
812.354614	368.700000
812.390015	362.700000
812.425293	364.800000
812.460693	365.000000
812.496094	362.900000
812.531433	360.900000
812.566772	363.100000
812.602173	362.300000
812.637451	359.800000
812.672852	356.700000
812.708191	359.700000
812.743530	354.100000
812.778931	351.100000
812.814270	351.200000
812.849609	356.200000
812.884949	351.400000
812.920227	341.400000
812.955627	354.400000
812.990967	350.900000
813.026306	347.600000
813.061646	333.200000
813.096985	333.600000
813.132324	332.700000
813.167664	337.700000
813.203003	340.400000
813.238281	329.200000
813.273682	328.800000
813.308960	329.800000
813.344299	327.800000
813.379639	336.400000
813.414978	329.400000
813.450256	328.100000
813.485596	330.400000
813.520874	323.400000
813.556213	325.100000
813.591614	329.600000
813.626831	324.100000
813.662170	325.000000
813.697510	331.800000
813.732788	319.700000
813.768127	322.600000
813.803467	321.000000
813.838745	317.900000
813.874084	321.000000
813.909363	320.700000
813.944641	321.300000
813.979980	312.700000
814.015320	316.300000
814.050598	313.600000
814.085876	314.500000
814.121155	315.200000
814.156494	310.500000
814.191772	313.900000
814.227051	311.100000
814.262390	311.800000
814.297668	310.600000
814.332947	310.000000
814.368225	303.500000
814.403564	307.600000
814.438782	301.600000
814.474121	306.000000
814.509338	302.900000
814.544617	307.000000
814.579956	301.500000
814.615173	310.400000
814.650513	305.300000
814.685791	302.700000
814.721008	303.000000
814.756348	302.500000
814.791626	296.300000
814.826843	299.100000
814.862122	297.100000
814.897400	296.600000
814.932678	296.900000
814.967957	297.600000
815.003235	296.800000
815.038452	290.100000
815.073730	288.700000
815.108948	297.300000
815.144226	294.500000
815.179504	298.600000
815.214722	288.100000
815.250000	284.600000
815.285278	291.600000
815.320496	286.400000
815.355774	287.400000
815.391052	287.900000
815.426270	287.100000
815.461487	286.900000
815.496765	281.800000
815.531982	278.400000
815.567261	282.800000
815.602539	287.300000
815.637695	285.700000
815.672974	287.000000
815.708191	287.000000
815.743408	289.600000
815.778687	278.500000
815.813904	285.600000
815.849121	275.700000
815.884399	276.200000
815.919556	274.600000
815.954834	276.100000
815.990051	280.800000
816.025269	281.000000
816.060486	273.300000
816.095703	271.800000
816.130920	275.100000
816.166199	270.900000
816.201416	275.100000
816.236572	275.100000
816.271851	269.300000
816.307007	274.400000
816.342224	265.800000
816.377441	268.200000
816.412659	263.700000
816.447876	269.000000
816.483093	266.400000
816.518250	266.400000
816.553467	264.500000
816.588745	267.600000
816.623901	260.600000
816.659119	257.400000
816.694275	260.400000
816.729492	257.600000
816.764709	286.800000
816.799927	253.800000
816.835083	259.500000
816.870300	252.200000
816.905457	255.400000
816.940674	256.100000
816.975830	252.400000
817.010986	250.900000
817.046204	250.700000
817.081421	248.100000
817.116577	249.000000
817.151733	256.800000
817.186951	254.800000
817.222107	252.200000
817.257324	252.800000
817.292419	254.000000
817.327637	246.000000
817.362854	248.700000
817.398010	242.500000
817.433167	247.200000
817.468323	245.300000
817.503479	247.200000
817.538635	253.300000
817.573853	247.200000
817.608948	243.500000
817.644165	242.800000
817.679321	240.500000
817.714478	240.700000
817.749634	243.300000
817.784790	251.100000
817.819946	245.800000
817.855103	233.500000
817.890198	238.500000
817.925415	234.400000
817.960571	241.300000
817.995667	240.500000
818.030823	239.400000
818.066040	235.800000
818.101135	239.000000
818.136292	237.400000
818.171448	232.900000
818.206543	235.200000
818.241699	238.400000
818.276855	236.000000
818.311951	235.200000
818.347107	230.800000
818.382263	237.600000
818.417358	238.800000
818.452515	237.700000
818.487610	238.400000
818.522766	232.700000
818.557922	238.400000
818.593018	235.800000
818.628113	233.700000
818.663269	228.600000
818.698364	231.200000
818.733521	228.800000
818.768677	231.900000
818.803711	227.600000
818.838867	225.700000
818.874023	228.800000
818.909058	226.000000
818.944214	224.600000
818.979370	228.000000
819.014404	227.900000
819.049561	223.400000
819.084595	228.200000
819.119751	222.000000
819.154846	226.400000
819.189941	222.400000
819.225037	219.600000
819.260193	216.900000
819.295227	217.200000
819.330322	214.800000
819.365479	214.400000
819.400513	248.100000
819.435608	214.400000
819.470764	211.800000
819.505798	213.100000
819.540894	216.700000
819.575989	212.200000
819.611084	219.300000
819.646179	220.800000
819.681213	217.100000
819.716309	213.400000
819.751404	213.600000
819.786438	219.100000
819.821533	209.500000
819.856628	213.800000
819.891663	215.700000
819.926758	223.000000
819.961853	219.100000
819.996887	210.900000
820.031982	214.900000
820.067017	211.100000
820.102112	245.400000
820.137207	210.800000
820.172302	222.600000
820.207275	209.900000
820.242371	208.700000
820.277405	209.400000
820.312500	212.000000
820.347534	210.900000
820.382568	215.700000
820.417664	208.900000
820.452759	209.200000
820.487732	207.800000
820.522827	208.600000
820.557861	204.900000
820.592896	208.900000
820.627930	208.300000
820.662964	204.900000
820.698059	209.000000
820.733093	206.100000
820.768127	208.400000
820.803162	206.000000
820.838196	203.100000
820.873230	205.100000
820.908264	207.200000
820.943298	204.500000
820.978333	209.300000
821.013367	206.800000
821.048401	209.300000
821.083435	208.300000
821.118469	200.400000
821.153503	208.200000
821.188477	206.400000
821.223511	200.800000
821.258484	203.200000
821.293579	204.400000
821.328613	200.300000
821.363647	203.300000
821.398621	200.600000
821.433655	201.800000
821.468628	213.400000
821.503662	203.000000
821.538696	205.100000
821.573669	200.000000
821.608704	206.600000
821.643677	201.700000
821.678650	206.700000
821.713684	209.400000
821.748718	204.000000
821.783691	203.700000
821.818726	204.000000
821.853638	204.200000
821.888672	203.200000
821.923706	200.600000
821.958618	201.800000
821.993652	201.000000
822.028687	206.200000
822.063599	209.000000
822.098633	204.100000
822.133667	197.300000
822.168579	202.400000
822.203613	204.200000
822.238586	198.900000
822.273560	205.200000
822.308533	199.400000
822.343567	198.700000
822.378479	202.800000
822.413452	199.200000
822.448425	197.000000
822.483398	204.100000
822.518372	204.400000
822.553345	197.400000
822.588318	206.500000
822.623291	200.100000
822.658203	198.400000
822.693237	201.100000
822.728210	197.200000
822.763123	200.200000
822.798096	198.100000
822.833069	200.100000
822.867981	200.600000
822.902954	202.200000
822.937927	201.700000
822.972900	208.500000
823.007874	194.300000
823.042725	204.000000
823.077698	209.200000
823.112671	197.900000
823.147583	199.700000
823.182556	203.400000
823.217529	202.900000
823.252441	200.600000
823.287415	208.200000
823.322388	204.500000
823.357239	200.200000
823.392212	206.400000
823.427185	205.900000
823.462097	197.800000
823.497009	202.300000
823.531982	199.600000
823.566895	201.000000
823.601807	196.500000
823.636719	198.200000
823.671631	201.100000
823.706604	197.500000
823.741455	202.400000
823.776428	195.600000
823.811340	201.900000
823.846252	204.500000
823.881165	204.200000
823.916138	198.900000
823.950989	204.600000
823.985901	197.700000
824.020813	199.000000
824.055725	199.300000
824.090637	194.300000
824.125610	201.800000
824.160461	200.000000
824.195374	200.200000
824.230225	202.000000
824.265198	193.700000
824.300110	197.200000
824.334961	207.300000
824.369873	192.000000
824.404785	202.100000
824.439636	203.800000
824.474548	192.700000
824.509460	192.300000
824.544312	204.600000
824.579224	200.300000
824.614075	202.000000
824.648987	197.900000
824.683899	199.200000
824.718811	197.100000
824.753662	202.600000
824.788574	202.000000
824.823364	200.000000
824.858276	194.400000
824.893188	201.100000
824.928040	200.900000
824.962952	199.700000
824.997803	200.800000
825.032654	198.000000
825.067566	199.800000
825.102417	195.700000
825.137268	195.600000
825.172119	196.000000
825.206970	195.200000
825.241882	196.500000
825.276733	193.300000
825.311646	195.200000
825.346436	192.500000
825.381348	192.300000
825.416138	195.500000
825.450989	192.200000
825.485901	189.000000
825.520691	190.900000
825.555542	190.600000
825.590454	194.600000
825.625244	190.100000
825.660095	200.100000
825.695007	198.500000
825.729797	194.900000
825.764648	191.000000
825.799438	194.600000
825.834290	196.600000
825.869202	189.900000
825.903992	194.900000
825.938843	192.200000
825.973694	190.500000
826.008484	201.700000
826.043335	191.100000
826.078186	187.300000
826.112976	196.200000
826.147827	197.100000
826.182678	200.800000
826.217468	187.100000
826.252319	199.100000
826.287109	190.100000
826.321899	197.000000
826.356750	191.300000
826.391541	188.500000
826.426392	194.500000
826.461182	192.800000
826.495972	187.600000
826.530823	184.400000
826.565613	192.300000
826.600403	188.100000
826.635254	193.400000
826.670044	185.900000
826.704834	187.800000
826.739685	187.200000
826.774475	193.500000
826.809265	190.500000
826.844055	189.200000
826.878906	196.400000
826.913635	192.200000
826.948425	192.600000
826.983215	192.700000
827.018005	194.000000
827.052856	189.200000
827.087585	194.000000
827.122375	186.000000
827.157227	191.000000
827.191956	201.700000
827.226746	186.700000
827.261536	194.200000
827.296265	186.400000
827.331116	189.200000
827.365906	192.000000
827.400635	189.400000
827.435425	185.300000
827.470215	196.400000
827.504944	190.500000
827.539734	196.100000
827.574463	189.800000
827.609253	199.100000
827.644043	191.200000
827.678772	196.200000
827.713562	190.100000
827.748352	190.400000
827.783081	187.600000
827.817871	192.500000
827.852600	189.200000
827.887329	192.100000
827.922119	185.100000
827.956848	193.000000
827.991638	201.000000
828.026367	193.400000
828.061157	191.900000
828.095886	190.800000
828.130615	203.000000
828.165344	184.200000
828.200073	190.600000
828.234863	189.800000
828.269592	189.800000
828.304321	193.700000
828.339111	191.400000
828.373779	187.400000
828.408569	195.100000
828.443298	194.200000
828.477966	188.300000
828.512756	190.200000
828.547424	187.700000
828.582214	189.300000
828.616943	188.100000
828.651672	189.500000
828.686340	194.200000
828.721130	187.500000
828.755798	189.000000
828.790527	189.600000
828.825256	192.700000
828.859924	192.200000
828.894714	195.100000
828.929443	196.500000
828.964111	189.800000
828.998840	195.000000
829.033569	190.200000
829.068237	189.400000
829.102966	190.600000
829.137634	191.200000
829.172363	194.000000
829.207092	192.300000
829.241821	188.500000
829.276489	185.500000
829.311157	191.900000
829.345825	189.200000
829.380554	194.900000
829.415283	187.100000
829.449951	186.100000
829.484619	197.700000
829.519348	195.000000
829.554016	190.400000
829.588745	191.900000
829.623413	186.700000
829.658081	198.700000
829.692749	187.200000
829.727417	193.700000
829.762146	191.600000
829.796814	188.300000
829.831482	188.800000
829.866150	191.000000
829.900879	188.700000
829.935486	191.700000
829.970154	188.800000
830.004883	198.600000
830.039490	192.300000
830.074219	187.900000
830.108887	192.400000
830.143494	189.700000
830.178223	185.900000
830.212891	188.900000
830.247498	191.800000
830.282166	196.600000
830.316772	196.000000
830.351501	188.900000
830.386169	191.000000
830.420776	188.600000
830.455444	192.800000
830.490112	187.600000
830.524719	185.600000
830.559387	193.500000
830.594055	194.300000
830.628662	191.000000
830.663330	192.800000
830.697998	197.000000
830.732605	190.600000
830.767273	191.500000
830.801941	190.500000
830.836487	198.700000
830.871155	192.900000
830.905762	191.900000
830.940430	186.000000
830.975098	187.600000
831.009644	190.900000
831.044312	196.500000
831.078979	192.800000
831.113525	183.100000
831.148193	191.300000
831.182861	189.700000
831.217407	192.800000
831.252075	201.500000
831.286621	186.900000
831.321289	187.300000
831.355896	190.600000
831.390564	197.200000
831.425110	190.500000
831.459778	197.300000
831.494324	200.300000
831.528931	191.600000
831.563599	195.400000
831.598145	187.200000
831.632751	191.300000
831.667419	189.300000
831.701965	192.300000
831.736572	192.300000
831.771179	187.000000
831.805786	189.100000
831.840393	196.600000
831.874939	185.800000
831.909546	194.400000
831.944153	185.300000
831.978760	191.000000
832.013306	188.100000
832.047913	195.400000
832.082458	197.400000
832.117065	189.300000
832.151672	199.600000
832.186218	192.100000
832.220825	193.900000
832.255432	183.900000
832.289978	189.200000
832.324585	191.600000
832.359192	192.100000
832.393677	190.800000
832.428284	190.900000
832.462830	190.100000
832.497437	189.100000
832.531982	192.500000
832.566589	188.400000
832.601135	192.300000
832.635681	184.000000
832.670227	189.700000
832.704773	196.500000
832.739380	191.400000
832.773926	190.400000
832.808472	187.500000
832.843079	189.600000
832.877563	192.200000
832.912170	189.000000
832.946716	186.000000
832.981201	194.000000
833.015808	193.000000
833.050293	190.400000
833.084839	187.700000
833.119446	190.000000
833.153992	193.500000
833.188477	190.300000
833.223022	188.200000
833.257568	191.800000
833.292114	196.600000
833.326660	199.700000
833.361145	189.500000
833.395691	184.300000
833.430237	192.300000
833.464783	194.000000
833.499329	188.800000
833.533875	187.400000
833.568359	192.500000
833.602905	193.700000
833.637390	196.000000
833.671875	188.700000
833.706421	188.400000
833.740906	187.300000
833.775452	182.800000
833.809998	188.100000
833.844482	196.600000
833.879028	189.300000
833.913513	189.000000
833.947998	192.700000
833.982544	187.200000
834.017090	187.000000
834.051514	182.600000
834.086060	192.800000
834.120544	189.800000
834.155029	190.400000
834.189575	188.100000
834.223999	192.400000
834.258545	190.700000
834.293030	191.700000
834.327515	190.100000
834.362000	188.300000
834.396545	192.700000
834.430969	189.400000
834.465454	193.200000
834.500000	185.700000
834.534424	192.700000
834.568970	184.500000
834.603455	184.700000
834.637878	188.900000
834.672363	191.500000
834.706909	192.400000
834.741333	190.200000
834.775818	185.400000
834.810242	188.200000
834.844727	191.400000
834.879211	189.300000
834.913635	191.900000
834.948181	191.400000
834.982666	191.400000
835.017090	188.900000
835.051575	192.800000
835.086060	188.800000
835.120483	192.800000
835.154907	191.900000
835.189331	190.000000
835.223816	192.900000
835.258301	184.700000
835.292786	186.900000
835.327209	193.800000
835.361694	187.900000
835.396057	189.000000
835.430542	192.300000
835.465027	190.000000
835.499390	186.700000
835.533875	216.800000
835.568359	187.800000
835.602722	185.300000
835.637207	190.900000
835.671692	186.600000
835.706055	206.900000
835.740540	191.400000
835.774902	192.800000
835.809387	191.100000
835.843811	185.800000
835.878235	195.100000
835.912659	186.600000
835.947083	189.200000
835.981506	191.600000
836.015930	185.000000
836.050354	194.800000
836.084778	197.100000
836.119202	195.400000
836.153625	202.900000
836.187988	188.300000
836.222473	187.400000
836.256897	192.600000
836.291260	188.800000
836.325684	193.500000
836.360046	188.300000
836.394470	190.000000
836.428894	195.900000
836.463318	187.800000
836.497681	192.700000
836.532104	196.100000
836.566467	190.500000
836.600891	190.500000
836.635315	194.700000
836.669678	192.000000
836.704102	193.000000
836.738525	192.100000
836.772888	184.200000
836.807251	188.500000
836.841675	192.800000
836.876038	185.000000
836.910461	187.100000
836.944763	193.600000
836.979187	187.100000
837.013611	195.100000
837.047974	185.500000
837.082336	198.900000
837.116699	192.600000
837.151062	189.900000
837.185486	185.600000
837.219849	188.700000
837.254211	193.900000
837.288574	189.000000
837.322937	185.400000
837.357300	182.700000
837.391663	199.500000
837.426086	193.500000
837.460388	191.300000
837.494751	193.500000
837.529114	188.500000
837.563477	196.400000
837.597839	192.200000
837.632141	190.300000
837.666565	189.500000
837.700928	193.700000
837.735229	192.800000
837.769592	192.800000
837.803955	194.800000
837.838257	188.000000
837.872620	189.800000
837.906982	195.700000
837.941284	191.100000
837.975647	191.200000
838.010010	196.500000
838.044312	187.800000
838.078674	189.400000
838.112976	191.400000
838.147339	190.600000
838.181702	190.500000
838.216003	196.400000
838.250366	192.100000
838.284668	193.100000
838.318970	184.000000
838.353333	188.500000
838.387634	190.500000
838.421936	190.900000
838.456299	190.900000
838.490601	195.400000
838.524902	193.200000
838.559265	194.800000
838.593567	194.100000
838.627869	185.900000
838.662170	192.900000
838.696472	185.600000
838.730774	187.800000
838.765137	193.100000
838.799377	181.700000
838.833740	191.300000
838.868042	194.800000
838.902283	185.500000
838.936646	196.900000
838.970947	190.400000
839.005188	197.800000
839.039551	185.400000
839.073792	196.100000
839.108093	189.200000
839.142395	199.800000
839.176697	186.200000
839.210937	192.200000
839.245300	200.000000
839.279541	187.100000
839.313843	188.600000
839.348145	192.600000
839.382385	194.400000
839.416687	195.600000
839.450989	193.600000
839.485229	190.100000
839.519531	187.900000
839.553833	194.400000
839.588013	189.800000
839.622314	192.000000
839.656555	191.900000
839.690857	190.200000
839.725159	186.900000
839.759460	189.700000
839.793640	188.500000
839.827942	189.600000
839.862183	186.100000
839.896423	192.200000
839.930725	200.400000
839.964966	197.000000
839.999207	194.500000
840.033508	197.600000
840.067688	188.100000
840.101990	197.000000
840.136230	190.800000
840.170471	196.900000
840.204712	188.200000
840.238953	187.400000
840.273193	192.200000
840.307434	194.100000
840.341736	188.900000
840.375916	187.100000
840.410217	188.600000
840.444397	195.100000
840.478638	192.900000
840.512878	193.800000
840.547119	192.800000
840.581360	195.200000
840.615601	198.500000
840.649780	200.100000
840.684021	191.600000
840.718262	197.300000
840.752441	197.300000
840.786682	192.100000
840.820862	191.500000
840.855103	196.200000
840.889343	192.000000
840.923584	194.900000
840.957764	192.300000
840.992004	191.800000
841.026184	202.900000
841.060425	189.900000
841.094666	187.400000
841.128845	193.100000
841.163025	191.600000
841.197266	192.800000
841.231445	191.300000
841.265686	192.700000
841.299866	187.300000
841.334045	196.300000
841.368286	189.000000
841.402405	196.700000
841.436646	193.000000
841.470825	188.100000
841.505005	189.000000
841.539185	187.900000
841.573425	187.200000
841.607544	190.400000
841.641785	189.700000
841.675964	188.800000
841.710144	192.900000
841.744324	189.400000
841.778503	190.600000
841.812683	188.600000
841.846863	196.700000
841.881042	197.200000
841.915222	188.700000
841.949402	202.100000
841.983521	184.400000
842.017700	190.700000
842.051880	191.500000
842.086060	194.500000
842.120239	191.900000
842.154419	188.700000
842.188538	191.500000
842.222717	187.000000
842.256897	197.300000
842.291016	192.300000
842.325195	192.600000
842.359375	199.300000
842.393494	197.500000
842.427673	191.800000
842.461853	194.100000
842.495911	198.100000
842.530090	192.000000
842.564209	190.100000
842.598389	191.700000
842.632568	190.700000
842.666626	193.000000
842.700806	188.700000
842.734985	188.500000
842.769043	191.700000
842.803223	190.100000
842.837402	190.400000
842.871460	187.900000
842.905640	200.000000
842.939697	188.800000
842.973877	192.900000
843.007996	197.700000
843.042175	199.600000
843.076233	190.100000
843.110413	193.800000
843.144470	197.800000
843.178589	195.500000
843.212769	190.600000
843.246826	195.500000
843.280945	189.700000
843.315125	191.200000
843.349182	189.200000
843.383301	196.100000
843.417419	204.200000
843.451538	191.500000
843.485657	190.100000
843.519714	192.000000
843.553833	193.200000
843.587952	190.100000
843.622070	189.600000
843.656128	194.200000
843.690247	188.500000
843.724304	191.400000
843.758423	194.600000
843.792542	188.100000
843.826599	191.700000
843.860718	190.700000
843.894836	185.000000
843.928894	191.000000
843.963013	191.500000
843.997070	187.300000
844.031128	186.900000
844.065247	195.200000
844.099304	193.000000
844.133362	191.800000
844.167480	193.600000
844.201599	195.500000
844.235596	191.600000
844.269714	192.700000
844.303711	192.400000
844.337830	185.900000
844.371948	192.200000
844.405945	191.000000
844.440063	187.500000
844.474121	203.300000
844.508118	190.400000
844.542236	191.000000
844.576294	190.300000
844.610352	187.400000
844.644409	190.200000
844.678406	186.100000
844.712524	195.400000
844.746582	197.900000
844.780640	191.600000
844.814636	192.200000
844.848755	201.200000
844.882751	190.400000
844.916809	193.200000
844.950867	194.900000
844.984863	197.800000
845.018921	190.600000
845.052979	188.100000
845.086975	191.700000
845.121033	185.700000
845.155090	189.600000
845.189087	196.500000
845.223145	188.900000
845.257141	192.900000
845.291199	193.300000
845.325256	194.800000
845.359253	192.700000
845.393250	203.000000
845.427307	189.800000
845.461304	191.300000
845.495361	192.100000
845.529358	198.600000
845.563354	190.500000
845.597412	187.700000
845.631409	198.400000
845.665405	196.100000
845.699463	194.600000
845.733459	189.400000
845.767456	199.900000
845.801453	190.000000
845.835449	196.600000
845.869446	195.400000
845.903503	194.300000
845.937439	188.600000
845.971497	196.500000
846.005493	187.400000
846.039429	194.800000
846.073486	200.000000
846.107483	190.100000
846.141418	190.500000
846.175476	192.000000
846.209473	197.100000
846.243408	188.100000
846.277405	193.400000
846.311401	189.100000
846.345337	191.700000
846.379395	196.400000
846.413330	189.500000
846.447327	200.300000
846.481323	190.500000
846.515259	190.300000
846.549255	190.800000
846.583252	193.600000
846.617187	188.500000
846.651184	191.200000
846.685120	190.800000
846.719055	198.900000
846.753052	193.800000
846.786987	195.300000
846.820984	186.400000
846.854980	197.700000
846.888916	187.800000
846.922852	193.700000
846.956848	196.000000
846.990723	188.800000
847.024719	192.100000
847.058716	190.900000
847.092590	196.900000
847.126587	192.700000
847.160522	189.200000
847.194458	195.200000
847.228455	188.200000
847.262390	187.900000
847.296265	190.600000
847.330261	196.700000
847.364136	189.200000
847.398132	190.700000
847.432068	192.700000
847.466003	189.600000
847.499939	190.700000
847.533875	195.500000
847.567749	190.600000
847.601746	190.600000
847.635681	193.600000
847.669556	186.700000
847.703491	197.800000
847.737427	203.400000
847.771301	187.000000
847.805237	194.400000
847.839233	191.600000
847.873108	191.000000
847.907043	191.200000
847.940918	197.200000
847.974854	193.100000
848.008789	194.700000
848.042664	191.400000
848.076538	192.800000
848.110474	192.500000
848.144348	192.000000
848.178284	184.700000
848.212219	193.400000
848.246094	189.700000
848.279968	192.600000
848.313904	194.700000
848.347778	192.100000
848.381653	190.200000
848.415588	190.400000
848.449463	187.800000
848.483337	193.200000
848.517212	197.400000
848.551086	191.900000
848.585022	187.200000
848.618835	200.400000
848.652771	189.600000
848.686646	187.300000
848.720520	198.000000
848.754395	191.000000
848.788330	194.800000
848.822144	194.700000
848.856018	190.800000
848.889954	200.100000
848.923767	189.200000
848.957642	190.100000
848.991577	193.300000
849.025391	191.700000
849.059265	191.300000
849.093079	188.400000
849.126953	189.200000
849.160828	196.400000
849.194641	192.800000
849.228577	189.900000
849.262451	189.800000
849.296265	190.100000
849.330139	189.800000
849.364014	191.500000
849.397827	193.700000
849.431702	192.100000
849.465515	194.400000
849.499329	184.300000
849.533203	188.000000
849.567078	183.800000
849.600891	193.000000
849.634766	191.200000
849.668518	193.700000
849.702393	191.300000
849.736267	185.500000
849.770020	199.200000
849.803894	194.100000
849.837769	193.600000
849.871521	190.600000
849.905396	194.000000
849.939270	188.000000
849.973022	190.300000
850.006897	194.100000
850.040710	195.300000
850.074524	196.100000
850.108337	191.300000
850.142151	195.400000
850.175964	196.600000
850.209778	191.600000
850.243530	182.200000
850.277405	195.700000
850.311218	192.400000
850.344971	190.300000
850.378845	198.600000
850.412659	188.800000
850.446411	194.500000
850.480225	191.900000
850.514038	196.600000
850.547791	194.000000
850.581665	192.200000
850.615417	188.300000
850.649231	193.400000
850.683044	192.000000
850.716858	191.500000
850.750610	192.800000
850.784424	193.800000
850.818176	187.900000
850.851929	190.900000
850.885742	189.200000
850.919495	192.100000
850.953308	196.900000
850.987122	196.800000
851.020874	185.300000
851.054626	185.400000
851.088440	192.900000
851.122192	194.700000
851.156006	192.700000
851.189697	190.300000
851.223511	186.200000
851.257263	195.000000
851.291077	193.400000
851.324829	190.700000
851.358582	190.000000
851.392334	191.100000
851.426086	189.500000
851.459900	198.500000
851.493591	192.900000
851.527344	191.600000
851.561157	194.200000
851.594849	193.700000
851.628662	192.400000
851.662415	200.100000
851.696106	194.500000
851.729858	195.700000
851.763611	188.200000
851.797363	193.600000
851.831116	188.500000
851.864868	194.400000
851.898560	197.200000
851.932312	190.000000
851.966064	195.300000
851.999817	191.600000
852.033569	190.600000
852.067261	196.800000
852.101013	189.200000
852.134766	190.900000
852.168457	184.900000
852.202209	196.400000
852.235901	187.400000
852.269592	194.000000
852.303345	197.600000
852.337036	194.400000
852.370789	191.600000
852.404541	194.500000
852.438171	188.200000
852.471924	191.800000
852.505676	185.400000
852.539307	192.700000
852.573059	188.600000
852.606812	191.200000
852.640442	188.800000
852.674194	196.300000
852.707886	201.200000
852.741577	196.500000
852.775269	188.600000
852.809021	191.600000
852.842651	193.500000
852.876404	198.000000
852.910034	192.700000
852.943787	195.700000
852.977478	193.100000
853.011108	190.000000
853.044861	188.700000
853.078552	198.100000
853.112183	193.500000
853.145874	192.800000
853.179626	185.200000
853.213257	193.100000
853.246948	189.400000
853.280640	200.000000
853.314270	191.800000
853.347961	196.900000
853.381653	193.900000
853.415283	196.200000
853.448975	188.800000
853.482605	193.700000
853.516296	190.800000
853.549988	187.500000
853.583618	194.300000
853.617310	192.700000
853.651001	192.300000
853.684631	190.000000
853.718323	189.300000
853.751953	197.000000
853.785583	186.100000
853.819275	193.900000
853.852966	193.600000
853.886536	184.800000
853.920227	187.600000
853.953918	194.900000
853.987488	190.000000
854.021179	193.900000
854.054749	198.300000
854.088440	194.400000
854.122131	187.500000
854.155701	193.300000
854.189331	188.300000
854.223022	193.800000
854.256592	193.600000
854.290283	188.200000
854.323914	194.500000
854.357483	191.900000
854.391174	194.400000
854.424744	198.900000
854.458374	192.600000
854.492065	202.700000
854.525696	191.800000
854.559265	196.900000
854.592896	203.100000
854.626465	190.700000
854.660095	192.600000
854.693787	194.000000
854.727356	191.700000
854.760986	195.500000
854.794617	193.800000
854.828186	189.400000
854.861816	194.100000
854.895447	192.500000
854.929016	192.300000
854.962585	192.800000
854.996155	201.500000
855.029785	192.900000
855.063416	192.800000
855.097046	195.500000
855.130615	186.500000
855.164185	195.800000
855.197754	192.300000
855.231384	193.600000
855.264954	191.000000
855.298523	195.300000
855.332153	192.800000
855.365723	196.100000
855.399292	187.800000
855.432922	190.100000
855.466492	194.000000
855.500061	188.400000
855.533630	188.500000
855.567200	195.000000
855.600769	196.000000
855.634338	197.200000
855.667969	192.600000
855.701477	189.800000
855.735046	188.700000
855.768616	185.900000
855.802185	194.000000
855.835754	203.300000
855.869324	185.600000
855.902893	192.100000
855.936401	195.700000
855.969971	193.000000
856.003540	186.200000
856.037109	195.200000
856.070618	191.200000
856.104187	188.600000
856.137695	190.000000
856.171265	184.500000
856.204834	193.000000
856.238403	194.800000
856.271912	188.600000
856.305481	194.500000
856.338989	186.100000
856.372559	195.000000
856.406128	193.000000
856.439636	195.700000
856.473145	190.500000
856.506653	199.200000
856.540222	190.300000
856.573792	196.200000
856.607300	195.700000
856.640808	186.800000
856.674377	191.300000
856.707825	223.500000
856.741394	195.900000
856.774902	187.500000
856.808472	184.800000
856.841980	194.800000
856.875488	196.400000
856.908936	186.000000
856.942505	189.500000
856.976013	190.800000
857.009521	188.100000
857.043030	192.000000
857.076477	190.400000
857.110046	197.500000
857.143555	192.900000
857.177063	194.000000
857.210571	190.000000
857.244080	187.600000
857.277527	193.600000
857.311035	192.800000
857.344543	197.400000
857.378052	191.000000
857.411499	197.300000
857.445068	198.600000
857.478516	192.500000
857.512024	187.800000
857.545532	191.100000
857.578979	193.500000
857.612427	193.300000
857.645874	188.800000
857.679382	192.600000
857.712891	195.700000
857.746399	191.600000
857.779846	195.600000
857.813354	196.700000
857.846741	192.500000
857.880249	188.400000
857.913757	192.800000
857.947266	192.500000
857.980652	193.900000
858.014160	190.000000
858.047546	188.700000
858.081055	190.300000
858.114563	202.000000
858.147949	185.900000
858.181458	193.100000
858.214844	191.100000
858.248352	186.200000
858.281799	194.100000
858.315308	202.000000
858.348694	193.400000
858.382141	199.200000
858.415588	195.400000
858.449036	195.000000
858.482483	193.000000
858.515930	190.600000
858.549377	192.300000
858.582825	197.700000
858.616211	193.200000
858.649658	194.700000
858.683105	188.000000
858.716553	191.600000
858.750000	187.700000
858.783386	190.100000
858.816833	186.600000
858.850281	194.500000
858.883728	192.400000
858.917114	193.600000
858.950562	199.800000
858.983948	197.700000
859.017395	196.200000
859.050781	191.400000
859.084167	188.900000
859.117615	189.200000
859.151062	194.000000
859.184448	188.700000
859.217834	190.200000
859.251282	189.300000
859.284668	187.900000
859.318054	186.000000
859.351440	190.800000
859.384888	198.100000
859.418274	186.700000
859.451721	184.300000
859.485046	193.900000
859.518494	193.200000
859.551819	188.600000
859.585266	193.800000
859.618652	194.900000
859.652039	187.700000
859.685425	187.200000
859.718811	187.000000
859.752197	183.000000
859.785583	196.200000
859.819031	196.500000
859.852356	194.700000
859.885742	188.700000
859.919067	192.000000
859.952454	190.900000
859.985901	194.600000
860.019287	190.600000
860.052612	0.000000
860.085999	0.000000
860.119324	0.000000
860.152710	0.000000
860.186096	0.000000
860.219421	0.000000
860.252808	0.000000
860.286133	0.000000
860.319519	0.000000
860.352905	0.000000
860.386292	0.000000
860.419617	0.000000
860.452942	0.000000
860.486267	0.000000
860.519653	0.000000
860.553040	0.000000
860.586365	0.000000
860.619690	0.000000
860.653076	0.000000
860.686340	0.000000
860.719727	0.000000
860.753113	0.000000
860.786377	0.000000
860.819763	0.000000
860.853027	0.000000
860.886414	0.000000
860.919739	0.000000
860.953125	0.000000
860.986389	0.000000
861.019714	0.000000
861.053040	0.000000
861.086365	0.000000
861.119690	0.000000
861.153076	0.000000
861.186340	0.000000
861.219666	0.000000
861.252930	0.000000
861.286316	0.000000
861.319641	0.000000
861.352905	0.000000
861.386230	0.000000
861.419495	0.000000
861.452820	0.000000
861.486145	0.000000
861.519470	0.000000
861.552734	0.000000
861.586060	0.000000
861.619324	0.000000
861.652649	0.000000
861.685974	0.000000
861.719238	0.000000
861.752563	0.000000
861.785828	0.000000
861.819092	0.000000
861.852417	0.000000
861.885742	0.000000
861.918945	0.000000
861.952271	0.000000
861.985535	0.000000
862.018799	0.000000
862.052124	0.000000
862.085449	0.000000
862.118652	0.000000
862.151978	0.000000
862.185181	0.000000
862.218506	0.000000
862.251770	0.000000
862.285034	0.000000
862.318298	0.000000
862.351562	0.000000
862.384827	0.000000
862.418091	0.000000
862.451355	0.000000
862.484619	0.000000
862.517883	0.000000
862.551086	0.000000
862.584351	0.000000
862.617676	0.000000
862.650940	0.000000
862.684143	0.000000
862.717407	0.000000
862.750610	0.000000
862.783875	0.000000
862.817139	0.000000
862.850342	0.000000
862.883606	0.000000
862.916870	0.000000
862.950073	0.000000
862.983337	0.000000
863.016602	0.000000
863.049805	0.000000
863.083069	0.000000
863.116211	0.000000
863.149475	0.000000
863.182739	0.000000
863.216003	0.000000
863.249146	0.000000
863.282410	0.000000
863.315613	0.000000
863.348816	0.000000
863.382080	0.000000
863.415222	0.000000
863.448486	0.000000
863.481689	0.000000
863.514893	0.000000
863.548157	0.000000
863.581360	0.000000
863.614502	0.000000
863.647766	0.000000
863.680908	0.000000
863.714172	0.000000
863.747375	0.000000
863.780579	0.000000
863.813721	0.000000
863.846985	0.000000
863.880127	0.000000
863.913330	0.000000
863.946533	0.000000
863.979675	0.000000
864.012939	0.000000
