Model Number: SPM-001-M   
Serial Number: 10090201
Firmware Version: 004.17.6
Exposure Time: 300000.000000us
Data Taken on: 21-01-2021 14:14:34.687
Wavelength	Amplitude
733.770752	0.000000
733.808716	0.000000
733.846619	0.000000
733.884583	0.000000
733.922546	0.000000
733.960449	0.000000
733.998413	0.000000
734.036377	0.000000
734.074219	0.000000
734.112183	0.000000
734.150085	0.000000
734.188049	0.000000
734.226013	0.000000
734.263916	0.000000
734.301819	0.000000
734.339783	0.000000
734.377686	0.000000
734.415588	0.000000
734.453552	0.000000
734.491455	0.000000
734.529419	0.000000
734.567322	0.000000
734.605225	0.000000
734.643127	0.000000
734.681091	0.000000
734.718994	0.000000
734.756897	0.000000
734.794800	0.000000
734.832703	0.000000
734.870667	0.000000
734.908508	0.000000
734.946472	0.000000
734.984375	0.000000
735.022278	0.000000
735.060181	0.000000
735.098083	0.000000
735.135986	0.000000
735.173889	0.000000
735.211792	0.000000
735.249695	0.000000
735.287598	0.000000
735.325439	0.000000
735.363403	0.000000
735.401306	0.000000
735.439148	0.000000
735.477051	0.000000
735.515015	0.000000
735.552856	0.000000
735.590759	0.000000
735.628662	0.000000
735.666504	0.000000
735.704407	0.000000
735.742310	0.000000
735.780212	0.000000
735.818115	0.000000
735.856018	0.000000
735.893860	0.000000
735.931763	0.000000
735.969604	0.000000
736.007507	0.000000
736.045410	0.000000
736.083252	0.000000
736.121094	0.000000
736.158997	0.000000
736.196838	0.000000
736.234741	0.000000
736.272644	0.000000
736.310486	0.000000
736.348389	0.000000
736.386230	0.000000
736.424072	0.000000
736.461975	0.000000
736.499878	0.000000
736.537720	0.000000
736.575562	0.000000
736.613403	0.000000
736.651306	0.000000
736.689148	0.000000
736.726990	0.000000
736.764893	0.000000
736.802734	0.000000
736.840576	0.000000
736.878418	0.000000
736.916321	0.000000
736.954102	0.000000
736.992004	0.000000
737.029846	0.000000
737.067688	0.000000
737.105530	0.000000
737.143372	0.000000
737.181213	0.000000
737.219116	0.000000
737.256897	0.000000
737.294739	0.000000
737.332642	0.000000
737.370422	0.000000
737.408325	0.000000
737.446167	0.000000
737.483948	0.000000
737.521790	0.000000
737.559692	0.000000
737.597473	0.000000
737.635315	0.000000
737.673157	0.000000
737.710999	0.000000
737.748840	0.000000
737.786621	0.000000
737.824463	0.000000
737.862305	0.000000
737.900085	0.000000
737.937927	0.000000
737.975769	0.000000
738.013550	0.000000
738.051392	0.000000
738.089233	0.000000
738.127014	0.000000
738.164856	0.000000
738.202698	0.000000
738.240479	0.000000
738.278320	0.000000
738.316162	0.000000
738.353943	0.000000
738.391785	0.000000
738.429565	0.000000
738.467407	0.000000
738.505188	0.000000
738.542969	0.000000
738.580811	0.000000
738.618652	0.000000
738.656372	0.000000
738.694214	0.000000
738.732056	0.000000
738.769836	0.000000
738.807617	0.000000
738.845459	0.000000
738.883240	0.000000
738.921021	0.000000
738.958862	0.000000
738.996582	0.000000
739.034424	0.000000
739.072205	0.000000
739.109985	0.000000
739.147827	0.000000
739.185547	0.000000
739.223389	0.000000
739.261169	0.000000
739.298889	0.000000
739.336731	0.000000
739.374512	0.000000
739.412292	0.000000
739.450073	0.000000
739.487854	0.000000
739.525635	0.000000
739.563416	0.000000
739.601135	0.000000
739.638977	0.000000
739.676758	0.000000
739.714478	0.000000
739.752258	0.000000
739.790100	0.000000
739.827820	0.000000
739.865601	0.000000
739.903381	0.000000
739.941101	0.000000
739.978882	193.500000
740.016724	190.700000
740.054443	193.800000
740.092224	189.400000
740.130005	189.700000
740.167725	189.300000
740.205505	187.700000
740.243225	196.200000
740.281006	191.600000
740.318787	187.200000
740.356506	196.400000
740.394287	194.700000
740.432068	188.400000
740.469727	186.200000
740.507507	193.000000
740.545288	191.900000
740.583008	193.700000
740.620789	190.800000
740.658569	186.200000
740.696228	190.900000
740.734009	194.500000
740.771790	184.200000
740.809509	193.600000
740.847229	187.600000
740.884949	189.800000
740.922729	186.500000
740.960449	190.400000
740.998169	185.900000
741.035950	187.400000
741.073669	190.300000
741.111389	190.700000
741.149170	198.300000
741.186890	198.000000
741.224609	193.900000
741.262329	192.100000
741.300110	198.700000
741.337769	187.800000
741.375549	186.500000
741.413208	191.300000
741.450989	188.000000
741.488708	188.800000
741.526367	189.800000
741.564148	194.200000
741.601868	194.200000
741.639526	191.900000
741.677307	193.100000
741.715027	193.800000
741.752686	189.400000
741.790466	198.800000
741.828186	193.100000
741.865845	188.000000
741.903564	185.400000
741.941345	191.000000
741.979004	187.700000
742.016724	194.400000
742.054382	192.100000
742.092102	195.100000
742.129822	186.600000
742.167480	189.800000
742.205200	190.100000
742.242920	193.500000
742.280640	194.500000
742.318359	187.600000
742.356079	190.400000
742.393738	194.500000
742.431396	189.800000
742.469116	193.500000
742.506775	184.600000
742.544495	192.700000
742.582214	194.700000
742.619873	190.800000
742.657593	197.400000
742.695251	195.600000
742.732971	189.800000
742.770630	192.800000
742.808289	191.400000
742.846008	190.300000
742.883728	193.000000
742.921326	192.200000
742.959045	190.600000
742.996765	191.200000
743.034424	192.000000
743.072083	188.500000
743.109802	190.100000
743.147400	187.000000
743.185120	191.800000
743.222839	191.600000
743.260437	196.200000
743.298157	192.800000
743.335754	185.800000
743.373474	190.400000
743.411133	186.400000
743.448792	191.700000
743.486450	191.600000
743.524170	186.000000
743.561768	189.900000
743.599487	195.700000
743.637146	199.600000
743.674744	189.500000
743.712463	188.900000
743.750122	192.100000
743.787720	192.800000
743.825439	188.500000
743.863037	189.800000
743.900696	190.700000
743.938416	216.400000
743.976013	190.300000
744.013672	197.400000
744.051331	195.400000
744.088928	197.800000
744.126587	194.700000
744.164307	192.200000
744.201904	189.100000
744.239563	193.700000
744.277222	194.500000
744.314819	191.300000
744.352478	197.600000
744.390137	194.900000
744.427734	192.800000
744.465393	189.800000
744.502991	188.300000
744.540649	193.000000
744.578308	191.900000
744.615906	187.800000
744.653564	183.300000
744.691223	192.800000
744.728821	187.100000
744.766418	190.800000
744.804077	193.100000
744.841675	189.400000
744.879333	187.000000
744.916992	190.800000
744.954529	189.800000
744.992187	195.900000
745.029785	191.000000
745.067444	189.200000
745.105042	191.000000
745.142639	191.400000
745.180298	198.900000
745.217896	191.000000
745.255493	189.800000
745.293152	194.400000
745.330750	194.200000
745.368347	197.800000
745.405945	194.300000
745.443604	192.000000
745.481140	193.200000
745.518799	190.700000
745.556396	193.000000
745.593994	193.900000
745.631592	191.900000
745.669189	186.100000
745.706787	191.000000
745.744385	188.900000
745.781982	194.200000
745.819580	188.700000
745.857178	191.200000
745.894775	190.800000
745.932373	193.100000
745.969971	192.600000
746.007568	185.000000
746.045166	197.900000
746.082764	197.000000
746.120300	194.300000
746.157898	192.900000
746.195557	190.200000
746.233093	188.300000
746.270691	192.200000
746.308228	193.600000
746.345825	194.600000
746.383423	195.000000
746.420959	187.700000
746.458557	189.200000
746.496155	188.900000
746.533691	192.300000
746.571289	187.500000
746.608887	190.500000
746.646423	193.700000
746.684021	191.900000
746.721619	188.400000
746.759155	192.700000
746.796753	185.700000
746.834351	186.000000
746.871826	190.200000
746.909424	196.200000
746.946960	190.300000
746.984558	190.500000
747.022156	190.000000
747.059631	198.400000
747.097229	194.200000
747.134827	190.600000
747.172363	194.700000
747.209900	194.900000
747.247498	188.700000
747.285034	195.000000
747.322571	196.700000
747.360168	190.300000
747.397644	186.900000
747.435242	194.100000
747.472778	195.200000
747.510315	189.400000
747.547913	190.800000
747.585388	196.100000
747.622925	190.900000
747.660522	186.600000
747.697998	188.900000
747.735596	190.600000
747.773132	189.500000
747.810669	190.800000
747.848206	194.400000
747.885742	187.800000
747.923279	187.200000
747.960815	192.600000
747.998352	192.300000
748.035889	194.400000
748.073425	193.800000
748.110901	191.100000
748.148437	187.700000
748.185974	191.400000
748.223511	198.100000
748.261047	193.200000
748.298584	192.400000
748.336060	190.800000
748.373596	193.800000
748.411133	215.300000
748.448608	189.200000
748.486145	194.100000
748.523682	196.000000
748.561218	198.500000
748.598755	191.700000
748.636292	193.700000
748.673706	189.400000
748.711243	199.300000
748.748718	191.000000
748.786255	192.500000
748.823792	191.100000
748.861267	187.100000
748.898804	193.500000
748.936340	192.800000
748.973816	189.300000
749.011292	197.000000
749.048828	191.500000
749.086304	194.200000
749.123840	200.700000
749.161316	188.500000
749.198792	198.200000
749.236328	196.400000
749.273743	190.900000
749.311279	191.800000
749.348816	194.700000
749.386230	191.800000
749.423767	182.500000
749.461304	195.600000
749.498718	191.600000
749.536255	196.700000
749.573730	201.000000
749.611206	196.200000
749.648682	191.800000
749.686218	191.000000
749.723633	194.500000
749.761169	189.900000
749.798645	188.700000
749.836060	190.700000
749.873596	188.900000
749.911011	191.600000
749.948547	196.700000
749.986023	190.700000
750.023437	189.800000
750.060913	186.400000
750.098450	186.900000
750.135864	190.900000
750.173340	191.300000
750.210815	195.000000
750.248291	188.800000
750.285767	189.700000
750.323242	196.200000
750.360657	193.600000
750.398132	187.900000
750.435608	194.800000
750.473022	188.800000
750.510498	188.200000
750.547974	189.000000
750.585449	190.100000
750.622925	183.300000
750.660339	201.200000
750.697815	192.600000
750.735291	191.200000
750.772644	191.400000
750.810120	191.700000
750.847595	192.900000
750.885010	187.700000
750.922485	197.800000
750.959961	192.300000
750.997375	196.900000
751.034851	195.200000
751.072266	195.000000
751.109680	185.500000
751.147156	195.900000
751.184570	193.000000
751.221985	192.200000
751.259460	186.100000
751.296875	193.000000
751.334290	191.700000
751.371765	195.000000
751.409180	195.600000
751.446594	195.500000
751.484070	194.000000
751.521423	192.300000
751.558899	192.500000
751.596375	199.300000
751.633728	196.300000
751.671204	199.200000
751.708618	189.200000
751.746033	192.400000
751.783447	186.100000
751.820801	188.100000
751.858276	193.500000
751.895691	191.300000
751.933105	190.600000
751.970520	187.500000
752.007935	190.000000
752.045349	195.100000
752.082764	191.700000
752.120178	190.300000
752.157532	189.900000
752.195007	190.200000
752.232422	191.700000
752.269775	194.800000
752.307190	193.600000
752.344543	188.600000
752.382019	191.600000
752.419434	189.800000
752.456787	194.900000
752.494202	196.200000
752.531616	193.600000
752.568970	193.200000
752.606384	194.100000
752.643799	194.000000
752.681152	198.100000
752.718567	194.600000
752.755981	187.500000
752.793335	195.000000
752.830750	185.100000
752.868164	197.000000
752.905518	189.100000
752.942932	195.800000
752.980225	188.500000
753.017639	195.200000
753.055054	195.100000
753.092407	193.900000
753.129822	194.800000
753.167175	199.300000
753.204529	191.200000
753.241943	189.400000
753.279358	187.900000
753.316650	192.400000
753.354065	192.700000
753.391479	196.500000
753.428772	197.200000
753.466187	191.800000
753.503479	187.700000
753.540894	190.300000
753.578308	187.700000
753.615601	187.500000
753.653015	190.200000
753.690369	190.000000
753.727722	190.100000
753.765076	186.600000
753.802490	186.400000
753.839783	186.000000
753.877136	189.800000
753.914551	201.900000
753.951843	188.200000
753.989258	194.700000
754.026611	193.300000
754.063904	193.900000
754.101257	189.000000
754.138611	187.100000
754.175964	192.500000
754.213318	198.900000
754.250610	186.200000
754.288025	189.400000
754.325378	188.500000
754.362671	194.200000
754.400024	191.000000
754.437378	197.800000
754.474670	198.100000
754.512085	189.300000
754.549438	191.500000
754.586731	190.100000
754.624084	190.600000
754.661438	188.000000
754.698730	197.700000
754.736084	189.900000
754.773376	190.500000
754.810730	193.000000
754.848083	190.700000
754.885315	194.900000
754.922668	185.700000
754.960022	187.500000
754.997314	194.400000
755.034668	192.200000
755.072021	192.400000
755.109253	189.300000
755.146606	197.100000
755.183960	191.300000
755.221252	198.500000
755.258545	194.600000
755.295898	198.000000
755.333191	196.800000
755.370544	193.900000
755.407776	193.700000
755.445129	194.600000
755.482422	196.600000
755.519714	190.000000
755.557068	187.200000
755.594360	186.600000
755.631653	196.500000
755.668945	198.800000
755.706299	193.300000
755.743530	201.400000
755.780884	198.100000
755.818176	195.600000
755.855408	196.500000
755.892761	194.200000
755.930054	192.200000
755.967346	194.100000
756.004639	192.600000
756.041870	192.900000
756.079224	197.900000
756.116516	190.200000
756.153748	194.400000
756.191040	199.500000
756.228394	195.200000
756.265625	190.700000
756.302917	194.100000
756.340210	189.800000
756.377441	196.600000
756.414795	199.000000
756.452087	193.100000
756.489319	188.800000
756.526611	196.900000
756.563843	194.400000
756.601135	201.100000
756.638428	202.000000
756.675659	193.300000
756.712952	196.600000
756.750244	197.200000
756.787476	195.500000
756.824768	199.000000
756.862061	193.400000
756.899292	240.900000
756.936584	197.800000
756.973816	203.500000
757.011047	203.200000
757.048340	195.100000
757.085632	196.900000
757.122864	209.000000
757.160156	193.300000
757.197327	196.800000
757.234619	198.600000
757.271912	194.500000
757.309082	198.900000
757.346375	192.500000
757.383667	200.600000
757.420837	197.600000
757.458130	196.700000
757.495422	195.000000
757.532593	198.600000
757.569885	192.400000
757.607117	192.200000
757.644348	196.400000
757.681580	206.100000
757.718811	187.900000
757.756042	195.600000
757.793335	192.700000
757.830505	198.500000
757.867798	193.500000
757.905029	194.100000
757.942200	196.900000
757.979492	194.000000
758.016724	195.500000
758.053894	195.200000
758.091187	208.400000
758.128418	196.100000
758.165588	195.000000
758.202820	205.600000
758.240112	197.900000
758.277283	205.700000
758.314514	198.700000
758.351685	195.400000
758.388916	203.500000
758.426147	203.500000
758.463379	205.500000
758.500610	201.000000
758.537842	199.200000
758.575012	203.700000
758.612244	195.100000
758.649475	207.900000
758.686646	192.800000
758.723877	204.600000
758.761108	204.700000
758.798279	197.400000
758.835510	201.500000
758.872742	206.300000
758.909851	200.900000
758.947083	202.700000
758.984253	202.000000
759.021484	203.100000
759.058716	202.000000
759.095886	203.800000
759.133057	201.000000
759.170288	202.400000
759.207458	198.500000
759.244690	208.500000
759.281860	205.300000
759.319031	201.500000
759.356262	198.900000
759.393433	199.500000
759.430603	200.600000
759.467773	200.700000
759.505005	206.400000
759.542175	207.200000
759.579346	200.400000
759.616516	201.600000
759.653687	204.500000
759.690918	199.200000
759.728027	201.100000
759.765259	203.400000
759.802429	206.600000
759.839539	203.300000
759.876770	207.700000
759.913940	211.800000
759.951111	203.800000
759.988281	203.900000
760.025452	202.700000
760.062561	200.800000
760.099792	212.300000
760.136963	206.100000
760.174072	202.900000
760.211243	201.000000
760.248413	202.300000
760.285583	201.300000
760.322754	212.500000
760.359863	208.900000
760.397034	210.400000
760.434204	205.400000
760.471375	205.400000
760.508545	203.400000
760.545715	204.500000
760.582825	202.400000
760.619995	209.300000
760.657166	201.600000
760.694275	210.300000
760.731445	206.900000
760.768555	207.500000
760.805664	208.300000
760.842834	207.000000
760.879944	210.700000
760.917114	207.500000
760.954285	204.900000
760.991394	201.300000
761.028564	211.500000
761.065674	208.500000
761.102783	205.100000
761.139954	210.900000
761.177124	209.700000
761.214172	213.500000
761.251343	206.500000
761.288452	207.000000
761.325562	210.600000
761.362732	204.900000
761.399841	208.800000
761.436951	210.200000
761.474121	207.200000
761.511169	208.600000
761.548340	213.000000
761.585449	211.300000
761.622559	212.700000
761.659668	211.400000
761.696838	214.300000
761.733887	211.300000
761.771057	209.000000
761.808167	208.600000
761.845276	214.000000
761.882385	219.800000
761.919434	213.100000
761.956604	224.200000
761.993713	209.400000
762.030762	217.000000
762.067871	211.200000
762.105042	212.700000
762.142090	218.100000
762.179199	212.600000
762.216309	216.500000
762.253418	223.600000
762.290527	221.400000
762.327637	217.200000
762.364685	209.600000
762.401794	215.900000
762.438904	214.600000
762.475952	210.900000
762.513062	209.800000
762.550110	212.200000
762.587219	220.200000
762.624329	221.200000
762.661377	217.000000
762.698486	215.700000
762.735596	215.000000
762.772644	211.300000
762.809753	210.100000
762.846863	213.800000
762.883911	219.300000
762.921021	218.000000
762.958069	214.200000
762.995117	220.900000
763.032227	223.400000
763.069336	216.500000
763.106323	214.400000
763.143433	213.300000
763.180481	219.500000
763.217590	217.500000
763.254639	216.600000
763.291687	217.200000
763.328735	225.100000
763.365845	219.100000
763.402893	217.800000
763.439941	221.100000
763.477051	222.600000
763.514038	222.400000
763.551147	218.600000
763.588196	220.200000
763.625244	219.700000
763.662292	226.000000
763.699402	227.200000
763.736389	222.800000
763.773499	231.000000
763.810486	224.700000
763.847534	221.900000
763.884644	224.000000
763.921631	222.200000
763.958679	230.100000
763.995728	223.800000
764.032776	231.300000
764.069824	220.400000
764.106873	228.600000
764.143860	232.300000
764.180969	223.700000
764.218018	232.200000
764.255005	224.400000
764.292053	227.000000
764.329102	234.400000
764.366089	234.100000
764.403137	231.800000
764.440125	228.300000
764.477173	229.600000
764.514221	232.500000
764.551208	230.300000
764.588257	227.700000
764.625305	233.700000
764.662292	237.700000
764.699341	239.500000
764.736389	234.500000
764.773376	245.900000
764.810425	236.700000
764.847473	240.500000
764.884399	238.500000
764.921448	244.500000
764.958435	244.100000
764.995483	237.400000
765.032532	249.300000
765.069458	235.900000
765.106506	238.100000
765.143555	236.900000
765.180481	237.900000
765.217529	244.500000
765.254578	234.900000
765.291504	241.700000
765.328552	240.100000
765.365540	238.900000
765.402527	247.800000
765.439575	240.400000
765.476501	236.500000
765.513550	235.200000
765.550537	242.000000
765.587463	246.200000
765.624512	240.000000
765.661499	234.300000
765.698486	247.300000
765.735474	239.200000
765.772461	244.000000
765.809448	247.900000
765.846436	246.100000
765.883423	249.500000
765.920410	246.300000
765.957397	242.900000
765.994385	248.300000
766.031311	254.000000
766.068359	247.500000
766.105286	249.600000
766.142273	253.800000
766.179260	250.100000
766.216187	244.700000
766.253174	244.700000
766.290161	249.500000
766.327148	252.300000
766.364136	252.400000
766.401123	263.300000
766.438049	249.900000
766.475037	259.300000
766.512024	255.200000
766.548950	266.500000
766.585937	261.100000
766.622864	257.300000
766.659790	257.800000
766.696777	248.900000
766.733704	259.400000
766.770691	252.200000
766.807678	263.300000
766.844604	258.400000
766.881531	260.400000
766.918518	262.000000
766.955444	264.100000
766.992432	259.100000
767.029358	263.400000
767.066284	262.800000
767.103271	262.000000
767.140198	293.800000
767.177124	272.800000
767.214050	263.300000
767.251038	267.600000
767.287964	262.600000
767.324890	262.700000
767.361816	266.000000
767.398743	270.000000
767.435730	264.300000
767.472595	268.800000
767.509583	271.500000
767.546509	262.900000
767.583374	267.300000
767.620361	262.700000
767.657288	267.600000
767.694214	269.600000
767.731140	266.000000
767.768066	268.100000
767.804993	270.100000
767.841919	264.600000
767.878845	268.800000
767.915710	275.000000
767.952698	269.600000
767.989563	271.100000
768.026489	274.000000
768.063416	268.200000
768.100281	266.900000
768.137207	277.700000
768.174133	275.100000
768.211060	273.900000
768.247986	273.700000
768.284912	273.200000
768.321777	273.200000
768.358704	272.200000
768.395630	274.300000
768.432495	269.600000
768.469421	277.400000
768.506348	278.700000
768.543152	284.800000
768.580078	280.100000
768.616943	279.400000
768.653870	282.800000
768.690796	281.500000
768.727661	280.500000
768.764587	282.400000
768.801453	279.400000
768.838318	285.500000
768.875244	283.500000
768.912109	289.700000
768.948975	281.500000
768.985901	285.100000
769.022766	282.200000
769.059631	287.200000
769.096558	282.900000
769.133362	286.600000
769.170288	285.700000
769.207214	285.400000
769.244019	289.600000
769.280945	289.600000
769.317810	295.000000
769.354675	290.200000
769.391541	297.600000
769.428406	294.600000
769.465271	302.100000
769.502136	294.100000
769.539062	297.100000
769.575867	294.000000
769.612732	297.300000
769.649597	300.500000
769.686462	301.500000
769.723328	298.000000
769.760193	297.700000
769.797058	298.500000
769.833923	306.100000
769.870728	300.400000
769.907593	307.200000
769.944519	306.500000
769.981323	309.600000
770.018188	307.300000
770.055054	305.900000
770.091858	306.200000
770.128723	310.600000
770.165588	318.100000
770.202393	308.100000
770.239258	318.400000
770.276062	315.600000
770.312927	316.500000
770.349792	319.300000
770.386597	317.300000
770.423462	324.500000
770.460327	330.700000
770.497131	319.000000
770.533997	317.800000
770.570862	326.500000
770.607605	329.200000
770.644470	328.700000
770.681335	327.100000
770.718140	327.200000
770.754944	323.400000
770.791809	324.400000
770.828613	325.600000
770.865479	327.500000
770.902222	334.300000
770.939087	332.000000
770.975952	325.300000
771.012695	327.600000
771.049561	340.000000
771.086365	332.600000
771.123169	331.400000
771.159973	332.200000
771.196838	334.800000
771.233582	336.200000
771.270447	336.800000
771.307251	342.000000
771.344055	338.400000
771.380859	339.500000
771.417664	338.300000
771.454468	342.900000
771.491272	340.900000
771.528076	342.500000
771.564880	341.500000
771.601685	346.600000
771.638428	341.800000
771.675293	346.600000
771.712097	339.700000
771.748840	355.600000
771.785645	349.200000
771.822449	351.600000
771.859253	351.600000
771.896057	351.300000
771.932861	358.100000
771.969604	354.500000
772.006409	347.700000
772.043213	355.100000
772.079956	353.300000
772.116760	349.100000
772.153503	351.900000
772.190308	363.600000
772.227112	353.400000
772.263855	351.100000
772.300659	355.800000
772.337463	362.000000
772.374207	356.300000
772.411011	352.300000
772.447754	356.800000
772.484497	368.400000
772.521301	362.100000
772.558105	361.200000
772.594849	361.900000
772.631592	364.600000
772.668396	364.500000
772.705139	366.700000
772.741882	365.400000
772.778625	373.300000
772.815430	374.800000
772.852173	371.900000
772.888916	376.700000
772.925720	378.800000
772.962463	384.700000
772.999207	378.700000
773.035950	380.700000
773.072754	379.000000
773.109436	376.500000
773.146240	379.300000
773.182922	377.300000
773.219727	383.400000
773.256470	380.100000
773.293152	372.100000
773.329956	378.700000
773.366699	381.700000
773.403381	375.800000
773.440186	382.100000
773.476929	387.100000
773.513611	382.600000
773.550354	380.600000
773.587158	382.700000
773.623840	376.700000
773.660583	383.500000
773.697327	393.500000
773.734009	386.400000
773.770813	385.400000
773.807495	382.000000
773.844238	385.700000
773.880981	397.700000
773.917664	394.100000
773.954407	397.300000
773.991150	389.100000
774.027832	395.400000
774.064575	389.500000
774.101318	393.800000
774.138000	398.800000
774.174744	396.500000
774.211487	400.300000
774.248108	390.000000
774.284851	392.000000
774.321594	398.800000
774.358276	396.200000
774.395020	406.600000
774.431702	402.000000
774.468384	398.100000
774.505127	395.000000
774.541809	398.900000
774.578491	403.200000
774.615234	409.400000
774.651917	401.400000
774.688599	407.000000
774.725342	416.700000
774.762024	413.500000
774.798706	415.700000
774.835449	416.400000
774.872070	423.600000
774.908813	420.900000
774.945496	419.700000
774.982178	418.000000
775.018860	419.200000
775.055542	422.300000
775.092224	422.600000
775.128967	428.100000
775.165588	427.300000
775.202271	420.600000
775.239014	432.300000
775.275635	431.600000
775.312317	431.700000
775.349060	434.000000
775.385681	435.400000
775.422363	431.400000
775.459045	435.800000
775.495667	437.200000
775.532410	441.800000
775.569092	440.800000
775.605713	443.400000
775.642395	441.200000
775.679016	442.400000
775.715698	442.300000
775.752380	443.800000
775.789001	442.900000
775.825684	442.700000
775.862366	448.000000
775.898987	455.400000
775.935669	447.500000
775.972351	463.700000
776.008972	461.800000
776.045654	465.500000
776.082336	462.100000
776.118958	459.800000
776.155640	460.600000
776.192322	468.200000
776.228882	473.700000
776.265564	474.300000
776.302185	470.400000
776.338867	474.000000
776.375488	468.800000
776.412109	474.500000
776.448792	479.100000
776.485413	487.200000
776.522034	480.400000
776.558716	476.800000
776.595337	479.900000
776.631958	482.700000
776.668579	483.900000
776.705261	495.000000
776.741882	488.000000
776.778503	489.700000
776.815186	488.000000
776.851746	491.800000
776.888367	491.100000
776.924988	498.000000
776.961609	491.000000
776.998291	494.600000
777.034851	492.300000
777.071472	497.900000
777.108154	496.000000
777.144714	506.300000
777.181335	505.300000
777.218018	499.600000
777.254578	507.100000
777.291199	504.600000
777.327759	508.200000
777.364380	512.400000
777.401062	518.700000
777.437622	526.700000
777.474243	517.500000
777.510864	524.500000
777.547424	520.000000
777.584045	520.000000
777.620667	522.000000
777.657227	525.700000
777.693848	523.500000
777.730469	537.400000
777.767029	527.800000
777.803650	529.000000
777.840271	528.800000
777.876831	528.500000
777.913452	539.000000
777.950012	524.000000
777.986633	526.300000
778.023193	524.700000
778.059753	526.000000
778.096375	531.100000
778.132996	543.400000
778.169556	534.300000
778.206116	531.600000
778.242737	526.400000
778.279297	533.200000
778.315857	530.300000
778.352478	535.200000
778.389038	541.700000
778.425598	540.600000
778.462219	546.300000
778.498718	539.300000
778.535339	544.900000
778.571838	544.500000
778.608459	545.900000
778.645020	539.500000
778.681580	548.500000
778.718140	551.200000
778.754761	550.700000
778.791260	550.600000
778.827881	559.100000
778.864441	558.200000
778.900940	563.800000
778.937561	562.600000
778.974121	563.200000
779.010620	549.800000
779.047241	555.700000
779.083801	566.800000
779.120300	569.200000
779.156860	565.600000
779.193359	559.700000
779.229980	567.100000
779.266541	566.800000
779.303040	570.300000
779.339600	564.000000
779.376160	562.000000
779.412659	564.400000
779.449219	558.300000
779.485779	564.800000
779.522278	567.800000
779.558838	571.200000
779.595398	567.400000
779.631897	565.600000
779.668457	563.500000
779.705017	571.800000
779.741516	563.300000
779.778076	560.100000
779.814575	561.800000
779.851074	568.400000
779.887634	567.400000
779.924133	572.800000
779.960693	565.700000
779.997253	571.600000
780.033691	578.300000
780.070251	581.100000
780.106812	584.200000
780.143250	583.100000
780.179810	578.900000
780.216370	578.000000
780.252808	584.700000
780.289368	591.700000
780.325867	593.900000
780.362366	588.500000
780.398865	596.200000
780.435364	590.100000
780.471863	600.200000
780.508423	596.400000
780.544861	605.400000
780.581421	603.800000
780.617920	593.800000
780.654419	593.000000
780.690918	595.200000
780.727417	602.200000
780.763916	602.200000
780.800415	611.100000
780.836914	604.200000
780.873352	609.900000
780.909912	600.700000
780.946411	605.200000
780.982849	615.200000
781.019348	626.100000
781.055786	616.100000
781.092346	617.100000
781.128845	619.300000
781.165283	628.400000
781.201782	634.800000
781.238281	635.200000
781.274719	640.600000
781.311218	639.000000
781.347717	649.700000
781.384155	636.400000
781.420654	641.800000
781.457092	647.900000
781.493591	645.500000
781.530090	642.500000
781.566528	642.000000
781.602966	643.200000
781.639465	642.400000
781.675903	640.100000
781.712402	648.000000
781.748901	648.500000
781.785278	643.200000
781.821777	648.600000
781.858276	650.000000
781.894714	662.300000
781.931152	654.700000
781.967651	658.600000
782.004089	651.300000
782.040527	661.200000
782.076965	664.700000
782.113403	668.700000
782.149902	671.900000
782.186340	669.300000
782.222778	679.300000
782.259277	668.400000
782.295654	667.700000
782.332092	668.200000
782.368591	666.400000
782.404968	649.700000
782.441467	632.700000
782.477905	600.700000
782.514282	554.100000
782.550781	518.200000
782.587219	467.400000
782.623596	432.100000
782.660095	407.500000
782.696472	397.600000
782.732910	407.800000
782.769348	440.400000
782.805786	506.500000
782.842224	568.800000
782.878662	617.600000
782.915039	660.400000
782.951477	695.900000
782.987915	706.800000
783.024292	718.500000
783.060730	731.600000
783.097168	722.500000
783.133545	717.700000
783.169983	714.300000
783.206421	708.300000
783.242798	708.000000
783.279236	702.300000
783.315613	701.200000
783.352051	699.200000
783.388489	700.100000
783.424866	689.600000
783.461304	693.600000
783.497681	704.100000
783.534058	704.800000
783.570496	698.600000
783.606934	696.000000
783.643250	704.300000
783.679687	706.700000
783.716125	705.200000
783.752441	712.000000
783.788879	730.300000
783.825317	739.100000
783.861633	742.500000
783.898071	748.100000
783.934448	758.600000
783.970825	768.800000
784.007263	768.500000
784.043579	773.700000
784.080017	777.900000
784.116394	773.000000
784.152710	774.600000
784.189148	779.100000
784.225525	778.600000
784.261902	768.000000
784.298279	764.400000
784.334656	765.100000
784.371033	755.600000
784.407410	760.500000
784.443787	745.400000
784.480164	737.900000
784.516541	723.600000
784.552856	731.100000
784.589233	722.800000
784.625610	720.600000
784.661987	743.100000
784.698364	742.200000
784.734741	731.800000
784.771057	735.300000
784.807434	745.400000
784.843811	752.800000
784.880127	744.500000
784.916504	767.400000
784.952881	775.000000
784.989197	775.800000
785.025574	782.600000
785.061951	782.700000
785.098267	797.300000
785.134644	795.100000
785.170959	792.200000
785.207275	800.200000
785.243652	798.000000
785.279968	779.100000
785.316345	775.800000
785.352722	781.700000
785.388977	776.100000
785.425354	756.800000
785.461731	743.400000
785.498047	738.100000
785.534363	733.000000
785.570679	733.200000
785.606995	731.600000
785.643372	734.300000
785.679687	730.300000
785.716003	723.700000
785.752380	725.400000
785.788635	731.900000
785.825012	740.900000
785.861328	752.500000
785.897644	746.000000
785.933960	753.700000
785.970337	757.300000
786.006592	776.800000
786.042908	781.900000
786.079285	792.400000
786.115540	804.700000
786.151855	810.500000
786.188171	807.900000
786.224487	810.900000
786.260803	807.400000
786.297119	806.000000
786.333435	807.800000
786.369751	800.100000
786.406006	800.100000
786.442322	791.300000
786.478638	780.300000
786.514954	781.300000
786.551270	775.900000
786.587585	777.000000
786.623840	767.300000
786.660156	764.900000
786.696472	755.600000
786.732727	752.400000
786.769043	754.500000
786.805298	749.700000
786.841614	755.000000
786.877930	765.500000
786.914124	755.000000
786.950439	772.000000
786.986755	780.500000
787.023010	796.300000
787.059326	803.200000
787.095642	811.000000
787.131836	823.300000
787.168152	813.900000
787.204468	825.400000
787.240723	837.600000
787.276978	843.400000
787.313293	846.600000
787.349548	844.100000
787.385803	846.400000
787.422058	836.200000
787.458313	831.800000
787.494629	835.700000
787.530823	832.600000
787.567139	818.000000
787.603455	808.200000
787.639648	802.500000
787.675903	803.300000
787.712219	800.100000
787.748413	800.100000
787.784729	806.700000
787.820984	797.300000
787.857178	795.300000
787.893494	789.600000
787.929749	788.600000
787.965942	800.900000
788.002258	811.500000
788.038452	821.600000
788.074707	820.100000
788.110962	830.600000
788.147217	829.700000
788.183472	844.200000
788.219727	848.700000
788.255920	863.000000
788.292175	868.300000
788.328430	871.700000
788.364624	850.200000
788.400879	854.200000
788.437134	859.400000
788.473328	858.100000
788.509583	863.500000
788.545837	855.600000
788.582031	858.800000
788.618286	856.800000
788.654480	852.500000
788.690735	860.900000
788.726990	881.700000
788.763184	872.800000
788.799377	883.500000
788.835632	875.000000
788.871826	883.000000
788.908081	885.700000
788.944336	883.100000
788.980469	893.200000
789.016724	889.500000
789.052979	891.800000
789.089111	876.000000
789.125366	876.700000
789.161621	876.800000
789.197754	883.900000
789.234009	882.900000
789.270142	871.900000
789.306396	866.900000
789.342590	859.800000
789.378784	845.100000
789.414978	847.900000
789.451233	856.300000
789.487366	858.400000
789.523621	859.300000
789.559814	859.500000
789.595947	856.800000
789.632202	863.800000
789.668335	877.300000
789.704529	894.000000
789.740784	906.800000
789.776917	912.400000
789.813110	905.400000
789.849304	908.800000
789.885498	902.000000
789.921692	922.800000
789.957886	930.600000
789.994019	937.100000
790.030212	939.700000
790.066406	937.100000
790.102539	938.900000
790.138733	948.700000
790.174927	935.700000
790.211060	948.000000
790.247253	944.900000
790.283386	943.300000
790.319580	929.900000
790.355774	925.000000
790.391907	919.500000
790.428101	930.000000
790.464294	931.200000
790.500427	930.900000
790.536621	913.800000
790.572754	897.400000
790.608887	900.900000
790.645081	906.800000
790.681274	916.200000
790.717346	915.500000
790.753540	902.300000
790.789734	888.700000
790.825867	876.000000
790.862000	879.700000
790.898132	887.800000
790.934265	888.000000
790.970459	889.300000
791.006592	893.000000
791.042725	889.100000
791.078918	877.200000
791.114990	872.400000
791.151184	879.900000
791.187317	896.000000
791.223389	899.100000
791.259583	886.200000
791.295715	885.700000
791.331848	885.900000
791.367981	900.200000
791.404114	899.900000
791.440247	909.200000
791.476379	906.000000
791.512451	887.400000
791.548584	885.600000
791.584778	877.300000
791.620850	894.200000
791.656982	903.000000
791.693115	902.800000
791.729187	900.200000
791.765381	897.900000
791.801514	895.600000
791.837585	893.300000
791.873718	902.500000
791.909851	919.700000
791.945923	925.000000
791.982056	902.000000
792.018188	896.000000
792.054260	888.100000
792.090393	889.300000
792.126465	893.700000
792.162598	906.000000
792.198669	891.300000
792.234741	891.500000
792.270874	879.600000
792.307007	864.100000
792.343079	866.000000
792.379150	879.300000
792.415283	871.100000
792.451355	879.800000
792.487488	859.600000
792.523560	856.100000
792.559631	838.000000
792.595764	811.600000
792.631836	784.500000
792.667908	769.900000
792.703979	745.200000
792.740051	751.800000
792.776184	778.600000
792.812256	796.000000
792.848328	807.800000
792.884399	819.700000
792.920471	825.300000
792.956543	819.800000
792.992615	818.400000
793.028748	815.400000
793.064758	818.400000
793.100830	836.800000
793.136963	857.600000
793.172974	859.700000
793.209045	853.100000
793.245178	854.000000
793.281189	844.300000
793.317261	844.000000
793.353271	854.200000
793.389404	865.000000
793.425476	859.700000
793.461487	846.700000
793.497559	831.900000
793.533630	839.100000
793.569641	834.600000
793.605713	835.100000
793.641785	843.600000
793.677795	850.900000
793.713867	841.900000
793.749878	846.100000
793.785950	857.100000
793.822021	864.000000
793.858032	854.200000
793.894104	873.600000
793.930176	869.300000
793.966187	867.000000
794.002258	858.900000
794.038269	861.100000
794.074280	862.800000
794.110352	888.800000
794.146423	873.700000
794.182373	867.200000
794.218445	858.800000
794.254517	857.300000
794.290466	838.500000
794.326538	844.500000
794.362549	857.000000
794.398560	862.400000
794.434631	858.800000
794.470581	836.400000
794.506653	829.100000
794.542664	831.700000
794.578674	834.100000
794.614685	833.700000
794.650757	836.100000
794.686707	837.200000
794.722778	824.700000
794.758789	830.900000
794.794739	840.300000
794.830811	865.000000
794.866821	893.700000
794.902771	896.400000
794.938843	883.700000
794.974792	878.300000
795.010803	878.500000
795.046814	879.500000
795.082825	878.900000
795.118835	893.700000
795.154846	874.300000
795.190796	878.100000
795.226807	861.400000
795.262817	862.700000
795.298767	857.900000
795.334778	868.200000
795.370850	862.600000
795.406799	862.900000
795.442810	847.700000
795.478821	842.500000
795.514709	840.900000
795.550720	868.800000
795.586670	852.200000
795.622681	863.300000
795.658691	864.000000
795.694641	865.800000
795.730652	854.800000
795.766663	856.900000
795.802551	859.900000
795.838562	880.900000
795.874573	867.700000
795.910522	865.900000
795.946472	858.500000
795.982483	862.000000
796.018433	859.600000
796.054382	868.100000
796.090393	859.300000
796.126282	857.500000
796.162292	848.500000
796.198242	839.100000
796.234192	836.800000
796.270203	831.600000
796.306091	839.500000
796.342041	853.900000
796.378052	845.600000
796.413940	844.000000
796.449951	843.100000
796.485901	844.900000
796.521790	854.000000
796.557800	867.000000
796.593689	865.900000
796.629639	859.100000
796.665649	858.900000
796.701599	855.400000
796.737488	854.800000
796.773437	859.000000
796.809387	860.600000
796.845337	870.500000
796.881287	864.900000
796.917175	844.400000
796.953125	835.700000
796.989075	838.300000
797.024963	839.000000
797.060913	843.400000
797.096863	846.000000
797.132751	844.700000
797.168701	824.300000
797.204590	824.600000
797.240540	823.300000
797.276489	834.200000
797.312439	839.900000
797.348328	837.300000
797.384277	834.400000
797.420166	826.600000
797.456055	821.100000
797.492004	822.100000
797.527893	828.300000
797.563843	830.400000
797.599731	827.000000
797.635620	821.800000
797.671570	822.300000
797.707520	827.200000
797.743347	826.600000
797.779297	832.300000
797.815125	832.500000
797.851074	828.000000
797.887024	817.100000
797.922913	809.600000
797.958801	815.600000
797.994690	803.900000
798.030579	814.500000
798.066467	820.300000
798.102356	805.700000
798.138245	797.600000
798.174133	789.800000
798.210083	804.600000
798.245911	814.500000
798.281799	813.400000
798.317749	814.600000
798.353577	812.500000
798.389465	800.800000
798.425293	800.000000
798.461243	800.100000
798.497131	805.100000
798.532959	815.600000
798.568848	822.100000
798.604736	808.500000
798.640564	785.800000
798.676453	792.400000
798.712402	787.900000
798.748230	796.200000
798.784119	803.900000
798.820007	801.200000
798.855835	793.000000
798.891724	787.900000
798.927551	782.800000
798.963379	793.700000
798.999268	796.700000
799.035095	789.400000
799.070984	774.900000
799.106873	764.400000
799.142700	773.300000
799.178528	763.100000
799.214417	768.400000
799.250244	777.200000
799.286133	778.600000
799.321960	776.700000
799.357788	764.400000
799.393677	760.600000
799.429504	764.400000
799.465332	763.900000
799.501221	774.000000
799.537048	779.400000
799.572876	770.300000
799.608704	761.100000
799.644531	772.200000
799.680359	777.100000
799.716248	783.900000
799.752014	791.400000
799.787903	786.600000
799.823730	778.100000
799.859558	774.600000
799.895386	769.100000
799.931213	770.000000
799.967041	769.000000
800.002869	774.400000
800.038696	782.900000
800.074463	762.400000
800.110352	764.600000
800.146179	754.800000
800.181946	766.800000
800.217773	768.500000
800.253540	769.600000
800.289429	761.800000
800.325256	748.200000
800.361023	744.400000
800.396851	755.200000
800.432678	754.600000
800.468445	762.400000
800.504272	763.400000
800.540100	749.200000
800.575867	743.800000
800.611694	750.000000
800.647461	744.500000
800.683289	747.600000
800.719116	751.800000
800.754883	750.400000
800.790649	741.000000
800.826477	733.400000
800.862244	748.000000
800.898071	741.400000
800.933838	745.000000
800.969604	743.400000
801.005432	743.100000
801.041199	743.300000
801.076965	736.700000
801.112793	723.800000
801.148560	718.500000
801.184326	723.100000
801.220154	721.000000
801.255859	718.700000
801.291687	717.900000
801.327454	712.300000
801.363281	715.100000
801.398987	713.200000
801.434814	712.100000
801.470520	718.500000
801.506287	706.800000
801.542114	700.700000
801.577820	702.600000
801.613647	697.900000
801.649414	696.200000
801.685120	699.800000
801.720886	706.300000
801.756714	699.100000
801.792419	694.100000
801.828186	688.900000
801.863892	693.100000
801.899719	688.400000
801.935486	685.400000
801.971252	694.300000
802.006958	683.400000
802.042725	679.600000
802.078430	680.200000
802.114197	677.900000
802.149963	692.100000
802.185669	682.400000
802.221436	682.000000
802.257202	680.900000
802.292908	674.100000
802.328674	681.700000
802.364441	685.000000
802.400146	680.700000
802.435913	680.000000
802.471558	680.400000
802.507324	678.500000
802.543091	669.900000
802.578796	679.000000
802.614502	680.400000
802.650269	689.200000
802.685974	675.100000
802.721741	677.700000
802.757446	681.900000
802.793152	679.600000
802.828918	685.300000
802.864624	685.000000
802.900330	679.500000
802.936035	673.700000
802.971802	674.700000
803.007446	667.000000
803.043213	660.400000
803.078857	673.700000
803.114624	664.900000
803.150330	667.600000
803.185974	656.600000
803.221741	649.800000
803.257446	658.500000
803.293152	663.700000
803.328857	664.100000
803.364563	661.300000
803.400208	656.300000
803.435974	661.700000
803.471680	650.300000
803.507324	645.100000
803.543030	654.100000
803.578735	654.500000
803.614441	655.500000
803.650146	662.900000
803.685791	651.100000
803.721497	647.800000
803.757202	640.800000
803.792847	652.600000
803.828552	645.200000
803.864258	641.600000
803.899902	637.900000
803.935608	628.200000
803.971313	627.700000
804.006958	621.800000
804.042664	628.800000
804.078308	633.300000
804.113953	627.400000
804.149658	634.300000
804.185364	624.900000
804.221008	637.000000
804.256714	621.400000
804.292297	619.200000
804.328003	617.500000
804.363708	616.800000
804.399292	613.300000
804.434998	607.600000
804.470703	607.100000
804.506287	617.300000
804.541992	610.300000
804.577637	613.900000
804.613281	602.800000
804.648926	603.100000
804.684570	604.400000
804.720215	592.100000
804.755920	597.700000
804.791565	596.700000
804.827209	603.600000
804.862854	595.900000
804.898437	591.800000
804.934143	595.800000
804.969788	593.600000
805.005371	592.400000
805.041077	588.900000
805.076721	593.800000
805.112305	584.500000
805.147949	582.500000
805.183655	575.300000
805.219238	584.100000
805.254883	575.400000
805.290466	586.200000
805.326111	586.700000
805.361755	578.000000
805.397400	575.100000
805.432983	576.500000
805.468628	570.200000
805.504211	576.800000
805.539856	576.200000
805.575500	579.100000
805.611084	571.200000
805.646729	563.300000
805.682373	566.400000
805.717957	570.600000
805.753601	575.400000
805.789246	563.100000
805.824768	574.200000
805.860413	573.700000
805.895996	564.100000
805.931641	562.900000
805.967224	567.600000
806.002869	562.800000
806.038452	569.400000
806.074036	573.700000
806.109619	556.400000
806.145264	556.600000
806.180847	558.400000
806.216431	557.800000
806.252014	560.100000
806.287659	559.100000
806.323181	562.500000
806.358826	560.300000
806.394409	549.600000
806.429993	549.300000
806.465576	552.600000
806.501160	546.600000
806.536743	539.900000
806.572327	549.800000
806.607910	545.900000
806.643494	545.500000
806.679077	537.100000
806.714661	539.000000
806.750244	538.100000
806.785828	536.100000
806.821350	538.500000
806.856934	537.400000
806.892517	534.500000
806.928101	535.300000
806.963684	533.000000
806.999268	539.100000
807.034790	523.200000
807.070374	522.400000
807.105896	521.400000
807.141479	518.700000
807.177063	526.000000
807.212585	516.000000
807.248169	518.200000
807.283752	523.900000
807.319275	518.600000
807.354858	518.600000
807.390381	515.000000
807.425903	511.800000
807.461487	509.000000
807.497070	508.200000
807.532593	506.800000
807.568115	505.700000
807.603699	503.300000
807.639221	494.700000
807.674744	502.200000
807.710266	501.700000
807.745850	503.100000
807.781372	499.800000
807.816895	495.000000
807.852417	496.500000
807.888000	493.800000
807.923523	490.800000
807.959045	495.100000
807.994629	490.900000
808.030090	493.000000
808.065613	493.900000
808.101135	495.200000
808.136658	493.700000
808.172241	492.100000
808.207764	492.300000
808.243225	487.800000
808.278809	482.000000
808.314270	486.800000
808.349792	480.500000
808.385315	480.000000
808.420837	482.000000
808.456360	487.900000
808.491882	488.400000
808.527344	484.500000
808.562866	488.000000
808.598389	480.600000
808.633850	477.000000
808.669434	472.300000
808.704895	481.400000
808.740417	486.400000
808.775940	481.200000
808.811462	476.900000
808.846924	472.200000
808.882385	468.100000
808.917847	467.600000
808.953369	470.000000
808.988892	467.300000
809.024353	470.400000
809.059875	473.000000
809.095398	464.300000
809.130798	461.500000
809.166321	463.900000
809.201843	458.400000
809.237305	462.900000
809.272766	470.000000
809.308228	456.800000
809.343750	457.200000
809.379211	456.100000
809.414734	452.600000
809.450134	462.000000
809.485657	451.500000
809.521118	456.300000
809.556580	454.700000
809.592102	453.100000
809.627502	449.400000
809.663025	448.800000
809.698486	444.300000
809.733887	442.300000
809.769409	445.900000
809.804871	436.500000
809.840271	436.500000
809.875793	442.100000
809.911194	445.000000
809.946655	438.600000
809.982178	432.200000
810.017639	438.000000
810.053040	434.300000
810.088501	430.200000
810.123901	431.400000
810.159424	426.900000
810.194885	428.100000
810.230286	428.800000
810.265747	426.300000
810.301208	418.700000
810.336609	422.000000
810.372070	414.300000
810.407532	415.500000
810.442932	419.600000
810.478394	422.500000
810.513794	419.300000
810.549255	414.400000
810.584717	411.400000
810.620117	408.200000
810.655518	414.300000
810.690979	411.400000
810.726379	410.500000
810.761841	403.200000
810.797302	400.200000
810.832642	397.600000
810.868103	406.900000
810.903564	399.000000
810.938904	407.800000
810.974365	396.500000
811.009827	399.200000
811.045166	394.900000
811.080627	389.900000
811.115967	392.400000
811.151428	400.700000
811.186829	391.800000
811.222229	391.700000
811.257629	383.600000
811.293091	388.000000
811.328430	395.400000
811.363892	387.800000
811.399292	389.400000
811.434631	385.300000
811.470093	389.000000
811.505493	386.300000
811.540833	382.800000
811.576294	385.900000
811.611694	384.600000
811.647034	376.400000
811.682434	380.800000
811.717773	382.000000
811.753235	386.800000
811.788635	379.600000
811.823975	379.400000
811.859375	384.300000
811.894775	375.300000
811.930115	377.800000
811.965515	374.600000
812.000916	376.400000
812.036255	373.900000
812.071655	375.000000
812.106995	371.100000
812.142395	371.200000
812.177795	378.400000
812.213196	374.200000
812.248474	373.400000
812.283875	365.400000
812.319214	368.300000
812.354614	368.700000
812.390015	364.700000
812.425293	364.100000
812.460693	369.500000
812.496094	363.100000
812.531433	357.100000
812.566772	359.300000
812.602173	360.900000
812.637451	360.200000
812.672852	356.100000
812.708191	357.600000
812.743530	352.900000
812.778931	349.000000
812.814270	347.700000
812.849609	354.000000
812.884949	350.900000
812.920227	343.600000
812.955627	355.000000
812.990967	347.500000
813.026306	342.300000
813.061646	337.200000
813.096985	334.000000
813.132324	333.600000
813.167664	334.700000
813.203003	341.500000
813.238281	328.000000
813.273682	329.100000
813.308960	329.600000
813.344299	327.800000
813.379639	334.800000
813.414978	328.300000
813.450256	326.600000
813.485596	328.000000
813.520874	322.200000
813.556213	323.800000
813.591614	328.000000
813.626831	319.800000
813.662170	324.000000
813.697510	329.400000
813.732788	318.800000
813.768127	323.300000
813.803467	320.100000
813.838745	318.700000
813.874084	318.700000
813.909363	318.800000
813.944641	322.400000
813.979980	312.500000
814.015320	315.200000
814.050598	313.300000
814.085876	314.800000
814.121155	311.500000
814.156494	310.800000
814.191772	312.300000
814.227051	308.200000
814.262390	309.200000
814.297668	310.200000
814.332947	308.500000
814.368225	304.900000
814.403564	304.300000
814.438782	304.800000
814.474121	304.100000
814.509338	301.400000
814.544617	308.100000
814.579956	300.800000
814.615173	309.300000
814.650513	303.900000
814.685791	299.200000
814.721008	304.200000
814.756348	303.100000
814.791626	298.400000
814.826843	298.200000
814.862122	298.200000
814.897400	296.000000
814.932678	296.700000
814.967957	295.000000
815.003235	295.400000
815.038452	289.600000
815.073730	288.600000
815.108948	298.900000
815.144226	295.600000
815.179504	297.100000
815.214722	289.200000
815.250000	288.400000
815.285278	292.400000
815.320496	287.100000
815.355774	288.100000
815.391052	288.400000
815.426270	287.700000
815.461487	286.000000
815.496765	282.700000
815.531982	280.600000
815.567261	283.100000
815.602539	290.700000
815.637695	285.600000
815.672974	286.100000
815.708191	286.200000
815.743408	287.100000
815.778687	279.700000
815.813904	286.600000
815.849121	275.000000
815.884399	275.200000
815.919556	275.900000
815.954834	277.500000
815.990051	278.300000
816.025269	281.500000
816.060486	273.300000
816.095703	273.600000
816.130920	275.500000
816.166199	272.100000
816.201416	272.600000
816.236572	275.400000
816.271851	268.700000
816.307007	272.200000
816.342224	264.400000
816.377441	268.500000
816.412659	261.600000
816.447876	271.500000
816.483093	265.500000
816.518250	265.400000
816.553467	262.100000
816.588745	266.300000
816.623901	260.200000
816.659119	254.700000
816.694275	260.700000
816.729492	257.400000
816.764709	287.200000
816.799927	255.300000
816.835083	259.300000
816.870300	253.400000
816.905457	257.000000
816.940674	258.800000
816.975830	253.000000
817.010986	250.100000
817.046204	252.100000
817.081421	248.300000
817.116577	251.200000
817.151733	257.700000
817.186951	255.300000
817.222107	252.800000
817.257324	254.400000
817.292419	251.600000
817.327637	246.500000
817.362854	248.800000
817.398010	244.500000
817.433167	247.100000
817.468323	245.600000
817.503479	247.500000
817.538635	253.600000
817.573853	245.200000
817.608948	245.000000
817.644165	241.700000
817.679321	241.500000
817.714478	240.400000
817.749634	243.100000
817.784790	251.400000
817.819946	247.400000
817.855103	233.300000
817.890198	241.200000
817.925415	234.200000
817.960571	242.100000
817.995667	240.000000
818.030823	240.600000
818.066040	236.500000
818.101135	238.400000
818.136292	238.200000
818.171448	234.300000
818.206543	235.700000
818.241699	238.400000
818.276855	239.800000
818.311951	236.500000
818.347107	232.000000
818.382263	240.500000
818.417358	240.500000
818.452515	239.800000
818.487610	240.700000
818.522766	231.600000
818.557922	240.100000
818.593018	234.000000
818.628113	232.100000
818.663269	228.800000
818.698364	232.700000
818.733521	229.700000
818.768677	232.300000
818.803711	228.200000
818.838867	228.800000
818.874023	228.200000
818.909058	227.200000
818.944214	224.500000
818.979370	227.800000
819.014404	228.300000
819.049561	223.600000
819.084595	227.600000
819.119751	220.800000
819.154846	226.200000
819.189941	222.900000
819.225037	220.500000
819.260193	217.100000
819.295227	218.100000
819.330322	215.100000
819.365479	215.500000
819.400513	249.600000
819.435608	213.600000
819.470764	212.200000
819.505798	216.200000
819.540894	217.400000
819.575989	213.600000
819.611084	221.800000
819.646179	222.700000
819.681213	217.700000
819.716309	215.100000
819.751404	215.800000
819.786438	220.600000
819.821533	211.800000
819.856628	214.900000
819.891663	218.700000
819.926758	224.700000
819.961853	220.000000
819.996887	212.000000
820.031982	215.300000
820.067017	213.200000
820.102112	244.600000
820.137207	210.500000
820.172302	222.500000
820.207275	210.000000
820.242371	208.100000
820.277405	209.200000
820.312500	210.900000
820.347534	212.400000
820.382568	215.000000
820.417664	209.400000
820.452759	207.900000
820.487732	207.400000
820.522827	208.600000
820.557861	204.600000
820.592896	207.700000
820.627930	208.800000
820.662964	205.400000
820.698059	209.800000
820.733093	208.000000
820.768127	208.800000
820.803162	208.600000
820.838196	204.900000
820.873230	206.200000
820.908264	209.000000
820.943298	204.700000
820.978333	210.600000
821.013367	208.300000
821.048401	209.700000
821.083435	209.600000
821.118469	202.900000
821.153503	208.900000
821.188477	207.600000
821.223511	201.900000
821.258484	204.600000
821.293579	207.300000
821.328613	200.300000
821.363647	203.200000
821.398621	200.300000
821.433655	203.300000
821.468628	214.500000
821.503662	204.400000
821.538696	205.400000
821.573669	200.000000
821.608704	207.500000
821.643677	203.000000
821.678650	207.400000
821.713684	208.900000
821.748718	204.000000
821.783691	203.000000
821.818726	203.100000
821.853638	204.600000
821.888672	200.600000
821.923706	201.900000
821.958618	202.000000
821.993652	200.300000
822.028687	205.700000
822.063599	209.000000
822.098633	203.300000
822.133667	199.300000
822.168579	201.400000
822.203613	202.900000
822.238586	199.700000
822.273560	203.600000
822.308533	200.200000
822.343567	201.200000
822.378479	202.600000
822.413452	200.300000
822.448425	198.400000
822.483398	206.200000
822.518372	204.100000
822.553345	198.600000
822.588318	208.100000
822.623291	200.500000
822.658203	199.100000
822.693237	200.900000
822.728210	198.200000
822.763123	200.400000
822.798096	198.800000
822.833069	200.600000
822.867981	200.300000
822.902954	201.600000
822.937927	202.900000
822.972900	208.200000
823.007874	196.500000
823.042725	203.400000
823.077698	209.600000
823.112671	196.900000
823.147583	199.400000
823.182556	203.300000
823.217529	203.500000
823.252441	198.100000
823.287415	208.300000
823.322388	202.300000
823.357239	199.900000
823.392212	205.700000
823.427185	205.500000
823.462097	197.000000
823.497009	200.500000
823.531982	198.900000
823.566895	199.900000
823.601807	196.100000
823.636719	199.400000
823.671631	202.900000
823.706604	197.900000
823.741455	201.000000
823.776428	193.900000
823.811340	204.300000
823.846252	207.700000
823.881165	205.500000
823.916138	200.900000
823.950989	206.500000
823.985901	197.800000
824.020813	200.200000
824.055725	199.300000
824.090637	194.800000
824.125610	202.800000
824.160461	203.600000
824.195374	200.500000
824.230225	202.200000
824.265198	194.200000
824.300110	197.300000
824.334961	206.700000
824.369873	193.000000
824.404785	200.900000
824.439636	203.500000
824.474548	192.700000
824.509460	191.500000
824.544312	202.300000
824.579224	200.400000
824.614075	197.600000
824.648987	197.800000
824.683899	198.900000
824.718811	196.700000
824.753662	202.700000
824.788574	202.100000
824.823364	199.100000
824.858276	195.400000
824.893188	202.100000
824.928040	200.700000
824.962952	198.500000
824.997803	201.800000
825.032654	197.700000
825.067566	200.800000
825.102417	196.300000
825.137268	196.600000
825.172119	197.300000
825.206970	194.900000
825.241882	195.900000
825.276733	193.800000
825.311646	195.400000
825.346436	193.300000
825.381348	193.400000
825.416138	195.900000
825.450989	194.600000
825.485901	188.800000
825.520691	190.700000
825.555542	190.700000
825.590454	195.400000
825.625244	189.700000
825.660095	200.800000
825.695007	198.000000
825.729797	194.300000
825.764648	191.100000
825.799438	195.300000
825.834290	195.000000
825.869202	190.200000
825.903992	195.300000
825.938843	194.000000
825.973694	190.600000
826.008484	201.700000
826.043335	190.300000
826.078186	187.100000
826.112976	197.100000
826.147827	197.400000
826.182678	200.500000
826.217468	188.000000
826.252319	198.400000
826.287109	189.100000
826.321899	196.400000
826.356750	191.400000
826.391541	188.000000
826.426392	196.600000
826.461182	191.400000
826.495972	187.100000
826.530823	185.100000
826.565613	193.200000
826.600403	188.300000
826.635254	194.900000
826.670044	186.800000
826.704834	186.200000
826.739685	187.800000
826.774475	194.200000
826.809265	191.700000
826.844055	190.900000
826.878906	197.200000
826.913635	192.700000
826.948425	194.000000
826.983215	195.500000
827.018005	194.800000
827.052856	190.900000
827.087585	195.500000
827.122375	186.900000
827.157227	191.100000
827.191956	202.300000
827.226746	188.300000
827.261536	194.300000
827.296265	187.800000
827.331116	190.100000
827.365906	195.000000
827.400635	189.100000
827.435425	185.600000
827.470215	195.400000
827.504944	191.100000
827.539734	194.500000
827.574463	191.300000
827.609253	197.900000
827.644043	190.300000
827.678772	194.800000
827.713562	190.100000
827.748352	190.100000
827.783081	187.800000
827.817871	192.600000
827.852600	189.000000
827.887329	192.200000
827.922119	184.600000
827.956848	193.000000
827.991638	201.200000
828.026367	192.700000
828.061157	191.400000
828.095886	191.900000
828.130615	204.900000
828.165344	184.400000
828.200073	191.600000
828.234863	192.400000
828.269592	190.700000
828.304321	194.600000
828.339111	191.100000
828.373779	190.200000
828.408569	195.700000
828.443298	195.400000
828.477966	190.400000
828.512756	191.400000
828.547424	187.100000
828.582214	189.800000
828.616943	190.500000
828.651672	190.700000
828.686340	193.300000
828.721130	188.500000
828.755798	191.700000
828.790527	191.900000
828.825256	190.700000
828.859924	192.600000
828.894714	195.300000
828.929443	198.400000
828.964111	188.600000
828.998840	194.200000
829.033569	188.500000
829.068237	190.100000
829.102966	189.000000
829.137634	192.000000
829.172363	192.600000
829.207092	190.900000
829.241821	186.700000
829.276489	185.900000
829.311157	191.400000
829.345825	190.100000
829.380554	194.900000
829.415283	186.400000
829.449951	185.500000
829.484619	199.000000
829.519348	197.000000
829.554016	190.100000
829.588745	192.200000
829.623413	186.700000
829.658081	198.900000
829.692749	188.300000
829.727417	195.000000
829.762146	192.700000
829.796814	190.500000
829.831482	190.400000
829.866150	192.100000
829.900879	188.800000
829.935486	193.600000
829.970154	189.500000
830.004883	202.600000
830.039490	191.000000
830.074219	188.100000
830.108887	191.900000
830.143494	191.600000
830.178223	187.000000
830.212891	189.500000
830.247498	190.700000
830.282166	197.400000
830.316772	194.700000
830.351501	188.100000
830.386169	189.600000
830.420776	190.200000
830.455444	191.300000
830.490112	188.700000
830.524719	184.500000
830.559387	192.500000
830.594055	192.600000
830.628662	190.200000
830.663330	190.300000
830.697998	197.300000
830.732605	190.400000
830.767273	192.800000
830.801941	190.700000
830.836487	198.400000
830.871155	192.200000
830.905762	192.600000
830.940430	187.000000
830.975098	188.300000
831.009644	190.800000
831.044312	198.800000
831.078979	193.300000
831.113525	184.400000
831.148193	192.600000
831.182861	191.100000
831.217407	193.300000
831.252075	202.900000
831.286621	190.700000
831.321289	188.000000
831.355896	191.600000
831.390564	198.000000
831.425110	192.500000
831.459778	196.200000
831.494324	201.100000
831.528931	193.000000
831.563599	197.800000
831.598145	187.600000
831.632751	192.100000
831.667419	190.800000
831.701965	192.700000
831.736572	192.500000
831.771179	187.800000
831.805786	189.500000
831.840393	197.000000
831.874939	184.800000
831.909546	194.300000
831.944153	183.500000
831.978760	191.500000
832.013306	187.300000
832.047913	194.500000
832.082458	198.600000
832.117065	188.500000
832.151672	198.300000
832.186218	192.800000
832.220825	192.600000
832.255432	185.400000
832.289978	188.700000
832.324585	192.300000
832.359192	193.400000
832.393677	189.800000
832.428284	192.800000
832.462830	190.800000
832.497437	192.600000
832.531982	193.900000
832.566589	189.100000
832.601135	193.100000
832.635681	184.600000
832.670227	192.200000
832.704773	198.900000
832.739380	193.100000
832.773926	192.700000
832.808472	189.100000
832.843079	192.500000
832.877563	193.900000
832.912170	189.800000
832.946716	185.300000
832.981201	196.200000
833.015808	194.300000
833.050293	191.000000
833.084839	187.000000
833.119446	190.200000
833.153992	193.700000
833.188477	190.900000
833.223022	189.000000
833.257568	190.900000
833.292114	195.800000
833.326660	199.100000
833.361145	188.700000
833.395691	184.100000
833.430237	191.100000
833.464783	192.600000
833.499329	188.500000
833.533875	186.900000
833.568359	193.500000
833.602905	193.800000
833.637390	195.400000
833.671875	188.700000
833.706421	189.200000
833.740906	190.200000
833.775452	184.700000
833.809998	188.900000
833.844482	197.200000
833.879028	191.000000
833.913513	191.300000
833.947998	194.600000
833.982544	187.900000
834.017090	189.400000
834.051514	184.700000
834.086060	192.100000
834.120544	192.400000
834.155029	192.000000
834.189575	190.700000
834.223999	194.100000
834.258545	191.900000
834.293030	191.200000
834.327515	191.400000
834.362000	189.100000
834.396545	194.800000
834.430969	190.200000
834.465454	194.600000
834.500000	185.300000
834.534424	191.400000
834.568970	185.600000
834.603455	184.900000
834.637878	187.900000
834.672363	192.600000
834.706909	190.000000
834.741333	192.000000
834.775818	184.400000
834.810242	187.600000
834.844727	190.200000
834.879211	189.100000
834.913635	190.600000
834.948181	190.400000
834.982666	190.700000
835.017090	190.200000
835.051575	191.800000
835.086060	187.600000
835.120483	193.700000
835.154907	193.000000
835.189331	191.100000
835.223816	194.500000
835.258301	186.200000
835.292786	188.400000
835.327209	193.800000
835.361694	188.200000
835.396057	190.200000
835.430542	193.000000
835.465027	191.300000
835.499390	189.000000
835.533875	217.100000
835.568359	187.800000
835.602722	186.200000
835.637207	191.400000
835.671692	187.300000
835.706055	205.600000
835.740540	192.900000
835.774902	192.700000
835.809387	191.700000
835.843811	185.500000
835.878235	196.300000
835.912659	185.200000
835.947083	188.400000
835.981506	190.600000
836.015930	186.600000
836.050354	194.700000
836.084778	196.200000
836.119202	194.400000
836.153625	204.400000
836.187988	187.900000
836.222473	188.300000
836.256897	191.400000
836.291260	189.000000
836.325684	192.900000
836.360046	188.000000
836.394470	189.900000
836.428894	195.600000
836.463318	188.500000
836.497681	194.500000
836.532104	196.000000
836.566467	190.600000
836.600891	190.800000
836.635315	195.500000
836.669678	192.800000
836.704102	193.700000
836.738525	193.600000
836.772888	185.700000
836.807251	188.600000
836.841675	193.900000
836.876038	187.100000
836.910461	188.300000
836.944763	194.800000
836.979187	188.300000
837.013611	196.900000
837.047974	185.600000
837.082336	200.200000
837.116699	195.600000
837.151062	191.600000
837.185486	186.800000
837.219849	189.900000
837.254211	193.900000
837.288574	190.500000
837.322937	187.700000
837.357300	183.400000
837.391663	201.800000
837.426086	196.300000
837.460388	191.700000
837.494751	194.400000
837.529114	188.000000
837.563477	196.700000
837.597839	191.200000
837.632141	190.500000
837.666565	189.600000
837.700928	193.300000
837.735229	192.300000
837.769592	193.500000
837.803955	194.200000
837.838257	189.300000
837.872620	190.000000
837.906982	196.300000
837.941284	191.000000
837.975647	192.800000
838.010010	196.100000
838.044312	189.500000
838.078674	189.900000
838.112976	191.100000
838.147339	193.200000
838.181702	192.300000
838.216003	198.200000
838.250366	192.100000
838.284668	193.600000
838.318970	186.300000
838.353333	190.600000
838.387634	190.200000
838.421936	192.000000
838.456299	192.600000
838.490601	197.100000
838.524902	195.500000
838.559265	195.500000
838.593567	194.200000
838.627869	187.300000
838.662170	192.300000
838.696472	187.600000
838.730774	188.300000
838.765137	193.800000
838.799377	181.300000
838.833740	191.300000
838.868042	195.100000
838.902283	184.700000
838.936646	196.000000
838.970947	191.500000
839.005188	196.700000
839.039551	184.100000
839.073792	195.300000
839.108093	189.300000
839.142395	197.900000
839.176697	184.200000
839.210937	192.200000
839.245300	199.200000
839.279541	186.500000
839.313843	188.600000
839.348145	194.700000
839.382385	193.900000
839.416687	195.000000
839.450989	193.600000
839.485229	190.500000
839.519531	188.600000
839.553833	195.400000
839.588013	191.600000
839.622314	193.000000
839.656555	193.200000
839.690857	191.200000
839.725159	186.400000
839.759460	191.500000
839.793640	188.800000
839.827942	193.100000
839.862183	188.100000
839.896423	192.700000
839.930725	202.400000
839.964966	198.600000
839.999207	196.100000
840.033508	199.700000
840.067688	188.600000
840.101990	198.800000
840.136230	189.400000
840.170471	197.200000
840.204712	187.200000
840.238953	189.000000
840.273193	190.700000
840.307434	194.800000
840.341736	189.100000
840.375916	186.100000
840.410217	188.300000
840.444397	195.100000
840.478638	192.700000
840.512878	195.500000
840.547119	191.500000
840.581360	193.600000
840.615601	198.000000
840.649780	200.600000
840.684021	190.500000
840.718262	198.100000
840.752441	197.800000
840.786682	193.000000
840.820862	192.600000
840.855103	198.200000
840.889343	191.100000
840.923584	194.200000
840.957764	194.400000
840.992004	192.800000
841.026184	202.900000
841.060425	190.100000
841.094666	189.000000
841.128845	193.300000
841.163025	193.500000
841.197266	193.200000
841.231445	190.800000
841.265686	194.300000
841.299866	191.000000
841.334045	196.400000
841.368286	191.800000
841.402405	196.500000
841.436646	194.400000
841.470825	190.000000
841.505005	190.600000
841.539185	188.200000
841.573425	189.400000
841.607544	191.700000
841.641785	189.500000
841.675964	189.400000
841.710144	190.800000
841.744324	188.800000
841.778503	190.600000
841.812683	187.100000
841.846863	195.900000
841.881042	197.800000
841.915222	189.100000
841.949402	201.700000
841.983521	184.800000
842.017700	190.700000
842.051880	191.500000
842.086060	193.500000
842.120239	191.800000
842.154419	189.600000
842.188538	193.800000
842.222717	188.400000
842.256897	199.100000
842.291016	191.100000
842.325195	192.100000
842.359375	199.700000
842.393494	198.600000
842.427673	191.400000
842.461853	191.400000
842.495911	200.800000
842.530090	194.000000
842.564209	191.100000
842.598389	192.900000
842.632568	192.400000
842.666626	193.800000
842.700806	190.600000
842.734985	190.600000
842.769043	193.500000
842.803223	191.700000
842.837402	191.600000
842.871460	188.600000
842.905640	199.900000
842.939697	188.300000
842.973877	193.400000
843.007996	197.200000
843.042175	198.800000
843.076233	189.200000
843.110413	193.300000
843.144470	195.700000
843.178589	195.800000
843.212769	189.400000
843.246826	194.800000
843.280945	189.300000
843.315125	191.300000
843.349182	187.700000
843.383301	196.300000
843.417419	201.300000
843.451538	191.900000
843.485657	189.500000
843.519714	192.400000
843.553833	193.200000
843.587952	189.000000
843.622070	189.000000
843.656128	194.200000
843.690247	189.800000
843.724304	191.500000
843.758423	193.300000
843.792542	190.300000
843.826599	192.300000
843.860718	190.500000
843.894836	186.400000
843.928894	192.900000
843.963013	193.600000
843.997070	190.500000
844.031128	189.000000
844.065247	195.400000
844.099304	195.700000
844.133362	193.100000
844.167480	194.500000
844.201599	197.100000
844.235596	194.100000
844.269714	194.100000
844.303711	192.600000
844.337830	185.700000
844.371948	193.400000
844.405945	191.700000
844.440063	188.300000
844.474121	201.600000
844.508118	190.100000
844.542236	191.000000
844.576294	190.400000
844.610352	187.300000
844.644409	190.400000
844.678406	184.700000
844.712524	194.300000
844.746582	195.600000
844.780640	191.100000
844.814636	189.600000
844.848755	201.200000
844.882751	189.700000
844.916809	195.500000
844.950867	193.700000
844.984863	198.400000
845.018921	189.900000
845.052979	189.300000
845.086975	193.100000
845.121033	187.000000
845.155090	189.500000
845.189087	196.900000
845.223145	190.200000
845.257141	194.300000
845.291199	192.800000
845.325256	198.100000
845.359253	192.800000
845.393250	202.700000
845.427307	190.000000
845.461304	193.400000
845.495361	192.500000
845.529358	200.700000
845.563354	193.900000
845.597412	187.600000
845.631409	198.600000
845.665405	197.500000
845.699463	195.800000
845.733459	191.100000
845.767456	199.600000
845.801453	190.500000
845.835449	197.900000
845.869446	195.600000
845.903503	194.700000
845.937439	188.400000
845.971497	197.200000
846.005493	186.200000
846.039429	195.700000
846.073486	200.300000
846.107483	190.200000
846.141418	191.100000
846.175476	193.100000
846.209473	198.800000
846.243408	187.800000
846.277405	192.800000
846.311401	188.900000
846.345337	192.200000
846.379395	196.000000
846.413330	189.700000
846.447327	200.400000
846.481323	189.400000
846.515259	190.800000
846.549255	192.300000
846.583252	194.200000
846.617187	188.800000
846.651184	193.700000
846.685120	191.600000
846.719055	200.200000
846.753052	195.500000
846.786987	195.500000
846.820984	187.100000
846.854980	198.400000
846.888916	190.100000
846.922852	193.000000
846.956848	197.900000
846.990723	190.500000
847.024719	195.100000
847.058716	190.700000
847.092590	198.300000
847.126587	193.600000
847.160522	191.000000
847.194458	195.300000
847.228455	189.000000
847.262390	187.400000
847.296265	190.900000
847.330261	196.600000
847.364136	191.600000
847.398132	190.700000
847.432068	193.100000
847.466003	190.800000
847.499939	191.900000
847.533875	194.700000
847.567749	190.700000
847.601746	190.300000
847.635681	194.100000
847.669556	184.800000
847.703491	197.100000
847.737427	202.000000
847.771301	188.700000
847.805237	195.400000
847.839233	193.100000
847.873108	190.500000
847.907043	191.800000
847.940918	197.400000
847.974854	193.400000
848.008789	195.800000
848.042664	192.200000
848.076538	194.000000
848.110474	193.000000
848.144348	193.700000
848.178284	187.300000
848.212219	195.900000
848.246094	190.500000
848.279968	193.500000
848.313904	193.500000
848.347778	193.000000
848.381653	191.100000
848.415588	190.600000
848.449463	188.300000
848.483337	194.300000
848.517212	198.900000
848.551086	191.800000
848.585022	188.000000
848.618835	201.300000
848.652771	189.900000
848.686646	188.700000
848.720520	199.300000
848.754395	191.900000
848.788330	194.200000
848.822144	195.800000
848.856018	189.900000
848.889954	200.000000
848.923767	188.600000
848.957642	189.600000
848.991577	193.900000
849.025391	190.500000
849.059265	190.000000
849.093079	189.500000
849.126953	186.900000
849.160828	196.500000
849.194641	193.600000
849.228577	191.300000
849.262451	191.500000
849.296265	191.400000
849.330139	189.000000
849.364014	193.200000
849.397827	193.300000
849.431702	193.500000
849.465515	195.400000
849.499329	185.900000
849.533203	188.600000
849.567078	184.900000
849.600891	193.400000
849.634766	193.600000
849.668518	195.600000
849.702393	192.300000
849.736267	188.100000
849.770020	199.500000
849.803894	194.500000
849.837769	193.500000
849.871521	192.900000
849.905396	195.600000
849.939270	189.000000
849.973022	191.900000
850.006897	194.600000
850.040710	194.500000
850.074524	196.800000
850.108337	190.700000
850.142151	196.300000
850.175964	197.100000
850.209778	191.600000
850.243530	183.000000
850.277405	195.800000
850.311218	191.300000
850.344971	189.100000
850.378845	198.800000
850.412659	189.500000
850.446411	194.500000
850.480225	191.700000
850.514038	196.100000
850.547791	195.400000
850.581665	191.100000
850.615417	190.000000
850.649231	193.400000
850.683044	191.400000
850.716858	191.300000
850.750610	192.200000
850.784424	195.900000
850.818176	189.000000
850.851929	191.600000
850.885742	188.900000
850.919495	192.400000
850.953308	198.800000
850.987122	199.500000
851.020874	187.300000
851.054626	187.700000
851.088440	195.300000
851.122192	194.400000
851.156006	192.200000
851.189697	191.700000
851.223511	187.500000
851.257263	197.300000
851.291077	193.400000
851.324829	191.000000
851.358582	189.800000
851.392334	191.500000
851.426086	190.400000
851.459900	199.300000
851.493591	191.400000
851.527344	190.900000
851.561157	192.000000
851.594849	194.300000
851.628662	192.100000
851.662415	199.900000
851.696106	194.000000
851.729858	195.600000
851.763611	188.900000
851.797363	193.800000
851.831116	188.200000
851.864868	193.600000
851.898560	195.600000
851.932312	191.000000
851.966064	193.200000
851.999817	190.600000
852.033569	191.100000
852.067261	196.800000
852.101013	189.300000
852.134766	191.200000
852.168457	185.300000
852.202209	197.200000
852.235901	188.500000
852.269592	195.400000
852.303345	199.400000
852.337036	195.800000
852.370789	192.000000
852.404541	195.500000
852.438171	188.700000
852.471924	192.700000
852.505676	186.900000
852.539307	193.200000
852.573059	190.500000
852.606812	190.900000
852.640442	191.700000
852.674194	196.300000
852.707886	201.800000
852.741577	197.000000
852.775269	188.500000
852.809021	192.600000
852.842651	195.500000
852.876404	197.100000
852.910034	195.300000
852.943787	196.400000
852.977478	194.100000
853.011108	188.500000
853.044861	190.100000
853.078552	197.500000
853.112183	193.600000
853.145874	191.900000
853.179626	185.900000
853.213257	193.200000
853.246948	189.200000
853.280640	198.600000
853.314270	191.200000
853.347961	197.900000
853.381653	194.200000
853.415283	195.900000
853.448975	189.200000
853.482605	192.800000
853.516296	193.100000
853.549988	188.600000
853.583618	195.800000
853.617310	194.700000
853.651001	194.500000
853.684631	190.500000
853.718323	189.800000
853.751953	198.700000
853.785583	185.300000
853.819275	195.800000
853.852966	193.700000
853.886536	187.400000
853.920227	188.100000
853.953918	196.900000
853.987488	191.800000
854.021179	195.000000
854.054749	199.400000
854.088440	194.500000
854.122131	188.900000
854.155701	193.400000
854.189331	189.800000
854.223022	194.100000
854.256592	193.800000
854.290283	190.200000
854.323914	195.700000
854.357483	193.100000
854.391174	194.000000
854.424744	198.200000
854.458374	192.500000
854.492065	202.500000
854.525696	195.700000
854.559265	196.700000
854.592896	201.200000
854.626465	191.900000
854.660095	191.300000
854.693787	194.600000
854.727356	192.000000
854.760986	195.700000
854.794617	194.800000
854.828186	192.400000
854.861816	195.800000
854.895447	195.000000
854.929016	193.000000
854.962585	193.200000
854.996155	200.500000
855.029785	193.300000
855.063416	193.600000
855.097046	195.400000
855.130615	189.200000
855.164185	198.400000
855.197754	193.700000
855.231384	193.900000
855.264954	193.700000
855.298523	195.500000
855.332153	192.400000
855.365723	197.900000
855.399292	191.300000
855.432922	191.900000
855.466492	194.200000
855.500061	188.300000
855.533630	189.900000
855.567200	195.300000
855.600769	196.200000
855.634338	194.900000
855.667969	193.800000
855.701477	188.600000
855.735046	189.700000
855.768616	185.500000
855.802185	194.100000
855.835754	203.700000
855.869324	185.200000
855.902893	193.100000
855.936401	196.400000
855.969971	193.800000
856.003540	187.900000
856.037109	195.200000
856.070618	190.300000
856.104187	187.800000
856.137695	191.100000
856.171265	186.000000
856.204834	192.600000
856.238403	196.300000
856.271912	191.300000
856.305481	194.800000
856.338989	187.600000
856.372559	194.000000
856.406128	194.600000
856.439636	195.700000
856.473145	191.200000
856.506653	201.000000
856.540222	192.000000
856.573792	197.400000
856.607300	195.600000
856.640808	188.900000
856.674377	193.700000
856.707825	225.400000
856.741394	196.800000
856.774902	188.700000
856.808472	186.600000
856.841980	194.900000
856.875488	196.200000
856.908936	187.900000
856.942505	191.000000
856.976013	191.700000
857.009521	188.900000
857.043030	192.300000
857.076477	191.800000
857.110046	198.400000
857.143555	193.400000
857.177063	195.000000
857.210571	191.900000
857.244080	187.600000
857.277527	195.300000
857.311035	192.700000
857.344543	196.600000
857.378052	191.400000
857.411499	197.500000
857.445068	198.700000
857.478516	191.300000
857.512024	188.600000
857.545532	191.000000
857.578979	193.900000
857.612427	193.400000
857.645874	190.300000
857.679382	193.400000
857.712891	197.300000
857.746399	192.100000
857.779846	196.000000
857.813354	196.600000
857.846741	191.900000
857.880249	189.200000
857.913757	194.900000
857.947266	194.400000
857.980652	194.400000
858.014160	190.800000
858.047546	191.200000
858.081055	190.800000
858.114563	201.300000
858.147949	189.000000
858.181458	195.000000
858.214844	192.500000
858.248352	184.700000
858.281799	195.200000
858.315308	202.400000
858.348694	195.300000
858.382141	200.500000
858.415588	195.400000
858.449036	195.700000
858.482483	193.000000
858.515930	191.900000
858.549377	191.900000
858.582825	197.100000
858.616211	195.000000
858.649658	194.100000
858.683105	187.600000
858.716553	190.600000
858.750000	187.200000
858.783386	190.700000
858.816833	187.400000
858.850281	193.300000
858.883728	193.600000
858.917114	194.100000
858.950562	200.000000
858.983948	198.600000
859.017395	196.300000
859.050781	192.200000
859.084167	189.800000
859.117615	189.900000
859.151062	195.400000
859.184448	190.000000
859.217834	192.100000
859.251282	191.500000
859.284668	189.300000
859.318054	187.400000
859.351440	191.500000
859.384888	198.300000
859.418274	185.300000
859.451721	185.900000
859.485046	194.100000
859.518494	194.500000
859.551819	188.600000
859.585266	195.800000
859.618652	197.700000
859.652039	187.900000
859.685425	186.600000
859.718811	188.600000
859.752197	183.900000
859.785583	196.800000
859.819031	197.400000
859.852356	194.300000
859.885742	190.000000
859.919067	193.100000
859.952454	189.900000
859.985901	195.700000
860.019287	192.400000
860.052612	0.000000
860.085999	0.000000
860.119324	0.000000
860.152710	0.000000
860.186096	0.000000
860.219421	0.000000
860.252808	0.000000
860.286133	0.000000
860.319519	0.000000
860.352905	0.000000
860.386292	0.000000
860.419617	0.000000
860.452942	0.000000
860.486267	0.000000
860.519653	0.000000
860.553040	0.000000
860.586365	0.000000
860.619690	0.000000
860.653076	0.000000
860.686340	0.000000
860.719727	0.000000
860.753113	0.000000
860.786377	0.000000
860.819763	0.000000
860.853027	0.000000
860.886414	0.000000
860.919739	0.000000
860.953125	0.000000
860.986389	0.000000
861.019714	0.000000
861.053040	0.000000
861.086365	0.000000
861.119690	0.000000
861.153076	0.000000
861.186340	0.000000
861.219666	0.000000
861.252930	0.000000
861.286316	0.000000
861.319641	0.000000
861.352905	0.000000
861.386230	0.000000
861.419495	0.000000
861.452820	0.000000
861.486145	0.000000
861.519470	0.000000
861.552734	0.000000
861.586060	0.000000
861.619324	0.000000
861.652649	0.000000
861.685974	0.000000
861.719238	0.000000
861.752563	0.000000
861.785828	0.000000
861.819092	0.000000
861.852417	0.000000
861.885742	0.000000
861.918945	0.000000
861.952271	0.000000
861.985535	0.000000
862.018799	0.000000
862.052124	0.000000
862.085449	0.000000
862.118652	0.000000
862.151978	0.000000
862.185181	0.000000
862.218506	0.000000
862.251770	0.000000
862.285034	0.000000
862.318298	0.000000
862.351562	0.000000
862.384827	0.000000
862.418091	0.000000
862.451355	0.000000
862.484619	0.000000
862.517883	0.000000
862.551086	0.000000
862.584351	0.000000
862.617676	0.000000
862.650940	0.000000
862.684143	0.000000
862.717407	0.000000
862.750610	0.000000
862.783875	0.000000
862.817139	0.000000
862.850342	0.000000
862.883606	0.000000
862.916870	0.000000
862.950073	0.000000
862.983337	0.000000
863.016602	0.000000
863.049805	0.000000
863.083069	0.000000
863.116211	0.000000
863.149475	0.000000
863.182739	0.000000
863.216003	0.000000
863.249146	0.000000
863.282410	0.000000
863.315613	0.000000
863.348816	0.000000
863.382080	0.000000
863.415222	0.000000
863.448486	0.000000
863.481689	0.000000
863.514893	0.000000
863.548157	0.000000
863.581360	0.000000
863.614502	0.000000
863.647766	0.000000
863.680908	0.000000
863.714172	0.000000
863.747375	0.000000
863.780579	0.000000
863.813721	0.000000
863.846985	0.000000
863.880127	0.000000
863.913330	0.000000
863.946533	0.000000
863.979675	0.000000
864.012939	0.000000
