Model Number: SPM-001-M   
Serial Number: 10090201
Firmware Version: 004.17.6
Exposure Time: 300000.000000us
Data Taken on: 21-01-2021 14:15:47.305
Wavelength	Amplitude
733.770752	0.000000
733.808716	0.000000
733.846619	0.000000
733.884583	0.000000
733.922546	0.000000
733.960449	0.000000
733.998413	0.000000
734.036377	0.000000
734.074219	0.000000
734.112183	0.000000
734.150085	0.000000
734.188049	0.000000
734.226013	0.000000
734.263916	0.000000
734.301819	0.000000
734.339783	0.000000
734.377686	0.000000
734.415588	0.000000
734.453552	0.000000
734.491455	0.000000
734.529419	0.000000
734.567322	0.000000
734.605225	0.000000
734.643127	0.000000
734.681091	0.000000
734.718994	0.000000
734.756897	0.000000
734.794800	0.000000
734.832703	0.000000
734.870667	0.000000
734.908508	0.000000
734.946472	0.000000
734.984375	0.000000
735.022278	0.000000
735.060181	0.000000
735.098083	0.000000
735.135986	0.000000
735.173889	0.000000
735.211792	0.000000
735.249695	0.000000
735.287598	0.000000
735.325439	0.000000
735.363403	0.000000
735.401306	0.000000
735.439148	0.000000
735.477051	0.000000
735.515015	0.000000
735.552856	0.000000
735.590759	0.000000
735.628662	0.000000
735.666504	0.000000
735.704407	0.000000
735.742310	0.000000
735.780212	0.000000
735.818115	0.000000
735.856018	0.000000
735.893860	0.000000
735.931763	0.000000
735.969604	0.000000
736.007507	0.000000
736.045410	0.000000
736.083252	0.000000
736.121094	0.000000
736.158997	0.000000
736.196838	0.000000
736.234741	0.000000
736.272644	0.000000
736.310486	0.000000
736.348389	0.000000
736.386230	0.000000
736.424072	0.000000
736.461975	0.000000
736.499878	0.000000
736.537720	0.000000
736.575562	0.000000
736.613403	0.000000
736.651306	0.000000
736.689148	0.000000
736.726990	0.000000
736.764893	0.000000
736.802734	0.000000
736.840576	0.000000
736.878418	0.000000
736.916321	0.000000
736.954102	0.000000
736.992004	0.000000
737.029846	0.000000
737.067688	0.000000
737.105530	0.000000
737.143372	0.000000
737.181213	0.000000
737.219116	0.000000
737.256897	0.000000
737.294739	0.000000
737.332642	0.000000
737.370422	0.000000
737.408325	0.000000
737.446167	0.000000
737.483948	0.000000
737.521790	0.000000
737.559692	0.000000
737.597473	0.000000
737.635315	0.000000
737.673157	0.000000
737.710999	0.000000
737.748840	0.000000
737.786621	0.000000
737.824463	0.000000
737.862305	0.000000
737.900085	0.000000
737.937927	0.000000
737.975769	0.000000
738.013550	0.000000
738.051392	0.000000
738.089233	0.000000
738.127014	0.000000
738.164856	0.000000
738.202698	0.000000
738.240479	0.000000
738.278320	0.000000
738.316162	0.000000
738.353943	0.000000
738.391785	0.000000
738.429565	0.000000
738.467407	0.000000
738.505188	0.000000
738.542969	0.000000
738.580811	0.000000
738.618652	0.000000
738.656372	0.000000
738.694214	0.000000
738.732056	0.000000
738.769836	0.000000
738.807617	0.000000
738.845459	0.000000
738.883240	0.000000
738.921021	0.000000
738.958862	0.000000
738.996582	0.000000
739.034424	0.000000
739.072205	0.000000
739.109985	0.000000
739.147827	0.000000
739.185547	0.000000
739.223389	0.000000
739.261169	0.000000
739.298889	0.000000
739.336731	0.000000
739.374512	0.000000
739.412292	0.000000
739.450073	0.000000
739.487854	0.000000
739.525635	0.000000
739.563416	0.000000
739.601135	0.000000
739.638977	0.000000
739.676758	0.000000
739.714478	0.000000
739.752258	0.000000
739.790100	0.000000
739.827820	0.000000
739.865601	0.000000
739.903381	0.000000
739.941101	0.000000
739.978882	194.600000
740.016724	190.300000
740.054443	194.200000
740.092224	187.900000
740.130005	188.400000
740.167725	188.800000
740.205505	189.000000
740.243225	195.700000
740.281006	191.700000
740.318787	186.500000
740.356506	197.200000
740.394287	195.000000
740.432068	188.200000
740.469727	187.200000
740.507507	193.300000
740.545288	191.700000
740.583008	192.200000
740.620789	193.200000
740.658569	185.700000
740.696228	190.500000
740.734009	194.200000
740.771790	183.100000
740.809509	193.900000
740.847229	186.900000
740.884949	189.300000
740.922729	186.500000
740.960449	189.600000
740.998169	187.400000
741.035950	188.600000
741.073669	192.000000
741.111389	191.300000
741.149170	198.700000
741.186890	198.300000
741.224609	193.400000
741.262329	192.000000
741.300110	198.300000
741.337769	187.200000
741.375549	187.300000
741.413208	192.500000
741.450989	188.900000
741.488708	188.800000
741.526367	188.300000
741.564148	194.700000
741.601868	195.000000
741.639526	190.900000
741.677307	193.400000
741.715027	192.700000
741.752686	187.400000
741.790466	197.500000
741.828186	193.000000
741.865845	188.400000
741.903564	185.800000
741.941345	191.700000
741.979004	188.100000
742.016724	194.200000
742.054382	192.300000
742.092102	194.200000
742.129822	186.400000
742.167480	190.700000
742.205200	190.900000
742.242920	192.400000
742.280640	195.100000
742.318359	188.300000
742.356079	191.500000
742.393738	194.100000
742.431396	189.000000
742.469116	196.200000
742.506775	184.500000
742.544495	191.600000
742.582214	194.700000
742.619873	192.300000
742.657593	196.400000
742.695251	195.300000
742.732971	189.800000
742.770630	191.900000
742.808289	191.100000
742.846008	192.300000
742.883728	193.700000
742.921326	192.600000
742.959045	189.800000
742.996765	192.400000
743.034424	190.300000
743.072083	189.900000
743.109802	189.600000
743.147400	187.900000
743.185120	192.000000
743.222839	192.500000
743.260437	197.700000
743.298157	193.100000
743.335754	184.500000
743.373474	190.000000
743.411133	186.700000
743.448792	191.700000
743.486450	191.100000
743.524170	186.800000
743.561768	191.000000
743.599487	195.400000
743.637146	199.300000
743.674744	190.800000
743.712463	190.900000
743.750122	191.300000
743.787720	192.300000
743.825439	190.600000
743.863037	190.900000
743.900696	190.900000
743.938416	216.800000
743.976013	191.300000
744.013672	197.800000
744.051331	195.400000
744.088928	198.600000
744.126587	195.900000
744.164307	193.900000
744.201904	189.000000
744.239563	193.500000
744.277222	194.500000
744.314819	192.400000
744.352478	196.300000
744.390137	192.900000
744.427734	192.200000
744.465393	189.700000
744.502991	188.700000
744.540649	193.700000
744.578308	191.800000
744.615906	187.300000
744.653564	183.200000
744.691223	193.400000
744.728821	187.300000
744.766418	191.000000
744.804077	192.300000
744.841675	190.600000
744.879333	186.600000
744.916992	189.700000
744.954529	189.100000
744.992187	195.500000
745.029785	189.800000
745.067444	189.600000
745.105042	191.600000
745.142639	193.000000
745.180298	199.800000
745.217896	190.600000
745.255493	190.100000
745.293152	193.400000
745.330750	195.500000
745.368347	196.200000
745.405945	194.600000
745.443604	191.700000
745.481140	193.200000
745.518799	191.300000
745.556396	195.000000
745.593994	193.600000
745.631592	191.500000
745.669189	187.100000
745.706787	192.400000
745.744385	188.000000
745.781982	195.000000
745.819580	189.100000
745.857178	191.800000
745.894775	190.300000
745.932373	192.400000
745.969971	192.700000
746.007568	186.300000
746.045166	198.400000
746.082764	197.700000
746.120300	192.100000
746.157898	193.500000
746.195557	190.500000
746.233093	187.900000
746.270691	193.900000
746.308228	193.600000
746.345825	194.200000
746.383423	193.400000
746.420959	188.700000
746.458557	188.900000
746.496155	189.100000
746.533691	193.000000
746.571289	186.700000
746.608887	191.100000
746.646423	191.800000
746.684021	193.000000
746.721619	190.100000
746.759155	193.000000
746.796753	186.400000
746.834351	186.600000
746.871826	189.800000
746.909424	196.100000
746.946960	191.600000
746.984558	190.500000
747.022156	190.400000
747.059631	198.500000
747.097229	195.100000
747.134827	189.500000
747.172363	195.200000
747.209900	193.900000
747.247498	188.100000
747.285034	196.300000
747.322571	197.000000
747.360168	190.500000
747.397644	186.600000
747.435242	194.300000
747.472778	195.800000
747.510315	188.700000
747.547913	190.200000
747.585388	195.800000
747.622925	191.300000
747.660522	185.400000
747.697998	189.400000
747.735596	188.900000
747.773132	189.200000
747.810669	191.100000
747.848206	193.800000
747.885742	187.800000
747.923279	187.300000
747.960815	192.600000
747.998352	191.700000
748.035889	194.400000
748.073425	193.200000
748.110901	189.800000
748.148437	187.300000
748.185974	192.600000
748.223511	199.100000
748.261047	193.900000
748.298584	192.900000
748.336060	191.600000
748.373596	193.200000
748.411133	217.000000
748.448608	190.800000
748.486145	193.600000
748.523682	196.200000
748.561218	198.300000
748.598755	193.600000
748.636292	193.800000
748.673706	190.700000
748.711243	197.100000
748.748718	191.500000
748.786255	191.600000
748.823792	191.700000
748.861267	186.800000
748.898804	193.900000
748.936340	194.800000
748.973816	189.000000
749.011292	196.300000
749.048828	192.100000
749.086304	193.500000
749.123840	199.100000
749.161316	188.300000
749.198792	199.300000
749.236328	196.500000
749.273743	190.800000
749.311279	189.400000
749.348816	194.100000
749.386230	192.300000
749.423767	183.100000
749.461304	194.000000
749.498718	192.000000
749.536255	195.500000
749.573730	199.900000
749.611206	197.600000
749.648682	192.000000
749.686218	191.700000
749.723633	194.100000
749.761169	192.000000
749.798645	188.900000
749.836060	189.400000
749.873596	188.200000
749.911011	194.000000
749.948547	197.200000
749.986023	190.500000
750.023437	191.900000
750.060913	187.600000
750.098450	187.100000
750.135864	192.100000
750.173340	191.400000
750.210815	195.400000
750.248291	187.200000
750.285767	191.900000
750.323242	194.900000
750.360657	194.000000
750.398132	187.900000
750.435608	194.000000
750.473022	189.500000
750.510498	189.000000
750.547974	188.300000
750.585449	190.300000
750.622925	184.500000
750.660339	201.000000
750.697815	191.700000
750.735291	191.000000
750.772644	191.400000
750.810120	191.500000
750.847595	194.200000
750.885010	187.100000
750.922485	197.900000
750.959961	191.100000
750.997375	197.000000
751.034851	194.100000
751.072266	194.700000
751.109680	184.900000
751.147156	196.100000
751.184570	193.500000
751.221985	189.700000
751.259460	185.300000
751.296875	191.100000
751.334290	190.700000
751.371765	195.100000
751.409180	195.500000
751.446594	195.200000
751.484070	193.900000
751.521423	193.800000
751.558899	192.400000
751.596375	200.300000
751.633728	197.500000
751.671204	200.800000
751.708618	189.400000
751.746033	193.700000
751.783447	188.300000
751.820801	190.000000
751.858276	194.700000
751.895691	191.300000
751.933105	190.900000
751.970520	188.200000
752.007935	190.200000
752.045349	195.400000
752.082764	191.200000
752.120178	189.100000
752.157532	188.700000
752.195007	189.300000
752.232422	193.800000
752.269775	194.200000
752.307190	193.800000
752.344543	188.000000
752.382019	190.000000
752.419434	190.000000
752.456787	194.400000
752.494202	195.000000
752.531616	192.100000
752.568970	193.500000
752.606384	193.600000
752.643799	193.400000
752.681152	196.900000
752.718567	194.700000
752.755981	185.700000
752.793335	194.300000
752.830750	186.400000
752.868164	195.600000
752.905518	187.400000
752.942932	195.700000
752.980225	188.400000
753.017639	194.300000
753.055054	196.000000
753.092407	194.500000
753.129822	194.800000
753.167175	199.000000
753.204529	191.600000
753.241943	190.100000
753.279358	188.000000
753.316650	195.800000
753.354065	193.100000
753.391479	195.600000
753.428772	197.700000
753.466187	192.900000
753.503479	187.800000
753.540894	190.000000
753.578308	186.700000
753.615601	187.500000
753.653015	191.700000
753.690369	190.700000
753.727722	188.400000
753.765076	186.200000
753.802490	188.300000
753.839783	186.100000
753.877136	189.400000
753.914551	202.000000
753.951843	188.000000
753.989258	194.200000
754.026611	192.000000
754.063904	193.300000
754.101257	187.400000
754.138611	187.400000
754.175964	191.000000
754.213318	199.100000
754.250610	186.200000
754.288025	191.000000
754.325378	188.200000
754.362671	195.700000
754.400024	192.200000
754.437378	200.100000
754.474670	199.300000
754.512085	189.700000
754.549438	193.300000
754.586731	189.100000
754.624084	192.100000
754.661438	188.800000
754.698730	199.000000
754.736084	190.900000
754.773376	191.600000
754.810730	194.900000
754.848083	190.700000
754.885315	196.500000
754.922668	186.200000
754.960022	188.100000
754.997314	194.900000
755.034668	191.500000
755.072021	192.400000
755.109253	189.300000
755.146606	197.400000
755.183960	190.300000
755.221252	197.300000
755.258545	194.900000
755.295898	197.800000
755.333191	197.000000
755.370544	194.700000
755.407776	192.900000
755.445129	192.800000
755.482422	194.200000
755.519714	190.800000
755.557068	187.300000
755.594360	185.900000
755.631653	196.200000
755.668945	197.100000
755.706299	193.400000
755.743530	203.200000
755.780884	197.300000
755.818176	196.000000
755.855408	195.700000
755.892761	194.200000
755.930054	193.500000
755.967346	194.100000
756.004639	192.800000
756.041870	192.700000
756.079224	196.700000
756.116516	190.000000
756.153748	195.800000
756.191040	200.400000
756.228394	194.400000
756.265625	189.600000
756.302917	194.200000
756.340210	191.400000
756.377441	197.200000
756.414795	199.600000
756.452087	193.200000
756.489319	187.600000
756.526611	197.200000
756.563843	194.300000
756.601135	199.500000
756.638428	201.500000
756.675659	192.500000
756.712952	196.600000
756.750244	197.500000
756.787476	194.200000
756.824768	199.700000
756.862061	193.000000
756.899292	240.900000
756.936584	198.400000
756.973816	202.200000
757.011047	203.300000
757.048340	194.700000
757.085632	195.200000
757.122864	208.800000
757.160156	193.100000
757.197327	196.400000
757.234619	199.900000
757.271912	193.000000
757.309082	198.800000
757.346375	193.700000
757.383667	200.600000
757.420837	196.100000
757.458130	197.400000
757.495422	195.200000
757.532593	197.400000
757.569885	191.100000
757.607117	192.700000
757.644348	198.000000
757.681580	206.500000
757.718811	187.400000
757.756042	196.800000
757.793335	194.100000
757.830505	199.200000
757.867798	194.700000
757.905029	194.700000
757.942200	197.400000
757.979492	195.800000
758.016724	195.400000
758.053894	195.700000
758.091187	208.800000
758.128418	197.800000
758.165588	197.300000
758.202820	205.600000
758.240112	196.600000
758.277283	205.000000
758.314514	198.700000
758.351685	195.200000
758.388916	203.200000
758.426147	202.600000
758.463379	203.600000
758.500610	199.900000
758.537842	197.800000
758.575012	202.900000
758.612244	195.000000
758.649475	208.800000
758.686646	193.400000
758.723877	204.800000
758.761108	204.300000
758.798279	198.800000
758.835510	201.100000
758.872742	203.000000
758.909851	200.600000
758.947083	202.000000
758.984253	201.900000
759.021484	203.700000
759.058716	202.600000
759.095886	203.600000
759.133057	199.600000
759.170288	202.500000
759.207458	198.900000
759.244690	209.900000
759.281860	206.900000
759.319031	201.600000
759.356262	201.400000
759.393433	200.600000
759.430603	201.400000
759.467773	199.900000
759.505005	206.100000
759.542175	206.500000
759.579346	200.900000
759.616516	202.300000
759.653687	205.200000
759.690918	199.600000
759.728027	202.800000
759.765259	202.600000
759.802429	206.200000
759.839539	203.600000
759.876770	208.400000
759.913940	209.200000
759.951111	204.000000
759.988281	204.600000
760.025452	203.000000
760.062561	200.400000
760.099792	210.800000
760.136963	206.800000
760.174072	203.300000
760.211243	201.800000
760.248413	202.500000
760.285583	200.600000
760.322754	212.600000
760.359863	209.300000
760.397034	208.500000
760.434204	204.600000
760.471375	205.500000
760.508545	204.000000
760.545715	205.800000
760.582825	202.400000
760.619995	209.000000
760.657166	203.300000
760.694275	211.100000
760.731445	207.000000
760.768555	207.800000
760.805664	209.600000
760.842834	207.700000
760.879944	211.100000
760.917114	207.900000
760.954285	206.100000
760.991394	203.100000
761.028564	211.400000
761.065674	208.500000
761.102783	205.000000
761.139954	211.900000
761.177124	211.500000
761.214172	211.300000
761.251343	207.000000
761.288452	207.000000
761.325562	210.200000
761.362732	204.900000
761.399841	207.400000
761.436951	209.000000
761.474121	205.600000
761.511169	207.600000
761.548340	213.400000
761.585449	210.200000
761.622559	212.900000
761.659668	210.600000
761.696838	213.500000
761.733887	210.600000
761.771057	209.800000
761.808167	210.000000
761.845276	212.900000
761.882385	219.200000
761.919434	211.200000
761.956604	225.000000
761.993713	209.800000
762.030762	217.600000
762.067871	212.100000
762.105042	212.800000
762.142090	219.700000
762.179199	212.900000
762.216309	215.900000
762.253418	223.300000
762.290527	221.500000
762.327637	216.700000
762.364685	210.000000
762.401794	218.100000
762.438904	215.100000
762.475952	211.100000
762.513062	210.700000
762.550110	211.900000
762.587219	222.500000
762.624329	220.700000
762.661377	217.000000
762.698486	217.200000
762.735596	216.200000
762.772644	211.900000
762.809753	209.500000
762.846863	214.800000
762.883911	218.700000
762.921021	217.800000
762.958069	216.600000
762.995117	222.500000
763.032227	221.500000
763.069336	215.600000
763.106323	213.400000
763.143433	212.400000
763.180481	218.000000
763.217590	219.600000
763.254639	214.600000
763.291687	217.200000
763.328735	224.600000
763.365845	217.200000
763.402893	217.200000
763.439941	220.000000
763.477051	223.400000
763.514038	222.500000
763.551147	218.600000
763.588196	221.200000
763.625244	219.000000
763.662292	226.600000
763.699402	227.600000
763.736389	223.300000
763.773499	230.000000
763.810486	225.300000
763.847534	221.700000
763.884644	224.000000
763.921631	221.000000
763.958679	229.500000
763.995728	224.500000
764.032776	230.100000
764.069824	221.200000
764.106873	228.100000
764.143860	232.500000
764.180969	223.700000
764.218018	232.600000
764.255005	224.700000
764.292053	225.800000
764.329102	233.800000
764.366089	233.400000
764.403137	231.200000
764.440125	226.300000
764.477173	227.900000
764.514221	231.800000
764.551208	230.900000
764.588257	225.300000
764.625305	232.900000
764.662292	238.100000
764.699341	238.400000
764.736389	234.200000
764.773376	245.100000
764.810425	237.400000
764.847473	240.600000
764.884399	239.100000
764.921448	243.000000
764.958435	243.200000
764.995483	236.200000
765.032532	249.200000
765.069458	236.700000
765.106506	238.400000
765.143555	235.500000
765.180481	240.400000
765.217529	247.800000
765.254578	235.200000
765.291504	241.600000
765.328552	241.300000
765.365540	238.200000
765.402527	249.100000
765.439575	241.100000
765.476501	236.700000
765.513550	236.300000
765.550537	242.800000
765.587463	247.100000
765.624512	241.200000
765.661499	235.700000
765.698486	247.900000
765.735474	239.600000
765.772461	241.700000
765.809448	249.300000
765.846436	245.200000
765.883423	249.600000
765.920410	244.300000
765.957397	242.100000
765.994385	247.100000
766.031311	252.800000
766.068359	249.800000
766.105286	250.100000
766.142273	254.600000
766.179260	251.300000
766.216187	246.300000
766.253174	243.400000
766.290161	249.400000
766.327148	252.400000
766.364136	254.000000
766.401123	262.100000
766.438049	246.000000
766.475037	258.400000
766.512024	254.200000
766.548950	265.300000
766.585937	259.900000
766.622864	256.900000
766.659790	256.200000
766.696777	249.000000
766.733704	259.400000
766.770691	252.800000
766.807678	265.000000
766.844604	257.600000
766.881531	260.400000
766.918518	264.500000
766.955444	265.300000
766.992432	259.600000
767.029358	264.000000
767.066284	264.200000
767.103271	262.500000
767.140198	292.600000
767.177124	272.200000
767.214050	265.700000
767.251038	266.400000
767.287964	262.900000
767.324890	261.600000
767.361816	264.400000
767.398743	270.100000
767.435730	264.800000
767.472595	268.300000
767.509583	271.400000
767.546509	262.400000
767.583374	266.900000
767.620361	262.000000
767.657288	265.400000
767.694214	266.200000
767.731140	266.500000
767.768066	266.400000
767.804993	271.100000
767.841919	264.600000
767.878845	267.900000
767.915710	272.700000
767.952698	268.800000
767.989563	271.800000
768.026489	274.400000
768.063416	266.700000
768.100281	266.500000
768.137207	278.000000
768.174133	276.100000
768.211060	276.400000
768.247986	274.300000
768.284912	272.700000
768.321777	273.100000
768.358704	271.000000
768.395630	275.000000
768.432495	270.800000
768.469421	275.300000
768.506348	278.600000
768.543152	283.800000
768.580078	278.500000
768.616943	280.100000
768.653870	281.600000
768.690796	282.500000
768.727661	280.100000
768.764587	283.500000
768.801453	277.500000
768.838318	287.400000
768.875244	284.400000
768.912109	289.300000
768.948975	280.600000
768.985901	282.700000
769.022766	282.600000
769.059631	286.400000
769.096558	283.700000
769.133362	285.600000
769.170288	286.300000
769.207214	286.400000
769.244019	288.500000
769.280945	287.600000
769.317810	295.600000
769.354675	291.300000
769.391541	298.700000
769.428406	293.900000
769.465271	301.600000
769.502136	294.300000
769.539062	298.700000
769.575867	296.600000
769.612732	297.800000
769.649597	300.500000
769.686462	303.200000
769.723328	299.300000
769.760193	299.300000
769.797058	299.500000
769.833923	304.600000
769.870728	301.900000
769.907593	304.600000
769.944519	305.400000
769.981323	308.500000
770.018188	308.500000
770.055054	305.100000
770.091858	305.700000
770.128723	314.700000
770.165588	321.600000
770.202393	309.100000
770.239258	316.200000
770.276062	314.200000
770.312927	315.200000
770.349792	319.300000
770.386597	316.400000
770.423462	327.300000
770.460327	331.100000
770.497131	322.700000
770.533997	317.000000
770.570862	327.600000
770.607605	327.500000
770.644470	327.300000
770.681335	329.500000
770.718140	329.700000
770.754944	323.400000
770.791809	323.900000
770.828613	325.000000
770.865479	329.800000
770.902222	336.900000
770.939087	331.500000
770.975952	324.000000
771.012695	327.600000
771.049561	339.900000
771.086365	333.800000
771.123169	330.400000
771.159973	333.200000
771.196838	337.100000
771.233582	336.800000
771.270447	335.700000
771.307251	339.500000
771.344055	338.500000
771.380859	341.200000
771.417664	337.000000
771.454468	343.600000
771.491272	343.700000
771.528076	344.600000
771.564880	343.200000
771.601685	347.400000
771.638428	341.400000
771.675293	347.200000
771.712097	339.700000
771.748840	355.500000
771.785645	346.600000
771.822449	349.200000
771.859253	352.300000
771.896057	349.600000
771.932861	358.800000
771.969604	350.500000
772.006409	346.500000
772.043213	357.500000
772.079956	357.000000
772.116760	348.500000
772.153503	349.000000
772.190308	359.200000
772.227112	356.900000
772.263855	351.000000
772.300659	357.000000
772.337463	362.600000
772.374207	353.300000
772.411011	355.200000
772.447754	357.700000
772.484497	367.700000
772.521301	361.900000
772.558105	363.900000
772.594849	362.400000
772.631592	364.000000
772.668396	362.500000
772.705139	367.700000
772.741882	366.400000
772.778625	375.000000
772.815430	374.200000
772.852173	373.400000
772.888916	377.100000
772.925720	381.600000
772.962463	385.400000
772.999207	378.100000
773.035950	382.900000
773.072754	383.100000
773.109436	379.800000
773.146240	379.600000
773.182922	376.600000
773.219727	383.400000
773.256470	382.500000
773.293152	374.900000
773.329956	377.600000
773.366699	382.100000
773.403381	376.700000
773.440186	384.100000
773.476929	383.800000
773.513611	380.600000
773.550354	381.300000
773.587158	383.600000
773.623840	375.900000
773.660583	383.200000
773.697327	390.600000
773.734009	388.200000
773.770813	384.300000
773.807495	382.200000
773.844238	384.100000
773.880981	395.900000
773.917664	391.100000
773.954407	397.600000
773.991150	388.800000
774.027832	393.900000
774.064575	389.400000
774.101318	392.100000
774.138000	395.700000
774.174744	394.900000
774.211487	397.100000
774.248108	390.100000
774.284851	389.500000
774.321594	395.500000
774.358276	398.900000
774.395020	409.000000
774.431702	405.200000
774.468384	396.800000
774.505127	396.900000
774.541809	404.800000
774.578491	409.900000
774.615234	411.900000
774.651917	403.700000
774.688599	405.900000
774.725342	414.300000
774.762024	411.400000
774.798706	417.500000
774.835449	417.200000
774.872070	420.900000
774.908813	420.200000
774.945496	419.700000
774.982178	418.200000
775.018860	421.100000
775.055542	423.100000
775.092224	422.400000
775.128967	426.500000
775.165588	427.000000
775.202271	421.600000
775.239014	433.900000
775.275635	433.800000
775.312317	434.000000
775.349060	437.300000
775.385681	435.600000
775.422363	431.200000
775.459045	436.500000
775.495667	437.600000
775.532410	442.800000
775.569092	441.200000
775.605713	444.400000
775.642395	441.400000
775.679016	443.300000
775.715698	444.000000
775.752380	448.900000
775.789001	445.600000
775.825684	448.700000
775.862366	453.000000
775.898987	459.600000
775.935669	450.200000
775.972351	466.100000
776.008972	459.800000
776.045654	464.300000
776.082336	461.100000
776.118958	459.600000
776.155640	465.500000
776.192322	468.900000
776.228882	473.800000
776.265564	476.700000
776.302185	470.000000
776.338867	475.500000
776.375488	469.600000
776.412109	477.600000
776.448792	480.900000
776.485413	490.400000
776.522034	482.200000
776.558716	481.300000
776.595337	481.500000
776.631958	481.800000
776.668579	484.200000
776.705261	492.700000
776.741882	488.100000
776.778503	488.000000
776.815186	487.100000
776.851746	492.100000
776.888367	490.700000
776.924988	498.000000
776.961609	488.600000
776.998291	496.300000
777.034851	490.500000
777.071472	502.200000
777.108154	499.800000
777.144714	505.300000
777.181335	504.400000
777.218018	502.500000
777.254578	510.900000
777.291199	500.100000
777.327759	505.800000
777.364380	513.200000
777.401062	520.400000
777.437622	526.300000
777.474243	517.300000
777.510864	520.900000
777.547424	517.600000
777.584045	519.000000
777.620667	522.600000
777.657227	525.300000
777.693848	525.700000
777.730469	539.300000
777.767029	532.100000
777.803650	535.100000
777.840271	530.100000
777.876831	530.800000
777.913452	536.100000
777.950012	524.800000
777.986633	522.500000
778.023193	525.600000
778.059753	522.800000
778.096375	524.700000
778.132996	540.200000
778.169556	530.000000
778.206116	528.500000
778.242737	527.700000
778.279297	532.000000
778.315857	525.400000
778.352478	531.900000
778.389038	541.400000
778.425598	540.800000
778.462219	543.300000
778.498718	543.000000
778.535339	551.200000
778.571838	547.900000
778.608459	551.600000
778.645020	544.100000
778.681580	547.600000
778.718140	549.800000
778.754761	547.800000
778.791260	547.900000
778.827881	560.600000
778.864441	557.900000
778.900940	565.500000
778.937561	568.900000
778.974121	561.500000
779.010620	556.400000
779.047241	560.500000
779.083801	564.900000
779.120300	572.100000
779.156860	569.000000
779.193359	562.500000
779.229980	567.100000
779.266541	570.100000
779.303040	571.100000
779.339600	565.100000
779.376160	559.600000
779.412659	564.400000
779.449219	557.600000
779.485779	565.000000
779.522278	566.500000
779.558838	570.300000
779.595398	569.900000
779.631897	565.200000
779.668457	562.500000
779.705017	573.100000
779.741516	562.600000
779.778076	558.700000
779.814575	565.700000
779.851074	570.300000
779.887634	569.600000
779.924133	577.900000
779.960693	563.900000
779.997253	567.800000
780.033691	575.700000
780.070251	578.800000
780.106812	588.800000
780.143250	586.400000
780.179810	581.600000
780.216370	579.900000
780.252808	583.100000
780.289368	590.800000
780.325867	591.500000
780.362366	591.100000
780.398865	601.800000
780.435364	595.800000
780.471863	605.100000
780.508423	604.000000
780.544861	606.000000
780.581421	603.800000
780.617920	597.900000
780.654419	595.700000
780.690918	599.200000
780.727417	603.100000
780.763916	604.800000
780.800415	610.000000
780.836914	603.300000
780.873352	611.400000
780.909912	601.800000
780.946411	602.800000
780.982849	616.000000
781.019348	619.500000
781.055786	616.800000
781.092346	617.200000
781.128845	620.800000
781.165283	627.600000
781.201782	633.200000
781.238281	637.500000
781.274719	638.900000
781.311218	633.100000
781.347717	641.400000
781.384155	633.400000
781.420654	640.900000
781.457092	647.700000
781.493591	645.000000
781.530090	639.200000
781.566528	641.300000
781.602966	638.600000
781.639465	641.400000
781.675903	640.100000
781.712402	642.400000
781.748901	651.900000
781.785278	643.100000
781.821777	645.900000
781.858276	646.600000
781.894714	662.900000
781.931152	653.500000
781.967651	660.100000
782.004089	655.500000
782.040527	661.300000
782.076965	660.300000
782.113403	662.600000
782.149902	665.100000
782.186340	656.900000
782.222778	664.200000
782.259277	647.600000
782.295654	634.700000
782.332092	620.000000
782.368591	599.600000
782.404968	570.500000
782.441467	544.100000
782.477905	508.300000
782.514282	476.900000
782.550781	458.300000
782.587219	432.100000
782.623596	416.400000
782.660095	400.300000
782.696472	397.200000
782.732910	398.700000
782.769348	406.300000
782.805786	440.600000
782.842224	466.000000
782.878662	491.700000
782.915039	527.300000
782.951477	557.800000
782.987915	586.700000
783.024292	623.000000
783.060730	643.200000
783.097168	655.800000
783.133545	673.100000
783.169983	681.800000
783.206421	687.100000
783.242798	696.900000
783.279236	694.000000
783.315613	700.300000
783.352051	699.300000
783.388489	699.100000
783.424866	689.600000
783.461304	696.200000
783.497681	705.400000
783.534058	710.400000
783.570496	706.000000
783.606934	697.700000
783.643250	702.800000
783.679687	707.600000
783.716125	704.800000
783.752441	717.100000
783.788879	734.000000
783.825317	738.900000
783.861633	745.200000
783.898071	751.900000
783.934448	763.200000
783.970825	774.300000
784.007263	774.800000
784.043579	776.900000
784.080017	778.200000
784.116394	769.500000
784.152710	769.900000
784.189148	783.200000
784.225525	780.700000
784.261902	771.700000
784.298279	764.300000
784.334656	766.100000
784.371033	753.200000
784.407410	754.400000
784.443787	739.800000
784.480164	732.700000
784.516541	722.200000
784.552856	729.600000
784.589233	722.900000
784.625610	720.100000
784.661987	744.100000
784.698364	741.900000
784.734741	739.100000
784.771057	735.700000
784.807434	743.100000
784.843811	757.100000
784.880127	753.100000
784.916504	772.800000
784.952881	784.900000
784.989197	774.000000
785.025574	779.200000
785.061951	780.300000
785.098267	800.900000
785.134644	797.700000
785.170959	798.900000
785.207275	803.100000
785.243652	793.600000
785.279968	779.400000
785.316345	780.900000
785.352722	783.200000
785.388977	774.600000
785.425354	765.000000
785.461731	748.500000
785.498047	739.700000
785.534363	733.300000
785.570679	731.200000
785.606995	731.200000
785.643372	739.400000
785.679687	734.300000
785.716003	728.300000
785.752380	724.000000
785.788635	731.100000
785.825012	740.100000
785.861328	748.200000
785.897644	737.300000
785.933960	751.600000
785.970337	760.300000
786.006592	780.000000
786.042908	786.200000
786.079285	795.200000
786.115540	799.000000
786.151855	801.200000
786.188171	804.600000
786.224487	808.800000
786.260803	804.400000
786.297119	818.700000
786.333435	809.400000
786.369751	801.100000
786.406006	799.300000
786.442322	781.100000
786.478638	771.100000
786.514954	780.100000
786.551270	773.900000
786.587585	787.100000
786.623840	772.200000
786.660156	767.200000
786.696472	759.300000
786.732727	755.700000
786.769043	757.700000
786.805298	752.500000
786.841614	756.900000
786.877930	760.600000
786.914124	760.900000
786.950439	776.700000
786.986755	779.300000
787.023010	788.900000
787.059326	805.700000
787.095642	812.400000
787.131836	825.600000
787.168152	814.500000
787.204468	821.100000
787.240723	836.500000
787.276978	843.500000
787.313293	851.300000
787.349548	850.800000
787.385803	850.100000
787.422058	851.500000
787.458313	849.400000
787.494629	836.300000
787.530823	834.700000
787.567139	820.500000
787.603455	815.300000
787.639648	812.200000
787.675903	813.800000
787.712219	800.000000
787.748413	800.000000
787.784729	812.500000
787.820984	804.200000
787.857178	799.400000
787.893494	794.200000
787.929749	792.800000
787.965942	806.100000
788.002258	819.200000
788.038452	830.800000
788.074707	819.700000
788.110962	828.700000
788.147217	824.800000
788.183472	837.200000
788.219727	848.600000
788.255920	861.400000
788.292175	864.000000
788.328430	869.300000
788.364624	854.000000
788.400879	854.700000
788.437134	862.800000
788.473328	863.500000
788.509583	864.900000
788.545837	864.600000
788.582031	861.700000
788.618286	855.500000
788.654480	856.100000
788.690735	866.900000
788.726990	877.900000
788.763184	876.600000
788.799377	886.000000
788.835632	877.900000
788.871826	885.100000
788.908081	878.300000
788.944336	877.700000
788.980469	904.700000
789.016724	890.900000
789.052979	892.300000
789.089111	884.800000
789.125366	885.800000
789.161621	865.400000
789.197754	879.700000
789.234009	876.100000
789.270142	875.600000
789.306396	877.000000
789.342590	870.500000
789.378784	850.900000
789.414978	841.200000
789.451233	845.100000
789.487366	857.400000
789.523621	868.200000
789.559814	861.800000
789.595947	855.200000
789.632202	857.800000
789.668335	874.600000
789.704529	888.500000
789.740784	908.800000
789.776917	908.200000
789.813110	911.500000
789.849304	915.800000
789.885498	905.400000
789.921692	918.600000
789.957886	928.300000
789.994019	936.300000
790.030212	946.300000
790.066406	944.400000
790.102539	938.000000
790.138733	944.000000
790.174927	942.900000
790.211060	957.800000
790.247253	954.200000
790.283386	948.000000
790.319580	937.300000
790.355774	915.400000
790.391907	913.200000
790.428101	928.200000
790.464294	932.300000
790.500427	928.000000
790.536621	917.100000
790.572754	908.100000
790.608887	900.500000
790.645081	902.100000
790.681274	922.700000
790.717346	921.500000
790.753540	907.400000
790.789734	897.100000
790.825867	885.000000
790.862000	878.400000
790.898132	887.600000
790.934265	896.800000
790.970459	892.500000
791.006592	883.200000
791.042725	887.200000
791.078918	878.100000
791.114990	877.300000
791.151184	886.800000
791.187317	900.800000
791.223389	896.600000
791.259583	883.600000
791.295715	881.800000
791.331848	890.000000
791.367981	896.300000
791.404114	898.900000
791.440247	901.700000
791.476379	910.500000
791.512451	890.100000
791.548584	886.300000
791.584778	882.000000
791.620850	889.900000
791.656982	898.600000
791.693115	890.200000
791.729187	895.400000
791.765381	895.500000
791.801514	887.700000
791.837585	888.200000
791.873718	901.600000
791.909851	916.700000
791.945923	920.500000
791.982056	895.600000
792.018188	889.900000
792.054260	892.400000
792.090393	894.600000
792.126465	887.600000
792.162598	899.400000
792.198669	895.100000
792.234741	893.000000
792.270874	883.200000
792.307007	863.800000
792.343079	869.300000
792.379150	880.400000
792.415283	876.400000
792.451355	878.400000
792.487488	854.300000
792.523560	853.400000
792.559631	847.500000
792.595764	821.100000
792.631836	789.400000
792.667908	769.600000
792.703979	750.100000
792.740051	755.500000
792.776184	787.000000
792.812256	802.900000
792.848328	818.100000
792.884399	826.700000
792.920471	825.600000
792.956543	820.400000
792.992615	819.000000
793.028748	816.700000
793.064758	818.500000
793.100830	840.400000
793.136963	856.500000
793.172974	859.100000
793.209045	853.000000
793.245178	864.300000
793.281189	845.700000
793.317261	844.000000
793.353271	845.200000
793.389404	868.000000
793.425476	863.000000
793.461487	847.300000
793.497559	839.500000
793.533630	835.400000
793.569641	832.500000
793.605713	837.900000
793.641785	843.600000
793.677795	855.800000
793.713867	843.600000
793.749878	849.200000
793.785950	860.400000
793.822021	870.000000
793.858032	859.900000
793.894104	873.100000
793.930176	870.200000
793.966187	873.000000
794.002258	855.100000
794.038269	862.000000
794.074280	862.700000
794.110352	879.900000
794.146423	873.900000
794.182373	869.500000
794.218445	861.900000
794.254517	857.700000
794.290466	842.700000
794.326538	848.300000
794.362549	847.600000
794.398560	858.600000
794.434631	850.100000
794.470581	830.000000
794.506653	828.100000
794.542664	829.600000
794.578674	836.700000
794.614685	835.200000
794.650757	838.100000
794.686707	839.400000
794.722778	825.500000
794.758789	832.100000
794.794739	842.000000
794.830811	865.400000
794.866821	884.400000
794.902771	889.700000
794.938843	880.800000
794.974792	878.600000
795.010803	879.300000
795.046814	881.000000
795.082825	869.000000
795.118835	884.800000
795.154846	870.200000
795.190796	877.900000
795.226807	856.300000
795.262817	859.200000
795.298767	867.200000
795.334778	874.900000
795.370850	867.100000
795.406799	868.300000
795.442810	859.800000
795.478821	850.400000
795.514709	853.300000
795.550720	880.900000
795.586670	863.600000
795.622681	865.100000
795.658691	866.500000
795.694641	859.400000
795.730652	849.800000
795.766663	870.600000
795.802551	864.600000
795.838562	881.500000
795.874573	877.000000
795.910522	876.500000
795.946472	862.000000
795.982483	866.400000
796.018433	864.400000
796.054382	873.300000
796.090393	864.000000
796.126282	853.800000
796.162292	845.600000
796.198242	837.800000
796.234192	832.900000
796.270203	831.200000
796.306091	839.100000
796.342041	852.600000
796.378052	853.300000
796.413940	854.100000
796.449951	852.700000
796.485901	844.800000
796.521790	850.900000
796.557800	863.700000
796.593689	864.700000
796.629639	863.400000
796.665649	866.000000
796.701599	853.100000
796.737488	847.400000
796.773437	861.500000
796.809387	865.500000
796.845337	870.200000
796.881287	860.600000
796.917175	851.500000
796.953125	849.400000
796.989075	844.400000
797.024963	847.400000
797.060913	847.600000
797.096863	848.400000
797.132751	843.400000
797.168701	830.700000
797.204590	833.600000
797.240540	828.400000
797.276489	839.500000
797.312439	842.600000
797.348328	844.900000
797.384277	836.900000
797.420166	825.800000
797.456055	826.500000
797.492004	832.000000
797.527893	832.000000
797.563843	836.100000
797.599731	828.000000
797.635620	824.000000
797.671570	831.300000
797.707520	829.000000
797.743347	827.800000
797.779297	836.300000
797.815125	833.200000
797.851074	825.900000
797.887024	818.100000
797.922913	810.500000
797.958801	818.700000
797.994690	808.500000
798.030579	816.900000
798.066467	822.200000
798.102356	806.900000
798.138245	801.900000
798.174133	799.300000
798.210083	801.800000
798.245911	810.800000
798.281799	808.700000
798.317749	812.800000
798.353577	813.400000
798.389465	804.700000
798.425293	808.200000
798.461243	805.400000
798.497131	809.400000
798.532959	814.500000
798.568848	815.200000
798.604736	808.300000
798.640564	793.900000
798.676453	790.500000
798.712402	793.600000
798.748230	800.000000
798.784119	803.600000
798.820007	801.600000
798.855835	806.800000
798.891724	793.800000
798.927551	787.200000
798.963379	800.200000
798.999268	794.900000
799.035095	783.300000
799.070984	782.400000
799.106873	768.900000
799.142700	772.800000
799.178528	762.900000
799.214417	767.600000
799.250244	782.000000
799.286133	775.200000
799.321960	778.300000
799.357788	771.500000
799.393677	768.100000
799.429504	769.700000
799.465332	768.500000
799.501221	778.500000
799.537048	779.900000
799.572876	773.500000
799.608704	770.000000
799.644531	780.800000
799.680359	784.300000
799.716248	789.800000
799.752014	791.400000
799.787903	786.800000
799.823730	783.300000
799.859558	770.700000
799.895386	768.100000
799.931213	776.900000
799.967041	773.300000
800.002869	776.000000
800.038696	780.600000
800.074463	767.800000
800.110352	765.000000
800.146179	752.000000
800.181946	766.400000
800.217773	773.100000
800.253540	769.900000
800.289429	772.100000
800.325256	754.500000
800.361023	745.200000
800.396851	752.900000
800.432678	760.500000
800.468445	761.400000
800.504272	766.800000
800.540100	751.500000
800.575867	750.400000
800.611694	747.200000
800.647461	749.100000
800.683289	751.000000
800.719116	757.100000
800.754883	756.100000
800.790649	742.200000
800.826477	735.600000
800.862244	758.800000
800.898071	746.000000
800.933838	747.800000
800.969604	741.600000
801.005432	741.300000
801.041199	742.700000
801.076965	732.100000
801.112793	721.800000
801.148560	717.000000
801.184326	723.400000
801.220154	723.900000
801.255859	719.300000
801.291687	720.100000
801.327454	711.200000
801.363281	711.100000
801.398987	708.200000
801.434814	712.500000
801.470520	722.000000
801.506287	708.600000
801.542114	702.000000
801.577820	701.900000
801.613647	701.900000
801.649414	698.300000
801.685120	705.000000
801.720886	709.300000
801.756714	698.200000
801.792419	695.200000
801.828186	687.900000
801.863892	690.600000
801.899719	688.600000
801.935486	689.400000
801.971252	695.200000
802.006958	686.600000
802.042725	685.600000
802.078430	681.300000
802.114197	678.700000
802.149963	693.100000
802.185669	685.900000
802.221436	684.700000
802.257202	684.000000
802.292908	676.500000
802.328674	680.600000
802.364441	682.000000
802.400146	680.900000
802.435913	681.200000
802.471558	680.600000
802.507324	673.000000
802.543091	671.100000
802.578796	685.500000
802.614502	690.400000
802.650269	692.900000
802.685974	679.900000
802.721741	684.000000
802.757446	684.100000
802.793152	677.100000
802.828918	685.000000
802.864624	682.700000
802.900330	685.100000
802.936035	687.400000
802.971802	674.500000
803.007446	669.500000
803.043213	660.600000
803.078857	673.800000
803.114624	665.900000
803.150330	669.100000
803.185974	664.700000
803.221741	657.900000
803.257446	659.400000
803.293152	659.800000
803.328857	658.600000
803.364563	662.800000
803.400208	656.700000
803.435974	662.300000
803.471680	652.900000
803.507324	652.600000
803.543030	657.200000
803.578735	659.500000
803.614441	653.200000
803.650146	664.400000
803.685791	655.800000
803.721497	653.300000
803.757202	645.400000
803.792847	650.600000
803.828552	644.000000
803.864258	644.600000
803.899902	636.900000
803.935608	627.200000
803.971313	631.800000
804.006958	626.900000
804.042664	627.900000
804.078308	632.600000
804.113953	628.900000
804.149658	635.200000
804.185364	628.600000
804.221008	637.200000
804.256714	623.500000
804.292297	619.700000
804.328003	617.000000
804.363708	616.600000
804.399292	613.600000
804.434998	609.000000
804.470703	602.000000
804.506287	611.800000
804.541992	607.500000
804.577637	613.200000
804.613281	604.200000
804.648926	601.000000
804.684570	602.200000
804.720215	599.100000
804.755920	600.200000
804.791565	598.600000
804.827209	606.000000
804.862854	597.300000
804.898437	593.800000
804.934143	591.700000
804.969788	591.900000
805.005371	592.300000
805.041077	599.100000
805.076721	599.200000
805.112305	589.500000
805.147949	589.000000
805.183655	578.500000
805.219238	585.800000
805.254883	584.900000
805.290466	590.600000
805.326111	581.200000
805.361755	576.200000
805.397400	578.400000
805.432983	579.000000
805.468628	574.300000
805.504211	575.800000
805.539856	578.700000
805.575500	582.500000
805.611084	574.400000
805.646729	562.400000
805.682373	569.500000
805.717957	578.200000
805.753601	578.000000
805.789246	564.300000
805.824768	574.900000
805.860413	574.300000
805.895996	566.800000
805.931641	568.700000
805.967224	572.000000
806.002869	567.600000
806.038452	575.300000
806.074036	575.300000
806.109619	562.900000
806.145264	557.200000
806.180847	564.800000
806.216431	562.100000
806.252014	562.300000
806.287659	567.200000
806.323181	568.100000
806.358826	556.500000
806.394409	544.600000
806.429993	547.300000
806.465576	552.000000
806.501160	543.700000
806.536743	542.900000
806.572327	553.500000
806.607910	550.300000
806.643494	547.300000
806.679077	539.900000
806.714661	538.200000
806.750244	539.100000
806.785828	537.500000
806.821350	540.400000
806.856934	539.500000
806.892517	537.100000
806.928101	531.200000
806.963684	535.100000
806.999268	538.000000
807.034790	521.100000
807.070374	525.000000
807.105896	522.800000
807.141479	518.400000
807.177063	520.400000
807.212585	520.100000
807.248169	522.000000
807.283752	522.500000
807.319275	522.800000
807.354858	523.500000
807.390381	516.700000
807.425903	514.900000
807.461487	513.900000
807.497070	509.700000
807.532593	509.700000
807.568115	504.200000
807.603699	501.600000
807.639221	498.600000
807.674744	504.200000
807.710266	503.500000
807.745850	509.700000
807.781372	503.300000
807.816895	500.400000
807.852417	499.100000
807.888000	498.600000
807.923523	493.500000
807.959045	497.300000
807.994629	488.400000
808.030090	491.000000
808.065613	495.700000
808.101135	498.200000
808.136658	491.700000
808.172241	497.700000
808.207764	494.500000
808.243225	483.300000
808.278809	483.400000
808.314270	490.500000
808.349792	478.500000
808.385315	478.400000
808.420837	482.300000
808.456360	489.800000
808.491882	487.600000
808.527344	480.300000
808.562866	486.500000
808.598389	480.600000
808.633850	478.100000
808.669434	475.300000
808.704895	480.300000
808.740417	485.000000
808.775940	481.000000
808.811462	476.400000
808.846924	472.000000
808.882385	471.400000
808.917847	470.700000
808.953369	471.800000
808.988892	470.300000
809.024353	473.200000
809.059875	473.500000
809.095398	468.200000
809.130798	461.200000
809.166321	460.300000
809.201843	463.300000
809.237305	464.100000
809.272766	470.100000
809.308228	457.800000
809.343750	459.200000
809.379211	461.800000
809.414734	462.600000
809.450134	463.000000
809.485657	452.300000
809.521118	454.000000
809.556580	453.800000
809.592102	451.600000
809.627502	450.200000
809.663025	447.900000
809.698486	447.300000
809.733887	445.900000
809.769409	446.700000
809.804871	439.200000
809.840271	440.600000
809.875793	444.600000
809.911194	444.800000
809.946655	437.700000
809.982178	435.400000
810.017639	439.200000
810.053040	437.500000
810.088501	434.800000
810.123901	434.500000
810.159424	432.500000
810.194885	427.100000
810.230286	428.400000
810.265747	423.300000
810.301208	422.200000
810.336609	422.500000
810.372070	416.600000
810.407532	420.600000
810.442932	421.800000
810.478394	425.300000
810.513794	417.800000
810.549255	418.500000
810.584717	415.900000
810.620117	409.000000
810.655518	416.000000
810.690979	410.500000
810.726379	410.700000
810.761841	401.400000
810.797302	403.300000
810.832642	400.400000
810.868103	410.800000
810.903564	398.500000
810.938904	405.000000
810.974365	396.100000
811.009827	400.300000
811.045166	393.500000
811.080627	386.800000
811.115967	392.400000
811.151428	396.900000
811.186829	390.400000
811.222229	393.200000
811.257629	384.400000
811.293091	387.800000
811.328430	396.700000
811.363892	390.200000
811.399292	390.200000
811.434631	386.000000
811.470093	389.600000
811.505493	386.300000
811.540833	388.700000
811.576294	386.600000
811.611694	382.600000
811.647034	378.100000
811.682434	380.900000
811.717773	386.600000
811.753235	390.100000
811.788635	379.400000
811.823975	383.000000
811.859375	386.200000
811.894775	379.200000
811.930115	376.300000
811.965515	376.300000
812.000916	379.100000
812.036255	375.500000
812.071655	378.000000
812.106995	371.800000
812.142395	371.700000
812.177795	379.200000
812.213196	372.300000
812.248474	372.900000
812.283875	365.800000
812.319214	368.100000
812.354614	370.400000
812.390015	365.900000
812.425293	365.400000
812.460693	364.900000
812.496094	364.400000
812.531433	357.000000
812.566772	357.500000
812.602173	358.600000
812.637451	360.000000
812.672852	358.200000
812.708191	361.300000
812.743530	354.500000
812.778931	348.600000
812.814270	348.100000
812.849609	356.100000
812.884949	349.600000
812.920227	344.400000
812.955627	356.800000
812.990967	348.200000
813.026306	344.000000
813.061646	336.600000
813.096985	335.900000
813.132324	332.200000
813.167664	335.100000
813.203003	339.900000
813.238281	328.600000
813.273682	329.200000
813.308960	326.600000
813.344299	330.100000
813.379639	331.100000
813.414978	327.400000
813.450256	327.700000
813.485596	329.600000
813.520874	321.600000
813.556213	327.400000
813.591614	328.700000
813.626831	322.700000
813.662170	323.100000
813.697510	330.900000
813.732788	317.300000
813.768127	322.300000
813.803467	322.700000
813.838745	319.200000
813.874084	320.500000
813.909363	319.800000
813.944641	320.700000
813.979980	312.200000
814.015320	316.200000
814.050598	315.900000
814.085876	315.200000
814.121155	313.100000
814.156494	313.000000
814.191772	314.500000
814.227051	310.300000
814.262390	312.000000
814.297668	311.800000
814.332947	309.500000
814.368225	304.900000
814.403564	308.000000
814.438782	305.000000
814.474121	306.200000
814.509338	303.500000
814.544617	308.300000
814.579956	298.500000
814.615173	307.600000
814.650513	305.000000
814.685791	298.800000
814.721008	302.900000
814.756348	301.600000
814.791626	299.900000
814.826843	299.900000
814.862122	298.900000
814.897400	297.900000
814.932678	298.000000
814.967957	295.800000
815.003235	297.500000
815.038452	291.000000
815.073730	290.600000
815.108948	297.600000
815.144226	296.000000
815.179504	299.300000
815.214722	287.300000
815.250000	287.200000
815.285278	292.600000
815.320496	289.200000
815.355774	289.100000
815.391052	289.300000
815.426270	287.900000
815.461487	287.300000
815.496765	284.000000
815.531982	280.800000
815.567261	284.400000
815.602539	290.000000
815.637695	284.000000
815.672974	287.500000
815.708191	286.900000
815.743408	287.100000
815.778687	280.300000
815.813904	288.500000
815.849121	275.200000
815.884399	276.400000
815.919556	273.700000
815.954834	277.800000
815.990051	279.300000
816.025269	282.300000
816.060486	272.900000
816.095703	273.800000
816.130920	275.500000
816.166199	273.400000
816.201416	272.600000
816.236572	276.100000
816.271851	269.300000
816.307007	273.600000
816.342224	265.800000
816.377441	271.000000
816.412659	263.200000
816.447876	270.300000
816.483093	267.100000
816.518250	266.400000
816.553467	263.600000
816.588745	268.100000
816.623901	262.200000
816.659119	257.700000
816.694275	261.800000
816.729492	258.500000
816.764709	287.900000
816.799927	255.900000
816.835083	259.500000
816.870300	253.200000
816.905457	257.200000
816.940674	258.700000
816.975830	254.300000
817.010986	250.800000
817.046204	254.200000
817.081421	248.300000
817.116577	250.700000
817.151733	256.100000
817.186951	254.300000
817.222107	251.400000
817.257324	256.100000
817.292419	253.300000
817.327637	246.100000
817.362854	249.800000
817.398010	245.500000
817.433167	248.200000
817.468323	246.300000
817.503479	246.100000
817.538635	254.700000
817.573853	247.000000
817.608948	247.000000
817.644165	243.800000
817.679321	241.200000
817.714478	240.800000
817.749634	244.100000
817.784790	250.000000
817.819946	248.100000
817.855103	233.800000
817.890198	240.200000
817.925415	235.700000
817.960571	243.400000
817.995667	241.600000
818.030823	240.800000
818.066040	235.000000
818.101135	239.200000
818.136292	237.800000
818.171448	234.400000
818.206543	237.500000
818.241699	238.900000
818.276855	237.300000
818.311951	237.800000
818.347107	232.800000
818.382263	238.000000
818.417358	240.000000
818.452515	239.300000
818.487610	240.300000
818.522766	231.800000
818.557922	238.300000
818.593018	235.200000
818.628113	233.200000
818.663269	229.000000
818.698364	234.200000
818.733521	229.400000
818.768677	231.100000
818.803711	227.700000
818.838867	227.100000
818.874023	229.400000
818.909058	227.900000
818.944214	224.200000
818.979370	228.900000
819.014404	229.100000
819.049561	224.000000
819.084595	226.700000
819.119751	221.800000
819.154846	224.600000
819.189941	224.100000
819.225037	220.500000
819.260193	217.300000
819.295227	218.800000
819.330322	216.900000
819.365479	215.800000
819.400513	249.800000
819.435608	213.600000
819.470764	213.100000
819.505798	215.500000
819.540894	218.300000
819.575989	214.800000
819.611084	220.200000
819.646179	222.800000
819.681213	218.300000
819.716309	214.600000
819.751404	214.100000
819.786438	220.100000
819.821533	212.000000
819.856628	215.100000
819.891663	219.200000
819.926758	224.300000
819.961853	219.600000
819.996887	211.100000
820.031982	215.900000
820.067017	213.400000
820.102112	246.200000
820.137207	211.900000
820.172302	222.800000
820.207275	208.700000
820.242371	208.700000
820.277405	209.700000
820.312500	210.900000
820.347534	212.300000
820.382568	215.500000
820.417664	208.900000
820.452759	209.000000
820.487732	208.700000
820.522827	207.700000
820.557861	205.500000
820.592896	205.900000
820.627930	209.200000
820.662964	206.300000
820.698059	210.500000
820.733093	206.100000
820.768127	210.500000
820.803162	207.300000
820.838196	206.400000
820.873230	207.100000
820.908264	208.800000
820.943298	204.900000
820.978333	209.400000
821.013367	206.900000
821.048401	210.600000
821.083435	209.700000
821.118469	201.600000
821.153503	208.300000
821.188477	207.600000
821.223511	199.900000
821.258484	206.300000
821.293579	205.600000
821.328613	201.100000
821.363647	205.000000
821.398621	200.900000
821.433655	202.600000
821.468628	215.100000
821.503662	204.000000
821.538696	206.400000
821.573669	199.700000
821.608704	206.100000
821.643677	203.200000
821.678650	205.200000
821.713684	211.400000
821.748718	202.800000
821.783691	203.300000
821.818726	203.100000
821.853638	205.100000
821.888672	201.600000
821.923706	202.200000
821.958618	201.500000
821.993652	201.700000
822.028687	207.000000
822.063599	209.900000
822.098633	202.500000
822.133667	198.600000
822.168579	202.500000
822.203613	203.800000
822.238586	198.600000
822.273560	205.200000
822.308533	199.200000
822.343567	200.300000
822.378479	200.700000
822.413452	200.600000
822.448425	199.100000
822.483398	204.900000
822.518372	204.000000
822.553345	198.700000
822.588318	208.200000
822.623291	200.500000
822.658203	199.400000
822.693237	201.700000
822.728210	198.300000
822.763123	201.900000
822.798096	198.300000
822.833069	200.000000
822.867981	199.500000
822.902954	202.600000
822.937927	203.800000
822.972900	208.400000
823.007874	195.400000
823.042725	205.100000
823.077698	209.200000
823.112671	197.700000
823.147583	200.900000
823.182556	202.400000
823.217529	204.300000
823.252441	198.200000
823.287415	208.900000
823.322388	202.600000
823.357239	200.500000
823.392212	205.200000
823.427185	207.000000
823.462097	197.900000
823.497009	202.200000
823.531982	198.300000
823.566895	200.600000
823.601807	196.500000
823.636719	199.800000
823.671631	202.800000
823.706604	198.100000
823.741455	203.000000
823.776428	195.300000
823.811340	201.600000
823.846252	207.100000
823.881165	206.000000
823.916138	199.300000
823.950989	206.400000
823.985901	197.700000
824.020813	201.100000
824.055725	199.800000
824.090637	195.400000
824.125610	201.700000
824.160461	202.100000
824.195374	200.900000
824.230225	203.700000
824.265198	195.200000
824.300110	197.800000
824.334961	206.700000
824.369873	192.400000
824.404785	201.300000
824.439636	203.400000
824.474548	193.900000
824.509460	192.600000
824.544312	203.800000
824.579224	200.800000
824.614075	201.100000
824.648987	197.600000
824.683899	199.000000
824.718811	196.900000
824.753662	202.000000
824.788574	203.000000
824.823364	198.700000
824.858276	196.000000
824.893188	202.700000
824.928040	202.400000
824.962952	199.700000
824.997803	201.600000
825.032654	198.200000
825.067566	200.200000
825.102417	194.400000
825.137268	196.400000
825.172119	196.400000
825.206970	195.900000
825.241882	195.600000
825.276733	194.300000
825.311646	194.900000
825.346436	193.200000
825.381348	193.200000
825.416138	197.200000
825.450989	194.700000
825.485901	188.900000
825.520691	190.000000
825.555542	192.000000
825.590454	194.700000
825.625244	190.100000
825.660095	201.300000
825.695007	198.500000
825.729797	194.500000
825.764648	191.300000
825.799438	194.000000
825.834290	195.200000
825.869202	190.700000
825.903992	195.800000
825.938843	192.100000
825.973694	190.200000
826.008484	202.300000
826.043335	189.600000
826.078186	188.200000
826.112976	197.200000
826.147827	197.200000
826.182678	200.800000
826.217468	188.700000
826.252319	198.700000
826.287109	190.500000
826.321899	195.600000
826.356750	191.700000
826.391541	188.600000
826.426392	196.400000
826.461182	190.500000
826.495972	186.900000
826.530823	185.600000
826.565613	194.600000
826.600403	187.100000
826.635254	194.500000
826.670044	184.900000
826.704834	186.500000
826.739685	187.300000
826.774475	193.400000
826.809265	191.200000
826.844055	190.100000
826.878906	195.600000
826.913635	192.700000
826.948425	193.200000
826.983215	192.000000
827.018005	195.000000
827.052856	191.100000
827.087585	194.500000
827.122375	187.000000
827.157227	190.500000
827.191956	203.200000
827.226746	188.400000
827.261536	194.100000
827.296265	186.100000
827.331116	190.800000
827.365906	194.300000
827.400635	188.000000
827.435425	185.200000
827.470215	196.400000
827.504944	191.200000
827.539734	195.100000
827.574463	191.100000
827.609253	198.200000
827.644043	192.100000
827.678772	194.700000
827.713562	191.300000
827.748352	189.600000
827.783081	188.900000
827.817871	193.300000
827.852600	188.200000
827.887329	192.000000
827.922119	185.000000
827.956848	193.200000
827.991638	202.600000
828.026367	191.100000
828.061157	192.300000
828.095886	190.800000
828.130615	203.800000
828.165344	184.300000
828.200073	190.700000
828.234863	190.500000
828.269592	191.300000
828.304321	194.100000
828.339111	190.600000
828.373779	189.000000
828.408569	193.500000
828.443298	195.100000
828.477966	190.700000
828.512756	192.900000
828.547424	188.300000
828.582214	191.500000
828.616943	190.000000
828.651672	191.700000
828.686340	195.000000
828.721130	189.100000
828.755798	191.800000
828.790527	191.800000
828.825256	191.300000
828.859924	192.200000
828.894714	195.800000
828.929443	199.200000
828.964111	189.200000
828.998840	194.300000
829.033569	189.400000
829.068237	190.400000
829.102966	190.100000
829.137634	191.900000
829.172363	192.000000
829.207092	191.000000
829.241821	187.800000
829.276489	186.300000
829.311157	191.500000
829.345825	189.900000
829.380554	194.900000
829.415283	188.900000
829.449951	186.800000
829.484619	198.700000
829.519348	196.300000
829.554016	192.300000
829.588745	192.000000
829.623413	187.600000
829.658081	199.000000
829.692749	187.200000
829.727417	194.400000
829.762146	190.900000
829.796814	188.200000
829.831482	190.300000
829.866150	192.300000
829.900879	189.500000
829.935486	193.600000
829.970154	189.200000
830.004883	200.200000
830.039490	193.100000
830.074219	187.500000
830.108887	192.200000
830.143494	191.100000
830.178223	186.500000
830.212891	190.600000
830.247498	191.800000
830.282166	198.200000
830.316772	195.900000
830.351501	189.400000
830.386169	191.100000
830.420776	190.500000
830.455444	191.400000
830.490112	189.100000
830.524719	186.500000
830.559387	193.400000
830.594055	192.000000
830.628662	190.900000
830.663330	189.300000
830.697998	197.800000
830.732605	190.000000
830.767273	192.900000
830.801941	189.600000
830.836487	199.400000
830.871155	192.500000
830.905762	192.900000
830.940430	186.800000
830.975098	188.500000
831.009644	191.500000
831.044312	197.800000
831.078979	192.200000
831.113525	184.900000
831.148193	191.700000
831.182861	189.800000
831.217407	194.000000
831.252075	202.700000
831.286621	189.300000
831.321289	188.000000
831.355896	192.300000
831.390564	197.600000
831.425110	191.800000
831.459778	196.000000
831.494324	201.000000
831.528931	194.500000
831.563599	195.900000
831.598145	186.800000
831.632751	191.200000
831.667419	191.200000
831.701965	192.200000
831.736572	194.200000
831.771179	188.100000
831.805786	189.400000
831.840393	196.000000
831.874939	186.100000
831.909546	194.000000
831.944153	185.500000
831.978760	191.200000
832.013306	187.200000
832.047913	196.400000
832.082458	198.100000
832.117065	188.900000
832.151672	199.700000
832.186218	192.100000
832.220825	192.900000
832.255432	185.600000
832.289978	190.000000
832.324585	192.300000
832.359192	192.800000
832.393677	191.300000
832.428284	191.700000
832.462830	189.000000
832.497437	189.600000
832.531982	193.200000
832.566589	190.300000
832.601135	193.400000
832.635681	184.400000
832.670227	191.100000
832.704773	197.800000
832.739380	192.200000
832.773926	192.600000
832.808472	188.900000
832.843079	192.100000
832.877563	193.300000
832.912170	190.400000
832.946716	186.400000
832.981201	195.100000
833.015808	194.500000
833.050293	190.300000
833.084839	187.800000
833.119446	189.900000
833.153992	195.300000
833.188477	190.300000
833.223022	189.400000
833.257568	192.500000
833.292114	195.400000
833.326660	200.100000
833.361145	189.500000
833.395691	185.100000
833.430237	190.500000
833.464783	192.500000
833.499329	188.100000
833.533875	187.900000
833.568359	193.500000
833.602905	194.700000
833.637390	195.000000
833.671875	188.600000
833.706421	188.700000
833.740906	188.500000
833.775452	183.800000
833.809998	188.700000
833.844482	196.700000
833.879028	190.000000
833.913513	188.200000
833.947998	195.400000
833.982544	186.800000
834.017090	188.900000
834.051514	182.900000
834.086060	192.700000
834.120544	190.700000
834.155029	193.200000
834.189575	190.400000
834.223999	192.600000
834.258545	191.200000
834.293030	191.000000
834.327515	191.600000
834.362000	189.000000
834.396545	194.300000
834.430969	190.600000
834.465454	194.700000
834.500000	185.900000
834.534424	192.700000
834.568970	184.900000
834.603455	185.500000
834.637878	187.800000
834.672363	192.100000
834.706909	191.400000
834.741333	191.700000
834.775818	186.900000
834.810242	187.500000
834.844727	191.200000
834.879211	190.100000
834.913635	190.400000
834.948181	192.200000
834.982666	192.100000
835.017090	190.400000
835.051575	192.300000
835.086060	188.800000
835.120483	194.100000
835.154907	192.900000
835.189331	190.800000
835.223816	195.100000
835.258301	186.300000
835.292786	188.000000
835.327209	193.600000
835.361694	188.000000
835.396057	188.500000
835.430542	192.600000
835.465027	191.100000
835.499390	188.300000
835.533875	216.800000
835.568359	187.900000
835.602722	186.000000
835.637207	192.800000
835.671692	186.600000
835.706055	205.900000
835.740540	192.100000
835.774902	191.800000
835.809387	192.400000
835.843811	186.300000
835.878235	197.100000
835.912659	188.300000
835.947083	189.000000
835.981506	191.500000
836.015930	186.400000
836.050354	194.200000
836.084778	198.100000
836.119202	195.100000
836.153625	204.100000
836.187988	187.100000
836.222473	189.000000
836.256897	190.900000
836.291260	188.800000
836.325684	192.800000
836.360046	189.600000
836.394470	190.500000
836.428894	197.700000
836.463318	187.300000
836.497681	193.200000
836.532104	196.000000
836.566467	191.400000
836.600891	189.000000
836.635315	195.900000
836.669678	191.800000
836.704102	194.700000
836.738525	192.700000
836.772888	184.900000
836.807251	188.800000
836.841675	193.800000
836.876038	188.300000
836.910461	187.400000
836.944763	194.200000
836.979187	188.000000
837.013611	195.700000
837.047974	187.100000
837.082336	201.100000
837.116699	193.000000
837.151062	191.600000
837.185486	186.400000
837.219849	190.800000
837.254211	194.200000
837.288574	191.800000
837.322937	188.200000
837.357300	183.000000
837.391663	200.000000
837.426086	195.900000
837.460388	191.400000
837.494751	194.500000
837.529114	189.800000
837.563477	197.700000
837.597839	191.200000
837.632141	190.000000
837.666565	188.600000
837.700928	194.200000
837.735229	192.300000
837.769592	193.900000
837.803955	192.700000
837.838257	189.500000
837.872620	188.200000
837.906982	198.000000
837.941284	191.300000
837.975647	192.900000
838.010010	195.900000
838.044312	190.900000
838.078674	188.600000
838.112976	192.500000
838.147339	192.000000
838.181702	191.900000
838.216003	198.100000
838.250366	192.800000
838.284668	194.000000
838.318970	184.600000
838.353333	191.400000
838.387634	190.700000
838.421936	191.500000
838.456299	192.200000
838.490601	195.700000
838.524902	195.200000
838.559265	196.100000
838.593567	195.500000
838.627869	187.100000
838.662170	193.500000
838.696472	186.100000
838.730774	187.700000
838.765137	195.400000
838.799377	180.700000
838.833740	191.300000
838.868042	195.300000
838.902283	186.000000
838.936646	196.000000
838.970947	191.900000
839.005188	197.500000
839.039551	185.900000
839.073792	196.700000
839.108093	189.600000
839.142395	198.700000
839.176697	186.400000
839.210937	192.200000
839.245300	198.900000
839.279541	187.000000
839.313843	190.000000
839.348145	193.000000
839.382385	195.100000
839.416687	195.200000
839.450989	193.100000
839.485229	189.900000
839.519531	188.200000
839.553833	195.400000
839.588013	192.000000
839.622314	193.000000
839.656555	192.700000
839.690857	190.600000
839.725159	187.400000
839.759460	192.100000
839.793640	189.400000
839.827942	191.100000
839.862183	187.900000
839.896423	193.700000
839.930725	202.500000
839.964966	198.200000
839.999207	194.100000
840.033508	197.600000
840.067688	189.100000
840.101990	197.500000
840.136230	190.800000
840.170471	197.800000
840.204712	188.500000
840.238953	189.400000
840.273193	191.300000
840.307434	195.500000
840.341736	188.700000
840.375916	186.300000
840.410217	188.200000
840.444397	196.600000
840.478638	192.700000
840.512878	195.900000
840.547119	192.800000
840.581360	194.900000
840.615601	197.600000
840.649780	201.300000
840.684021	190.300000
840.718262	198.300000
840.752441	196.800000
840.786682	192.900000
840.820862	192.400000
840.855103	198.300000
840.889343	191.300000
840.923584	196.600000
840.957764	193.500000
840.992004	193.800000
841.026184	204.200000
841.060425	189.800000
841.094666	189.000000
841.128845	194.100000
841.163025	192.500000
841.197266	193.800000
841.231445	192.000000
841.265686	193.100000
841.299866	189.200000
841.334045	198.000000
841.368286	190.600000
841.402405	197.800000
841.436646	194.400000
841.470825	189.200000
841.505005	192.000000
841.539185	188.200000
841.573425	189.300000
841.607544	191.000000
841.641785	190.900000
841.675964	187.200000
841.710144	193.000000
841.744324	189.800000
841.778503	190.800000
841.812683	188.200000
841.846863	197.600000
841.881042	197.800000
841.915222	189.800000
841.949402	202.700000
841.983521	185.400000
842.017700	189.600000
842.051880	191.200000
842.086060	194.000000
842.120239	192.000000
842.154419	188.900000
842.188538	192.100000
842.222717	189.600000
842.256897	198.600000
842.291016	190.100000
842.325195	193.100000
842.359375	199.200000
842.393494	198.200000
842.427673	192.700000
842.461853	192.300000
842.495911	198.100000
842.530090	193.600000
842.564209	190.800000
842.598389	193.200000
842.632568	193.100000
842.666626	193.600000
842.700806	190.200000
842.734985	189.900000
842.769043	193.800000
842.803223	191.500000
842.837402	191.300000
842.871460	190.300000
842.905640	200.600000
842.939697	187.900000
842.973877	193.400000
843.007996	196.900000
843.042175	199.200000
843.076233	189.500000
843.110413	195.600000
843.144470	198.500000
843.178589	196.000000
843.212769	189.500000
843.246826	195.400000
843.280945	190.300000
843.315125	192.000000
843.349182	188.700000
843.383301	196.900000
843.417419	201.500000
843.451538	191.600000
843.485657	189.600000
843.519714	191.500000
843.553833	191.500000
843.587952	191.300000
843.622070	189.200000
843.656128	192.200000
843.690247	189.600000
843.724304	192.200000
843.758423	192.800000
843.792542	189.200000
843.826599	191.800000
843.860718	189.600000
843.894836	185.400000
843.928894	192.100000
843.963013	193.100000
843.997070	188.800000
844.031128	187.500000
844.065247	195.700000
844.099304	194.900000
844.133362	193.000000
844.167480	195.200000
844.201599	196.900000
844.235596	192.700000
844.269714	194.800000
844.303711	192.600000
844.337830	185.100000
844.371948	193.500000
844.405945	190.600000
844.440063	188.700000
844.474121	202.700000
844.508118	190.700000
844.542236	190.200000
844.576294	190.300000
844.610352	187.100000
844.644409	190.900000
844.678406	185.400000
844.712524	196.100000
844.746582	196.200000
844.780640	190.800000
844.814636	190.800000
844.848755	201.700000
844.882751	189.600000
844.916809	195.500000
844.950867	192.100000
844.984863	198.100000
845.018921	188.800000
845.052979	189.400000
845.086975	192.800000
845.121033	186.900000
845.155090	189.600000
845.189087	197.600000
845.223145	189.200000
845.257141	194.900000
845.291199	193.200000
845.325256	197.000000
845.359253	194.400000
845.393250	203.000000
845.427307	191.500000
845.461304	193.800000
845.495361	192.700000
845.529358	200.400000
845.563354	190.200000
845.597412	188.200000
845.631409	199.000000
845.665405	197.200000
845.699463	196.100000
845.733459	190.200000
845.767456	201.300000
845.801453	191.700000
845.835449	196.300000
845.869446	194.600000
845.903503	194.800000
845.937439	188.600000
845.971497	198.300000
846.005493	187.500000
846.039429	196.900000
846.073486	199.500000
846.107483	190.200000
846.141418	190.900000
846.175476	192.700000
846.209473	197.000000
846.243408	188.500000
846.277405	189.600000
846.311401	188.600000
846.345337	191.400000
846.379395	197.300000
846.413330	189.400000
846.447327	200.800000
846.481323	188.400000
846.515259	190.000000
846.549255	190.500000
846.583252	195.100000
846.617187	189.000000
846.651184	195.200000
846.685120	190.300000
846.719055	199.300000
846.753052	195.300000
846.786987	195.300000
846.820984	187.900000
846.854980	196.900000
846.888916	188.300000
846.922852	193.400000
846.956848	197.500000
846.990723	188.900000
847.024719	193.000000
847.058716	191.200000
847.092590	196.700000
847.126587	194.100000
847.160522	190.500000
847.194458	197.000000
847.228455	188.500000
847.262390	187.200000
847.296265	191.000000
847.330261	194.900000
847.364136	190.400000
847.398132	190.100000
847.432068	193.900000
847.466003	189.900000
847.499939	190.700000
847.533875	193.700000
847.567749	190.700000
847.601746	189.900000
847.635681	193.100000
847.669556	185.600000
847.703491	197.100000
847.737427	201.500000
847.771301	189.200000
847.805237	193.500000
847.839233	193.500000
847.873108	190.400000
847.907043	191.000000
847.940918	198.000000
847.974854	194.300000
848.008789	194.700000
848.042664	190.800000
848.076538	194.300000
848.110474	192.800000
848.144348	191.800000
848.178284	186.000000
848.212219	193.500000
848.246094	190.800000
848.279968	193.500000
848.313904	194.500000
848.347778	193.300000
848.381653	190.800000
848.415588	189.500000
848.449463	187.200000
848.483337	195.300000
848.517212	198.700000
848.551086	193.600000
848.585022	186.500000
848.618835	200.700000
848.652771	190.600000
848.686646	189.100000
848.720520	197.700000
848.754395	191.200000
848.788330	194.900000
848.822144	195.100000
848.856018	188.900000
848.889954	199.400000
848.923767	188.900000
848.957642	188.600000
848.991577	193.400000
849.025391	192.200000
849.059265	190.000000
849.093079	189.000000
849.126953	186.900000
849.160828	196.100000
849.194641	192.500000
849.228577	189.400000
849.262451	191.300000
849.296265	191.600000
849.330139	188.300000
849.364014	192.200000
849.397827	193.100000
849.431702	192.700000
849.465515	195.300000
849.499329	186.200000
849.533203	188.800000
849.567078	185.500000
849.600891	194.600000
849.634766	191.700000
849.668518	195.300000
849.702393	193.500000
849.736267	187.500000
849.770020	198.500000
849.803894	193.100000
849.837769	193.300000
849.871521	192.600000
849.905396	195.000000
849.939270	189.500000
849.973022	189.900000
850.006897	194.400000
850.040710	194.900000
850.074524	195.000000
850.108337	190.700000
850.142151	197.000000
850.175964	196.700000
850.209778	191.600000
850.243530	182.900000
850.277405	195.000000
850.311218	190.700000
850.344971	190.000000
850.378845	196.800000
850.412659	190.400000
850.446411	193.900000
850.480225	192.300000
850.514038	197.300000
850.547791	195.000000
850.581665	191.700000
850.615417	189.400000
850.649231	192.900000
850.683044	190.600000
850.716858	191.100000
850.750610	192.800000
850.784424	194.600000
850.818176	189.800000
850.851929	191.100000
850.885742	189.300000
850.919495	192.600000
850.953308	197.600000
850.987122	198.300000
851.020874	189.700000
851.054626	187.700000
851.088440	194.100000
851.122192	195.600000
851.156006	192.400000
851.189697	191.600000
851.223511	186.800000
851.257263	196.500000
851.291077	193.900000
851.324829	190.600000
851.358582	191.200000
851.392334	191.800000
851.426086	189.500000
851.459900	199.000000
851.493591	192.600000
851.527344	192.900000
851.561157	191.500000
851.594849	194.700000
851.628662	193.700000
851.662415	200.400000
851.696106	193.400000
851.729858	197.700000
851.763611	188.600000
851.797363	193.700000
851.831116	188.800000
851.864868	194.100000
851.898560	196.000000
851.932312	191.000000
851.966064	195.000000
851.999817	192.700000
852.033569	192.200000
852.067261	197.400000
852.101013	190.200000
852.134766	192.400000
852.168457	184.400000
852.202209	196.700000
852.235901	188.100000
852.269592	194.300000
852.303345	199.300000
852.337036	194.600000
852.370789	192.700000
852.404541	195.400000
852.438171	189.100000
852.471924	192.700000
852.505676	188.600000
852.539307	193.500000
852.573059	189.900000
852.606812	192.000000
852.640442	191.300000
852.674194	195.300000
852.707886	201.200000
852.741577	197.400000
852.775269	188.800000
852.809021	192.500000
852.842651	194.200000
852.876404	197.300000
852.910034	193.600000
852.943787	196.100000
852.977478	195.700000
853.011108	189.000000
853.044861	189.500000
853.078552	196.500000
853.112183	194.100000
853.145874	193.500000
853.179626	185.300000
853.213257	192.200000
853.246948	189.800000
853.280640	199.800000
853.314270	191.100000
853.347961	197.300000
853.381653	194.900000
853.415283	197.100000
853.448975	189.000000
853.482605	192.400000
853.516296	190.700000
853.549988	188.300000
853.583618	194.700000
853.617310	193.300000
853.651001	192.500000
853.684631	189.800000
853.718323	190.500000
853.751953	199.100000
853.785583	185.300000
853.819275	195.100000
853.852966	195.000000
853.886536	186.200000
853.920227	188.100000
853.953918	196.100000
853.987488	191.900000
854.021179	196.000000
854.054749	199.600000
854.088440	194.900000
854.122131	189.000000
854.155701	194.300000
854.189331	190.300000
854.223022	195.000000
854.256592	193.500000
854.290283	189.100000
854.323914	194.100000
854.357483	193.400000
854.391174	193.900000
854.424744	197.900000
854.458374	192.100000
854.492065	203.600000
854.525696	192.600000
854.559265	196.400000
854.592896	201.400000
854.626465	191.200000
854.660095	192.200000
854.693787	194.400000
854.727356	191.600000
854.760986	195.500000
854.794617	193.900000
854.828186	193.000000
854.861816	195.100000
854.895447	194.500000
854.929016	192.000000
854.962585	192.800000
854.996155	199.700000
855.029785	194.200000
855.063416	194.400000
855.097046	195.700000
855.130615	187.800000
855.164185	197.200000
855.197754	193.000000
855.231384	194.000000
855.264954	192.000000
855.298523	195.800000
855.332153	193.300000
855.365723	197.200000
855.399292	188.700000
855.432922	191.200000
855.466492	194.400000
855.500061	190.000000
855.533630	190.700000
855.567200	195.100000
855.600769	195.600000
855.634338	196.500000
855.667969	192.500000
855.701477	189.800000
855.735046	189.100000
855.768616	186.100000
855.802185	193.000000
855.835754	203.100000
855.869324	186.000000
855.902893	191.600000
855.936401	196.600000
855.969971	192.600000
856.003540	187.400000
856.037109	194.900000
856.070618	191.500000
856.104187	188.800000
856.137695	190.800000
856.171265	183.800000
856.204834	193.300000
856.238403	196.600000
856.271912	189.900000
856.305481	194.300000
856.338989	188.700000
856.372559	195.100000
856.406128	194.600000
856.439636	195.600000
856.473145	190.900000
856.506653	198.000000
856.540222	192.400000
856.573792	196.900000
856.607300	195.800000
856.640808	189.400000
856.674377	192.100000
856.707825	226.500000
856.741394	197.600000
856.774902	189.600000
856.808472	186.200000
856.841980	195.400000
856.875488	197.700000
856.908936	187.700000
856.942505	192.300000
856.976013	190.900000
857.009521	189.900000
857.043030	193.100000
857.076477	190.500000
857.110046	199.100000
857.143555	192.400000
857.177063	196.000000
857.210571	191.400000
857.244080	187.900000
857.277527	193.900000
857.311035	193.600000
857.344543	196.700000
857.378052	191.400000
857.411499	196.600000
857.445068	198.600000
857.478516	191.800000
857.512024	189.300000
857.545532	190.700000
857.578979	193.300000
857.612427	192.700000
857.645874	190.300000
857.679382	194.900000
857.712891	196.900000
857.746399	192.400000
857.779846	196.800000
857.813354	197.700000
857.846741	193.700000
857.880249	189.200000
857.913757	193.600000
857.947266	193.200000
857.980652	195.000000
858.014160	191.700000
858.047546	191.400000
858.081055	193.000000
858.114563	202.200000
858.147949	189.200000
858.181458	194.500000
858.214844	191.900000
858.248352	186.600000
858.281799	195.300000
858.315308	202.400000
858.348694	196.900000
858.382141	199.600000
858.415588	196.300000
858.449036	195.200000
858.482483	193.200000
858.515930	189.500000
858.549377	192.400000
858.582825	197.700000
858.616211	194.400000
858.649658	194.200000
858.683105	188.800000
858.716553	190.100000
858.750000	188.200000
858.783386	189.500000
858.816833	186.400000
858.850281	193.200000
858.883728	193.800000
858.917114	193.400000
858.950562	199.600000
858.983948	197.100000
859.017395	197.100000
859.050781	192.300000
859.084167	188.400000
859.117615	189.200000
859.151062	195.800000
859.184448	190.500000
859.217834	191.200000
859.251282	189.700000
859.284668	188.500000
859.318054	186.600000
859.351440	191.800000
859.384888	198.000000
859.418274	186.300000
859.451721	186.500000
859.485046	195.900000
859.518494	194.100000
859.551819	189.300000
859.585266	194.300000
859.618652	195.600000
859.652039	187.900000
859.685425	187.500000
859.718811	187.100000
859.752197	184.000000
859.785583	198.000000
859.819031	198.200000
859.852356	193.300000
859.885742	188.900000
859.919067	193.200000
859.952454	190.200000
859.985901	196.400000
860.019287	192.200000
860.052612	0.000000
860.085999	0.000000
860.119324	0.000000
860.152710	0.000000
860.186096	0.000000
860.219421	0.000000
860.252808	0.000000
860.286133	0.000000
860.319519	0.000000
860.352905	0.000000
860.386292	0.000000
860.419617	0.000000
860.452942	0.000000
860.486267	0.000000
860.519653	0.000000
860.553040	0.000000
860.586365	0.000000
860.619690	0.000000
860.653076	0.000000
860.686340	0.000000
860.719727	0.000000
860.753113	0.000000
860.786377	0.000000
860.819763	0.000000
860.853027	0.000000
860.886414	0.000000
860.919739	0.000000
860.953125	0.000000
860.986389	0.000000
861.019714	0.000000
861.053040	0.000000
861.086365	0.000000
861.119690	0.000000
861.153076	0.000000
861.186340	0.000000
861.219666	0.000000
861.252930	0.000000
861.286316	0.000000
861.319641	0.000000
861.352905	0.000000
861.386230	0.000000
861.419495	0.000000
861.452820	0.000000
861.486145	0.000000
861.519470	0.000000
861.552734	0.000000
861.586060	0.000000
861.619324	0.000000
861.652649	0.000000
861.685974	0.000000
861.719238	0.000000
861.752563	0.000000
861.785828	0.000000
861.819092	0.000000
861.852417	0.000000
861.885742	0.000000
861.918945	0.000000
861.952271	0.000000
861.985535	0.000000
862.018799	0.000000
862.052124	0.000000
862.085449	0.000000
862.118652	0.000000
862.151978	0.000000
862.185181	0.000000
862.218506	0.000000
862.251770	0.000000
862.285034	0.000000
862.318298	0.000000
862.351562	0.000000
862.384827	0.000000
862.418091	0.000000
862.451355	0.000000
862.484619	0.000000
862.517883	0.000000
862.551086	0.000000
862.584351	0.000000
862.617676	0.000000
862.650940	0.000000
862.684143	0.000000
862.717407	0.000000
862.750610	0.000000
862.783875	0.000000
862.817139	0.000000
862.850342	0.000000
862.883606	0.000000
862.916870	0.000000
862.950073	0.000000
862.983337	0.000000
863.016602	0.000000
863.049805	0.000000
863.083069	0.000000
863.116211	0.000000
863.149475	0.000000
863.182739	0.000000
863.216003	0.000000
863.249146	0.000000
863.282410	0.000000
863.315613	0.000000
863.348816	0.000000
863.382080	0.000000
863.415222	0.000000
863.448486	0.000000
863.481689	0.000000
863.514893	0.000000
863.548157	0.000000
863.581360	0.000000
863.614502	0.000000
863.647766	0.000000
863.680908	0.000000
863.714172	0.000000
863.747375	0.000000
863.780579	0.000000
863.813721	0.000000
863.846985	0.000000
863.880127	0.000000
863.913330	0.000000
863.946533	0.000000
863.979675	0.000000
864.012939	0.000000
