Model Number: SPM-001-M   
Serial Number: 10090201
Firmware Version: 004.17.6
Exposure Time: 300000.000000us
Data Taken on: 21-01-2021 14:16:41.285
Wavelength	Amplitude
733.770752	0.000000
733.808716	0.000000
733.846619	0.000000
733.884583	0.000000
733.922546	0.000000
733.960449	0.000000
733.998413	0.000000
734.036377	0.000000
734.074219	0.000000
734.112183	0.000000
734.150085	0.000000
734.188049	0.000000
734.226013	0.000000
734.263916	0.000000
734.301819	0.000000
734.339783	0.000000
734.377686	0.000000
734.415588	0.000000
734.453552	0.000000
734.491455	0.000000
734.529419	0.000000
734.567322	0.000000
734.605225	0.000000
734.643127	0.000000
734.681091	0.000000
734.718994	0.000000
734.756897	0.000000
734.794800	0.000000
734.832703	0.000000
734.870667	0.000000
734.908508	0.000000
734.946472	0.000000
734.984375	0.000000
735.022278	0.000000
735.060181	0.000000
735.098083	0.000000
735.135986	0.000000
735.173889	0.000000
735.211792	0.000000
735.249695	0.000000
735.287598	0.000000
735.325439	0.000000
735.363403	0.000000
735.401306	0.000000
735.439148	0.000000
735.477051	0.000000
735.515015	0.000000
735.552856	0.000000
735.590759	0.000000
735.628662	0.000000
735.666504	0.000000
735.704407	0.000000
735.742310	0.000000
735.780212	0.000000
735.818115	0.000000
735.856018	0.000000
735.893860	0.000000
735.931763	0.000000
735.969604	0.000000
736.007507	0.000000
736.045410	0.000000
736.083252	0.000000
736.121094	0.000000
736.158997	0.000000
736.196838	0.000000
736.234741	0.000000
736.272644	0.000000
736.310486	0.000000
736.348389	0.000000
736.386230	0.000000
736.424072	0.000000
736.461975	0.000000
736.499878	0.000000
736.537720	0.000000
736.575562	0.000000
736.613403	0.000000
736.651306	0.000000
736.689148	0.000000
736.726990	0.000000
736.764893	0.000000
736.802734	0.000000
736.840576	0.000000
736.878418	0.000000
736.916321	0.000000
736.954102	0.000000
736.992004	0.000000
737.029846	0.000000
737.067688	0.000000
737.105530	0.000000
737.143372	0.000000
737.181213	0.000000
737.219116	0.000000
737.256897	0.000000
737.294739	0.000000
737.332642	0.000000
737.370422	0.000000
737.408325	0.000000
737.446167	0.000000
737.483948	0.000000
737.521790	0.000000
737.559692	0.000000
737.597473	0.000000
737.635315	0.000000
737.673157	0.000000
737.710999	0.000000
737.748840	0.000000
737.786621	0.000000
737.824463	0.000000
737.862305	0.000000
737.900085	0.000000
737.937927	0.000000
737.975769	0.000000
738.013550	0.000000
738.051392	0.000000
738.089233	0.000000
738.127014	0.000000
738.164856	0.000000
738.202698	0.000000
738.240479	0.000000
738.278320	0.000000
738.316162	0.000000
738.353943	0.000000
738.391785	0.000000
738.429565	0.000000
738.467407	0.000000
738.505188	0.000000
738.542969	0.000000
738.580811	0.000000
738.618652	0.000000
738.656372	0.000000
738.694214	0.000000
738.732056	0.000000
738.769836	0.000000
738.807617	0.000000
738.845459	0.000000
738.883240	0.000000
738.921021	0.000000
738.958862	0.000000
738.996582	0.000000
739.034424	0.000000
739.072205	0.000000
739.109985	0.000000
739.147827	0.000000
739.185547	0.000000
739.223389	0.000000
739.261169	0.000000
739.298889	0.000000
739.336731	0.000000
739.374512	0.000000
739.412292	0.000000
739.450073	0.000000
739.487854	0.000000
739.525635	0.000000
739.563416	0.000000
739.601135	0.000000
739.638977	0.000000
739.676758	0.000000
739.714478	0.000000
739.752258	0.000000
739.790100	0.000000
739.827820	0.000000
739.865601	0.000000
739.903381	0.000000
739.941101	0.000000
739.978882	193.700000
740.016724	190.300000
740.054443	193.100000
740.092224	189.500000
740.130005	187.400000
740.167725	188.400000
740.205505	188.600000
740.243225	196.400000
740.281006	190.600000
740.318787	187.200000
740.356506	195.200000
740.394287	193.900000
740.432068	189.100000
740.469727	186.700000
740.507507	193.600000
740.545288	191.800000
740.583008	192.300000
740.620789	191.500000
740.658569	185.300000
740.696228	191.600000
740.734009	195.200000
740.771790	182.200000
740.809509	193.700000
740.847229	187.300000
740.884949	190.000000
740.922729	186.500000
740.960449	191.100000
740.998169	189.100000
741.035950	188.000000
741.073669	191.400000
741.111389	193.700000
741.149170	199.000000
741.186890	197.600000
741.224609	195.400000
741.262329	193.000000
741.300110	198.800000
741.337769	188.800000
741.375549	186.100000
741.413208	193.100000
741.450989	188.000000
741.488708	188.500000
741.526367	189.100000
741.564148	194.600000
741.601868	192.900000
741.639526	191.700000
741.677307	193.000000
741.715027	194.100000
741.752686	187.200000
741.790466	198.100000
741.828186	192.200000
741.865845	187.700000
741.903564	185.800000
741.941345	191.600000
741.979004	187.300000
742.016724	196.200000
742.054382	191.600000
742.092102	195.500000
742.129822	185.800000
742.167480	190.400000
742.205200	190.300000
742.242920	193.800000
742.280640	193.900000
742.318359	187.700000
742.356079	190.600000
742.393738	194.600000
742.431396	190.700000
742.469116	195.000000
742.506775	183.200000
742.544495	193.200000
742.582214	195.300000
742.619873	192.100000
742.657593	196.700000
742.695251	195.700000
742.732971	190.700000
742.770630	193.600000
742.808289	193.300000
742.846008	190.900000
742.883728	194.000000
742.921326	191.900000
742.959045	190.100000
742.996765	191.000000
743.034424	192.000000
743.072083	189.800000
743.109802	190.100000
743.147400	186.300000
743.185120	192.500000
743.222839	190.600000
743.260437	197.400000
743.298157	192.200000
743.335754	187.100000
743.373474	189.900000
743.411133	186.200000
743.448792	191.300000
743.486450	192.100000
743.524170	185.700000
743.561768	191.200000
743.599487	195.000000
743.637146	198.600000
743.674744	189.400000
743.712463	191.400000
743.750122	189.800000
743.787720	192.000000
743.825439	188.700000
743.863037	189.400000
743.900696	191.700000
743.938416	217.100000
743.976013	190.200000
744.013672	199.000000
744.051331	195.000000
744.088928	198.500000
744.126587	196.600000
744.164307	192.400000
744.201904	189.000000
744.239563	192.400000
744.277222	195.800000
744.314819	192.000000
744.352478	197.200000
744.390137	193.100000
744.427734	193.900000
744.465393	189.600000
744.502991	187.600000
744.540649	194.900000
744.578308	192.000000
744.615906	187.400000
744.653564	182.700000
744.691223	193.000000
744.728821	186.800000
744.766418	190.800000
744.804077	191.800000
744.841675	189.200000
744.879333	187.200000
744.916992	189.500000
744.954529	191.000000
744.992187	194.400000
745.029785	189.300000
745.067444	189.300000
745.105042	192.400000
745.142639	192.900000
745.180298	198.700000
745.217896	190.100000
745.255493	191.000000
745.293152	195.400000
745.330750	196.600000
745.368347	196.500000
745.405945	194.800000
745.443604	191.100000
745.481140	194.000000
745.518799	191.900000
745.556396	194.400000
745.593994	194.100000
745.631592	192.200000
745.669189	187.000000
745.706787	192.600000
745.744385	189.100000
745.781982	195.100000
745.819580	190.400000
745.857178	191.200000
745.894775	191.800000
745.932373	192.400000
745.969971	193.600000
746.007568	186.200000
746.045166	197.800000
746.082764	196.100000
746.120300	193.700000
746.157898	192.900000
746.195557	190.900000
746.233093	187.000000
746.270691	193.500000
746.308228	192.300000
746.345825	196.100000
746.383423	193.800000
746.420959	189.600000
746.458557	188.900000
746.496155	190.700000
746.533691	191.100000
746.571289	188.000000
746.608887	190.600000
746.646423	191.900000
746.684021	191.300000
746.721619	188.400000
746.759155	193.000000
746.796753	186.300000
746.834351	187.700000
746.871826	190.200000
746.909424	195.900000
746.946960	191.500000
746.984558	191.600000
747.022156	188.900000
747.059631	198.100000
747.097229	192.800000
747.134827	188.900000
747.172363	195.600000
747.209900	194.400000
747.247498	187.700000
747.285034	197.000000
747.322571	197.300000
747.360168	189.500000
747.397644	186.300000
747.435242	194.100000
747.472778	195.500000
747.510315	188.300000
747.547913	191.400000
747.585388	196.400000
747.622925	189.500000
747.660522	186.800000
747.697998	188.900000
747.735596	191.300000
747.773132	189.900000
747.810669	191.900000
747.848206	193.200000
747.885742	188.500000
747.923279	187.000000
747.960815	192.500000
747.998352	191.900000
748.035889	196.200000
748.073425	193.600000
748.110901	191.100000
748.148437	187.300000
748.185974	190.800000
748.223511	197.800000
748.261047	194.800000
748.298584	192.100000
748.336060	191.200000
748.373596	193.300000
748.411133	217.100000
748.448608	189.100000
748.486145	193.700000
748.523682	196.100000
748.561218	198.100000
748.598755	192.300000
748.636292	193.300000
748.673706	190.700000
748.711243	197.800000
748.748718	193.000000
748.786255	191.700000
748.823792	190.900000
748.861267	187.900000
748.898804	194.000000
748.936340	193.100000
748.973816	189.700000
749.011292	198.600000
749.048828	192.700000
749.086304	193.600000
749.123840	199.800000
749.161316	188.400000
749.198792	200.100000
749.236328	196.600000
749.273743	191.800000
749.311279	189.600000
749.348816	195.200000
749.386230	191.700000
749.423767	184.400000
749.461304	195.200000
749.498718	192.300000
749.536255	195.900000
749.573730	200.500000
749.611206	197.500000
749.648682	191.300000
749.686218	191.400000
749.723633	194.300000
749.761169	190.200000
749.798645	189.200000
749.836060	190.100000
749.873596	188.900000
749.911011	192.800000
749.948547	196.200000
749.986023	191.600000
750.023437	190.500000
750.060913	187.000000
750.098450	186.900000
750.135864	191.700000
750.173340	193.100000
750.210815	195.500000
750.248291	188.300000
750.285767	191.900000
750.323242	195.500000
750.360657	194.500000
750.398132	187.800000
750.435608	195.800000
750.473022	188.700000
750.510498	189.900000
750.547974	188.500000
750.585449	191.900000
750.622925	183.900000
750.660339	202.100000
750.697815	192.700000
750.735291	190.300000
750.772644	190.100000
750.810120	194.200000
750.847595	193.400000
750.885010	188.000000
750.922485	197.000000
750.959961	191.500000
750.997375	196.300000
751.034851	195.300000
751.072266	194.700000
751.109680	187.100000
751.147156	195.200000
751.184570	193.100000
751.221985	190.500000
751.259460	186.600000
751.296875	190.100000
751.334290	191.300000
751.371765	195.700000
751.409180	195.200000
751.446594	196.600000
751.484070	193.300000
751.521423	193.600000
751.558899	192.300000
751.596375	198.400000
751.633728	197.400000
751.671204	200.000000
751.708618	190.200000
751.746033	192.200000
751.783447	187.500000
751.820801	190.600000
751.858276	194.600000
751.895691	191.600000
751.933105	191.200000
751.970520	188.500000
752.007935	190.000000
752.045349	196.700000
752.082764	192.200000
752.120178	188.900000
752.157532	189.100000
752.195007	190.400000
752.232422	192.500000
752.269775	195.700000
752.307190	194.200000
752.344543	188.000000
752.382019	191.700000
752.419434	190.500000
752.456787	192.600000
752.494202	197.400000
752.531616	192.400000
752.568970	193.200000
752.606384	192.100000
752.643799	193.400000
752.681152	196.600000
752.718567	194.700000
752.755981	186.000000
752.793335	194.300000
752.830750	185.200000
752.868164	195.800000
752.905518	187.300000
752.942932	195.000000
752.980225	188.000000
753.017639	195.000000
753.055054	194.400000
753.092407	192.900000
753.129822	194.700000
753.167175	198.400000
753.204529	190.800000
753.241943	189.300000
753.279358	188.600000
753.316650	194.600000
753.354065	192.800000
753.391479	196.300000
753.428772	197.600000
753.466187	192.700000
753.503479	189.600000
753.540894	190.800000
753.578308	188.500000
753.615601	188.100000
753.653015	191.600000
753.690369	189.800000
753.727722	189.700000
753.765076	186.800000
753.802490	188.400000
753.839783	186.500000
753.877136	190.200000
753.914551	201.000000
753.951843	189.300000
753.989258	194.700000
754.026611	192.700000
754.063904	193.600000
754.101257	189.100000
754.138611	185.100000
754.175964	192.300000
754.213318	198.800000
754.250610	185.100000
754.288025	189.900000
754.325378	188.900000
754.362671	195.200000
754.400024	192.600000
754.437378	198.100000
754.474670	197.500000
754.512085	189.100000
754.549438	192.700000
754.586731	190.500000
754.624084	191.500000
754.661438	188.000000
754.698730	199.100000
754.736084	190.500000
754.773376	190.800000
754.810730	193.600000
754.848083	190.900000
754.885315	195.300000
754.922668	185.900000
754.960022	188.800000
754.997314	195.300000
755.034668	193.000000
755.072021	193.300000
755.109253	189.400000
755.146606	196.400000
755.183960	190.700000
755.221252	197.200000
755.258545	195.100000
755.295898	197.600000
755.333191	196.200000
755.370544	193.900000
755.407776	194.000000
755.445129	192.200000
755.482422	195.400000
755.519714	189.900000
755.557068	186.700000
755.594360	185.200000
755.631653	196.000000
755.668945	197.000000
755.706299	194.000000
755.743530	201.000000
755.780884	197.400000
755.818176	195.600000
755.855408	196.900000
755.892761	192.900000
755.930054	193.300000
755.967346	194.100000
756.004639	192.700000
756.041870	192.700000
756.079224	197.900000
756.116516	189.100000
756.153748	194.900000
756.191040	199.600000
756.228394	193.700000
756.265625	190.200000
756.302917	193.600000
756.340210	190.000000
756.377441	197.400000
756.414795	199.500000
756.452087	193.800000
756.489319	189.100000
756.526611	197.900000
756.563843	195.100000
756.601135	200.600000
756.638428	202.000000
756.675659	194.200000
756.712952	197.900000
756.750244	196.500000
756.787476	194.600000
756.824768	197.600000
756.862061	195.100000
756.899292	240.800000
756.936584	198.400000
756.973816	201.900000
757.011047	204.500000
757.048340	194.400000
757.085632	195.200000
757.122864	208.500000
757.160156	192.400000
757.197327	196.200000
757.234619	200.200000
757.271912	192.100000
757.309082	199.800000
757.346375	190.600000
757.383667	199.500000
757.420837	195.700000
757.458130	196.200000
757.495422	193.800000
757.532593	197.800000
757.569885	189.900000
757.607117	194.500000
757.644348	198.000000
757.681580	207.900000
757.718811	187.500000
757.756042	196.600000
757.793335	193.200000
757.830505	198.400000
757.867798	194.600000
757.905029	194.900000
757.942200	197.900000
757.979492	194.000000
758.016724	195.400000
758.053894	194.900000
758.091187	208.800000
758.128418	197.100000
758.165588	195.300000
758.202820	206.900000
758.240112	197.400000
758.277283	205.700000
758.314514	199.100000
758.351685	196.100000
758.388916	203.700000
758.426147	204.200000
758.463379	204.200000
758.500610	198.500000
758.537842	198.600000
758.575012	202.200000
758.612244	195.700000
758.649475	208.200000
758.686646	194.400000
758.723877	204.000000
758.761108	203.900000
758.798279	197.000000
758.835510	201.900000
758.872742	203.000000
758.909851	201.000000
758.947083	200.800000
758.984253	200.900000
759.021484	203.000000
759.058716	202.600000
759.095886	201.600000
759.133057	200.700000
759.170288	201.000000
759.207458	198.900000
759.244690	208.000000
759.281860	206.700000
759.319031	202.000000
759.356262	199.700000
759.393433	199.700000
759.430603	200.400000
759.467773	199.900000
759.505005	205.600000
759.542175	206.300000
759.579346	200.600000
759.616516	203.000000
759.653687	206.700000
759.690918	198.700000
759.728027	202.800000
759.765259	204.000000
759.802429	205.700000
759.839539	204.600000
759.876770	207.400000
759.913940	211.500000
759.951111	203.300000
759.988281	204.800000
760.025452	201.100000
760.062561	202.400000
760.099792	211.100000
760.136963	207.100000
760.174072	202.400000
760.211243	200.100000
760.248413	200.600000
760.285583	200.600000
760.322754	211.800000
760.359863	209.300000
760.397034	207.900000
760.434204	205.100000
760.471375	203.800000
760.508545	204.500000
760.545715	204.100000
760.582825	202.000000
760.619995	207.600000
760.657166	202.300000
760.694275	210.000000
760.731445	206.100000
760.768555	207.600000
760.805664	208.900000
760.842834	205.400000
760.879944	208.100000
760.917114	208.600000
760.954285	205.600000
760.991394	202.500000
761.028564	211.100000
761.065674	209.100000
761.102783	205.900000
761.139954	209.700000
761.177124	210.600000
761.214172	212.700000
761.251343	207.400000
761.288452	209.000000
761.325562	210.900000
761.362732	205.700000
761.399841	208.400000
761.436951	210.200000
761.474121	206.000000
761.511169	209.200000
761.548340	213.100000
761.585449	212.800000
761.622559	211.400000
761.659668	210.500000
761.696838	214.500000
761.733887	211.800000
761.771057	209.300000
761.808167	209.400000
761.845276	212.800000
761.882385	220.200000
761.919434	212.000000
761.956604	224.000000
761.993713	209.800000
762.030762	217.400000
762.067871	212.100000
762.105042	212.900000
762.142090	217.500000
762.179199	212.100000
762.216309	216.000000
762.253418	222.100000
762.290527	219.100000
762.327637	218.100000
762.364685	209.000000
762.401794	217.600000
762.438904	214.700000
762.475952	211.500000
762.513062	210.300000
762.550110	211.500000
762.587219	222.500000
762.624329	220.300000
762.661377	217.500000
762.698486	216.100000
762.735596	215.200000
762.772644	212.300000
762.809753	211.300000
762.846863	214.900000
762.883911	220.300000
762.921021	218.300000
762.958069	217.300000
762.995117	223.000000
763.032227	223.400000
763.069336	215.300000
763.106323	214.300000
763.143433	213.100000
763.180481	218.800000
763.217590	217.900000
763.254639	216.600000
763.291687	216.400000
763.328735	225.500000
763.365845	217.500000
763.402893	217.800000
763.439941	219.700000
763.477051	222.600000
763.514038	221.500000
763.551147	217.800000
763.588196	220.200000
763.625244	221.100000
763.662292	227.200000
763.699402	228.600000
763.736389	222.100000
763.773499	230.800000
763.810486	224.000000
763.847534	221.800000
763.884644	224.800000
763.921631	221.600000
763.958679	229.700000
763.995728	224.500000
764.032776	230.400000
764.069824	220.800000
764.106873	228.100000
764.143860	231.800000
764.180969	224.900000
764.218018	230.300000
764.255005	226.100000
764.292053	225.100000
764.329102	234.600000
764.366089	234.700000
764.403137	233.400000
764.440125	227.400000
764.477173	230.200000
764.514221	232.000000
764.551208	230.800000
764.588257	226.500000
764.625305	234.500000
764.662292	237.600000
764.699341	239.600000
764.736389	233.000000
764.773376	244.200000
764.810425	235.800000
764.847473	243.800000
764.884399	239.100000
764.921448	244.400000
764.958435	241.200000
764.995483	236.300000
765.032532	247.300000
765.069458	235.700000
765.106506	238.300000
765.143555	235.500000
765.180481	239.800000
765.217529	247.600000
765.254578	234.000000
765.291504	242.600000
765.328552	240.800000
765.365540	237.900000
765.402527	248.500000
765.439575	239.500000
765.476501	236.100000
765.513550	237.000000
765.550537	242.000000
765.587463	246.700000
765.624512	240.500000
765.661499	235.000000
765.698486	248.200000
765.735474	241.100000
765.772461	242.500000
765.809448	249.800000
765.846436	248.300000
765.883423	252.100000
765.920410	247.500000
765.957397	242.800000
765.994385	248.500000
766.031311	255.200000
766.068359	249.000000
766.105286	250.000000
766.142273	255.700000
766.179260	248.000000
766.216187	247.500000
766.253174	242.100000
766.290161	250.300000
766.327148	250.700000
766.364136	252.700000
766.401123	264.300000
766.438049	248.800000
766.475037	257.600000
766.512024	256.800000
766.548950	266.900000
766.585937	259.400000
766.622864	257.300000
766.659790	257.100000
766.696777	248.800000
766.733704	259.500000
766.770691	253.600000
766.807678	263.500000
766.844604	258.500000
766.881531	259.500000
766.918518	264.400000
766.955444	264.000000
766.992432	258.300000
767.029358	264.700000
767.066284	265.000000
767.103271	263.200000
767.140198	293.400000
767.177124	273.400000
767.214050	264.800000
767.251038	265.600000
767.287964	264.500000
767.324890	262.900000
767.361816	266.100000
767.398743	270.500000
767.435730	265.600000
767.472595	268.100000
767.509583	271.800000
767.546509	263.800000
767.583374	268.300000
767.620361	262.800000
767.657288	266.200000
767.694214	267.000000
767.731140	265.800000
767.768066	267.200000
767.804993	271.600000
767.841919	263.400000
767.878845	268.900000
767.915710	274.000000
767.952698	271.000000
767.989563	271.400000
768.026489	273.200000
768.063416	267.300000
768.100281	267.500000
768.137207	277.000000
768.174133	275.200000
768.211060	273.300000
768.247986	271.300000
768.284912	273.200000
768.321777	274.800000
768.358704	270.700000
768.395630	274.300000
768.432495	270.700000
768.469421	275.200000
768.506348	277.700000
768.543152	282.300000
768.580078	280.600000
768.616943	283.500000
768.653870	283.500000
768.690796	282.700000
768.727661	282.500000
768.764587	282.200000
768.801453	277.700000
768.838318	285.200000
768.875244	286.500000
768.912109	289.300000
768.948975	282.500000
768.985901	284.800000
769.022766	284.800000
769.059631	288.000000
769.096558	283.800000
769.133362	285.300000
769.170288	285.700000
769.207214	285.600000
769.244019	289.900000
769.280945	286.500000
769.317810	296.300000
769.354675	290.300000
769.391541	296.000000
769.428406	292.600000
769.465271	304.700000
769.502136	292.400000
769.539062	297.400000
769.575867	293.200000
769.612732	297.000000
769.649597	302.200000
769.686462	302.400000
769.723328	298.600000
769.760193	299.600000
769.797058	299.200000
769.833923	307.200000
769.870728	303.100000
769.907593	305.000000
769.944519	303.100000
769.981323	308.000000
770.018188	308.600000
770.055054	305.600000
770.091858	305.800000
770.128723	314.600000
770.165588	320.800000
770.202393	309.500000
770.239258	318.800000
770.276062	315.200000
770.312927	314.800000
770.349792	322.000000
770.386597	319.700000
770.423462	327.400000
770.460327	333.200000
770.497131	321.400000
770.533997	317.100000
770.570862	329.000000
770.607605	328.900000
770.644470	325.200000
770.681335	328.600000
770.718140	326.700000
770.754944	323.200000
770.791809	321.600000
770.828613	325.200000
770.865479	327.800000
770.902222	338.300000
770.939087	329.900000
770.975952	325.700000
771.012695	325.700000
771.049561	340.200000
771.086365	331.800000
771.123169	329.900000
771.159973	333.000000
771.196838	334.600000
771.233582	334.700000
771.270447	337.600000
771.307251	341.400000
771.344055	337.800000
771.380859	342.100000
771.417664	339.000000
771.454468	343.100000
771.491272	341.900000
771.528076	344.300000
771.564880	341.900000
771.601685	349.400000
771.638428	341.400000
771.675293	346.700000
771.712097	340.100000
771.748840	357.600000
771.785645	349.300000
771.822449	351.300000
771.859253	352.600000
771.896057	348.600000
771.932861	356.200000
771.969604	353.500000
772.006409	352.300000
772.043213	358.600000
772.079956	352.400000
772.116760	351.000000
772.153503	351.400000
772.190308	363.900000
772.227112	357.600000
772.263855	353.200000
772.300659	355.100000
772.337463	364.900000
772.374207	354.600000
772.411011	353.800000
772.447754	355.900000
772.484497	369.000000
772.521301	361.500000
772.558105	361.100000
772.594849	361.800000
772.631592	365.800000
772.668396	360.100000
772.705139	365.300000
772.741882	366.600000
772.778625	376.300000
772.815430	373.300000
772.852173	376.100000
772.888916	377.300000
772.925720	381.300000
772.962463	382.800000
772.999207	378.500000
773.035950	383.400000
773.072754	382.900000
773.109436	375.200000
773.146240	377.700000
773.182922	378.600000
773.219727	383.100000
773.256470	381.300000
773.293152	375.700000
773.329956	379.000000
773.366699	384.000000
773.403381	378.500000
773.440186	384.800000
773.476929	387.700000
773.513611	381.800000
773.550354	383.900000
773.587158	384.800000
773.623840	381.200000
773.660583	386.300000
773.697327	393.600000
773.734009	388.200000
773.770813	385.800000
773.807495	383.000000
773.844238	385.600000
773.880981	395.200000
773.917664	393.100000
773.954407	400.000000
773.991150	390.200000
774.027832	394.700000
774.064575	389.500000
774.101318	392.400000
774.138000	398.900000
774.174744	396.600000
774.211487	395.900000
774.248108	388.900000
774.284851	390.800000
774.321594	397.000000
774.358276	400.000000
774.395020	406.100000
774.431702	403.800000
774.468384	397.600000
774.505127	396.900000
774.541809	404.800000
774.578491	409.600000
774.615234	412.100000
774.651917	404.000000
774.688599	409.400000
774.725342	415.200000
774.762024	412.700000
774.798706	418.800000
774.835449	418.100000
774.872070	424.100000
774.908813	422.200000
774.945496	420.600000
774.982178	419.700000
775.018860	421.600000
775.055542	424.200000
775.092224	423.200000
775.128967	428.400000
775.165588	429.000000
775.202271	426.500000
775.239014	435.800000
775.275635	434.100000
775.312317	429.800000
775.349060	435.400000
775.385681	436.200000
775.422363	432.300000
775.459045	432.500000
775.495667	437.800000
775.532410	440.300000
775.569092	442.800000
775.605713	440.100000
775.642395	443.100000
775.679016	442.500000
775.715698	443.000000
775.752380	445.900000
775.789001	443.700000
775.825684	448.800000
775.862366	451.300000
775.898987	456.600000
775.935669	450.200000
775.972351	463.200000
776.008972	465.500000
776.045654	468.300000
776.082336	462.400000
776.118958	463.600000
776.155640	464.400000
776.192322	468.300000
776.228882	473.400000
776.265564	474.200000
776.302185	470.600000
776.338867	473.900000
776.375488	469.600000
776.412109	479.700000
776.448792	480.800000
776.485413	487.800000
776.522034	481.100000
776.558716	479.600000
776.595337	480.900000
776.631958	480.600000
776.668579	482.200000
776.705261	495.300000
776.741882	487.100000
776.778503	486.900000
776.815186	486.900000
776.851746	492.000000
776.888367	491.800000
776.924988	499.300000
776.961609	490.600000
776.998291	492.100000
777.034851	491.000000
777.071472	501.300000
777.108154	496.700000
777.144714	508.300000
777.181335	505.300000
777.218018	500.100000
777.254578	507.900000
777.291199	502.000000
777.327759	505.800000
777.364380	515.600000
777.401062	521.700000
777.437622	532.700000
777.474243	521.800000
777.510864	525.800000
777.547424	518.800000
777.584045	523.600000
777.620667	525.100000
777.657227	527.800000
777.693848	527.800000
777.730469	538.300000
777.767029	529.300000
777.803650	533.000000
777.840271	528.300000
777.876831	528.900000
777.913452	539.900000
777.950012	525.600000
777.986633	524.800000
778.023193	522.500000
778.059753	524.800000
778.096375	528.000000
778.132996	539.700000
778.169556	532.700000
778.206116	531.400000
778.242737	527.500000
778.279297	536.200000
778.315857	528.700000
778.352478	535.700000
778.389038	538.900000
778.425598	541.100000
778.462219	548.600000
778.498718	543.800000
778.535339	544.700000
778.571838	551.600000
778.608459	553.000000
778.645020	546.100000
778.681580	550.100000
778.718140	548.200000
778.754761	546.800000
778.791260	552.900000
778.827881	553.600000
778.864441	554.700000
778.900940	561.800000
778.937561	560.400000
778.974121	562.200000
779.010620	553.800000
779.047241	559.400000
779.083801	567.600000
779.120300	568.300000
779.156860	568.200000
779.193359	564.700000
779.229980	564.400000
779.266541	565.800000
779.303040	573.300000
779.339600	567.900000
779.376160	560.900000
779.412659	566.100000
779.449219	564.300000
779.485779	566.000000
779.522278	567.700000
779.558838	571.100000
779.595398	569.800000
779.631897	565.700000
779.668457	563.000000
779.705017	571.700000
779.741516	560.400000
779.778076	560.800000
779.814575	565.900000
779.851074	569.700000
779.887634	567.300000
779.924133	572.900000
779.960693	563.600000
779.997253	577.500000
780.033691	576.400000
780.070251	577.400000
780.106812	587.400000
780.143250	586.100000
780.179810	580.800000
780.216370	577.900000
780.252808	581.200000
780.289368	593.600000
780.325867	592.000000
780.362366	588.900000
780.398865	599.000000
780.435364	594.300000
780.471863	599.200000
780.508423	601.200000
780.544861	607.000000
780.581421	606.300000
780.617920	598.200000
780.654419	595.300000
780.690918	600.100000
780.727417	607.900000
780.763916	608.000000
780.800415	613.800000
780.836914	602.800000
780.873352	611.500000
780.909912	603.100000
780.946411	608.200000
780.982849	614.000000
781.019348	622.600000
781.055786	620.500000
781.092346	617.700000
781.128845	621.400000
781.165283	621.600000
781.201782	635.000000
781.238281	639.400000
781.274719	642.100000
781.311218	634.100000
781.347717	646.100000
781.384155	636.300000
781.420654	646.900000
781.457092	653.100000
781.493591	646.400000
781.530090	641.300000
781.566528	642.200000
781.602966	639.000000
781.639465	639.800000
781.675903	643.500000
781.712402	648.300000
781.748901	651.300000
781.785278	645.000000
781.821777	647.100000
781.858276	650.800000
781.894714	661.900000
781.931152	656.300000
781.967651	665.000000
782.004089	654.700000
782.040527	661.300000
782.076965	664.200000
782.113403	663.500000
782.149902	667.500000
782.186340	669.300000
782.222778	680.400000
782.259277	670.000000
782.295654	664.200000
782.332092	666.300000
782.368591	655.000000
782.404968	644.400000
782.441467	630.400000
782.477905	615.400000
782.514282	589.200000
782.550781	578.900000
782.587219	551.500000
782.623596	539.200000
782.660095	522.800000
782.696472	517.300000
782.732910	510.300000
782.769348	512.900000
782.805786	532.800000
782.842224	547.100000
782.878662	555.100000
782.915039	576.900000
782.951477	597.500000
782.987915	611.300000
783.024292	637.700000
783.060730	657.800000
783.097168	667.700000
783.133545	677.700000
783.169983	688.100000
783.206421	692.200000
783.242798	694.700000
783.279236	696.600000
783.315613	698.100000
783.352051	701.900000
783.388489	698.000000
783.424866	697.400000
783.461304	698.200000
783.497681	707.100000
783.534058	706.000000
783.570496	700.900000
783.606934	696.000000
783.643250	703.700000
783.679687	711.900000
783.716125	706.300000
783.752441	715.300000
783.788879	733.000000
783.825317	740.800000
783.861633	743.900000
783.898071	749.800000
783.934448	762.700000
783.970825	770.000000
784.007263	774.900000
784.043579	775.500000
784.080017	781.600000
784.116394	775.000000
784.152710	777.400000
784.189148	779.800000
784.225525	781.300000
784.261902	775.500000
784.298279	769.000000
784.334656	761.900000
784.371033	754.700000
784.407410	760.500000
784.443787	749.100000
784.480164	737.600000
784.516541	725.100000
784.552856	730.500000
784.589233	724.200000
784.625610	723.500000
784.661987	747.400000
784.698364	744.200000
784.734741	737.600000
784.771057	740.600000
784.807434	744.100000
784.843811	756.600000
784.880127	750.600000
784.916504	775.300000
784.952881	778.900000
784.989197	773.800000
785.025574	779.900000
785.061951	786.800000
785.098267	800.400000
785.134644	793.800000
785.170959	795.800000
785.207275	798.000000
785.243652	793.100000
785.279968	785.800000
785.316345	784.000000
785.352722	785.400000
785.388977	778.600000
785.425354	762.000000
785.461731	745.000000
785.498047	738.900000
785.534363	739.200000
785.570679	734.200000
785.606995	728.100000
785.643372	740.200000
785.679687	735.900000
785.716003	724.300000
785.752380	724.000000
785.788635	733.400000
785.825012	742.700000
785.861328	750.200000
785.897644	745.000000
785.933960	754.700000
785.970337	757.100000
786.006592	771.100000
786.042908	779.000000
786.079285	790.900000
786.115540	805.300000
786.151855	801.900000
786.188171	805.900000
786.224487	812.400000
786.260803	808.600000
786.297119	811.800000
786.333435	810.900000
786.369751	802.900000
786.406006	796.100000
786.442322	785.200000
786.478638	777.000000
786.514954	785.700000
786.551270	776.500000
786.587585	780.900000
786.623840	772.900000
786.660156	769.900000
786.696472	759.000000
786.732727	756.600000
786.769043	762.800000
786.805298	755.700000
786.841614	761.600000
786.877930	775.100000
786.914124	764.700000
786.950439	780.300000
786.986755	787.600000
787.023010	801.200000
787.059326	805.300000
787.095642	813.600000
787.131836	824.700000
787.168152	812.700000
787.204468	820.100000
787.240723	839.400000
787.276978	840.300000
787.313293	850.600000
787.349548	842.200000
787.385803	841.500000
787.422058	843.500000
787.458313	843.200000
787.494629	839.700000
787.530823	842.400000
787.567139	827.700000
787.603455	818.600000
787.639648	807.000000
787.675903	810.800000
787.712219	802.000000
787.748413	798.900000
787.784729	811.600000
787.820984	797.800000
787.857178	794.500000
787.893494	795.800000
787.929749	788.600000
787.965942	802.400000
788.002258	815.300000
788.038452	832.200000
788.074707	824.700000
788.110962	833.000000
788.147217	834.000000
788.183472	840.700000
788.219727	848.200000
788.255920	868.800000
788.292175	870.900000
788.328430	862.600000
788.364624	855.000000
788.400879	854.700000
788.437134	858.800000
788.473328	861.100000
788.509583	867.400000
788.545837	860.000000
788.582031	869.200000
788.618286	867.200000
788.654480	858.200000
788.690735	866.300000
788.726990	883.500000
788.763184	873.800000
788.799377	889.500000
788.835632	881.400000
788.871826	883.600000
788.908081	882.400000
788.944336	888.400000
788.980469	903.600000
789.016724	893.800000
789.052979	893.100000
789.089111	876.300000
789.125366	885.500000
789.161621	868.600000
789.197754	877.100000
789.234009	874.000000
789.270142	876.500000
789.306396	869.800000
789.342590	863.000000
789.378784	853.200000
789.414978	845.800000
789.451233	849.900000
789.487366	851.800000
789.523621	855.000000
789.559814	854.700000
789.595947	858.600000
789.632202	869.000000
789.668335	879.200000
789.704529	892.000000
789.740784	907.700000
789.776917	911.000000
789.813110	905.300000
789.849304	911.800000
789.885498	910.800000
789.921692	930.000000
789.957886	932.700000
789.994019	933.300000
790.030212	946.000000
790.066406	945.100000
790.102539	935.800000
790.138733	944.200000
790.174927	937.700000
790.211060	949.900000
790.247253	956.400000
790.283386	950.800000
790.319580	940.000000
790.355774	920.100000
790.391907	917.500000
790.428101	932.100000
790.464294	932.000000
790.500427	933.000000
790.536621	912.700000
790.572754	902.100000
790.608887	894.100000
790.645081	904.800000
790.681274	920.800000
790.717346	922.600000
790.753540	907.900000
790.789734	894.900000
790.825867	881.900000
790.862000	881.000000
790.898132	890.700000
790.934265	886.700000
790.970459	887.500000
791.006592	888.000000
791.042725	883.100000
791.078918	877.900000
791.114990	884.300000
791.151184	884.600000
791.187317	903.000000
791.223389	901.900000
791.259583	889.400000
791.295715	887.800000
791.331848	887.400000
791.367981	900.000000
791.404114	905.900000
791.440247	913.600000
791.476379	912.200000
791.512451	899.300000
791.548584	882.600000
791.584778	876.800000
791.620850	890.700000
791.656982	895.100000
791.693115	897.300000
791.729187	899.000000
791.765381	897.300000
791.801514	891.000000
791.837585	891.100000
791.873718	904.300000
791.909851	915.700000
791.945923	924.400000
791.982056	905.700000
792.018188	902.400000
792.054260	897.800000
792.090393	894.700000
792.126465	889.600000
792.162598	896.500000
792.198669	892.000000
792.234741	884.300000
792.270874	877.700000
792.307007	868.800000
792.343079	863.700000
792.379150	886.200000
792.415283	878.900000
792.451355	878.800000
792.487488	856.500000
792.523560	850.900000
792.559631	844.500000
792.595764	821.200000
792.631836	784.600000
792.667908	764.600000
792.703979	742.300000
792.740051	753.100000
792.776184	782.100000
792.812256	796.700000
792.848328	815.500000
792.884399	826.000000
792.920471	828.000000
792.956543	828.500000
792.992615	827.100000
793.028748	822.100000
793.064758	822.900000
793.100830	844.300000
793.136963	858.200000
793.172974	857.300000
793.209045	849.100000
793.245178	860.200000
793.281189	842.100000
793.317261	847.800000
793.353271	851.000000
793.389404	866.500000
793.425476	859.600000
793.461487	845.100000
793.497559	836.300000
793.533630	834.800000
793.569641	832.700000
793.605713	841.400000
793.641785	841.000000
793.677795	850.300000
793.713867	846.600000
793.749878	848.900000
793.785950	858.500000
793.822021	869.600000
793.858032	858.500000
793.894104	871.500000
793.930176	866.500000
793.966187	868.700000
794.002258	855.500000
794.038269	867.600000
794.074280	866.200000
794.110352	889.100000
794.146423	874.800000
794.182373	870.300000
794.218445	864.300000
794.254517	852.300000
794.290466	841.500000
794.326538	844.700000
794.362549	851.800000
794.398560	857.800000
794.434631	855.500000
794.470581	836.300000
794.506653	828.500000
794.542664	831.400000
794.578674	838.600000
794.614685	834.000000
794.650757	827.900000
794.686707	840.200000
794.722778	833.400000
794.758789	838.400000
794.794739	847.000000
794.830811	867.700000
794.866821	889.200000
794.902771	895.000000
794.938843	887.200000
794.974792	878.700000
795.010803	879.400000
795.046814	883.000000
795.082825	870.000000
795.118835	889.800000
795.154846	873.000000
795.190796	873.100000
795.226807	857.300000
795.262817	860.400000
795.298767	861.300000
795.334778	873.600000
795.370850	861.600000
795.406799	869.300000
795.442810	858.400000
795.478821	851.400000
795.514709	848.300000
795.550720	880.900000
795.586670	862.300000
795.622681	862.500000
795.658691	859.000000
795.694641	856.400000
795.730652	851.000000
795.766663	857.800000
795.802551	866.600000
795.838562	881.800000
795.874573	874.200000
795.910522	873.200000
795.946472	854.600000
795.982483	864.800000
796.018433	862.400000
796.054382	870.500000
796.090393	864.300000
796.126282	852.800000
796.162292	840.700000
796.198242	837.100000
796.234192	826.600000
796.270203	832.200000
796.306091	836.700000
796.342041	853.700000
796.378052	851.600000
796.413940	848.300000
796.449951	851.600000
796.485901	853.100000
796.521790	850.600000
796.557800	862.900000
796.593689	867.500000
796.629639	866.800000
796.665649	854.100000
796.701599	853.200000
796.737488	850.700000
796.773437	857.500000
796.809387	864.400000
796.845337	870.200000
796.881287	868.000000
796.917175	840.900000
796.953125	840.200000
796.989075	846.300000
797.024963	845.400000
797.060913	852.600000
797.096863	845.000000
797.132751	844.900000
797.168701	831.400000
797.204590	831.300000
797.240540	832.700000
797.276489	843.100000
797.312439	842.700000
797.348328	838.300000
797.384277	832.800000
797.420166	825.800000
797.456055	822.900000
797.492004	822.800000
797.527893	832.500000
797.563843	838.600000
797.599731	836.100000
797.635620	826.800000
797.671570	836.200000
797.707520	831.500000
797.743347	828.700000
797.779297	833.700000
797.815125	831.900000
797.851074	834.600000
797.887024	824.300000
797.922913	811.800000
797.958801	812.800000
797.994690	810.600000
798.030579	817.700000
798.066467	828.900000
798.102356	812.200000
798.138245	805.800000
798.174133	792.900000
798.210083	802.100000
798.245911	812.700000
798.281799	811.100000
798.317749	811.700000
798.353577	816.100000
798.389465	807.800000
798.425293	809.100000
798.461243	807.600000
798.497131	809.600000
798.532959	811.800000
798.568848	819.600000
798.604736	810.500000
798.640564	795.500000
798.676453	792.100000
798.712402	787.800000
798.748230	804.200000
798.784119	807.900000
798.820007	798.700000
798.855835	801.100000
798.891724	793.500000
798.927551	789.700000
798.963379	794.600000
798.999268	795.400000
799.035095	785.000000
799.070984	778.400000
799.106873	762.300000
799.142700	772.300000
799.178528	759.500000
799.214417	774.700000
799.250244	785.900000
799.286133	781.900000
799.321960	774.600000
799.357788	766.000000
799.393677	760.200000
799.429504	765.900000
799.465332	770.900000
799.501221	776.700000
799.537048	774.900000
799.572876	774.300000
799.608704	767.500000
799.644531	774.300000
799.680359	781.900000
799.716248	795.500000
799.752014	797.100000
799.787903	792.100000
799.823730	785.000000
799.859558	774.000000
799.895386	768.500000
799.931213	776.100000
799.967041	774.200000
800.002869	773.700000
800.038696	781.400000
800.074463	761.900000
800.110352	768.700000
800.146179	753.600000
800.181946	769.000000
800.217773	775.300000
800.253540	769.600000
800.289429	763.000000
800.325256	755.600000
800.361023	750.900000
800.396851	753.200000
800.432678	758.500000
800.468445	765.500000
800.504272	768.700000
800.540100	750.500000
800.575867	740.900000
800.611694	746.900000
800.647461	746.300000
800.683289	750.800000
800.719116	759.700000
800.754883	754.000000
800.790649	740.800000
800.826477	742.800000
800.862244	752.700000
800.898071	740.600000
800.933838	744.100000
800.969604	745.500000
801.005432	741.300000
801.041199	739.800000
801.076965	731.600000
801.112793	727.300000
801.148560	722.400000
801.184326	728.500000
801.220154	726.700000
801.255859	721.000000
801.291687	718.100000
801.327454	712.200000
801.363281	716.600000
801.398987	709.300000
801.434814	714.100000
801.470520	720.600000
801.506287	711.100000
801.542114	700.000000
801.577820	700.200000
801.613647	698.300000
801.649414	702.800000
801.685120	705.100000
801.720886	705.400000
801.756714	694.400000
801.792419	689.700000
801.828186	682.300000
801.863892	689.300000
801.899719	686.600000
801.935486	683.700000
801.971252	695.600000
802.006958	687.100000
802.042725	683.500000
802.078430	677.800000
802.114197	683.300000
802.149963	696.400000
802.185669	683.100000
802.221436	681.900000
802.257202	679.100000
802.292908	678.500000
802.328674	686.500000
802.364441	689.000000
802.400146	688.800000
802.435913	690.300000
802.471558	683.000000
802.507324	679.100000
802.543091	674.400000
802.578796	685.000000
802.614502	687.500000
802.650269	692.700000
802.685974	674.500000
802.721741	682.800000
802.757446	690.300000
802.793152	683.000000
802.828918	687.600000
802.864624	686.300000
802.900330	682.200000
802.936035	683.800000
802.971802	679.700000
803.007446	670.900000
803.043213	661.100000
803.078857	674.100000
803.114624	661.700000
803.150330	672.700000
803.185974	664.100000
803.221741	661.900000
803.257446	665.900000
803.293152	666.100000
803.328857	663.000000
803.364563	664.800000
803.400208	660.600000
803.435974	662.700000
803.471680	653.900000
803.507324	646.000000
803.543030	660.100000
803.578735	657.000000
803.614441	654.100000
803.650146	662.000000
803.685791	652.000000
803.721497	655.800000
803.757202	640.500000
803.792847	648.400000
803.828552	645.500000
803.864258	644.600000
803.899902	637.000000
803.935608	629.800000
803.971313	632.500000
804.006958	630.100000
804.042664	631.000000
804.078308	635.700000
804.113953	631.300000
804.149658	638.000000
804.185364	622.600000
804.221008	636.000000
804.256714	621.900000
804.292297	620.100000
804.328003	618.800000
804.363708	615.800000
804.399292	614.500000
804.434998	612.800000
804.470703	604.900000
804.506287	622.000000
804.541992	610.700000
804.577637	612.100000
804.613281	603.500000
804.648926	599.000000
804.684570	599.900000
804.720215	594.100000
804.755920	597.600000
804.791565	599.000000
804.827209	605.500000
804.862854	597.800000
804.898437	597.200000
804.934143	597.700000
804.969788	601.300000
805.005371	594.700000
805.041077	593.700000
805.076721	594.300000
805.112305	591.900000
805.147949	588.000000
805.183655	584.500000
805.219238	590.700000
805.254883	581.000000
805.290466	592.000000
805.326111	586.700000
805.361755	581.900000
805.397400	578.200000
805.432983	578.300000
805.468628	575.200000
805.504211	579.600000
805.539856	576.700000
805.575500	580.100000
805.611084	569.400000
805.646729	564.100000
805.682373	567.100000
805.717957	573.600000
805.753601	580.000000
805.789246	566.400000
805.824768	576.300000
805.860413	580.200000
805.895996	567.700000
805.931641	565.200000
805.967224	573.400000
806.002869	565.000000
806.038452	573.000000
806.074036	575.700000
806.109619	562.000000
806.145264	565.300000
806.180847	564.600000
806.216431	562.200000
806.252014	565.900000
806.287659	561.500000
806.323181	565.800000
806.358826	557.700000
806.394409	547.800000
806.429993	551.200000
806.465576	556.700000
806.501160	547.200000
806.536743	539.900000
806.572327	553.200000
806.607910	547.800000
806.643494	546.200000
806.679077	539.300000
806.714661	538.600000
806.750244	538.600000
806.785828	536.100000
806.821350	540.300000
806.856934	542.100000
806.892517	537.300000
806.928101	533.900000
806.963684	533.700000
806.999268	538.300000
807.034790	525.000000
807.070374	529.700000
807.105896	525.000000
807.141479	521.000000
807.177063	523.500000
807.212585	520.200000
807.248169	520.000000
807.283752	521.200000
807.319275	519.400000
807.354858	520.700000
807.390381	516.000000
807.425903	512.900000
807.461487	511.300000
807.497070	507.300000
807.532593	507.700000
807.568115	502.700000
807.603699	501.900000
807.639221	500.300000
807.674744	504.000000
807.710266	505.600000
807.745850	506.100000
807.781372	501.300000
807.816895	498.800000
807.852417	499.300000
807.888000	496.300000
807.923523	490.700000
807.959045	495.800000
807.994629	489.900000
808.030090	490.700000
808.065613	496.200000
808.101135	498.100000
808.136658	497.600000
808.172241	494.000000
808.207764	496.000000
808.243225	487.400000
808.278809	486.200000
808.314270	493.400000
808.349792	477.900000
808.385315	478.900000
808.420837	484.700000
808.456360	488.400000
808.491882	489.600000
808.527344	484.400000
808.562866	491.700000
808.598389	478.500000
808.633850	480.100000
808.669434	475.900000
808.704895	484.400000
808.740417	486.900000
808.775940	484.800000
808.811462	477.900000
808.846924	474.100000
808.882385	472.100000
808.917847	473.100000
808.953369	473.400000
808.988892	469.300000
809.024353	473.200000
809.059875	473.500000
809.095398	468.800000
809.130798	461.800000
809.166321	462.900000
809.201843	463.300000
809.237305	468.900000
809.272766	470.800000
809.308228	460.600000
809.343750	460.500000
809.379211	461.800000
809.414734	460.200000
809.450134	464.700000
809.485657	450.500000
809.521118	457.300000
809.556580	452.400000
809.592102	455.000000
809.627502	448.500000
809.663025	448.200000
809.698486	444.400000
809.733887	445.400000
809.769409	447.900000
809.804871	437.600000
809.840271	439.700000
809.875793	442.500000
809.911194	443.600000
809.946655	438.200000
809.982178	437.100000
810.017639	439.300000
810.053040	434.400000
810.088501	434.600000
810.123901	433.900000
810.159424	430.300000
810.194885	425.500000
810.230286	429.000000
810.265747	425.100000
810.301208	420.300000
810.336609	424.800000
810.372070	421.100000
810.407532	421.000000
810.442932	422.000000
810.478394	425.700000
810.513794	419.200000
810.549255	420.200000
810.584717	413.300000
810.620117	407.700000
810.655518	412.700000
810.690979	411.400000
810.726379	410.200000
810.761841	404.400000
810.797302	401.300000
810.832642	403.400000
810.868103	410.100000
810.903564	401.200000
810.938904	406.400000
810.974365	398.500000
811.009827	399.400000
811.045166	393.800000
811.080627	386.900000
811.115967	390.700000
811.151428	397.800000
811.186829	391.300000
811.222229	391.400000
811.257629	386.800000
811.293091	388.600000
811.328430	396.300000
811.363892	388.300000
811.399292	390.900000
811.434631	387.200000
811.470093	390.300000
811.505493	384.700000
811.540833	382.500000
811.576294	384.700000
811.611694	384.200000
811.647034	380.200000
811.682434	382.900000
811.717773	385.500000
811.753235	388.500000
811.788635	381.300000
811.823975	381.500000
811.859375	386.800000
811.894775	377.000000
811.930115	377.000000
811.965515	377.500000
812.000916	378.300000
812.036255	373.300000
812.071655	377.000000
812.106995	369.500000
812.142395	372.700000
812.177795	378.700000
812.213196	375.900000
812.248474	373.500000
812.283875	367.300000
812.319214	366.200000
812.354614	369.700000
812.390015	366.000000
812.425293	367.300000
812.460693	366.100000
812.496094	364.500000
812.531433	359.800000
812.566772	359.800000
812.602173	361.700000
812.637451	362.500000
812.672852	358.100000
812.708191	355.700000
812.743530	352.900000
812.778931	346.900000
812.814270	350.800000
812.849609	355.000000
812.884949	350.200000
812.920227	344.600000
812.955627	355.000000
812.990967	348.800000
813.026306	344.800000
813.061646	337.300000
813.096985	333.800000
813.132324	332.400000
813.167664	336.000000
813.203003	339.700000
813.238281	327.400000
813.273682	328.500000
813.308960	330.400000
813.344299	329.800000
813.379639	334.900000
813.414978	329.900000
813.450256	327.400000
813.485596	331.200000
813.520874	323.100000
813.556213	323.800000
813.591614	329.300000
813.626831	322.200000
813.662170	326.600000
813.697510	331.000000
813.732788	319.300000
813.768127	322.700000
813.803467	324.400000
813.838745	317.900000
813.874084	321.600000
813.909363	318.900000
813.944641	320.100000
813.979980	312.900000
814.015320	316.700000
814.050598	315.700000
814.085876	314.600000
814.121155	313.800000
814.156494	313.400000
814.191772	313.500000
814.227051	310.300000
814.262390	310.700000
814.297668	310.700000
814.332947	308.800000
814.368225	303.700000
814.403564	304.100000
814.438782	304.100000
814.474121	306.300000
814.509338	303.300000
814.544617	307.800000
814.579956	301.400000
814.615173	307.600000
814.650513	305.600000
814.685791	299.400000
814.721008	303.600000
814.756348	303.100000
814.791626	298.400000
814.826843	296.800000
814.862122	300.200000
814.897400	298.400000
814.932678	296.900000
814.967957	300.000000
815.003235	297.500000
815.038452	290.800000
815.073730	289.600000
815.108948	300.500000
815.144226	296.700000
815.179504	301.200000
815.214722	289.600000
815.250000	287.700000
815.285278	292.400000
815.320496	287.900000
815.355774	287.200000
815.391052	292.300000
815.426270	287.900000
815.461487	287.900000
815.496765	283.200000
815.531982	280.900000
815.567261	282.900000
815.602539	288.100000
815.637695	283.500000
815.672974	285.300000
815.708191	285.200000
815.743408	288.800000
815.778687	280.700000
815.813904	289.200000
815.849121	275.800000
815.884399	277.100000
815.919556	274.800000
815.954834	277.100000
815.990051	279.400000
816.025269	281.900000
816.060486	274.400000
816.095703	273.400000
816.130920	276.400000
816.166199	273.000000
816.201416	273.200000
816.236572	275.600000
816.271851	271.200000
816.307007	273.000000
816.342224	267.600000
816.377441	270.900000
816.412659	265.600000
816.447876	271.600000
816.483093	266.200000
816.518250	267.500000
816.553467	264.800000
816.588745	268.200000
816.623901	262.600000
816.659119	255.200000
816.694275	262.200000
816.729492	258.900000
816.764709	288.900000
816.799927	254.900000
816.835083	260.000000
816.870300	252.700000
816.905457	258.200000
816.940674	257.000000
816.975830	254.600000
817.010986	251.000000
817.046204	252.600000
817.081421	248.800000
817.116577	251.100000
817.151733	255.600000
817.186951	254.700000
817.222107	252.100000
817.257324	255.600000
817.292419	253.200000
817.327637	248.300000
817.362854	247.800000
817.398010	246.300000
817.433167	247.500000
817.468323	247.200000
817.503479	247.900000
817.538635	254.500000
817.573853	248.400000
817.608948	246.200000
817.644165	244.700000
817.679321	243.400000
817.714478	241.700000
817.749634	244.100000
817.784790	253.500000
817.819946	248.500000
817.855103	237.200000
817.890198	240.500000
817.925415	236.200000
817.960571	241.700000
817.995667	242.000000
818.030823	240.500000
818.066040	236.500000
818.101135	239.600000
818.136292	238.200000
818.171448	233.100000
818.206543	236.500000
818.241699	238.100000
818.276855	237.800000
818.311951	235.500000
818.347107	232.800000
818.382263	236.900000
818.417358	240.800000
818.452515	238.100000
818.487610	239.200000
818.522766	229.500000
818.557922	238.500000
818.593018	234.700000
818.628113	233.700000
818.663269	230.000000
818.698364	233.500000
818.733521	227.600000
818.768677	232.900000
818.803711	226.700000
818.838867	226.500000
818.874023	227.400000
818.909058	226.200000
818.944214	226.000000
818.979370	229.900000
819.014404	227.300000
819.049561	224.700000
819.084595	229.500000
819.119751	222.900000
819.154846	227.400000
819.189941	224.500000
819.225037	221.300000
819.260193	217.800000
819.295227	219.300000
819.330322	215.500000
819.365479	216.100000
819.400513	249.600000
819.435608	215.300000
819.470764	213.700000
819.505798	216.300000
819.540894	216.000000
819.575989	216.300000
819.611084	220.700000
819.646179	223.600000
819.681213	219.200000
819.716309	214.500000
819.751404	216.100000
819.786438	220.200000
819.821533	209.200000
819.856628	215.300000
819.891663	217.300000
819.926758	224.800000
819.961853	220.700000
819.996887	211.400000
820.031982	215.300000
820.067017	213.100000
820.102112	245.200000
820.137207	211.300000
820.172302	222.500000
820.207275	209.100000
820.242371	209.200000
820.277405	209.500000
820.312500	210.700000
820.347534	213.300000
820.382568	215.200000
820.417664	208.200000
820.452759	208.800000
820.487732	207.600000
820.522827	208.900000
820.557861	206.000000
820.592896	208.700000
820.627930	209.400000
820.662964	205.900000
820.698059	210.700000
820.733093	206.000000
820.768127	210.900000
820.803162	209.000000
820.838196	206.700000
820.873230	206.700000
820.908264	208.700000
820.943298	205.600000
820.978333	209.500000
821.013367	208.500000
821.048401	208.200000
821.083435	210.700000
821.118469	200.800000
821.153503	210.100000
821.188477	206.800000
821.223511	201.400000
821.258484	205.700000
821.293579	205.900000
821.328613	201.100000
821.363647	204.000000
821.398621	199.800000
821.433655	203.300000
821.468628	214.600000
821.503662	203.500000
821.538696	205.800000
821.573669	200.800000
821.608704	207.000000
821.643677	203.400000
821.678650	205.600000
821.713684	208.800000
821.748718	204.500000
821.783691	203.900000
821.818726	202.800000
821.853638	205.500000
821.888672	200.900000
821.923706	202.800000
821.958618	202.100000
821.993652	200.600000
822.028687	207.500000
822.063599	209.800000
822.098633	204.900000
822.133667	199.300000
822.168579	202.000000
822.203613	204.300000
822.238586	200.000000
822.273560	205.500000
822.308533	199.700000
822.343567	199.900000
822.378479	202.100000
822.413452	200.400000
822.448425	199.200000
822.483398	204.000000
822.518372	204.100000
822.553345	197.400000
822.588318	207.900000
822.623291	199.900000
822.658203	199.200000
822.693237	201.400000
822.728210	197.200000
822.763123	200.700000
822.798096	197.400000
822.833069	200.400000
822.867981	200.800000
822.902954	201.900000
822.937927	203.600000
822.972900	206.600000
823.007874	194.800000
823.042725	204.100000
823.077698	208.500000
823.112671	197.400000
823.147583	199.600000
823.182556	202.900000
823.217529	204.900000
823.252441	198.500000
823.287415	208.900000
823.322388	203.300000
823.357239	201.500000
823.392212	206.200000
823.427185	206.000000
823.462097	198.200000
823.497009	202.500000
823.531982	199.500000
823.566895	200.700000
823.601807	197.500000
823.636719	199.200000
823.671631	202.100000
823.706604	198.400000
823.741455	202.300000
823.776428	195.800000
823.811340	204.900000
823.846252	206.500000
823.881165	205.500000
823.916138	200.200000
823.950989	206.600000
823.985901	199.000000
824.020813	201.600000
824.055725	199.100000
824.090637	195.200000
824.125610	201.800000
824.160461	202.400000
824.195374	200.800000
824.230225	203.400000
824.265198	195.400000
824.300110	196.400000
824.334961	206.200000
824.369873	193.000000
824.404785	200.200000
824.439636	204.400000
824.474548	193.600000
824.509460	191.600000
824.544312	203.200000
824.579224	202.000000
824.614075	200.200000
824.648987	196.800000
824.683899	199.100000
824.718811	197.000000
824.753662	201.700000
824.788574	202.400000
824.823364	199.500000
824.858276	195.500000
824.893188	203.300000
824.928040	202.300000
824.962952	200.100000
824.997803	201.700000
825.032654	198.200000
825.067566	200.200000
825.102417	197.200000
825.137268	196.800000
825.172119	197.800000
825.206970	196.300000
825.241882	196.600000
825.276733	194.200000
825.311646	195.500000
825.346436	194.000000
825.381348	192.100000
825.416138	198.400000
825.450989	193.600000
825.485901	187.900000
825.520691	190.300000
825.555542	191.600000
825.590454	195.900000
825.625244	190.600000
825.660095	201.800000
825.695007	197.000000
825.729797	195.300000
825.764648	190.300000
825.799438	195.100000
825.834290	194.700000
825.869202	190.600000
825.903992	194.700000
825.938843	193.400000
825.973694	189.100000
826.008484	203.000000
826.043335	189.000000
826.078186	187.400000
826.112976	197.400000
826.147827	197.300000
826.182678	200.600000
826.217468	189.100000
826.252319	198.500000
826.287109	189.700000
826.321899	196.900000
826.356750	191.500000
826.391541	189.100000
826.426392	196.100000
826.461182	194.000000
826.495972	188.600000
826.530823	185.900000
826.565613	193.300000
826.600403	188.600000
826.635254	194.600000
826.670044	187.300000
826.704834	186.200000
826.739685	188.600000
826.774475	194.500000
826.809265	191.700000
826.844055	189.600000
826.878906	195.900000
826.913635	192.500000
826.948425	193.800000
826.983215	193.600000
827.018005	196.000000
827.052856	188.700000
827.087585	194.700000
827.122375	184.900000
827.157227	188.800000
827.191956	201.600000
827.226746	187.700000
827.261536	194.800000
827.296265	187.100000
827.331116	190.000000
827.365906	194.000000
827.400635	189.700000
827.435425	184.200000
827.470215	194.500000
827.504944	191.600000
827.539734	194.200000
827.574463	190.600000
827.609253	197.500000
827.644043	191.800000
827.678772	195.200000
827.713562	189.000000
827.748352	189.800000
827.783081	189.000000
827.817871	195.100000
827.852600	188.700000
827.887329	193.700000
827.922119	185.000000
827.956848	194.000000
827.991638	201.800000
828.026367	192.800000
828.061157	190.500000
828.095886	192.100000
828.130615	204.200000
828.165344	185.400000
828.200073	191.500000
828.234863	190.200000
828.269592	191.000000
828.304321	193.400000
828.339111	191.900000
828.373779	189.200000
828.408569	194.400000
828.443298	196.600000
828.477966	188.500000
828.512756	190.700000
828.547424	187.400000
828.582214	189.900000
828.616943	189.000000
828.651672	191.200000
828.686340	193.700000
828.721130	188.600000
828.755798	189.000000
828.790527	191.300000
828.825256	190.600000
828.859924	193.100000
828.894714	194.800000
828.929443	198.800000
828.964111	190.200000
828.998840	194.900000
829.033569	189.900000
829.068237	191.000000
829.102966	189.600000
829.137634	191.900000
829.172363	192.400000
829.207092	191.300000
829.241821	189.400000
829.276489	186.900000
829.311157	191.300000
829.345825	190.500000
829.380554	195.500000
829.415283	189.200000
829.449951	186.000000
829.484619	198.900000
829.519348	197.000000
829.554016	191.900000
829.588745	191.700000
829.623413	187.000000
829.658081	198.400000
829.692749	187.900000
829.727417	195.400000
829.762146	190.500000
829.796814	188.700000
829.831482	189.700000
829.866150	191.200000
829.900879	188.300000
829.935486	192.600000
829.970154	189.900000
830.004883	200.300000
830.039490	192.100000
830.074219	189.000000
830.108887	191.900000
830.143494	190.800000
830.178223	185.600000
830.212891	189.500000
830.247498	190.900000
830.282166	196.600000
830.316772	195.200000
830.351501	189.400000
830.386169	190.300000
830.420776	191.200000
830.455444	191.700000
830.490112	189.700000
830.524719	185.700000
830.559387	194.500000
830.594055	192.300000
830.628662	192.000000
830.663330	191.600000
830.697998	197.600000
830.732605	192.100000
830.767273	192.900000
830.801941	190.500000
830.836487	199.500000
830.871155	193.900000
830.905762	193.100000
830.940430	186.900000
830.975098	188.000000
831.009644	192.200000
831.044312	196.800000
831.078979	194.600000
831.113525	185.300000
831.148193	192.400000
831.182861	190.500000
831.217407	194.400000
831.252075	202.200000
831.286621	189.100000
831.321289	187.000000
831.355896	191.200000
831.390564	196.200000
831.425110	192.000000
831.459778	195.600000
831.494324	201.800000
831.528931	192.200000
831.563599	196.500000
831.598145	186.900000
831.632751	191.300000
831.667419	191.700000
831.701965	193.900000
831.736572	192.300000
831.771179	188.500000
831.805786	188.500000
831.840393	197.100000
831.874939	186.000000
831.909546	194.300000
831.944153	184.700000
831.978760	191.500000
832.013306	187.400000
832.047913	196.000000
832.082458	199.700000
832.117065	189.100000
832.151672	199.800000
832.186218	193.900000
832.220825	193.800000
832.255432	184.900000
832.289978	189.900000
832.324585	192.800000
832.359192	193.300000
832.393677	191.100000
832.428284	191.900000
832.462830	190.200000
832.497437	190.400000
832.531982	192.500000
832.566589	189.900000
832.601135	191.100000
832.635681	184.500000
832.670227	190.500000
832.704773	197.000000
832.739380	191.300000
832.773926	192.300000
832.808472	188.400000
832.843079	189.500000
832.877563	192.400000
832.912170	189.400000
832.946716	184.700000
832.981201	195.500000
833.015808	192.500000
833.050293	189.900000
833.084839	187.100000
833.119446	189.400000
833.153992	193.900000
833.188477	189.400000
833.223022	189.100000
833.257568	191.900000
833.292114	196.000000
833.326660	200.200000
833.361145	188.500000
833.395691	185.300000
833.430237	190.500000
833.464783	193.600000
833.499329	187.900000
833.533875	188.400000
833.568359	194.400000
833.602905	194.400000
833.637390	195.900000
833.671875	188.800000
833.706421	189.900000
833.740906	189.300000
833.775452	184.900000
833.809998	188.100000
833.844482	197.800000
833.879028	190.400000
833.913513	189.700000
833.947998	194.300000
833.982544	188.000000
834.017090	187.900000
834.051514	184.000000
834.086060	192.800000
834.120544	191.200000
834.155029	193.400000
834.189575	190.500000
834.223999	192.600000
834.258545	192.500000
834.293030	191.000000
834.327515	190.600000
834.362000	188.700000
834.396545	193.900000
834.430969	189.500000
834.465454	195.500000
834.500000	185.300000
834.534424	193.300000
834.568970	184.700000
834.603455	184.600000
834.637878	188.000000
834.672363	192.200000
834.706909	190.800000
834.741333	191.200000
834.775818	186.200000
834.810242	187.400000
834.844727	190.500000
834.879211	190.800000
834.913635	191.400000
834.948181	192.300000
834.982666	192.500000
835.017090	190.600000
835.051575	192.400000
835.086060	189.100000
835.120483	194.700000
835.154907	194.200000
835.189331	191.100000
835.223816	194.200000
835.258301	186.700000
835.292786	189.400000
835.327209	192.900000
835.361694	187.600000
835.396057	189.800000
835.430542	193.700000
835.465027	191.100000
835.499390	186.600000
835.533875	216.700000
835.568359	188.600000
835.602722	186.300000
835.637207	191.500000
835.671692	187.100000
835.706055	204.800000
835.740540	193.200000
835.774902	192.200000
835.809387	191.400000
835.843811	185.500000
835.878235	196.800000
835.912659	185.400000
835.947083	189.200000
835.981506	190.400000
836.015930	186.600000
836.050354	193.500000
836.084778	197.600000
836.119202	195.800000
836.153625	205.000000
836.187988	187.200000
836.222473	190.100000
836.256897	191.300000
836.291260	190.400000
836.325684	194.100000
836.360046	189.900000
836.394470	191.200000
836.428894	196.600000
836.463318	189.900000
836.497681	193.500000
836.532104	195.600000
836.566467	191.400000
836.600891	191.000000
836.635315	195.100000
836.669678	193.900000
836.704102	194.500000
836.738525	192.900000
836.772888	184.200000
836.807251	189.800000
836.841675	192.600000
836.876038	188.200000
836.910461	187.300000
836.944763	193.300000
836.979187	187.400000
837.013611	195.200000
837.047974	186.000000
837.082336	200.200000
837.116699	192.200000
837.151062	191.600000
837.185486	185.800000
837.219849	189.200000
837.254211	193.600000
837.288574	190.100000
837.322937	185.700000
837.357300	183.700000
837.391663	198.200000
837.426086	194.200000
837.460388	193.200000
837.494751	194.300000
837.529114	189.100000
837.563477	197.100000
837.597839	191.700000
837.632141	191.100000
837.666565	189.300000
837.700928	194.100000
837.735229	193.100000
837.769592	194.500000
837.803955	194.600000
837.838257	189.200000
837.872620	189.500000
837.906982	196.000000
837.941284	192.300000
837.975647	193.700000
838.010010	196.400000
838.044312	189.500000
838.078674	189.200000
838.112976	191.800000
838.147339	194.200000
838.181702	191.500000
838.216003	197.400000
838.250366	193.300000
838.284668	193.000000
838.318970	185.900000
838.353333	190.400000
838.387634	191.200000
838.421936	192.300000
838.456299	191.700000
838.490601	197.000000
838.524902	194.800000
838.559265	193.500000
838.593567	194.400000
838.627869	186.900000
838.662170	193.000000
838.696472	187.100000
838.730774	188.700000
838.765137	194.400000
838.799377	180.100000
838.833740	192.000000
838.868042	195.900000
838.902283	187.200000
838.936646	194.900000
838.970947	191.500000
839.005188	197.200000
839.039551	186.100000
839.073792	196.600000
839.108093	190.500000
839.142395	198.400000
839.176697	185.900000
839.210937	192.200000
839.245300	198.600000
839.279541	186.200000
839.313843	189.900000
839.348145	193.800000
839.382385	195.000000
839.416687	197.300000
839.450989	193.400000
839.485229	192.000000
839.519531	187.600000
839.553833	194.900000
839.588013	190.500000
839.622314	193.000000
839.656555	193.200000
839.690857	191.700000
839.725159	187.400000
839.759460	190.900000
839.793640	188.700000
839.827942	191.100000
839.862183	186.500000
839.896423	192.000000
839.930725	200.700000
839.964966	199.200000
839.999207	195.900000
840.033508	197.300000
840.067688	188.100000
840.101990	197.700000
840.136230	190.500000
840.170471	198.300000
840.204712	186.800000
840.238953	190.000000
840.273193	190.700000
840.307434	193.500000
840.341736	189.900000
840.375916	187.800000
840.410217	189.100000
840.444397	196.800000
840.478638	192.600000
840.512878	195.000000
840.547119	193.100000
840.581360	194.000000
840.615601	198.700000
840.649780	199.800000
840.684021	190.200000
840.718262	199.500000
840.752441	198.100000
840.786682	192.700000
840.820862	193.200000
840.855103	197.700000
840.889343	191.900000
840.923584	195.900000
840.957764	194.300000
840.992004	192.400000
841.026184	204.100000
841.060425	190.100000
841.094666	188.300000
841.128845	193.600000
841.163025	193.100000
841.197266	193.100000
841.231445	192.100000
841.265686	193.100000
841.299866	189.000000
841.334045	195.600000
841.368286	191.300000
841.402405	196.100000
841.436646	194.300000
841.470825	189.100000
841.505005	190.400000
841.539185	187.500000
841.573425	189.800000
841.607544	190.600000
841.641785	191.100000
841.675964	188.100000
841.710144	191.500000
841.744324	190.100000
841.778503	190.500000
841.812683	189.400000
841.846863	197.900000
841.881042	198.300000
841.915222	188.900000
841.949402	202.600000
841.983521	185.900000
842.017700	191.100000
842.051880	192.700000
842.086060	195.400000
842.120239	192.000000
842.154419	189.900000
842.188538	192.800000
842.222717	189.200000
842.256897	198.800000
842.291016	192.900000
842.325195	193.100000
842.359375	201.700000
842.393494	197.300000
842.427673	191.700000
842.461853	192.600000
842.495911	199.300000
842.530090	192.600000
842.564209	191.600000
842.598389	192.000000
842.632568	192.600000
842.666626	194.900000
842.700806	189.600000
842.734985	188.300000
842.769043	193.500000
842.803223	191.200000
842.837402	190.200000
842.871460	188.800000
842.905640	200.300000
842.939697	188.300000
842.973877	192.600000
843.007996	196.400000
843.042175	200.700000
843.076233	187.900000
843.110413	195.100000
843.144470	197.700000
843.178589	195.200000
843.212769	189.900000
843.246826	196.300000
843.280945	189.400000
843.315125	191.100000
843.349182	188.300000
843.383301	195.700000
843.417419	201.900000
843.451538	191.500000
843.485657	191.200000
843.519714	192.400000
843.553833	192.400000
843.587952	189.600000
843.622070	189.800000
843.656128	195.200000
843.690247	191.000000
843.724304	191.400000
843.758423	192.700000
843.792542	190.700000
843.826599	191.400000
843.860718	190.500000
843.894836	186.900000
843.928894	191.700000
843.963013	193.000000
843.997070	189.200000
844.031128	188.400000
844.065247	195.400000
844.099304	196.200000
844.133362	193.000000
844.167480	195.200000
844.201599	195.800000
844.235596	192.100000
844.269714	192.500000
844.303711	192.900000
844.337830	186.300000
844.371948	194.000000
844.405945	191.000000
844.440063	188.200000
844.474121	201.800000
844.508118	191.900000
844.542236	192.700000
844.576294	191.800000
844.610352	187.300000
844.644409	192.700000
844.678406	186.000000
844.712524	195.700000
844.746582	197.500000
844.780640	191.500000
844.814636	193.300000
844.848755	203.700000
844.882751	189.600000
844.916809	195.600000
844.950867	194.400000
844.984863	198.500000
845.018921	192.100000
845.052979	189.500000
845.086975	192.600000
845.121033	186.600000
845.155090	189.600000
845.189087	197.000000
845.223145	191.700000
845.257141	193.900000
845.291199	194.100000
845.325256	197.600000
845.359253	193.000000
845.393250	203.800000
845.427307	190.600000
845.461304	192.600000
845.495361	193.400000
845.529358	200.100000
845.563354	190.700000
845.597412	187.400000
845.631409	199.600000
845.665405	197.100000
845.699463	196.300000
845.733459	188.800000
845.767456	201.800000
845.801453	189.700000
845.835449	196.500000
845.869446	194.400000
845.903503	194.200000
845.937439	189.400000
845.971497	197.800000
846.005493	186.500000
846.039429	195.300000
846.073486	200.800000
846.107483	190.600000
846.141418	190.700000
846.175476	193.700000
846.209473	196.900000
846.243408	189.000000
846.277405	193.000000
846.311401	189.200000
846.345337	191.700000
846.379395	196.800000
846.413330	190.000000
846.447327	201.400000
846.481323	189.600000
846.515259	189.700000
846.549255	192.200000
846.583252	193.600000
846.617187	191.800000
846.651184	193.400000
846.685120	190.800000
846.719055	198.600000
846.753052	195.900000
846.786987	195.600000
846.820984	187.200000
846.854980	197.000000
846.888916	189.000000
846.922852	194.200000
846.956848	197.300000
846.990723	190.000000
847.024719	192.800000
847.058716	189.400000
847.092590	197.800000
847.126587	192.600000
847.160522	191.000000
847.194458	195.000000
847.228455	189.800000
847.262390	187.200000
847.296265	191.900000
847.330261	194.900000
847.364136	190.500000
847.398132	190.200000
847.432068	192.200000
847.466003	191.000000
847.499939	191.800000
847.533875	193.700000
847.567749	192.100000
847.601746	190.400000
847.635681	194.200000
847.669556	185.500000
847.703491	199.400000
847.737427	204.200000
847.771301	188.000000
847.805237	195.500000
847.839233	192.700000
847.873108	191.600000
847.907043	191.400000
847.940918	199.100000
847.974854	194.100000
848.008789	197.000000
848.042664	191.800000
848.076538	194.700000
848.110474	193.100000
848.144348	192.400000
848.178284	185.300000
848.212219	193.800000
848.246094	189.100000
848.279968	193.600000
848.313904	193.900000
848.347778	192.600000
848.381653	190.700000
848.415588	189.700000
848.449463	189.100000
848.483337	195.200000
848.517212	198.300000
848.551086	193.200000
848.585022	187.400000
848.618835	201.000000
848.652771	189.100000
848.686646	189.400000
848.720520	197.900000
848.754395	192.300000
848.788330	195.200000
848.822144	195.800000
848.856018	190.300000
848.889954	199.700000
848.923767	189.200000
848.957642	189.200000
848.991577	194.600000
849.025391	192.100000
849.059265	192.500000
849.093079	189.600000
849.126953	188.400000
849.160828	195.200000
849.194641	193.600000
849.228577	190.700000
849.262451	191.500000
849.296265	190.500000
849.330139	190.500000
849.364014	192.700000
849.397827	194.300000
849.431702	194.000000
849.465515	195.200000
849.499329	184.900000
849.533203	188.700000
849.567078	183.700000
849.600891	193.400000
849.634766	190.500000
849.668518	195.200000
849.702393	191.400000
849.736267	188.000000
849.770020	199.800000
849.803894	194.700000
849.837769	193.000000
849.871521	192.200000
849.905396	194.400000
849.939270	189.200000
849.973022	189.900000
850.006897	194.900000
850.040710	195.200000
850.074524	193.800000
850.108337	191.200000
850.142151	196.800000
850.175964	197.300000
850.209778	191.100000
850.243530	183.000000
850.277405	197.000000
850.311218	192.400000
850.344971	190.200000
850.378845	199.100000
850.412659	188.900000
850.446411	194.400000
850.480225	191.500000
850.514038	196.600000
850.547791	195.100000
850.581665	193.000000
850.615417	189.700000
850.649231	194.900000
850.683044	191.300000
850.716858	191.800000
850.750610	191.500000
850.784424	196.600000
850.818176	188.400000
850.851929	190.500000
850.885742	188.800000
850.919495	192.600000
850.953308	198.700000
850.987122	198.000000
851.020874	187.200000
851.054626	187.900000
851.088440	194.800000
851.122192	195.000000
851.156006	192.000000
851.189697	192.200000
851.223511	186.600000
851.257263	196.400000
851.291077	193.800000
851.324829	191.700000
851.358582	189.400000
851.392334	191.600000
851.426086	190.900000
851.459900	200.000000
851.493591	191.400000
851.527344	192.300000
851.561157	193.000000
851.594849	194.400000
851.628662	192.800000
851.662415	200.600000
851.696106	193.100000
851.729858	195.400000
851.763611	188.100000
851.797363	193.900000
851.831116	188.700000
851.864868	193.500000
851.898560	196.200000
851.932312	190.800000
851.966064	194.500000
851.999817	190.600000
852.033569	192.300000
852.067261	196.700000
852.101013	189.000000
852.134766	190.500000
852.168457	185.200000
852.202209	197.500000
852.235901	188.500000
852.269592	194.300000
852.303345	199.800000
852.337036	195.200000
852.370789	193.000000
852.404541	194.500000
852.438171	188.400000
852.471924	190.300000
852.505676	188.800000
852.539307	192.600000
852.573059	190.800000
852.606812	190.600000
852.640442	191.100000
852.674194	196.800000
852.707886	202.400000
852.741577	196.700000
852.775269	188.300000
852.809021	192.900000
852.842651	194.900000
852.876404	197.000000
852.910034	194.600000
852.943787	195.100000
852.977478	194.600000
853.011108	189.300000
853.044861	190.300000
853.078552	197.400000
853.112183	194.200000
853.145874	193.300000
853.179626	187.100000
853.213257	193.600000
853.246948	189.500000
853.280640	200.200000
853.314270	192.200000
853.347961	197.600000
853.381653	194.400000
853.415283	197.300000
853.448975	190.400000
853.482605	194.400000
853.516296	191.900000
853.549988	188.900000
853.583618	194.900000
853.617310	195.400000
853.651001	194.400000
853.684631	188.800000
853.718323	189.900000
853.751953	197.800000
853.785583	186.800000
853.819275	194.900000
853.852966	193.100000
853.886536	186.100000
853.920227	187.100000
853.953918	196.200000
853.987488	190.400000
854.021179	194.900000
854.054749	197.300000
854.088440	194.200000
854.122131	188.100000
854.155701	194.300000
854.189331	189.300000
854.223022	194.100000
854.256592	194.200000
854.290283	191.000000
854.323914	193.500000
854.357483	193.800000
854.391174	194.500000
854.424744	198.400000
854.458374	193.200000
854.492065	203.700000
854.525696	191.700000
854.559265	197.700000
854.592896	203.800000
854.626465	192.500000
854.660095	192.400000
854.693787	195.000000
854.727356	191.400000
854.760986	195.400000
854.794617	194.300000
854.828186	190.900000
854.861816	196.300000
854.895447	194.400000
854.929016	192.000000
854.962585	194.100000
854.996155	201.400000
855.029785	192.800000
855.063416	196.000000
855.097046	195.200000
855.130615	188.600000
855.164185	197.000000
855.197754	192.100000
855.231384	194.400000
855.264954	192.100000
855.298523	195.300000
855.332153	193.800000
855.365723	196.100000
855.399292	189.700000
855.432922	191.100000
855.466492	193.900000
855.500061	189.000000
855.533630	188.500000
855.567200	195.300000
855.600769	195.700000
855.634338	196.300000
855.667969	192.500000
855.701477	188.900000
855.735046	190.300000
855.768616	186.600000
855.802185	194.200000
855.835754	203.800000
855.869324	186.700000
855.902893	192.200000
855.936401	197.900000
855.969971	193.400000
856.003540	188.100000
856.037109	195.200000
856.070618	192.000000
856.104187	188.600000
856.137695	191.200000
856.171265	186.200000
856.204834	192.300000
856.238403	195.700000
856.271912	190.800000
856.305481	196.000000
856.338989	187.500000
856.372559	196.300000
856.406128	194.100000
856.439636	196.200000
856.473145	190.800000
856.506653	198.700000
856.540222	192.500000
856.573792	197.600000
856.607300	196.900000
856.640808	188.300000
856.674377	191.500000
856.707825	225.100000
856.741394	196.600000
856.774902	188.600000
856.808472	185.000000
856.841980	195.200000
856.875488	197.500000
856.908936	186.800000
856.942505	190.600000
856.976013	190.200000
857.009521	188.800000
857.043030	193.300000
857.076477	191.200000
857.110046	197.800000
857.143555	192.300000
857.177063	194.000000
857.210571	191.400000
857.244080	187.800000
857.277527	194.400000
857.311035	193.500000
857.344543	197.200000
857.378052	193.000000
857.411499	197.600000
857.445068	199.000000
857.478516	192.800000
857.512024	188.300000
857.545532	191.400000
857.578979	193.500000
857.612427	193.600000
857.645874	190.600000
857.679382	194.000000
857.712891	196.800000
857.746399	192.800000
857.779846	195.100000
857.813354	197.400000
857.846741	191.700000
857.880249	189.100000
857.913757	193.400000
857.947266	192.800000
857.980652	194.600000
858.014160	190.700000
858.047546	189.400000
858.081055	191.600000
858.114563	201.200000
858.147949	188.300000
858.181458	193.100000
858.214844	191.700000
858.248352	185.500000
858.281799	196.700000
858.315308	201.700000
858.348694	195.900000
858.382141	198.700000
858.415588	194.900000
858.449036	195.300000
858.482483	194.300000
858.515930	190.000000
858.549377	192.400000
858.582825	198.000000
858.616211	195.500000
858.649658	194.800000
858.683105	189.400000
858.716553	191.200000
858.750000	189.000000
858.783386	191.200000
858.816833	186.600000
858.850281	192.600000
858.883728	193.500000
858.917114	193.400000
858.950562	198.700000
858.983948	200.000000
859.017395	197.500000
859.050781	192.400000
859.084167	190.400000
859.117615	189.400000
859.151062	195.600000
859.184448	190.200000
859.217834	190.700000
859.251282	190.900000
859.284668	188.900000
859.318054	187.100000
859.351440	190.900000
859.384888	197.600000
859.418274	185.900000
859.451721	186.300000
859.485046	194.000000
859.518494	193.700000
859.551819	188.700000
859.585266	195.400000
859.618652	197.700000
859.652039	189.000000
859.685425	187.400000
859.718811	188.400000
859.752197	183.200000
859.785583	196.400000
859.819031	197.900000
859.852356	194.600000
859.885742	189.300000
859.919067	193.300000
859.952454	189.700000
859.985901	196.800000
860.019287	192.500000
860.052612	0.000000
860.085999	0.000000
860.119324	0.000000
860.152710	0.000000
860.186096	0.000000
860.219421	0.000000
860.252808	0.000000
860.286133	0.000000
860.319519	0.000000
860.352905	0.000000
860.386292	0.000000
860.419617	0.000000
860.452942	0.000000
860.486267	0.000000
860.519653	0.000000
860.553040	0.000000
860.586365	0.000000
860.619690	0.000000
860.653076	0.000000
860.686340	0.000000
860.719727	0.000000
860.753113	0.000000
860.786377	0.000000
860.819763	0.000000
860.853027	0.000000
860.886414	0.000000
860.919739	0.000000
860.953125	0.000000
860.986389	0.000000
861.019714	0.000000
861.053040	0.000000
861.086365	0.000000
861.119690	0.000000
861.153076	0.000000
861.186340	0.000000
861.219666	0.000000
861.252930	0.000000
861.286316	0.000000
861.319641	0.000000
861.352905	0.000000
861.386230	0.000000
861.419495	0.000000
861.452820	0.000000
861.486145	0.000000
861.519470	0.000000
861.552734	0.000000
861.586060	0.000000
861.619324	0.000000
861.652649	0.000000
861.685974	0.000000
861.719238	0.000000
861.752563	0.000000
861.785828	0.000000
861.819092	0.000000
861.852417	0.000000
861.885742	0.000000
861.918945	0.000000
861.952271	0.000000
861.985535	0.000000
862.018799	0.000000
862.052124	0.000000
862.085449	0.000000
862.118652	0.000000
862.151978	0.000000
862.185181	0.000000
862.218506	0.000000
862.251770	0.000000
862.285034	0.000000
862.318298	0.000000
862.351562	0.000000
862.384827	0.000000
862.418091	0.000000
862.451355	0.000000
862.484619	0.000000
862.517883	0.000000
862.551086	0.000000
862.584351	0.000000
862.617676	0.000000
862.650940	0.000000
862.684143	0.000000
862.717407	0.000000
862.750610	0.000000
862.783875	0.000000
862.817139	0.000000
862.850342	0.000000
862.883606	0.000000
862.916870	0.000000
862.950073	0.000000
862.983337	0.000000
863.016602	0.000000
863.049805	0.000000
863.083069	0.000000
863.116211	0.000000
863.149475	0.000000
863.182739	0.000000
863.216003	0.000000
863.249146	0.000000
863.282410	0.000000
863.315613	0.000000
863.348816	0.000000
863.382080	0.000000
863.415222	0.000000
863.448486	0.000000
863.481689	0.000000
863.514893	0.000000
863.548157	0.000000
863.581360	0.000000
863.614502	0.000000
863.647766	0.000000
863.680908	0.000000
863.714172	0.000000
863.747375	0.000000
863.780579	0.000000
863.813721	0.000000
863.846985	0.000000
863.880127	0.000000
863.913330	0.000000
863.946533	0.000000
863.979675	0.000000
864.012939	0.000000
