Model Number: SPM-001-M   
Serial Number: 10090201
Firmware Version: 004.17.6
Exposure Time: 300000.000000us
Data Taken on: 21-01-2021 14:28:42.477
Wavelength	Amplitude
733.770752	0.000000
733.808716	0.000000
733.846619	0.000000
733.884583	0.000000
733.922546	0.000000
733.960449	0.000000
733.998413	0.000000
734.036377	0.000000
734.074219	0.000000
734.112183	0.000000
734.150085	0.000000
734.188049	0.000000
734.226013	0.000000
734.263916	0.000000
734.301819	0.000000
734.339783	0.000000
734.377686	0.000000
734.415588	0.000000
734.453552	0.000000
734.491455	0.000000
734.529419	0.000000
734.567322	0.000000
734.605225	0.000000
734.643127	0.000000
734.681091	0.000000
734.718994	0.000000
734.756897	0.000000
734.794800	0.000000
734.832703	0.000000
734.870667	0.000000
734.908508	0.000000
734.946472	0.000000
734.984375	0.000000
735.022278	0.000000
735.060181	0.000000
735.098083	0.000000
735.135986	0.000000
735.173889	0.000000
735.211792	0.000000
735.249695	0.000000
735.287598	0.000000
735.325439	0.000000
735.363403	0.000000
735.401306	0.000000
735.439148	0.000000
735.477051	0.000000
735.515015	0.000000
735.552856	0.000000
735.590759	0.000000
735.628662	0.000000
735.666504	0.000000
735.704407	0.000000
735.742310	0.000000
735.780212	0.000000
735.818115	0.000000
735.856018	0.000000
735.893860	0.000000
735.931763	0.000000
735.969604	0.000000
736.007507	0.000000
736.045410	0.000000
736.083252	0.000000
736.121094	0.000000
736.158997	0.000000
736.196838	0.000000
736.234741	0.000000
736.272644	0.000000
736.310486	0.000000
736.348389	0.000000
736.386230	0.000000
736.424072	0.000000
736.461975	0.000000
736.499878	0.000000
736.537720	0.000000
736.575562	0.000000
736.613403	0.000000
736.651306	0.000000
736.689148	0.000000
736.726990	0.000000
736.764893	0.000000
736.802734	0.000000
736.840576	0.000000
736.878418	0.000000
736.916321	0.000000
736.954102	0.000000
736.992004	0.000000
737.029846	0.000000
737.067688	0.000000
737.105530	0.000000
737.143372	0.000000
737.181213	0.000000
737.219116	0.000000
737.256897	0.000000
737.294739	0.000000
737.332642	0.000000
737.370422	0.000000
737.408325	0.000000
737.446167	0.000000
737.483948	0.000000
737.521790	0.000000
737.559692	0.000000
737.597473	0.000000
737.635315	0.000000
737.673157	0.000000
737.710999	0.000000
737.748840	0.000000
737.786621	0.000000
737.824463	0.000000
737.862305	0.000000
737.900085	0.000000
737.937927	0.000000
737.975769	0.000000
738.013550	0.000000
738.051392	0.000000
738.089233	0.000000
738.127014	0.000000
738.164856	0.000000
738.202698	0.000000
738.240479	0.000000
738.278320	0.000000
738.316162	0.000000
738.353943	0.000000
738.391785	0.000000
738.429565	0.000000
738.467407	0.000000
738.505188	0.000000
738.542969	0.000000
738.580811	0.000000
738.618652	0.000000
738.656372	0.000000
738.694214	0.000000
738.732056	0.000000
738.769836	0.000000
738.807617	0.000000
738.845459	0.000000
738.883240	0.000000
738.921021	0.000000
738.958862	0.000000
738.996582	0.000000
739.034424	0.000000
739.072205	0.000000
739.109985	0.000000
739.147827	0.000000
739.185547	0.000000
739.223389	0.000000
739.261169	0.000000
739.298889	0.000000
739.336731	0.000000
739.374512	0.000000
739.412292	0.000000
739.450073	0.000000
739.487854	0.000000
739.525635	0.000000
739.563416	0.000000
739.601135	0.000000
739.638977	0.000000
739.676758	0.000000
739.714478	0.000000
739.752258	0.000000
739.790100	0.000000
739.827820	0.000000
739.865601	0.000000
739.903381	0.000000
739.941101	0.000000
739.978882	194.300000
740.016724	190.000000
740.054443	194.800000
740.092224	189.500000
740.130005	188.100000
740.167725	189.200000
740.205505	189.500000
740.243225	196.600000
740.281006	192.100000
740.318787	187.100000
740.356506	196.700000
740.394287	194.900000
740.432068	189.300000
740.469727	188.000000
740.507507	194.100000
740.545288	193.100000
740.583008	193.900000
740.620789	191.800000
740.658569	186.500000
740.696228	191.200000
740.734009	194.200000
740.771790	184.200000
740.809509	196.200000
740.847229	187.800000
740.884949	190.600000
740.922729	187.300000
740.960449	190.000000
740.998169	188.600000
741.035950	190.100000
741.073669	192.600000
741.111389	193.000000
741.149170	198.800000
741.186890	198.600000
741.224609	194.800000
741.262329	192.900000
741.300110	199.900000
741.337769	187.900000
741.375549	187.400000
741.413208	192.600000
741.450989	189.300000
741.488708	188.600000
741.526367	190.500000
741.564148	194.800000
741.601868	194.300000
741.639526	190.700000
741.677307	192.300000
741.715027	193.600000
741.752686	188.800000
741.790466	198.000000
741.828186	193.400000
741.865845	187.300000
741.903564	186.300000
741.941345	192.500000
741.979004	188.800000
742.016724	195.200000
742.054382	191.800000
742.092102	194.200000
742.129822	185.700000
742.167480	190.000000
742.205200	190.500000
742.242920	194.400000
742.280640	194.600000
742.318359	188.300000
742.356079	189.600000
742.393738	193.800000
742.431396	190.200000
742.469116	195.600000
742.506775	185.700000
742.544495	193.000000
742.582214	195.700000
742.619873	191.400000
742.657593	195.300000
742.695251	194.600000
742.732971	192.100000
742.770630	192.100000
742.808289	192.000000
742.846008	191.400000
742.883728	191.500000
742.921326	191.800000
742.959045	190.500000
742.996765	191.200000
743.034424	191.900000
743.072083	189.800000
743.109802	192.300000
743.147400	188.100000
743.185120	193.400000
743.222839	189.500000
743.260437	197.800000
743.298157	192.500000
743.335754	186.200000
743.373474	189.900000
743.411133	186.700000
743.448792	191.400000
743.486450	193.400000
743.524170	186.200000
743.561768	192.300000
743.599487	195.900000
743.637146	199.500000
743.674744	189.600000
743.712463	190.400000
743.750122	192.000000
743.787720	193.300000
743.825439	189.200000
743.863037	190.100000
743.900696	190.400000
743.938416	217.200000
743.976013	192.500000
744.013672	197.800000
744.051331	194.800000
744.088928	198.600000
744.126587	195.000000
744.164307	193.200000
744.201904	189.300000
744.239563	194.200000
744.277222	193.500000
744.314819	192.400000
744.352478	197.100000
744.390137	192.700000
744.427734	194.300000
744.465393	189.700000
744.502991	188.800000
744.540649	193.900000
744.578308	191.200000
744.615906	187.900000
744.653564	184.100000
744.691223	194.000000
744.728821	186.900000
744.766418	190.200000
744.804077	193.900000
744.841675	190.000000
744.879333	188.000000
744.916992	191.200000
744.954529	191.100000
744.992187	195.500000
745.029785	192.600000
745.067444	189.600000
745.105042	192.800000
745.142639	192.900000
745.180298	199.600000
745.217896	191.000000
745.255493	190.600000
745.293152	195.500000
745.330750	195.700000
745.368347	196.700000
745.405945	195.300000
745.443604	192.400000
745.481140	193.800000
745.518799	191.700000
745.556396	194.600000
745.593994	192.800000
745.631592	193.600000
745.669189	188.200000
745.706787	192.200000
745.744385	189.800000
745.781982	194.300000
745.819580	190.000000
745.857178	192.500000
745.894775	191.900000
745.932373	192.900000
745.969971	193.400000
746.007568	184.100000
746.045166	199.100000
746.082764	196.500000
746.120300	193.900000
746.157898	194.200000
746.195557	191.200000
746.233093	186.800000
746.270691	194.200000
746.308228	194.300000
746.345825	195.500000
746.383423	193.900000
746.420959	188.900000
746.458557	190.400000
746.496155	188.400000
746.533691	192.400000
746.571289	188.400000
746.608887	190.700000
746.646423	192.800000
746.684021	192.300000
746.721619	189.000000
746.759155	194.100000
746.796753	186.000000
746.834351	186.900000
746.871826	189.500000
746.909424	197.100000
746.946960	192.700000
746.984558	191.400000
747.022156	189.900000
747.059631	197.900000
747.097229	195.100000
747.134827	189.800000
747.172363	196.700000
747.209900	193.900000
747.247498	189.700000
747.285034	197.000000
747.322571	197.600000
747.360168	190.700000
747.397644	187.200000
747.435242	195.200000
747.472778	195.900000
747.510315	190.900000
747.547913	191.400000
747.585388	196.800000
747.622925	191.100000
747.660522	185.600000
747.697998	189.800000
747.735596	190.200000
747.773132	189.600000
747.810669	193.200000
747.848206	194.500000
747.885742	187.900000
747.923279	187.300000
747.960815	193.000000
747.998352	192.700000
748.035889	195.600000
748.073425	194.200000
748.110901	189.300000
748.148437	187.700000
748.185974	192.100000
748.223511	199.100000
748.261047	194.800000
748.298584	191.800000
748.336060	191.300000
748.373596	193.900000
748.411133	217.900000
748.448608	189.600000
748.486145	194.700000
748.523682	196.700000
748.561218	199.500000
748.598755	193.400000
748.636292	194.600000
748.673706	190.800000
748.711243	199.400000
748.748718	194.000000
748.786255	193.300000
748.823792	191.300000
748.861267	189.300000
748.898804	195.000000
748.936340	193.400000
748.973816	190.500000
749.011292	198.200000
749.048828	193.500000
749.086304	194.200000
749.123840	200.200000
749.161316	188.500000
749.198792	197.800000
749.236328	195.600000
749.273743	191.000000
749.311279	190.700000
749.348816	194.500000
749.386230	192.100000
749.423767	182.500000
749.461304	194.500000
749.498718	193.600000
749.536255	196.100000
749.573730	200.900000
749.611206	197.600000
749.648682	191.400000
749.686218	192.100000
749.723633	194.700000
749.761169	192.200000
749.798645	190.300000
749.836060	190.000000
749.873596	189.300000
749.911011	194.000000
749.948547	196.700000
749.986023	191.900000
750.023437	192.000000
750.060913	187.000000
750.098450	186.200000
750.135864	191.100000
750.173340	192.800000
750.210815	196.200000
750.248291	189.400000
750.285767	191.700000
750.323242	195.700000
750.360657	194.600000
750.398132	189.500000
750.435608	194.400000
750.473022	189.200000
750.510498	188.700000
750.547974	187.400000
750.585449	190.300000
750.622925	184.100000
750.660339	203.000000
750.697815	194.000000
750.735291	191.900000
750.772644	191.600000
750.810120	191.500000
750.847595	193.200000
750.885010	190.100000
750.922485	198.700000
750.959961	191.600000
750.997375	199.400000
751.034851	195.900000
751.072266	194.600000
751.109680	186.700000
751.147156	196.700000
751.184570	193.200000
751.221985	192.000000
751.259460	186.700000
751.296875	192.600000
751.334290	192.700000
751.371765	195.100000
751.409180	194.900000
751.446594	197.500000
751.484070	194.000000
751.521423	193.400000
751.558899	193.100000
751.596375	200.000000
751.633728	197.300000
751.671204	200.500000
751.708618	189.600000
751.746033	193.700000
751.783447	188.300000
751.820801	190.100000
751.858276	195.000000
751.895691	190.700000
751.933105	190.300000
751.970520	188.200000
752.007935	191.800000
752.045349	196.100000
752.082764	191.400000
752.120178	190.000000
752.157532	190.400000
752.195007	191.300000
752.232422	193.800000
752.269775	195.600000
752.307190	194.100000
752.344543	187.900000
752.382019	191.500000
752.419434	189.700000
752.456787	194.100000
752.494202	195.400000
752.531616	192.400000
752.568970	192.800000
752.606384	193.600000
752.643799	193.900000
752.681152	198.700000
752.718567	195.400000
752.755981	186.100000
752.793335	194.800000
752.830750	186.100000
752.868164	196.800000
752.905518	187.500000
752.942932	195.800000
752.980225	188.100000
753.017639	194.800000
753.055054	195.100000
753.092407	193.100000
753.129822	195.000000
753.167175	199.200000
753.204529	191.600000
753.241943	188.300000
753.279358	189.200000
753.316650	193.800000
753.354065	193.200000
753.391479	195.900000
753.428772	198.200000
753.466187	193.100000
753.503479	189.000000
753.540894	192.000000
753.578308	187.800000
753.615601	187.100000
753.653015	191.200000
753.690369	190.800000
753.727722	189.500000
753.765076	187.300000
753.802490	188.400000
753.839783	185.600000
753.877136	189.800000
753.914551	201.800000
753.951843	188.800000
753.989258	193.500000
754.026611	192.900000
754.063904	194.600000
754.101257	189.900000
754.138611	186.500000
754.175964	192.800000
754.213318	200.100000
754.250610	186.300000
754.288025	189.300000
754.325378	187.100000
754.362671	195.500000
754.400024	192.200000
754.437378	200.500000
754.474670	197.800000
754.512085	188.500000
754.549438	191.500000
754.586731	188.600000
754.624084	192.300000
754.661438	189.500000
754.698730	198.700000
754.736084	191.800000
754.773376	191.300000
754.810730	192.600000
754.848083	191.600000
754.885315	194.900000
754.922668	186.100000
754.960022	189.200000
754.997314	195.500000
755.034668	191.700000
755.072021	192.400000
755.109253	189.700000
755.146606	196.800000
755.183960	190.600000
755.221252	196.800000
755.258545	195.400000
755.295898	198.000000
755.333191	198.200000
755.370544	194.800000
755.407776	191.000000
755.445129	193.100000
755.482422	195.400000
755.519714	190.700000
755.557068	187.900000
755.594360	186.700000
755.631653	196.200000
755.668945	198.400000
755.706299	193.800000
755.743530	201.000000
755.780884	199.300000
755.818176	197.300000
755.855408	196.800000
755.892761	194.500000
755.930054	193.900000
755.967346	194.900000
756.004639	193.200000
756.041870	193.300000
756.079224	197.800000
756.116516	191.500000
756.153748	197.000000
756.191040	201.700000
756.228394	195.700000
756.265625	191.300000
756.302917	193.400000
756.340210	192.300000
756.377441	197.800000
756.414795	201.100000
756.452087	194.100000
756.489319	188.500000
756.526611	196.400000
756.563843	194.400000
756.601135	201.000000
756.638428	201.700000
756.675659	193.600000
756.712952	197.700000
756.750244	196.800000
756.787476	196.000000
756.824768	199.800000
756.862061	194.100000
756.899292	241.800000
756.936584	198.700000
756.973816	203.200000
757.011047	202.900000
757.048340	195.700000
757.085632	196.700000
757.122864	210.000000
757.160156	194.500000
757.197327	196.900000
757.234619	198.900000
757.271912	193.900000
757.309082	199.600000
757.346375	193.300000
757.383667	201.000000
757.420837	196.300000
757.458130	197.800000
757.495422	194.400000
757.532593	197.700000
757.569885	192.500000
757.607117	193.600000
757.644348	198.100000
757.681580	207.900000
757.718811	187.000000
757.756042	196.700000
757.793335	194.800000
757.830505	199.100000
757.867798	194.200000
757.905029	194.400000
757.942200	197.000000
757.979492	195.600000
758.016724	195.400000
758.053894	196.000000
758.091187	209.700000
758.128418	197.300000
758.165588	196.000000
758.202820	208.000000
758.240112	198.900000
758.277283	205.000000
758.314514	200.100000
758.351685	195.600000
758.388916	204.000000
758.426147	203.500000
758.463379	206.000000
758.500610	200.400000
758.537842	198.900000
758.575012	203.700000
758.612244	195.800000
758.649475	208.300000
758.686646	193.800000
758.723877	205.900000
758.761108	205.700000
758.798279	200.100000
758.835510	201.300000
758.872742	205.500000
758.909851	201.500000
758.947083	201.400000
758.984253	201.000000
759.021484	204.100000
759.058716	202.800000
759.095886	204.800000
759.133057	199.900000
759.170288	202.300000
759.207458	198.800000
759.244690	209.000000
759.281860	207.100000
759.319031	201.300000
759.356262	199.000000
759.393433	199.600000
759.430603	202.100000
759.467773	200.300000
759.505005	206.100000
759.542175	206.100000
759.579346	200.500000
759.616516	201.400000
759.653687	205.900000
759.690918	200.300000
759.728027	204.300000
759.765259	204.600000
759.802429	206.300000
759.839539	204.200000
759.876770	207.800000
759.913940	210.800000
759.951111	205.400000
759.988281	204.700000
760.025452	202.100000
760.062561	202.000000
760.099792	211.600000
760.136963	207.800000
760.174072	203.100000
760.211243	202.200000
760.248413	201.500000
760.285583	202.300000
760.322754	214.700000
760.359863	211.100000
760.397034	211.100000
760.434204	205.000000
760.471375	206.300000
760.508545	204.000000
760.545715	205.700000
760.582825	202.000000
760.619995	208.700000
760.657166	201.800000
760.694275	210.600000
760.731445	206.500000
760.768555	207.700000
760.805664	209.700000
760.842834	207.600000
760.879944	210.000000
760.917114	208.000000
760.954285	208.700000
760.991394	201.600000
761.028564	212.100000
761.065674	208.600000
761.102783	205.500000
761.139954	211.400000
761.177124	210.900000
761.214172	214.200000
761.251343	207.000000
761.288452	209.800000
761.325562	211.600000
761.362732	207.100000
761.399841	207.900000
761.436951	209.000000
761.474121	205.500000
761.511169	209.600000
761.548340	212.900000
761.585449	212.800000
761.622559	212.200000
761.659668	210.800000
761.696838	214.500000
761.733887	213.100000
761.771057	210.000000
761.808167	209.700000
761.845276	213.300000
761.882385	220.600000
761.919434	212.600000
761.956604	224.600000
761.993713	208.400000
762.030762	216.600000
762.067871	212.800000
762.105042	212.100000
762.142090	217.800000
762.179199	213.300000
762.216309	216.200000
762.253418	224.400000
762.290527	220.600000
762.327637	218.100000
762.364685	208.600000
762.401794	217.300000
762.438904	216.900000
762.475952	212.200000
762.513062	211.000000
762.550110	211.600000
762.587219	223.200000
762.624329	222.400000
762.661377	217.700000
762.698486	217.500000
762.735596	217.100000
762.772644	211.600000
762.809753	210.100000
762.846863	214.900000
762.883911	219.200000
762.921021	219.000000
762.958069	216.700000
762.995117	221.400000
763.032227	222.600000
763.069336	216.700000
763.106323	214.800000
763.143433	213.700000
763.180481	219.800000
763.217590	220.100000
763.254639	216.500000
763.291687	217.300000
763.328735	225.100000
763.365845	218.000000
763.402893	217.500000
763.439941	221.400000
763.477051	222.800000
763.514038	223.500000
763.551147	219.500000
763.588196	221.700000
763.625244	219.700000
763.662292	224.900000
763.699402	226.800000
763.736389	223.300000
763.773499	230.500000
763.810486	226.900000
763.847534	224.000000
763.884644	225.300000
763.921631	223.300000
763.958679	230.100000
763.995728	225.100000
764.032776	230.700000
764.069824	220.900000
764.106873	229.000000
764.143860	233.200000
764.180969	225.300000
764.218018	232.800000
764.255005	225.400000
764.292053	228.900000
764.329102	234.000000
764.366089	234.700000
764.403137	232.500000
764.440125	228.000000
764.477173	229.200000
764.514221	232.200000
764.551208	230.300000
764.588257	226.300000
764.625305	234.200000
764.662292	238.800000
764.699341	240.200000
764.736389	234.800000
764.773376	245.700000
764.810425	235.900000
764.847473	241.400000
764.884399	239.400000
764.921448	243.600000
764.958435	242.100000
764.995483	236.300000
765.032532	248.200000
765.069458	239.300000
765.106506	239.600000
765.143555	235.600000
765.180481	240.000000
765.217529	248.800000
765.254578	235.100000
765.291504	242.600000
765.328552	241.700000
765.365540	238.900000
765.402527	250.900000
765.439575	239.100000
765.476501	237.700000
765.513550	236.600000
765.550537	241.700000
765.587463	247.600000
765.624512	241.000000
765.661499	235.800000
765.698486	248.700000
765.735474	241.200000
765.772461	241.200000
765.809448	250.900000
765.846436	247.500000
765.883423	252.200000
765.920410	245.500000
765.957397	243.900000
765.994385	248.400000
766.031311	254.700000
766.068359	248.400000
766.105286	250.100000
766.142273	254.800000
766.179260	250.300000
766.216187	246.600000
766.253174	243.100000
766.290161	249.900000
766.327148	252.600000
766.364136	253.700000
766.401123	263.100000
766.438049	250.200000
766.475037	258.800000
766.512024	255.400000
766.548950	267.900000
766.585937	261.800000
766.622864	258.400000
766.659790	257.500000
766.696777	250.300000
766.733704	260.900000
766.770691	252.300000
766.807678	263.000000
766.844604	257.700000
766.881531	261.000000
766.918518	262.600000
766.955444	264.700000
766.992432	260.000000
767.029358	262.900000
767.066284	262.800000
767.103271	262.800000
767.140198	295.900000
767.177124	273.400000
767.214050	266.600000
767.251038	266.900000
767.287964	264.600000
767.324890	264.400000
767.361816	266.600000
767.398743	270.100000
767.435730	265.400000
767.472595	268.900000
767.509583	271.800000
767.546509	262.400000
767.583374	269.100000
767.620361	264.100000
767.657288	269.000000
767.694214	267.000000
767.731140	269.100000
767.768066	268.100000
767.804993	270.900000
767.841919	264.400000
767.878845	269.300000
767.915710	275.800000
767.952698	271.600000
767.989563	274.300000
768.026489	273.600000
768.063416	268.700000
768.100281	265.500000
768.137207	278.200000
768.174133	275.600000
768.211060	277.500000
768.247986	275.000000
768.284912	274.200000
768.321777	276.200000
768.358704	272.400000
768.395630	275.100000
768.432495	272.800000
768.469421	277.200000
768.506348	279.000000
768.543152	284.400000
768.580078	281.400000
768.616943	283.300000
768.653870	282.900000
768.690796	283.900000
768.727661	281.200000
768.764587	283.400000
768.801453	278.500000
768.838318	288.100000
768.875244	283.400000
768.912109	288.400000
768.948975	282.200000
768.985901	283.000000
769.022766	281.500000
769.059631	289.000000
769.096558	285.100000
769.133362	283.700000
769.170288	287.400000
769.207214	287.200000
769.244019	289.200000
769.280945	287.400000
769.317810	296.500000
769.354675	290.700000
769.391541	297.000000
769.428406	294.400000
769.465271	301.200000
769.502136	292.300000
769.539062	297.700000
769.575867	297.100000
769.612732	297.100000
769.649597	301.500000
769.686462	302.700000
769.723328	299.700000
769.760193	298.400000
769.797058	301.100000
769.833923	306.600000
769.870728	302.000000
769.907593	304.300000
769.944519	303.700000
769.981323	307.900000
770.018188	309.100000
770.055054	306.700000
770.091858	308.700000
770.128723	315.400000
770.165588	319.500000
770.202393	311.300000
770.239258	318.900000
770.276062	316.000000
770.312927	313.600000
770.349792	321.200000
770.386597	320.600000
770.423462	326.500000
770.460327	334.200000
770.497131	322.500000
770.533997	317.100000
770.570862	329.800000
770.607605	329.100000
770.644470	329.800000
770.681335	331.200000
770.718140	327.200000
770.754944	324.600000
770.791809	324.300000
770.828613	326.600000
770.865479	329.900000
770.902222	336.900000
770.939087	329.600000
770.975952	324.000000
771.012695	329.000000
771.049561	339.300000
771.086365	329.800000
771.123169	331.000000
771.159973	334.000000
771.196838	335.700000
771.233582	337.900000
771.270447	337.000000
771.307251	340.900000
771.344055	337.500000
771.380859	339.700000
771.417664	336.200000
771.454468	344.300000
771.491272	343.700000
771.528076	344.300000
771.564880	342.200000
771.601685	346.900000
771.638428	342.200000
771.675293	347.700000
771.712097	338.900000
771.748840	356.200000
771.785645	348.200000
771.822449	349.300000
771.859253	352.100000
771.896057	351.800000
771.932861	359.700000
771.969604	352.700000
772.006409	346.500000
772.043213	355.500000
772.079956	356.200000
772.116760	351.500000
772.153503	350.900000
772.190308	362.300000
772.227112	356.400000
772.263855	353.200000
772.300659	358.400000
772.337463	362.600000
772.374207	354.600000
772.411011	352.700000
772.447754	355.300000
772.484497	367.700000
772.521301	365.300000
772.558105	364.500000
772.594849	364.600000
772.631592	366.300000
772.668396	365.700000
772.705139	370.000000
772.741882	365.800000
772.778625	372.100000
772.815430	375.700000
772.852173	372.600000
772.888916	378.300000
772.925720	379.100000
772.962463	383.500000
772.999207	377.700000
773.035950	382.300000
773.072754	383.000000
773.109436	381.100000
773.146240	381.800000
773.182922	378.600000
773.219727	384.500000
773.256470	382.500000
773.293152	375.400000
773.329956	379.200000
773.366699	384.700000
773.403381	377.300000
773.440186	384.000000
773.476929	386.700000
773.513611	380.400000
773.550354	379.500000
773.587158	382.100000
773.623840	378.500000
773.660583	385.800000
773.697327	394.100000
773.734009	388.300000
773.770813	386.800000
773.807495	385.600000
773.844238	385.400000
773.880981	397.300000
773.917664	392.800000
773.954407	396.800000
773.991150	392.100000
774.027832	399.300000
774.064575	389.300000
774.101318	392.600000
774.138000	401.700000
774.174744	397.100000
774.211487	399.600000
774.248108	390.200000
774.284851	389.700000
774.321594	395.900000
774.358276	399.000000
774.395020	407.100000
774.431702	402.500000
774.468384	399.500000
774.505127	397.400000
774.541809	403.300000
774.578491	408.400000
774.615234	410.900000
774.651917	401.100000
774.688599	406.200000
774.725342	412.900000
774.762024	406.700000
774.798706	416.700000
774.835449	415.500000
774.872070	423.900000
774.908813	419.800000
774.945496	415.700000
774.982178	416.600000
775.018860	420.500000
775.055542	423.400000
775.092224	424.600000
775.128967	427.100000
775.165588	427.300000
775.202271	422.200000
775.239014	431.400000
775.275635	432.700000
775.312317	434.700000
775.349060	436.600000
775.385681	438.000000
775.422363	429.200000
775.459045	437.100000
775.495667	440.600000
775.532410	440.100000
775.569092	441.100000
775.605713	440.800000
775.642395	439.100000
775.679016	441.400000
775.715698	441.700000
775.752380	445.700000
775.789001	440.100000
775.825684	444.400000
775.862366	448.000000
775.898987	457.000000
775.935669	450.800000
775.972351	468.100000
776.008972	464.500000
776.045654	465.000000
776.082336	461.500000
776.118958	460.900000
776.155640	462.900000
776.192322	467.700000
776.228882	473.700000
776.265564	471.700000
776.302185	472.400000
776.338867	476.800000
776.375488	469.600000
776.412109	479.800000
776.448792	482.400000
776.485413	488.200000
776.522034	479.600000
776.558716	477.900000
776.595337	481.600000
776.631958	481.500000
776.668579	485.300000
776.705261	490.000000
776.741882	491.500000
776.778503	489.800000
776.815186	490.600000
776.851746	496.300000
776.888367	493.200000
776.924988	499.900000
776.961609	491.600000
776.998291	496.100000
777.034851	489.500000
777.071472	495.000000
777.108154	496.100000
777.144714	510.100000
777.181335	501.000000
777.218018	497.000000
777.254578	510.100000
777.291199	505.800000
777.327759	509.100000
777.364380	515.700000
777.401062	522.000000
777.437622	533.000000
777.474243	520.400000
777.510864	525.500000
777.547424	520.800000
777.584045	527.200000
777.620667	526.600000
777.657227	524.300000
777.693848	523.000000
777.730469	535.500000
777.767029	532.400000
777.803650	533.300000
777.840271	527.600000
777.876831	531.600000
777.913452	538.100000
777.950012	524.800000
777.986633	524.900000
778.023193	525.500000
778.059753	522.000000
778.096375	528.100000
778.132996	541.200000
778.169556	535.100000
778.206116	532.000000
778.242737	528.000000
778.279297	536.300000
778.315857	525.300000
778.352478	534.300000
778.389038	542.800000
778.425598	539.300000
778.462219	543.700000
778.498718	542.700000
778.535339	546.900000
778.571838	546.600000
778.608459	550.500000
778.645020	542.700000
778.681580	550.600000
778.718140	551.800000
778.754761	546.800000
778.791260	548.600000
778.827881	555.400000
778.864441	555.700000
778.900940	567.800000
778.937561	564.200000
778.974121	559.700000
779.010620	553.100000
779.047241	556.800000
779.083801	562.900000
779.120300	561.700000
779.156860	565.500000
779.193359	565.400000
779.229980	569.000000
779.266541	569.600000
779.303040	572.000000
779.339600	570.900000
779.376160	559.800000
779.412659	562.900000
779.449219	560.800000
779.485779	565.600000
779.522278	566.000000
779.558838	574.800000
779.595398	568.200000
779.631897	569.600000
779.668457	567.200000
779.705017	571.600000
779.741516	561.300000
779.778076	561.000000
779.814575	562.300000
779.851074	572.300000
779.887634	571.100000
779.924133	576.300000
779.960693	566.600000
779.997253	569.600000
780.033691	576.300000
780.070251	578.000000
780.106812	586.200000
780.143250	580.000000
780.179810	573.800000
780.216370	577.000000
780.252808	583.000000
780.289368	592.200000
780.325867	594.900000
780.362366	589.000000
780.398865	597.500000
780.435364	589.400000
780.471863	602.700000
780.508423	595.700000
780.544861	602.600000
780.581421	603.300000
780.617920	600.600000
780.654419	597.500000
780.690918	597.500000
780.727417	597.500000
780.763916	605.100000
780.800415	605.400000
780.836914	597.400000
780.873352	611.300000
780.909912	600.900000
780.946411	603.000000
780.982849	607.600000
781.019348	618.300000
781.055786	621.800000
781.092346	613.700000
781.128845	617.400000
781.165283	624.600000
781.201782	628.900000
781.238281	630.600000
781.274719	633.800000
781.311218	627.900000
781.347717	638.200000
781.384155	630.300000
781.420654	630.700000
781.457092	639.200000
781.493591	626.500000
781.530090	630.000000
781.566528	632.700000
781.602966	631.800000
781.639465	630.900000
781.675903	630.600000
781.712402	634.000000
781.748901	639.500000
781.785278	632.900000
781.821777	637.100000
781.858276	635.300000
781.894714	639.300000
781.931152	621.000000
781.967651	589.900000
782.004089	519.200000
782.040527	451.500000
782.076965	389.200000
782.113403	341.100000
782.149902	310.700000
782.186340	285.200000
782.222778	286.300000
782.259277	301.200000
782.295654	356.200000
782.332092	407.900000
782.368591	430.700000
782.404968	400.900000
782.441467	354.100000
782.477905	297.800000
782.514282	259.100000
782.550781	251.200000
782.587219	242.400000
782.623596	245.900000
782.660095	254.500000
782.696472	280.500000
782.732910	304.800000
782.769348	311.100000
782.805786	313.200000
782.842224	285.700000
782.878662	260.800000
782.915039	250.700000
782.951477	254.000000
782.987915	250.100000
783.024292	261.600000
783.060730	284.400000
783.097168	332.300000
783.133545	413.300000
783.169983	513.400000
783.206421	597.300000
783.242798	654.100000
783.279236	678.000000
783.315613	687.700000
783.352051	685.800000
783.388489	689.300000
783.424866	682.500000
783.461304	689.200000
783.497681	698.800000
783.534058	699.000000
783.570496	695.700000
783.606934	692.200000
783.643250	696.300000
783.679687	699.800000
783.716125	696.900000
783.752441	711.400000
783.788879	734.800000
783.825317	744.200000
783.861633	739.100000
783.898071	741.800000
783.934448	753.600000
783.970825	757.300000
784.007263	766.300000
784.043579	776.300000
784.080017	775.100000
784.116394	773.200000
784.152710	780.800000
784.189148	779.200000
784.225525	777.800000
784.261902	772.700000
784.298279	770.400000
784.334656	770.600000
784.371033	749.900000
784.407410	744.900000
784.443787	740.800000
784.480164	734.900000
784.516541	720.500000
784.552856	726.000000
784.589233	724.500000
784.625610	717.100000
784.661987	743.100000
784.698364	742.100000
784.734741	729.300000
784.771057	734.200000
784.807434	738.100000
784.843811	749.500000
784.880127	745.700000
784.916504	771.400000
784.952881	774.700000
784.989197	770.100000
785.025574	770.400000
785.061951	777.100000
785.098267	792.800000
785.134644	799.200000
785.170959	793.700000
785.207275	796.500000
785.243652	800.100000
785.279968	780.800000
785.316345	781.100000
785.352722	780.200000
785.388977	778.900000
785.425354	760.100000
785.461731	743.200000
785.498047	737.300000
785.534363	734.800000
785.570679	733.500000
785.606995	734.600000
785.643372	738.800000
785.679687	739.000000
785.716003	729.100000
785.752380	726.900000
785.788635	731.300000
785.825012	747.100000
785.861328	748.900000
785.897644	732.600000
785.933960	746.900000
785.970337	757.900000
786.006592	777.900000
786.042908	788.400000
786.079285	791.700000
786.115540	801.500000
786.151855	804.200000
786.188171	791.400000
786.224487	800.700000
786.260803	797.400000
786.297119	806.100000
786.333435	807.200000
786.369751	795.800000
786.406006	791.700000
786.442322	780.900000
786.478638	774.200000
786.514954	779.700000
786.551270	776.100000
786.587585	777.200000
786.623840	766.000000
786.660156	766.200000
786.696472	754.700000
786.732727	757.300000
786.769043	760.300000
786.805298	751.500000
786.841614	751.000000
786.877930	761.900000
786.914124	754.600000
786.950439	774.100000
786.986755	782.800000
787.023010	783.700000
787.059326	792.300000
787.095642	800.300000
787.131836	822.500000
787.168152	815.000000
787.204468	818.600000
787.240723	831.600000
787.276978	834.100000
787.313293	842.100000
787.349548	836.300000
787.385803	844.400000
787.422058	842.800000
787.458313	839.400000
787.494629	834.500000
787.530823	834.800000
787.567139	818.200000
787.603455	809.600000
787.639648	801.500000
787.675903	810.500000
787.712219	806.100000
787.748413	797.100000
787.784729	801.800000
787.820984	795.200000
787.857178	788.900000
787.893494	791.900000
787.929749	791.900000
787.965942	797.800000
788.002258	808.800000
788.038452	820.300000
788.074707	817.900000
788.110962	823.100000
788.147217	819.300000
788.183472	830.800000
788.219727	840.800000
788.255920	855.000000
788.292175	862.100000
788.328430	863.600000
788.364624	855.000000
788.400879	853.900000
788.437134	863.100000
788.473328	857.400000
788.509583	864.500000
788.545837	860.500000
788.582031	858.800000
788.618286	855.500000
788.654480	849.800000
788.690735	861.400000
788.726990	877.600000
788.763184	877.800000
788.799377	890.400000
788.835632	878.200000
788.871826	885.100000
788.908081	883.400000
788.944336	885.100000
788.980469	891.100000
789.016724	880.800000
789.052979	885.200000
789.089111	871.500000
789.125366	881.600000
789.161621	867.200000
789.197754	878.100000
789.234009	866.700000
789.270142	873.700000
789.306396	874.600000
789.342590	861.000000
789.378784	845.300000
789.414978	845.500000
789.451233	843.100000
789.487366	840.300000
789.523621	854.500000
789.559814	851.500000
789.595947	849.100000
789.632202	862.600000
789.668335	871.400000
789.704529	887.400000
789.740784	901.900000
789.776917	911.200000
789.813110	905.600000
789.849304	905.600000
789.885498	901.900000
789.921692	917.100000
789.957886	929.600000
789.994019	933.000000
790.030212	934.600000
790.066406	938.100000
790.102539	930.400000
790.138733	940.700000
790.174927	936.000000
790.211060	951.700000
790.247253	948.100000
790.283386	944.800000
790.319580	930.200000
790.355774	914.400000
790.391907	917.500000
790.428101	924.200000
790.464294	926.400000
790.500427	929.400000
790.536621	910.300000
790.572754	906.200000
790.608887	896.500000
790.645081	897.800000
790.681274	915.500000
790.717346	919.200000
790.753540	907.400000
790.789734	881.300000
790.825867	869.700000
790.862000	877.000000
790.898132	883.800000
790.934265	884.200000
790.970459	882.100000
791.006592	884.900000
791.042725	878.300000
791.078918	873.200000
791.114990	874.700000
791.151184	876.400000
791.187317	890.700000
791.223389	891.700000
791.259583	875.300000
791.295715	878.400000
791.331848	885.400000
791.367981	896.000000
791.404114	903.000000
791.440247	906.900000
791.476379	906.400000
791.512451	890.500000
791.548584	886.100000
791.584778	875.100000
791.620850	892.200000
791.656982	905.200000
791.693115	901.800000
791.729187	895.300000
791.765381	890.700000
791.801514	887.500000
791.837585	887.400000
791.873718	893.100000
791.909851	902.200000
791.945923	911.900000
791.982056	895.800000
792.018188	892.700000
792.054260	888.800000
792.090393	892.800000
792.126465	879.300000
792.162598	884.000000
792.198669	881.500000
792.234741	878.900000
792.270874	871.700000
792.307007	865.400000
792.343079	872.600000
792.379150	878.700000
792.415283	868.700000
792.451355	871.100000
792.487488	847.900000
792.523560	847.800000
792.559631	843.000000
792.595764	813.300000
792.631836	779.000000
792.667908	757.400000
792.703979	736.600000
792.740051	746.400000
792.776184	778.500000
792.812256	793.200000
792.848328	804.200000
792.884399	815.400000
792.920471	822.500000
792.956543	825.100000
792.992615	813.100000
793.028748	807.400000
793.064758	814.000000
793.100830	830.300000
793.136963	846.200000
793.172974	852.900000
793.209045	839.400000
793.245178	847.200000
793.281189	836.200000
793.317261	847.700000
793.353271	843.700000
793.389404	856.200000
793.425476	848.300000
793.461487	842.400000
793.497559	835.900000
793.533630	835.400000
793.569641	827.100000
793.605713	834.000000
793.641785	838.700000
793.677795	851.500000
793.713867	838.900000
793.749878	840.500000
793.785950	849.000000
793.822021	857.600000
793.858032	856.000000
793.894104	870.600000
793.930176	862.200000
793.966187	866.100000
794.002258	852.300000
794.038269	867.200000
794.074280	863.500000
794.110352	890.400000
794.146423	870.700000
794.182373	865.700000
794.218445	864.700000
794.254517	859.200000
794.290466	843.000000
794.326538	845.100000
794.362549	850.400000
794.398560	852.300000
794.434631	845.400000
794.470581	835.400000
794.506653	828.800000
794.542664	821.100000
794.578674	826.900000
794.614685	835.500000
794.650757	835.100000
794.686707	830.800000
794.722778	821.800000
794.758789	829.500000
794.794739	837.900000
794.830811	862.900000
794.866821	880.500000
794.902771	880.400000
794.938843	878.800000
794.974792	873.200000
795.010803	869.000000
795.046814	867.900000
795.082825	864.300000
795.118835	891.000000
795.154846	870.400000
795.190796	876.800000
795.226807	853.200000
795.262817	859.300000
795.298767	862.600000
795.334778	871.100000
795.370850	860.800000
795.406799	862.100000
795.442810	843.900000
795.478821	840.900000
795.514709	847.700000
795.550720	870.800000
795.586670	844.000000
795.622681	850.500000
795.658691	853.800000
795.694641	850.700000
795.730652	846.100000
795.766663	851.800000
795.802551	857.700000
795.838562	872.400000
795.874573	857.300000
795.910522	863.500000
795.946472	852.700000
795.982483	856.600000
796.018433	860.600000
796.054382	866.600000
796.090393	859.800000
796.126282	849.900000
796.162292	839.500000
796.198242	831.900000
796.234192	829.000000
796.270203	825.800000
796.306091	829.700000
796.342041	841.700000
796.378052	835.900000
796.413940	836.400000
796.449951	843.000000
796.485901	846.600000
796.521790	846.800000
796.557800	854.500000
796.593689	858.400000
796.629639	848.400000
796.665649	846.100000
796.701599	844.900000
796.737488	849.000000
796.773437	848.100000
796.809387	854.000000
796.845337	860.500000
796.881287	851.600000
796.917175	841.500000
796.953125	829.700000
796.989075	843.000000
797.024963	846.200000
797.060913	841.400000
797.096863	841.500000
797.132751	835.700000
797.168701	820.100000
797.204590	825.100000
797.240540	825.100000
797.276489	833.400000
797.312439	830.900000
797.348328	823.400000
797.384277	824.700000
797.420166	821.100000
797.456055	826.100000
797.492004	829.200000
797.527893	828.000000
797.563843	827.000000
797.599731	820.900000
797.635620	819.400000
797.671570	824.000000
797.707520	814.700000
797.743347	813.300000
797.779297	823.700000
797.815125	828.400000
797.851074	826.000000
797.887024	811.400000
797.922913	800.900000
797.958801	811.500000
797.994690	798.800000
798.030579	807.800000
798.066467	809.200000
798.102356	802.500000
798.138245	796.500000
798.174133	788.900000
798.210083	797.000000
798.245911	807.100000
798.281799	805.400000
798.317749	806.400000
798.353577	805.000000
798.389465	794.400000
798.425293	795.900000
798.461243	798.900000
798.497131	807.200000
798.532959	815.600000
798.568848	817.800000
798.604736	798.100000
798.640564	781.000000
798.676453	782.400000
798.712402	783.200000
798.748230	786.200000
798.784119	789.800000
798.820007	791.200000
798.855835	793.700000
798.891724	784.000000
798.927551	776.800000
798.963379	791.300000
798.999268	788.500000
799.035095	778.600000
799.070984	775.700000
799.106873	767.200000
799.142700	767.700000
799.178528	755.300000
799.214417	763.800000
799.250244	775.100000
799.286133	773.200000
799.321960	771.600000
799.357788	760.600000
799.393677	759.600000
799.429504	759.300000
799.465332	761.900000
799.501221	769.600000
799.537048	771.300000
799.572876	761.100000
799.608704	759.400000
799.644531	768.600000
799.680359	772.200000
799.716248	780.000000
799.752014	786.200000
799.787903	775.200000
799.823730	772.900000
799.859558	765.500000
799.895386	757.500000
799.931213	756.100000
799.967041	758.200000
800.002869	765.100000
800.038696	774.500000
800.074463	760.500000
800.110352	768.400000
800.146179	751.400000
800.181946	757.300000
800.217773	760.500000
800.253540	762.800000
800.289429	758.000000
800.325256	751.100000
800.361023	747.700000
800.396851	748.600000
800.432678	756.900000
800.468445	757.800000
800.504272	760.300000
800.540100	746.000000
800.575867	745.800000
800.611694	748.600000
800.647461	747.800000
800.683289	749.000000
800.719116	747.500000
800.754883	738.200000
800.790649	730.900000
800.826477	732.300000
800.862244	741.400000
800.898071	732.200000
800.933838	740.200000
800.969604	742.900000
801.005432	739.200000
801.041199	736.300000
801.076965	724.600000
801.112793	720.100000
801.148560	708.300000
801.184326	717.800000
801.220154	719.100000
801.255859	712.000000
801.291687	712.400000
801.327454	704.200000
801.363281	710.500000
801.398987	702.300000
801.434814	705.700000
801.470520	717.900000
801.506287	709.700000
801.542114	697.700000
801.577820	700.700000
801.613647	692.400000
801.649414	692.400000
801.685120	705.300000
801.720886	707.100000
801.756714	692.900000
801.792419	681.800000
801.828186	679.000000
801.863892	689.300000
801.899719	687.300000
801.935486	680.100000
801.971252	688.700000
802.006958	678.500000
802.042725	672.900000
802.078430	676.700000
802.114197	674.500000
802.149963	691.400000
802.185669	681.300000
802.221436	678.900000
802.257202	677.600000
802.292908	674.200000
802.328674	679.000000
802.364441	678.500000
802.400146	684.400000
802.435913	681.400000
802.471558	677.900000
802.507324	670.900000
802.543091	665.900000
802.578796	678.700000
802.614502	680.400000
802.650269	682.400000
802.685974	669.300000
802.721741	678.400000
802.757446	676.500000
802.793152	672.100000
802.828918	678.000000
802.864624	676.400000
802.900330	677.700000
802.936035	677.900000
802.971802	672.300000
803.007446	661.400000
803.043213	652.000000
803.078857	668.800000
803.114624	658.000000
803.150330	661.400000
803.185974	649.900000
803.221741	648.900000
803.257446	660.600000
803.293152	659.400000
803.328857	656.100000
803.364563	657.200000
803.400208	655.300000
803.435974	659.800000
803.471680	647.000000
803.507324	643.100000
803.543030	647.900000
803.578735	653.300000
803.614441	650.900000
803.650146	653.900000
803.685791	640.600000
803.721497	644.900000
803.757202	634.400000
803.792847	643.300000
803.828552	637.500000
803.864258	637.700000
803.899902	632.800000
803.935608	623.400000
803.971313	625.100000
804.006958	626.300000
804.042664	623.600000
804.078308	634.200000
804.113953	626.900000
804.149658	627.400000
804.185364	620.600000
804.221008	636.200000
804.256714	620.100000
804.292297	613.600000
804.328003	610.900000
804.363708	610.700000
804.399292	610.800000
804.434998	608.000000
804.470703	598.900000
804.506287	612.200000
804.541992	606.900000
804.577637	607.400000
804.613281	596.700000
804.648926	591.600000
804.684570	593.800000
804.720215	589.100000
804.755920	589.400000
804.791565	593.200000
804.827209	600.400000
804.862854	591.500000
804.898437	588.300000
804.934143	590.700000
804.969788	581.600000
805.005371	586.000000
805.041077	593.300000
805.076721	592.300000
805.112305	584.700000
805.147949	578.400000
805.183655	571.500000
805.219238	578.200000
805.254883	577.700000
805.290466	585.300000
805.326111	581.500000
805.361755	570.100000
805.397400	574.400000
805.432983	574.800000
805.468628	566.600000
805.504211	575.400000
805.539856	573.000000
805.575500	574.000000
805.611084	567.600000
805.646729	561.000000
805.682373	562.300000
805.717957	568.200000
805.753601	575.400000
805.789246	562.300000
805.824768	573.300000
805.860413	574.500000
805.895996	562.300000
805.931641	556.900000
805.967224	562.500000
806.002869	558.900000
806.038452	573.200000
806.074036	573.700000
806.109619	559.900000
806.145264	557.200000
806.180847	555.000000
806.216431	558.700000
806.252014	562.200000
806.287659	557.100000
806.323181	560.100000
806.358826	555.200000
806.394409	544.400000
806.429993	547.700000
806.465576	554.800000
806.501160	544.400000
806.536743	536.900000
806.572327	547.500000
806.607910	549.100000
806.643494	545.300000
806.679077	535.700000
806.714661	536.000000
806.750244	537.000000
806.785828	536.200000
806.821350	535.000000
806.856934	533.200000
806.892517	525.300000
806.928101	527.200000
806.963684	529.100000
806.999268	533.900000
807.034790	519.300000
807.070374	522.600000
807.105896	520.600000
807.141479	515.400000
807.177063	517.400000
807.212585	510.900000
807.248169	514.700000
807.283752	526.100000
807.319275	517.400000
807.354858	521.900000
807.390381	512.700000
807.425903	513.100000
807.461487	507.200000
807.497070	502.600000
807.532593	500.500000
807.568115	500.000000
807.603699	496.200000
807.639221	494.700000
807.674744	496.700000
807.710266	499.600000
807.745850	499.500000
807.781372	494.300000
807.816895	492.900000
807.852417	492.800000
807.888000	491.000000
807.923523	490.100000
807.959045	494.800000
807.994629	486.100000
808.030090	486.800000
808.065613	491.100000
808.101135	496.600000
808.136658	488.500000
808.172241	484.500000
808.207764	487.800000
808.243225	482.600000
808.278809	478.900000
808.314270	486.700000
808.349792	474.400000
808.385315	472.900000
808.420837	477.700000
808.456360	485.900000
808.491882	484.600000
808.527344	480.000000
808.562866	487.400000
808.598389	479.000000
808.633850	478.700000
808.669434	471.300000
808.704895	477.300000
808.740417	483.400000
808.775940	476.900000
808.811462	474.100000
808.846924	471.300000
808.882385	469.500000
808.917847	471.200000
808.953369	472.700000
808.988892	467.400000
809.024353	468.900000
809.059875	469.700000
809.095398	463.900000
809.130798	454.100000
809.166321	461.300000
809.201843	463.900000
809.237305	464.900000
809.272766	464.600000
809.308228	453.900000
809.343750	454.600000
809.379211	454.300000
809.414734	455.000000
809.450134	460.600000
809.485657	446.200000
809.521118	453.000000
809.556580	449.200000
809.592102	453.300000
809.627502	449.900000
809.663025	446.100000
809.698486	442.600000
809.733887	438.500000
809.769409	442.600000
809.804871	436.800000
809.840271	433.400000
809.875793	438.000000
809.911194	442.900000
809.946655	435.400000
809.982178	430.200000
810.017639	439.100000
810.053040	434.400000
810.088501	430.300000
810.123901	429.100000
810.159424	426.200000
810.194885	422.100000
810.230286	426.700000
810.265747	421.800000
810.301208	418.700000
810.336609	423.300000
810.372070	413.000000
810.407532	418.600000
810.442932	420.100000
810.478394	421.400000
810.513794	417.500000
810.549255	411.700000
810.584717	411.100000
810.620117	405.500000
810.655518	412.400000
810.690979	409.000000
810.726379	405.900000
810.761841	399.600000
810.797302	400.700000
810.832642	398.900000
810.868103	407.400000
810.903564	398.500000
810.938904	402.900000
810.974365	391.700000
811.009827	399.100000
811.045166	395.200000
811.080627	387.100000
811.115967	389.900000
811.151428	396.600000
811.186829	389.500000
811.222229	389.100000
811.257629	382.800000
811.293091	389.000000
811.328430	393.100000
811.363892	386.900000
811.399292	385.900000
811.434631	385.300000
811.470093	390.600000
811.505493	381.900000
811.540833	380.900000
811.576294	382.700000
811.611694	383.500000
811.647034	375.800000
811.682434	377.600000
811.717773	381.100000
811.753235	387.800000
811.788635	378.400000
811.823975	376.500000
811.859375	384.400000
811.894775	371.500000
811.930115	371.600000
811.965515	373.500000
812.000916	376.200000
812.036255	373.500000
812.071655	376.700000
812.106995	368.600000
812.142395	368.500000
812.177795	376.900000
812.213196	373.000000
812.248474	371.400000
812.283875	364.500000
812.319214	367.600000
812.354614	367.200000
812.390015	362.100000
812.425293	364.900000
812.460693	363.500000
812.496094	359.700000
812.531433	355.900000
812.566772	358.400000
812.602173	359.000000
812.637451	357.000000
812.672852	357.200000
812.708191	358.700000
812.743530	350.300000
812.778931	346.200000
812.814270	348.000000
812.849609	352.500000
812.884949	349.400000
812.920227	344.300000
812.955627	357.300000
812.990967	349.200000
813.026306	342.200000
813.061646	335.000000
813.096985	331.700000
813.132324	329.500000
813.167664	333.800000
813.203003	339.300000
813.238281	328.900000
813.273682	329.700000
813.308960	328.800000
813.344299	328.300000
813.379639	331.900000
813.414978	327.400000
813.450256	326.800000
813.485596	328.000000
813.520874	323.000000
813.556213	325.700000
813.591614	327.800000
813.626831	319.600000
813.662170	321.400000
813.697510	327.200000
813.732788	318.300000
813.768127	321.100000
813.803467	319.700000
813.838745	318.100000
813.874084	321.100000
813.909363	318.100000
813.944641	318.200000
813.979980	310.900000
814.015320	315.100000
814.050598	312.900000
814.085876	313.900000
814.121155	309.900000
814.156494	310.000000
814.191772	310.000000
814.227051	306.600000
814.262390	309.700000
814.297668	308.000000
814.332947	308.800000
814.368225	303.300000
814.403564	304.500000
814.438782	301.900000
814.474121	304.600000
814.509338	301.300000
814.544617	307.000000
814.579956	302.400000
814.615173	310.600000
814.650513	304.400000
814.685791	300.800000
814.721008	301.000000
814.756348	301.100000
814.791626	297.600000
814.826843	296.600000
814.862122	299.000000
814.897400	295.500000
814.932678	297.700000
814.967957	296.900000
815.003235	294.600000
815.038452	291.900000
815.073730	289.800000
815.108948	298.300000
815.144226	295.300000
815.179504	298.600000
815.214722	286.200000
815.250000	286.800000
815.285278	291.800000
815.320496	286.800000
815.355774	290.000000
815.391052	289.400000
815.426270	287.700000
815.461487	286.000000
815.496765	282.100000
815.531982	278.100000
815.567261	283.300000
815.602539	289.300000
815.637695	285.200000
815.672974	285.500000
815.708191	285.100000
815.743408	287.000000
815.778687	278.200000
815.813904	286.500000
815.849121	275.300000
815.884399	276.300000
815.919556	274.600000
815.954834	276.900000
815.990051	278.600000
816.025269	281.200000
816.060486	273.800000
816.095703	273.800000
816.130920	275.500000
816.166199	272.200000
816.201416	273.400000
816.236572	274.400000
816.271851	270.500000
816.307007	275.000000
816.342224	267.200000
816.377441	269.200000
816.412659	263.400000
816.447876	271.100000
816.483093	267.600000
816.518250	266.600000
816.553467	263.600000
816.588745	266.500000
816.623901	259.100000
816.659119	256.900000
816.694275	263.200000
816.729492	260.200000
816.764709	288.700000
816.799927	254.300000
816.835083	258.200000
816.870300	253.300000
816.905457	257.800000
816.940674	256.400000
816.975830	253.800000
817.010986	251.800000
817.046204	253.000000
817.081421	248.200000
817.116577	251.600000
817.151733	256.900000
817.186951	256.000000
817.222107	252.600000
817.257324	253.800000
817.292419	251.800000
817.327637	247.000000
817.362854	248.900000
817.398010	244.500000
817.433167	246.900000
817.468323	245.000000
817.503479	248.500000
817.538635	256.000000
817.573853	247.500000
817.608948	246.100000
817.644165	244.800000
817.679321	242.300000
817.714478	240.800000
817.749634	244.000000
817.784790	251.300000
817.819946	247.700000
817.855103	235.900000
817.890198	242.900000
817.925415	235.900000
817.960571	244.000000
817.995667	243.200000
818.030823	241.400000
818.066040	237.700000
818.101135	240.700000
818.136292	237.300000
818.171448	235.100000
818.206543	236.400000
818.241699	237.500000
818.276855	237.300000
818.311951	236.300000
818.347107	231.400000
818.382263	237.700000
818.417358	240.500000
818.452515	239.200000
818.487610	240.200000
818.522766	229.600000
818.557922	238.700000
818.593018	234.900000
818.628113	232.800000
818.663269	229.300000
818.698364	232.800000
818.733521	228.900000
818.768677	231.900000
818.803711	228.000000
818.838867	227.200000
818.874023	228.300000
818.909058	227.800000
818.944214	226.600000
818.979370	230.000000
819.014404	228.100000
819.049561	224.800000
819.084595	229.800000
819.119751	223.500000
819.154846	227.700000
819.189941	225.100000
819.225037	221.300000
819.260193	217.000000
819.295227	219.200000
819.330322	218.200000
819.365479	216.800000
819.400513	250.100000
819.435608	214.700000
819.470764	213.200000
819.505798	216.200000
819.540894	217.700000
819.575989	215.300000
819.611084	219.200000
819.646179	223.000000
819.681213	218.200000
819.716309	214.200000
819.751404	214.100000
819.786438	222.400000
819.821533	210.800000
819.856628	216.400000
819.891663	218.200000
819.926758	224.400000
819.961853	219.000000
819.996887	211.500000
820.031982	215.900000
820.067017	214.500000
820.102112	245.100000
820.137207	210.200000
820.172302	223.200000
820.207275	209.800000
820.242371	209.000000
820.277405	210.900000
820.312500	211.700000
820.347534	214.000000
820.382568	216.800000
820.417664	209.700000
820.452759	208.500000
820.487732	208.600000
820.522827	210.500000
820.557861	206.800000
820.592896	209.000000
820.627930	210.500000
820.662964	204.800000
820.698059	210.900000
820.733093	207.100000
820.768127	211.000000
820.803162	207.700000
820.838196	205.500000
820.873230	208.400000
820.908264	208.000000
820.943298	205.400000
820.978333	212.300000
821.013367	207.400000
821.048401	211.600000
821.083435	210.000000
821.118469	201.600000
821.153503	209.700000
821.188477	206.900000
821.223511	201.900000
821.258484	205.200000
821.293579	205.000000
821.328613	200.700000
821.363647	204.400000
821.398621	200.000000
821.433655	203.000000
821.468628	215.300000
821.503662	203.700000
821.538696	206.600000
821.573669	200.200000
821.608704	207.100000
821.643677	203.100000
821.678650	207.000000
821.713684	210.300000
821.748718	203.300000
821.783691	203.800000
821.818726	204.600000
821.853638	205.100000
821.888672	203.000000
821.923706	204.600000
821.958618	201.900000
821.993652	202.800000
822.028687	205.700000
822.063599	210.400000
822.098633	204.100000
822.133667	199.700000
822.168579	203.900000
822.203613	203.900000
822.238586	200.400000
822.273560	204.100000
822.308533	199.700000
822.343567	200.100000
822.378479	202.000000
822.413452	201.100000
822.448425	198.600000
822.483398	204.500000
822.518372	205.000000
822.553345	199.100000
822.588318	207.200000
822.623291	199.800000
822.658203	200.200000
822.693237	201.400000
822.728210	198.600000
822.763123	201.400000
822.798096	198.700000
822.833069	199.500000
822.867981	200.200000
822.902954	201.700000
822.937927	202.600000
822.972900	208.200000
823.007874	196.100000
823.042725	205.000000
823.077698	209.000000
823.112671	198.600000
823.147583	199.400000
823.182556	203.100000
823.217529	204.200000
823.252441	199.000000
823.287415	209.600000
823.322388	205.200000
823.357239	200.300000
823.392212	206.100000
823.427185	207.300000
823.462097	197.700000
823.497009	203.400000
823.531982	198.900000
823.566895	200.300000
823.601807	196.300000
823.636719	201.100000
823.671631	202.400000
823.706604	198.300000
823.741455	203.200000
823.776428	197.100000
823.811340	203.300000
823.846252	206.500000
823.881165	205.000000
823.916138	200.000000
823.950989	207.100000
823.985901	198.400000
824.020813	201.200000
824.055725	199.600000
824.090637	194.400000
824.125610	202.200000
824.160461	202.500000
824.195374	201.500000
824.230225	202.900000
824.265198	193.700000
824.300110	196.600000
824.334961	207.200000
824.369873	193.000000
824.404785	201.500000
824.439636	203.100000
824.474548	193.200000
824.509460	191.900000
824.544312	203.800000
824.579224	200.500000
824.614075	200.200000
824.648987	198.600000
824.683899	198.700000
824.718811	197.300000
824.753662	202.500000
824.788574	203.300000
824.823364	200.900000
824.858276	194.500000
824.893188	202.200000
824.928040	201.700000
824.962952	200.700000
824.997803	202.700000
825.032654	198.400000
825.067566	198.800000
825.102417	197.500000
825.137268	197.500000
825.172119	197.200000
825.206970	194.400000
825.241882	197.600000
825.276733	193.600000
825.311646	196.200000
825.346436	193.100000
825.381348	193.600000
825.416138	197.400000
825.450989	194.000000
825.485901	189.000000
825.520691	191.100000
825.555542	191.000000
825.590454	195.300000
825.625244	190.000000
825.660095	201.000000
825.695007	197.500000
825.729797	194.700000
825.764648	191.700000
825.799438	194.800000
825.834290	195.100000
825.869202	189.200000
825.903992	194.500000
825.938843	192.500000
825.973694	190.100000
826.008484	203.000000
826.043335	190.100000
826.078186	187.300000
826.112976	197.800000
826.147827	198.300000
826.182678	201.500000
826.217468	188.200000
826.252319	198.900000
826.287109	189.400000
826.321899	197.000000
826.356750	192.200000
826.391541	190.400000
826.426392	196.900000
826.461182	193.500000
826.495972	190.100000
826.530823	186.300000
826.565613	192.700000
826.600403	188.400000
826.635254	193.200000
826.670044	187.000000
826.704834	186.000000
826.739685	188.400000
826.774475	193.600000
826.809265	191.500000
826.844055	189.000000
826.878906	196.400000
826.913635	192.800000
826.948425	194.000000
826.983215	193.300000
827.018005	195.500000
827.052856	190.400000
827.087585	193.200000
827.122375	185.400000
827.157227	191.300000
827.191956	202.000000
827.226746	188.400000
827.261536	193.900000
827.296265	187.300000
827.331116	190.100000
827.365906	194.400000
827.400635	188.800000
827.435425	186.900000
827.470215	196.200000
827.504944	191.700000
827.539734	197.300000
827.574463	191.800000
827.609253	199.300000
827.644043	192.300000
827.678772	196.000000
827.713562	190.000000
827.748352	191.600000
827.783081	188.600000
827.817871	192.800000
827.852600	188.200000
827.887329	193.000000
827.922119	185.600000
827.956848	194.000000
827.991638	203.200000
828.026367	193.300000
828.061157	192.200000
828.095886	191.500000
828.130615	203.900000
828.165344	185.000000
828.200073	191.200000
828.234863	190.100000
828.269592	191.600000
828.304321	194.200000
828.339111	190.800000
828.373779	190.000000
828.408569	195.100000
828.443298	195.200000
828.477966	191.000000
828.512756	190.400000
828.547424	187.700000
828.582214	189.500000
828.616943	189.500000
828.651672	191.400000
828.686340	195.700000
828.721130	189.900000
828.755798	191.300000
828.790527	191.900000
828.825256	192.000000
828.859924	192.000000
828.894714	196.100000
828.929443	198.700000
828.964111	190.200000
828.998840	194.100000
829.033569	189.900000
829.068237	191.400000
829.102966	189.800000
829.137634	191.500000
829.172363	192.600000
829.207092	193.200000
829.241821	188.900000
829.276489	186.000000
829.311157	192.700000
829.345825	189.400000
829.380554	195.600000
829.415283	189.300000
829.449951	187.600000
829.484619	199.000000
829.519348	196.600000
829.554016	190.900000
829.588745	191.000000
829.623413	188.500000
829.658081	200.300000
829.692749	187.900000
829.727417	195.200000
829.762146	192.600000
829.796814	189.500000
829.831482	189.400000
829.866150	192.100000
829.900879	189.900000
829.935486	193.900000
829.970154	188.900000
830.004883	200.900000
830.039490	192.200000
830.074219	188.700000
830.108887	191.800000
830.143494	190.300000
830.178223	186.600000
830.212891	191.200000
830.247498	191.400000
830.282166	198.300000
830.316772	196.300000
830.351501	190.400000
830.386169	190.600000
830.420776	192.000000
830.455444	192.200000
830.490112	190.500000
830.524719	186.300000
830.559387	193.200000
830.594055	194.600000
830.628662	191.200000
830.663330	191.900000
830.697998	199.000000
830.732605	191.900000
830.767273	193.700000
830.801941	190.400000
830.836487	198.400000
830.871155	192.900000
830.905762	193.300000
830.940430	187.500000
830.975098	189.500000
831.009644	192.700000
831.044312	197.600000
831.078979	193.500000
831.113525	184.500000
831.148193	192.700000
831.182861	189.900000
831.217407	193.300000
831.252075	202.000000
831.286621	190.100000
831.321289	189.300000
831.355896	191.900000
831.390564	196.100000
831.425110	192.800000
831.459778	196.400000
831.494324	201.100000
831.528931	193.000000
831.563599	197.300000
831.598145	185.600000
831.632751	191.100000
831.667419	190.600000
831.701965	193.300000
831.736572	192.200000
831.771179	188.700000
831.805786	189.900000
831.840393	197.200000
831.874939	186.900000
831.909546	196.400000
831.944153	184.900000
831.978760	192.000000
832.013306	187.900000
832.047913	196.800000
832.082458	200.900000
832.117065	190.000000
832.151672	199.600000
832.186218	193.800000
832.220825	193.500000
832.255432	185.300000
832.289978	190.400000
832.324585	194.600000
832.359192	194.200000
832.393677	191.100000
832.428284	192.000000
832.462830	189.600000
832.497437	191.100000
832.531982	194.800000
832.566589	190.400000
832.601135	193.500000
832.635681	184.700000
832.670227	191.900000
832.704773	197.000000
832.739380	192.300000
832.773926	192.600000
832.808472	189.800000
832.843079	191.800000
832.877563	194.300000
832.912170	190.400000
832.946716	186.600000
832.981201	196.100000
833.015808	195.900000
833.050293	191.200000
833.084839	188.400000
833.119446	190.900000
833.153992	194.900000
833.188477	190.800000
833.223022	189.700000
833.257568	193.100000
833.292114	196.200000
833.326660	201.200000
833.361145	190.600000
833.395691	186.300000
833.430237	191.800000
833.464783	194.200000
833.499329	189.300000
833.533875	189.200000
833.568359	194.700000
833.602905	195.500000
833.637390	195.100000
833.671875	190.000000
833.706421	190.400000
833.740906	188.100000
833.775452	183.400000
833.809998	188.600000
833.844482	197.500000
833.879028	190.800000
833.913513	189.000000
833.947998	193.500000
833.982544	188.000000
834.017090	189.700000
834.051514	183.300000
834.086060	193.700000
834.120544	191.000000
834.155029	193.700000
834.189575	190.600000
834.223999	191.500000
834.258545	191.500000
834.293030	191.200000
834.327515	191.900000
834.362000	189.300000
834.396545	193.800000
834.430969	190.900000
834.465454	195.100000
834.500000	186.300000
834.534424	193.600000
834.568970	184.300000
834.603455	185.800000
834.637878	187.600000
834.672363	193.500000
834.706909	192.200000
834.741333	192.500000
834.775818	186.600000
834.810242	189.200000
834.844727	192.000000
834.879211	189.900000
834.913635	192.000000
834.948181	194.000000
834.982666	192.600000
835.017090	191.200000
835.051575	193.100000
835.086060	189.400000
835.120483	193.200000
835.154907	192.900000
835.189331	191.100000
835.223816	195.700000
835.258301	187.800000
835.292786	189.300000
835.327209	193.100000
835.361694	188.500000
835.396057	188.900000
835.430542	193.000000
835.465027	192.100000
835.499390	188.600000
835.533875	216.800000
835.568359	189.800000
835.602722	186.400000
835.637207	192.700000
835.671692	187.000000
835.706055	206.800000
835.740540	192.100000
835.774902	192.500000
835.809387	193.800000
835.843811	186.300000
835.878235	197.600000
835.912659	187.500000
835.947083	189.800000
835.981506	191.600000
836.015930	186.500000
836.050354	195.500000
836.084778	199.300000
836.119202	196.100000
836.153625	205.000000
836.187988	189.400000
836.222473	188.200000
836.256897	192.600000
836.291260	191.300000
836.325684	193.400000
836.360046	190.400000
836.394470	191.400000
836.428894	196.900000
836.463318	189.100000
836.497681	193.400000
836.532104	197.700000
836.566467	192.500000
836.600891	190.500000
836.635315	196.700000
836.669678	192.700000
836.704102	195.200000
836.738525	192.900000
836.772888	185.000000
836.807251	189.500000
836.841675	193.500000
836.876038	188.300000
836.910461	187.700000
836.944763	194.700000
836.979187	187.900000
837.013611	196.100000
837.047974	186.600000
837.082336	201.400000
837.116699	194.000000
837.151062	192.200000
837.185486	188.000000
837.219849	191.300000
837.254211	194.700000
837.288574	191.300000
837.322937	187.500000
837.357300	183.600000
837.391663	201.400000
837.426086	194.800000
837.460388	192.000000
837.494751	195.300000
837.529114	188.700000
837.563477	197.100000
837.597839	192.500000
837.632141	191.000000
837.666565	190.300000
837.700928	194.200000
837.735229	193.900000
837.769592	194.200000
837.803955	194.600000
837.838257	189.200000
837.872620	189.600000
837.906982	197.500000
837.941284	191.200000
837.975647	193.800000
838.010010	196.700000
838.044312	189.500000
838.078674	190.100000
838.112976	192.300000
838.147339	193.100000
838.181702	191.000000
838.216003	198.100000
838.250366	193.000000
838.284668	194.800000
838.318970	186.600000
838.353333	190.400000
838.387634	190.800000
838.421936	191.700000
838.456299	191.800000
838.490601	196.200000
838.524902	194.500000
838.559265	196.600000
838.593567	195.000000
838.627869	186.300000
838.662170	193.900000
838.696472	187.300000
838.730774	188.400000
838.765137	194.200000
838.799377	181.100000
838.833740	192.700000
838.868042	196.800000
838.902283	186.800000
838.936646	197.600000
838.970947	191.900000
839.005188	197.400000
839.039551	187.400000
839.073792	196.700000
839.108093	189.900000
839.142395	200.000000
839.176697	186.100000
839.210937	193.400000
839.245300	200.000000
839.279541	186.200000
839.313843	191.200000
839.348145	194.500000
839.382385	195.300000
839.416687	195.000000
839.450989	192.900000
839.485229	190.000000
839.519531	187.300000
839.553833	195.900000
839.588013	191.400000
839.622314	194.800000
839.656555	192.900000
839.690857	192.600000
839.725159	187.400000
839.759460	190.900000
839.793640	189.800000
839.827942	191.000000
839.862183	188.000000
839.896423	192.900000
839.930725	202.400000
839.964966	199.400000
839.999207	195.900000
840.033508	198.100000
840.067688	188.900000
840.101990	198.500000
840.136230	192.100000
840.170471	198.600000
840.204712	187.500000
840.238953	189.300000
840.273193	192.800000
840.307434	194.700000
840.341736	189.800000
840.375916	187.400000
840.410217	189.000000
840.444397	195.800000
840.478638	193.500000
840.512878	196.800000
840.547119	191.600000
840.581360	194.900000
840.615601	198.400000
840.649780	201.600000
840.684021	191.100000
840.718262	199.100000
840.752441	197.200000
840.786682	192.300000
840.820862	192.100000
840.855103	198.300000
840.889343	191.500000
840.923584	195.600000
840.957764	193.100000
840.992004	191.800000
841.026184	201.800000
841.060425	189.800000
841.094666	188.200000
841.128845	193.800000
841.163025	193.200000
841.197266	193.800000
841.231445	192.100000
841.265686	194.900000
841.299866	188.000000
841.334045	197.500000
841.368286	191.800000
841.402405	198.700000
841.436646	195.200000
841.470825	189.200000
841.505005	191.600000
841.539185	187.900000
841.573425	190.500000
841.607544	192.100000
841.641785	192.600000
841.675964	189.300000
841.710144	192.200000
841.744324	189.300000
841.778503	192.100000
841.812683	188.900000
841.846863	199.200000
841.881042	197.700000
841.915222	189.900000
841.949402	203.600000
841.983521	185.700000
842.017700	190.700000
842.051880	193.200000
842.086060	194.700000
842.120239	193.400000
842.154419	190.100000
842.188538	193.000000
842.222717	189.500000
842.256897	199.600000
842.291016	190.100000
842.325195	192.900000
842.359375	201.300000
842.393494	198.300000
842.427673	191.900000
842.461853	192.600000
842.495911	198.900000
842.530090	192.900000
842.564209	191.900000
842.598389	192.800000
842.632568	191.900000
842.666626	194.400000
842.700806	191.500000
842.734985	190.100000
842.769043	193.900000
842.803223	192.400000
842.837402	189.800000
842.871460	188.800000
842.905640	201.100000
842.939697	189.900000
842.973877	194.900000
843.007996	197.000000
843.042175	199.600000
843.076233	188.600000
843.110413	196.300000
843.144470	198.900000
843.178589	196.000000
843.212769	189.900000
843.246826	195.800000
843.280945	190.000000
843.315125	192.000000
843.349182	189.300000
843.383301	195.800000
843.417419	203.000000
843.451538	191.600000
843.485657	190.300000
843.519714	191.500000
843.553833	192.800000
843.587952	190.800000
843.622070	189.400000
843.656128	194.900000
843.690247	189.700000
843.724304	190.500000
843.758423	193.700000
843.792542	189.800000
843.826599	192.400000
843.860718	189.900000
843.894836	187.700000
843.928894	193.500000
843.963013	193.300000
843.997070	188.500000
844.031128	188.300000
844.065247	194.100000
844.099304	195.200000
844.133362	191.600000
844.167480	196.000000
844.201599	196.600000
844.235596	194.500000
844.269714	193.700000
844.303711	193.300000
844.337830	186.400000
844.371948	194.700000
844.405945	193.100000
844.440063	191.100000
844.474121	203.800000
844.508118	191.200000
844.542236	192.000000
844.576294	191.700000
844.610352	187.700000
844.644409	192.100000
844.678406	186.100000
844.712524	197.300000
844.746582	197.500000
844.780640	192.200000
844.814636	191.200000
844.848755	202.400000
844.882751	191.500000
844.916809	195.500000
844.950867	193.900000
844.984863	200.300000
845.018921	190.500000
845.052979	189.300000
845.086975	192.600000
845.121033	187.700000
845.155090	189.800000
845.189087	197.500000
845.223145	190.000000
845.257141	192.500000
845.291199	193.900000
845.325256	197.200000
845.359253	193.400000
845.393250	203.900000
845.427307	192.100000
845.461304	194.100000
845.495361	193.300000
845.529358	200.100000
845.563354	192.100000
845.597412	188.400000
845.631409	200.700000
845.665405	197.700000
845.699463	194.900000
845.733459	190.600000
845.767456	201.200000
845.801453	192.000000
845.835449	197.400000
845.869446	196.300000
845.903503	196.200000
845.937439	189.600000
845.971497	198.700000
846.005493	189.000000
846.039429	197.600000
846.073486	202.700000
846.107483	191.800000
846.141418	191.400000
846.175476	194.400000
846.209473	198.700000
846.243408	189.500000
846.277405	192.600000
846.311401	189.600000
846.345337	192.600000
846.379395	196.500000
846.413330	188.600000
846.447327	201.000000
846.481323	188.600000
846.515259	189.400000
846.549255	191.200000
846.583252	195.400000
846.617187	188.900000
846.651184	193.300000
846.685120	190.400000
846.719055	198.900000
846.753052	195.300000
846.786987	196.100000
846.820984	187.300000
846.854980	198.500000
846.888916	189.200000
846.922852	194.900000
846.956848	198.500000
846.990723	189.300000
847.024719	194.500000
847.058716	190.700000
847.092590	199.300000
847.126587	194.200000
847.160522	191.400000
847.194458	197.300000
847.228455	189.300000
847.262390	186.900000
847.296265	191.600000
847.330261	197.200000
847.364136	191.700000
847.398132	191.300000
847.432068	193.800000
847.466003	191.300000
847.499939	192.100000
847.533875	196.100000
847.567749	191.400000
847.601746	190.700000
847.635681	194.200000
847.669556	186.200000
847.703491	198.100000
847.737427	203.600000
847.771301	186.500000
847.805237	194.500000
847.839233	192.900000
847.873108	192.300000
847.907043	191.600000
847.940918	197.100000
847.974854	192.700000
848.008789	195.700000
848.042664	191.800000
848.076538	193.900000
848.110474	192.200000
848.144348	193.600000
848.178284	186.600000
848.212219	193.500000
848.246094	190.600000
848.279968	193.000000
848.313904	194.100000
848.347778	192.600000
848.381653	190.000000
848.415588	190.000000
848.449463	189.300000
848.483337	194.900000
848.517212	198.200000
848.551086	192.400000
848.585022	189.000000
848.618835	201.500000
848.652771	190.900000
848.686646	188.000000
848.720520	198.000000
848.754395	192.600000
848.788330	195.700000
848.822144	196.500000
848.856018	192.100000
848.889954	201.200000
848.923767	190.700000
848.957642	189.800000
848.991577	193.800000
849.025391	192.100000
849.059265	191.000000
849.093079	189.200000
849.126953	188.900000
849.160828	197.100000
849.194641	193.800000
849.228577	189.300000
849.262451	191.700000
849.296265	189.600000
849.330139	189.200000
849.364014	192.300000
849.397827	194.100000
849.431702	193.600000
849.465515	196.800000
849.499329	186.100000
849.533203	189.300000
849.567078	184.000000
849.600891	192.900000
849.634766	191.100000
849.668518	195.100000
849.702393	192.500000
849.736267	188.700000
849.770020	201.800000
849.803894	195.200000
849.837769	193.600000
849.871521	193.200000
849.905396	196.900000
849.939270	189.300000
849.973022	192.600000
850.006897	195.600000
850.040710	194.800000
850.074524	196.100000
850.108337	192.400000
850.142151	196.500000
850.175964	198.000000
850.209778	193.600000
850.243530	183.700000
850.277405	197.300000
850.311218	193.500000
850.344971	191.500000
850.378845	199.700000
850.412659	188.900000
850.446411	194.500000
850.480225	193.200000
850.514038	197.100000
850.547791	194.400000
850.581665	192.400000
850.615417	190.600000
850.649231	193.700000
850.683044	191.700000
850.716858	190.800000
850.750610	194.500000
850.784424	196.300000
850.818176	188.800000
850.851929	191.700000
850.885742	188.900000
850.919495	191.500000
850.953308	197.600000
850.987122	199.200000
851.020874	188.100000
851.054626	186.700000
851.088440	194.900000
851.122192	196.200000
851.156006	192.600000
851.189697	192.900000
851.223511	188.000000
851.257263	197.000000
851.291077	195.400000
851.324829	191.800000
851.358582	191.500000
851.392334	192.300000
851.426086	190.000000
851.459900	200.400000
851.493591	193.000000
851.527344	192.600000
851.561157	192.600000
851.594849	194.800000
851.628662	192.600000
851.662415	201.500000
851.696106	194.500000
851.729858	198.100000
851.763611	188.100000
851.797363	194.700000
851.831116	190.000000
851.864868	195.300000
851.898560	196.800000
851.932312	190.100000
851.966064	195.200000
851.999817	192.600000
852.033569	192.000000
852.067261	196.900000
852.101013	189.700000
852.134766	190.700000
852.168457	184.600000
852.202209	197.400000
852.235901	189.000000
852.269592	194.800000
852.303345	198.300000
852.337036	194.900000
852.370789	192.700000
852.404541	196.500000
852.438171	189.900000
852.471924	193.300000
852.505676	188.400000
852.539307	193.600000
852.573059	191.100000
852.606812	193.100000
852.640442	192.100000
852.674194	198.200000
852.707886	202.800000
852.741577	199.100000
852.775269	189.000000
852.809021	193.900000
852.842651	195.000000
852.876404	198.900000
852.910034	193.900000
852.943787	198.200000
852.977478	196.000000
853.011108	189.600000
853.044861	189.100000
853.078552	198.200000
853.112183	195.700000
853.145874	194.400000
853.179626	186.700000
853.213257	192.400000
853.246948	190.600000
853.280640	199.300000
853.314270	192.300000
853.347961	197.600000
853.381653	194.200000
853.415283	196.800000
853.448975	190.000000
853.482605	194.700000
853.516296	192.800000
853.549988	187.200000
853.583618	194.900000
853.617310	194.000000
853.651001	192.900000
853.684631	189.800000
853.718323	189.200000
853.751953	197.500000
853.785583	185.500000
853.819275	196.200000
853.852966	193.300000
853.886536	186.800000
853.920227	189.200000
853.953918	195.600000
853.987488	191.500000
854.021179	195.900000
854.054749	199.300000
854.088440	196.200000
854.122131	190.200000
854.155701	194.500000
854.189331	189.600000
854.223022	195.900000
854.256592	195.000000
854.290283	190.900000
854.323914	195.800000
854.357483	194.100000
854.391174	196.000000
854.424744	200.200000
854.458374	193.000000
854.492065	204.400000
854.525696	191.400000
854.559265	197.800000
854.592896	202.700000
854.626465	193.200000
854.660095	193.100000
854.693787	195.100000
854.727356	191.900000
854.760986	196.900000
854.794617	194.300000
854.828186	192.600000
854.861816	196.600000
854.895447	194.200000
854.929016	193.000000
854.962585	194.400000
854.996155	201.300000
855.029785	193.200000
855.063416	192.500000
855.097046	196.600000
855.130615	189.100000
855.164185	196.900000
855.197754	193.100000
855.231384	194.600000
855.264954	191.600000
855.298523	196.600000
855.332153	194.100000
855.365723	197.900000
855.399292	190.600000
855.432922	192.700000
855.466492	194.700000
855.500061	190.000000
855.533630	189.700000
855.567200	195.900000
855.600769	196.300000
855.634338	197.900000
855.667969	195.600000
855.701477	190.200000
855.735046	190.700000
855.768616	185.800000
855.802185	194.000000
855.835754	204.500000
855.869324	186.600000
855.902893	192.000000
855.936401	197.400000
855.969971	193.300000
856.003540	187.900000
856.037109	194.300000
856.070618	190.100000
856.104187	188.100000
856.137695	190.700000
856.171265	185.200000
856.204834	192.300000
856.238403	196.100000
856.271912	191.300000
856.305481	193.500000
856.338989	187.900000
856.372559	196.000000
856.406128	194.100000
856.439636	195.800000
856.473145	190.600000
856.506653	199.000000
856.540222	192.100000
856.573792	198.000000
856.607300	196.600000
856.640808	189.400000
856.674377	193.000000
856.707825	227.000000
856.741394	198.900000
856.774902	190.300000
856.808472	186.100000
856.841980	195.600000
856.875488	197.000000
856.908936	188.300000
856.942505	192.500000
856.976013	192.900000
857.009521	189.900000
857.043030	193.400000
857.076477	191.800000
857.110046	199.900000
857.143555	194.100000
857.177063	195.600000
857.210571	191.000000
857.244080	188.600000
857.277527	196.000000
857.311035	193.900000
857.344543	197.500000
857.378052	191.000000
857.411499	196.700000
857.445068	198.400000
857.478516	190.900000
857.512024	188.400000
857.545532	190.100000
857.578979	195.300000
857.612427	194.400000
857.645874	189.600000
857.679382	194.800000
857.712891	197.400000
857.746399	193.300000
857.779846	195.700000
857.813354	198.100000
857.846741	192.400000
857.880249	189.700000
857.913757	193.700000
857.947266	194.200000
857.980652	194.800000
858.014160	192.500000
858.047546	192.100000
858.081055	191.200000
858.114563	202.800000
858.147949	189.000000
858.181458	194.400000
858.214844	193.900000
858.248352	186.100000
858.281799	196.700000
858.315308	202.100000
858.348694	196.400000
858.382141	200.600000
858.415588	196.800000
858.449036	196.900000
858.482483	195.200000
858.515930	191.400000
858.549377	193.400000
858.582825	198.200000
858.616211	194.900000
858.649658	196.000000
858.683105	189.800000
858.716553	190.500000
858.750000	188.600000
858.783386	190.000000
858.816833	187.600000
858.850281	193.600000
858.883728	194.400000
858.917114	194.900000
858.950562	199.300000
858.983948	199.800000
859.017395	196.500000
859.050781	191.700000
859.084167	189.800000
859.117615	189.200000
859.151062	194.900000
859.184448	189.200000
859.217834	191.700000
859.251282	190.600000
859.284668	188.500000
859.318054	185.900000
859.351440	191.300000
859.384888	199.200000
859.418274	187.800000
859.451721	186.800000
859.485046	195.400000
859.518494	195.900000
859.551819	189.800000
859.585266	194.500000
859.618652	197.300000
859.652039	187.800000
859.685425	189.300000
859.718811	188.600000
859.752197	185.000000
859.785583	198.700000
859.819031	198.500000
859.852356	195.600000
859.885742	191.100000
859.919067	192.300000
859.952454	191.200000
859.985901	196.600000
860.019287	191.900000
860.052612	0.000000
860.085999	0.000000
860.119324	0.000000
860.152710	0.000000
860.186096	0.000000
860.219421	0.000000
860.252808	0.000000
860.286133	0.000000
860.319519	0.000000
860.352905	0.000000
860.386292	0.000000
860.419617	0.000000
860.452942	0.000000
860.486267	0.000000
860.519653	0.000000
860.553040	0.000000
860.586365	0.000000
860.619690	0.000000
860.653076	0.000000
860.686340	0.000000
860.719727	0.000000
860.753113	0.000000
860.786377	0.000000
860.819763	0.000000
860.853027	0.000000
860.886414	0.000000
860.919739	0.000000
860.953125	0.000000
860.986389	0.000000
861.019714	0.000000
861.053040	0.000000
861.086365	0.000000
861.119690	0.000000
861.153076	0.000000
861.186340	0.000000
861.219666	0.000000
861.252930	0.000000
861.286316	0.000000
861.319641	0.000000
861.352905	0.000000
861.386230	0.000000
861.419495	0.000000
861.452820	0.000000
861.486145	0.000000
861.519470	0.000000
861.552734	0.000000
861.586060	0.000000
861.619324	0.000000
861.652649	0.000000
861.685974	0.000000
861.719238	0.000000
861.752563	0.000000
861.785828	0.000000
861.819092	0.000000
861.852417	0.000000
861.885742	0.000000
861.918945	0.000000
861.952271	0.000000
861.985535	0.000000
862.018799	0.000000
862.052124	0.000000
862.085449	0.000000
862.118652	0.000000
862.151978	0.000000
862.185181	0.000000
862.218506	0.000000
862.251770	0.000000
862.285034	0.000000
862.318298	0.000000
862.351562	0.000000
862.384827	0.000000
862.418091	0.000000
862.451355	0.000000
862.484619	0.000000
862.517883	0.000000
862.551086	0.000000
862.584351	0.000000
862.617676	0.000000
862.650940	0.000000
862.684143	0.000000
862.717407	0.000000
862.750610	0.000000
862.783875	0.000000
862.817139	0.000000
862.850342	0.000000
862.883606	0.000000
862.916870	0.000000
862.950073	0.000000
862.983337	0.000000
863.016602	0.000000
863.049805	0.000000
863.083069	0.000000
863.116211	0.000000
863.149475	0.000000
863.182739	0.000000
863.216003	0.000000
863.249146	0.000000
863.282410	0.000000
863.315613	0.000000
863.348816	0.000000
863.382080	0.000000
863.415222	0.000000
863.448486	0.000000
863.481689	0.000000
863.514893	0.000000
863.548157	0.000000
863.581360	0.000000
863.614502	0.000000
863.647766	0.000000
863.680908	0.000000
863.714172	0.000000
863.747375	0.000000
863.780579	0.000000
863.813721	0.000000
863.846985	0.000000
863.880127	0.000000
863.913330	0.000000
863.946533	0.000000
863.979675	0.000000
864.012939	0.000000
