Model Number: SPM-001-M   
Serial Number: 10090201
Firmware Version: 004.17.6
Exposure Time: 300000.000000us
Data Taken on: 21-01-2021 14:24:38.579
Wavelength	Amplitude
733.770752	0.000000
733.808716	0.000000
733.846619	0.000000
733.884583	0.000000
733.922546	0.000000
733.960449	0.000000
733.998413	0.000000
734.036377	0.000000
734.074219	0.000000
734.112183	0.000000
734.150085	0.000000
734.188049	0.000000
734.226013	0.000000
734.263916	0.000000
734.301819	0.000000
734.339783	0.000000
734.377686	0.000000
734.415588	0.000000
734.453552	0.000000
734.491455	0.000000
734.529419	0.000000
734.567322	0.000000
734.605225	0.000000
734.643127	0.000000
734.681091	0.000000
734.718994	0.000000
734.756897	0.000000
734.794800	0.000000
734.832703	0.000000
734.870667	0.000000
734.908508	0.000000
734.946472	0.000000
734.984375	0.000000
735.022278	0.000000
735.060181	0.000000
735.098083	0.000000
735.135986	0.000000
735.173889	0.000000
735.211792	0.000000
735.249695	0.000000
735.287598	0.000000
735.325439	0.000000
735.363403	0.000000
735.401306	0.000000
735.439148	0.000000
735.477051	0.000000
735.515015	0.000000
735.552856	0.000000
735.590759	0.000000
735.628662	0.000000
735.666504	0.000000
735.704407	0.000000
735.742310	0.000000
735.780212	0.000000
735.818115	0.000000
735.856018	0.000000
735.893860	0.000000
735.931763	0.000000
735.969604	0.000000
736.007507	0.000000
736.045410	0.000000
736.083252	0.000000
736.121094	0.000000
736.158997	0.000000
736.196838	0.000000
736.234741	0.000000
736.272644	0.000000
736.310486	0.000000
736.348389	0.000000
736.386230	0.000000
736.424072	0.000000
736.461975	0.000000
736.499878	0.000000
736.537720	0.000000
736.575562	0.000000
736.613403	0.000000
736.651306	0.000000
736.689148	0.000000
736.726990	0.000000
736.764893	0.000000
736.802734	0.000000
736.840576	0.000000
736.878418	0.000000
736.916321	0.000000
736.954102	0.000000
736.992004	0.000000
737.029846	0.000000
737.067688	0.000000
737.105530	0.000000
737.143372	0.000000
737.181213	0.000000
737.219116	0.000000
737.256897	0.000000
737.294739	0.000000
737.332642	0.000000
737.370422	0.000000
737.408325	0.000000
737.446167	0.000000
737.483948	0.000000
737.521790	0.000000
737.559692	0.000000
737.597473	0.000000
737.635315	0.000000
737.673157	0.000000
737.710999	0.000000
737.748840	0.000000
737.786621	0.000000
737.824463	0.000000
737.862305	0.000000
737.900085	0.000000
737.937927	0.000000
737.975769	0.000000
738.013550	0.000000
738.051392	0.000000
738.089233	0.000000
738.127014	0.000000
738.164856	0.000000
738.202698	0.000000
738.240479	0.000000
738.278320	0.000000
738.316162	0.000000
738.353943	0.000000
738.391785	0.000000
738.429565	0.000000
738.467407	0.000000
738.505188	0.000000
738.542969	0.000000
738.580811	0.000000
738.618652	0.000000
738.656372	0.000000
738.694214	0.000000
738.732056	0.000000
738.769836	0.000000
738.807617	0.000000
738.845459	0.000000
738.883240	0.000000
738.921021	0.000000
738.958862	0.000000
738.996582	0.000000
739.034424	0.000000
739.072205	0.000000
739.109985	0.000000
739.147827	0.000000
739.185547	0.000000
739.223389	0.000000
739.261169	0.000000
739.298889	0.000000
739.336731	0.000000
739.374512	0.000000
739.412292	0.000000
739.450073	0.000000
739.487854	0.000000
739.525635	0.000000
739.563416	0.000000
739.601135	0.000000
739.638977	0.000000
739.676758	0.000000
739.714478	0.000000
739.752258	0.000000
739.790100	0.000000
739.827820	0.000000
739.865601	0.000000
739.903381	0.000000
739.941101	0.000000
739.978882	195.500000
740.016724	189.800000
740.054443	195.100000
740.092224	189.800000
740.130005	188.500000
740.167725	188.800000
740.205505	188.800000
740.243225	195.900000
740.281006	191.000000
740.318787	185.900000
740.356506	195.900000
740.394287	195.400000
740.432068	188.500000
740.469727	186.800000
740.507507	195.100000
740.545288	190.900000
740.583008	193.600000
740.620789	192.600000
740.658569	186.000000
740.696228	191.600000
740.734009	193.600000
740.771790	184.300000
740.809509	194.400000
740.847229	188.500000
740.884949	190.100000
740.922729	187.000000
740.960449	189.600000
740.998169	188.600000
741.035950	189.000000
741.073669	192.600000
741.111389	192.500000
741.149170	200.400000
741.186890	197.200000
741.224609	195.000000
741.262329	191.700000
741.300110	199.700000
741.337769	187.400000
741.375549	188.900000
741.413208	191.200000
741.450989	189.800000
741.488708	188.700000
741.526367	190.200000
741.564148	194.000000
741.601868	194.700000
741.639526	190.600000
741.677307	194.400000
741.715027	192.600000
741.752686	188.500000
741.790466	196.300000
741.828186	192.500000
741.865845	187.100000
741.903564	187.000000
741.941345	191.400000
741.979004	187.800000
742.016724	195.700000
742.054382	192.700000
742.092102	195.000000
742.129822	187.300000
742.167480	190.100000
742.205200	189.900000
742.242920	193.100000
742.280640	195.100000
742.318359	189.700000
742.356079	191.500000
742.393738	195.300000
742.431396	190.700000
742.469116	196.000000
742.506775	184.100000
742.544495	194.400000
742.582214	194.700000
742.619873	191.800000
742.657593	195.900000
742.695251	197.700000
742.732971	190.300000
742.770630	194.200000
742.808289	191.700000
742.846008	193.800000
742.883728	191.500000
742.921326	194.300000
742.959045	189.000000
742.996765	193.000000
743.034424	191.200000
743.072083	190.800000
743.109802	189.600000
743.147400	188.000000
743.185120	191.300000
743.222839	191.400000
743.260437	196.400000
743.298157	192.900000
743.335754	185.300000
743.373474	190.800000
743.411133	187.100000
743.448792	190.800000
743.486450	191.800000
743.524170	186.500000
743.561768	192.600000
743.599487	197.700000
743.637146	199.700000
743.674744	190.800000
743.712463	191.000000
743.750122	191.900000
743.787720	195.100000
743.825439	189.900000
743.863037	189.600000
743.900696	191.600000
743.938416	218.400000
743.976013	191.700000
744.013672	200.500000
744.051331	195.000000
744.088928	199.200000
744.126587	194.200000
744.164307	194.800000
744.201904	189.000000
744.239563	194.200000
744.277222	193.000000
744.314819	191.700000
744.352478	197.300000
744.390137	194.100000
744.427734	192.200000
744.465393	190.300000
744.502991	187.300000
744.540649	194.200000
744.578308	191.400000
744.615906	190.000000
744.653564	183.600000
744.691223	194.500000
744.728821	186.900000
744.766418	191.400000
744.804077	192.100000
744.841675	191.600000
744.879333	185.900000
744.916992	190.200000
744.954529	189.800000
744.992187	195.900000
745.029785	189.900000
745.067444	188.600000
745.105042	191.100000
745.142639	193.300000
745.180298	200.300000
745.217896	190.000000
745.255493	190.400000
745.293152	195.300000
745.330750	196.500000
745.368347	197.200000
745.405945	196.200000
745.443604	192.200000
745.481140	196.600000
745.518799	191.000000
745.556396	195.300000
745.593994	193.100000
745.631592	193.100000
745.669189	188.600000
745.706787	193.900000
745.744385	188.200000
745.781982	196.500000
745.819580	189.000000
745.857178	192.600000
745.894775	190.400000
745.932373	193.400000
745.969971	192.100000
746.007568	187.000000
746.045166	197.600000
746.082764	197.600000
746.120300	192.700000
746.157898	194.600000
746.195557	190.300000
746.233093	188.300000
746.270691	192.100000
746.308228	194.200000
746.345825	194.600000
746.383423	194.000000
746.420959	189.300000
746.458557	188.900000
746.496155	189.900000
746.533691	192.500000
746.571289	189.000000
746.608887	191.700000
746.646423	193.200000
746.684021	192.300000
746.721619	187.900000
746.759155	193.900000
746.796753	187.000000
746.834351	187.100000
746.871826	189.400000
746.909424	197.000000
746.946960	193.700000
746.984558	191.500000
747.022156	191.900000
747.059631	197.600000
747.097229	194.500000
747.134827	190.900000
747.172363	198.200000
747.209900	193.500000
747.247498	189.100000
747.285034	196.500000
747.322571	198.500000
747.360168	189.200000
747.397644	187.800000
747.435242	195.000000
747.472778	197.300000
747.510315	190.500000
747.547913	192.200000
747.585388	195.400000
747.622925	190.000000
747.660522	185.800000
747.697998	190.900000
747.735596	189.400000
747.773132	190.000000
747.810669	192.200000
747.848206	194.100000
747.885742	188.000000
747.923279	187.700000
747.960815	192.200000
747.998352	192.200000
748.035889	193.600000
748.073425	193.500000
748.110901	190.900000
748.148437	189.900000
748.185974	191.800000
748.223511	200.000000
748.261047	193.700000
748.298584	193.600000
748.336060	192.000000
748.373596	193.800000
748.411133	217.300000
748.448608	189.800000
748.486145	196.200000
748.523682	196.300000
748.561218	199.200000
748.598755	192.700000
748.636292	194.700000
748.673706	191.400000
748.711243	200.500000
748.748718	192.500000
748.786255	191.700000
748.823792	190.900000
748.861267	188.900000
748.898804	192.600000
748.936340	194.700000
748.973816	188.700000
749.011292	197.100000
749.048828	193.100000
749.086304	193.600000
749.123840	198.500000
749.161316	191.300000
749.198792	198.200000
749.236328	196.700000
749.273743	190.300000
749.311279	191.100000
749.348816	195.100000
749.386230	191.100000
749.423767	182.600000
749.461304	194.300000
749.498718	191.800000
749.536255	196.400000
749.573730	201.100000
749.611206	197.700000
749.648682	192.000000
749.686218	192.600000
749.723633	193.600000
749.761169	190.200000
749.798645	190.100000
749.836060	190.200000
749.873596	189.300000
749.911011	193.000000
749.948547	195.900000
749.986023	192.100000
750.023437	191.500000
750.060913	187.500000
750.098450	188.100000
750.135864	191.700000
750.173340	192.400000
750.210815	195.000000
750.248291	189.500000
750.285767	190.300000
750.323242	196.500000
750.360657	194.100000
750.398132	189.300000
750.435608	192.400000
750.473022	189.300000
750.510498	187.600000
750.547974	188.900000
750.585449	190.100000
750.622925	183.500000
750.660339	200.700000
750.697815	192.700000
750.735291	190.600000
750.772644	191.100000
750.810120	191.700000
750.847595	194.200000
750.885010	187.700000
750.922485	197.800000
750.959961	189.900000
750.997375	196.600000
751.034851	195.300000
751.072266	194.100000
751.109680	186.000000
751.147156	197.400000
751.184570	193.500000
751.221985	191.000000
751.259460	186.400000
751.296875	191.300000
751.334290	192.200000
751.371765	195.600000
751.409180	195.600000
751.446594	196.400000
751.484070	194.400000
751.521423	192.800000
751.558899	193.500000
751.596375	198.800000
751.633728	197.600000
751.671204	200.000000
751.708618	190.300000
751.746033	192.300000
751.783447	188.900000
751.820801	188.300000
751.858276	195.600000
751.895691	191.100000
751.933105	191.600000
751.970520	187.700000
752.007935	190.300000
752.045349	195.200000
752.082764	192.200000
752.120178	188.800000
752.157532	189.800000
752.195007	188.900000
752.232422	194.600000
752.269775	195.400000
752.307190	195.200000
752.344543	187.000000
752.382019	191.600000
752.419434	190.000000
752.456787	193.900000
752.494202	194.700000
752.531616	191.400000
752.568970	193.100000
752.606384	193.400000
752.643799	193.700000
752.681152	197.300000
752.718567	195.100000
752.755981	185.400000
752.793335	195.300000
752.830750	187.200000
752.868164	196.400000
752.905518	189.000000
752.942932	195.100000
752.980225	189.600000
753.017639	196.100000
753.055054	195.400000
753.092407	194.400000
753.129822	195.000000
753.167175	200.300000
753.204529	193.300000
753.241943	189.900000
753.279358	188.800000
753.316650	195.400000
753.354065	192.800000
753.391479	198.200000
753.428772	196.600000
753.466187	194.500000
753.503479	187.200000
753.540894	191.300000
753.578308	186.700000
753.615601	189.000000
753.653015	191.300000
753.690369	191.100000
753.727722	188.500000
753.765076	187.000000
753.802490	187.600000
753.839783	187.400000
753.877136	189.200000
753.914551	202.800000
753.951843	189.000000
753.989258	194.900000
754.026611	191.600000
754.063904	193.700000
754.101257	188.100000
754.138611	185.900000
754.175964	191.900000
754.213318	199.000000
754.250610	187.100000
754.288025	190.400000
754.325378	188.100000
754.362671	195.700000
754.400024	191.800000
754.437378	198.900000
754.474670	198.500000
754.512085	189.600000
754.549438	193.000000
754.586731	189.800000
754.624084	192.100000
754.661438	187.500000
754.698730	199.900000
754.736084	190.800000
754.773376	191.000000
754.810730	193.700000
754.848083	192.500000
754.885315	196.200000
754.922668	187.000000
754.960022	187.400000
754.997314	195.400000
755.034668	190.200000
755.072021	194.100000
755.109253	189.900000
755.146606	199.100000
755.183960	189.500000
755.221252	199.700000
755.258545	193.900000
755.295898	197.600000
755.333191	196.700000
755.370544	195.200000
755.407776	191.700000
755.445129	194.000000
755.482422	196.200000
755.519714	190.000000
755.557068	186.100000
755.594360	186.800000
755.631653	195.900000
755.668945	197.500000
755.706299	193.400000
755.743530	202.600000
755.780884	198.700000
755.818176	196.800000
755.855408	195.800000
755.892761	194.100000
755.930054	193.300000
755.967346	194.000000
756.004639	193.400000
756.041870	192.500000
756.079224	197.500000
756.116516	190.800000
756.153748	196.400000
756.191040	200.100000
756.228394	195.300000
756.265625	190.300000
756.302917	194.700000
756.340210	191.800000
756.377441	199.000000
756.414795	200.000000
756.452087	193.600000
756.489319	188.100000
756.526611	198.000000
756.563843	193.700000
756.601135	201.500000
756.638428	201.800000
756.675659	194.300000
756.712952	195.300000
756.750244	197.300000
756.787476	194.700000
756.824768	198.800000
756.862061	192.300000
756.899292	241.200000
756.936584	197.100000
756.973816	204.400000
757.011047	203.300000
757.048340	195.900000
757.085632	195.500000
757.122864	208.700000
757.160156	192.100000
757.197327	196.600000
757.234619	198.600000
757.271912	194.600000
757.309082	200.300000
757.346375	192.600000
757.383667	201.100000
757.420837	196.300000
757.458130	197.300000
757.495422	196.000000
757.532593	199.500000
757.569885	191.700000
757.607117	193.500000
757.644348	197.300000
757.681580	207.400000
757.718811	188.400000
757.756042	198.000000
757.793335	195.000000
757.830505	197.600000
757.867798	194.400000
757.905029	195.900000
757.942200	196.700000
757.979492	196.300000
758.016724	195.800000
758.053894	197.100000
758.091187	209.300000
758.128418	198.100000
758.165588	194.800000
758.202820	206.700000
758.240112	197.000000
758.277283	207.500000
758.314514	198.900000
758.351685	196.700000
758.388916	202.400000
758.426147	204.500000
758.463379	204.200000
758.500610	199.700000
758.537842	198.100000
758.575012	203.900000
758.612244	194.100000
758.649475	208.400000
758.686646	193.300000
758.723877	202.900000
758.761108	205.600000
758.798279	197.900000
758.835510	201.300000
758.872742	206.200000
758.909851	201.800000
758.947083	201.000000
758.984253	201.600000
759.021484	204.800000
759.058716	203.100000
759.095886	204.600000
759.133057	201.700000
759.170288	203.400000
759.207458	199.400000
759.244690	208.700000
759.281860	208.200000
759.319031	202.000000
759.356262	200.600000
759.393433	199.200000
759.430603	200.700000
759.467773	202.200000
759.505005	208.000000
759.542175	205.800000
759.579346	200.900000
759.616516	200.700000
759.653687	206.300000
759.690918	198.800000
759.728027	204.300000
759.765259	203.500000
759.802429	207.900000
759.839539	203.400000
759.876770	207.100000
759.913940	210.200000
759.951111	205.800000
759.988281	204.900000
760.025452	201.500000
760.062561	200.500000
760.099792	212.800000
760.136963	206.700000
760.174072	203.200000
760.211243	200.100000
760.248413	201.300000
760.285583	200.200000
760.322754	213.500000
760.359863	209.900000
760.397034	210.500000
760.434204	205.400000
760.471375	206.000000
760.508545	205.500000
760.545715	206.500000
760.582825	203.800000
760.619995	209.000000
760.657166	203.500000
760.694275	211.000000
760.731445	208.200000
760.768555	207.900000
760.805664	210.100000
760.842834	207.200000
760.879944	211.200000
760.917114	208.300000
760.954285	206.200000
760.991394	202.800000
761.028564	212.400000
761.065674	209.300000
761.102783	207.300000
761.139954	211.400000
761.177124	211.300000
761.214172	212.100000
761.251343	207.800000
761.288452	207.500000
761.325562	211.500000
761.362732	205.900000
761.399841	208.200000
761.436951	210.100000
761.474121	206.400000
761.511169	207.300000
761.548340	213.700000
761.585449	211.000000
761.622559	211.900000
761.659668	210.600000
761.696838	214.800000
761.733887	212.200000
761.771057	210.000000
761.808167	209.100000
761.845276	214.700000
761.882385	220.700000
761.919434	210.700000
761.956604	226.500000
761.993713	210.100000
762.030762	216.800000
762.067871	211.200000
762.105042	212.100000
762.142090	217.900000
762.179199	213.200000
762.216309	217.900000
762.253418	225.200000
762.290527	221.800000
762.327637	218.200000
762.364685	211.400000
762.401794	218.100000
762.438904	217.000000
762.475952	213.400000
762.513062	208.900000
762.550110	213.300000
762.587219	222.300000
762.624329	221.800000
762.661377	216.600000
762.698486	216.900000
762.735596	215.600000
762.772644	214.400000
762.809753	210.900000
762.846863	215.500000
762.883911	218.200000
762.921021	217.800000
762.958069	214.800000
762.995117	223.600000
763.032227	223.100000
763.069336	216.600000
763.106323	214.600000
763.143433	214.100000
763.180481	218.200000
763.217590	219.700000
763.254639	216.000000
763.291687	216.800000
763.328735	225.100000
763.365845	218.200000
763.402893	217.200000
763.439941	221.400000
763.477051	222.400000
763.514038	222.100000
763.551147	219.700000
763.588196	222.000000
763.625244	221.400000
763.662292	226.800000
763.699402	229.000000
763.736389	223.800000
763.773499	231.600000
763.810486	226.000000
763.847534	223.400000
763.884644	225.400000
763.921631	223.000000
763.958679	230.900000
763.995728	225.500000
764.032776	229.500000
764.069824	223.200000
764.106873	228.900000
764.143860	234.500000
764.180969	223.700000
764.218018	231.600000
764.255005	225.500000
764.292053	227.800000
764.329102	234.700000
764.366089	234.800000
764.403137	231.800000
764.440125	227.700000
764.477173	227.800000
764.514221	232.500000
764.551208	229.500000
764.588257	227.500000
764.625305	234.300000
764.662292	239.700000
764.699341	238.000000
764.736389	234.400000
764.773376	244.400000
764.810425	236.900000
764.847473	241.700000
764.884399	239.200000
764.921448	244.000000
764.958435	244.200000
764.995483	237.200000
765.032532	247.400000
765.069458	238.400000
765.106506	238.700000
765.143555	238.200000
765.180481	242.700000
765.217529	249.300000
765.254578	237.300000
765.291504	241.900000
765.328552	240.100000
765.365540	239.800000
765.402527	248.600000
765.439575	241.500000
765.476501	236.800000
765.513550	237.200000
765.550537	242.600000
765.587463	250.000000
765.624512	239.400000
765.661499	236.200000
765.698486	247.400000
765.735474	240.800000
765.772461	241.600000
765.809448	249.500000
765.846436	245.900000
765.883423	252.300000
765.920410	246.800000
765.957397	244.800000
765.994385	247.300000
766.031311	254.400000
766.068359	247.200000
766.105286	250.400000
766.142273	253.600000
766.179260	248.900000
766.216187	246.900000
766.253174	245.800000
766.290161	250.600000
766.327148	253.200000
766.364136	252.500000
766.401123	264.300000
766.438049	248.800000
766.475037	259.200000
766.512024	257.100000
766.548950	268.500000
766.585937	262.200000
766.622864	257.900000
766.659790	257.700000
766.696777	249.700000
766.733704	261.000000
766.770691	253.400000
766.807678	264.500000
766.844604	257.400000
766.881531	258.800000
766.918518	264.600000
766.955444	264.900000
766.992432	259.700000
767.029358	264.100000
767.066284	262.800000
767.103271	262.700000
767.140198	293.800000
767.177124	274.100000
767.214050	267.100000
767.251038	268.300000
767.287964	262.100000
767.324890	263.200000
767.361816	264.500000
767.398743	270.600000
767.435730	263.500000
767.472595	268.600000
767.509583	272.000000
767.546509	265.400000
767.583374	267.100000
767.620361	263.300000
767.657288	268.500000
767.694214	268.500000
767.731140	265.300000
767.768066	267.700000
767.804993	268.700000
767.841919	266.200000
767.878845	268.500000
767.915710	275.000000
767.952698	269.000000
767.989563	273.900000
768.026489	272.900000
768.063416	267.200000
768.100281	269.500000
768.137207	276.800000
768.174133	277.400000
768.211060	275.900000
768.247986	275.400000
768.284912	272.500000
768.321777	273.700000
768.358704	271.600000
768.395630	277.100000
768.432495	271.500000
768.469421	277.000000
768.506348	280.000000
768.543152	285.900000
768.580078	280.900000
768.616943	282.000000
768.653870	282.900000
768.690796	283.500000
768.727661	280.000000
768.764587	281.400000
768.801453	276.300000
768.838318	287.500000
768.875244	287.100000
768.912109	289.500000
768.948975	282.300000
768.985901	286.300000
769.022766	282.300000
769.059631	285.900000
769.096558	283.600000
769.133362	284.600000
769.170288	284.700000
769.207214	285.800000
769.244019	288.900000
769.280945	288.500000
769.317810	296.900000
769.354675	290.300000
769.391541	299.400000
769.428406	294.300000
769.465271	302.600000
769.502136	293.700000
769.539062	297.800000
769.575867	296.800000
769.612732	297.700000
769.649597	300.300000
769.686462	304.700000
769.723328	298.300000
769.760193	299.300000
769.797058	300.300000
769.833923	307.600000
769.870728	302.600000
769.907593	306.800000
769.944519	303.900000
769.981323	310.000000
770.018188	308.200000
770.055054	307.700000
770.091858	306.900000
770.128723	315.700000
770.165588	321.400000
770.202393	309.900000
770.239258	317.900000
770.276062	316.300000
770.312927	317.500000
770.349792	322.900000
770.386597	320.400000
770.423462	328.400000
770.460327	333.200000
770.497131	322.000000
770.533997	317.400000
770.570862	331.400000
770.607605	328.400000
770.644470	325.600000
770.681335	328.800000
770.718140	329.700000
770.754944	324.000000
770.791809	324.500000
770.828613	326.400000
770.865479	329.600000
770.902222	337.000000
770.939087	330.900000
770.975952	325.800000
771.012695	330.100000
771.049561	341.300000
771.086365	336.700000
771.123169	331.100000
771.159973	332.900000
771.196838	334.300000
771.233582	336.700000
771.270447	339.300000
771.307251	343.300000
771.344055	338.100000
771.380859	340.800000
771.417664	338.500000
771.454468	344.900000
771.491272	343.000000
771.528076	344.000000
771.564880	343.000000
771.601685	346.700000
771.638428	344.200000
771.675293	346.900000
771.712097	340.000000
771.748840	352.100000
771.785645	348.000000
771.822449	350.700000
771.859253	352.000000
771.896057	349.900000
771.932861	357.400000
771.969604	351.800000
772.006409	348.200000
772.043213	354.500000
772.079956	356.300000
772.116760	350.100000
772.153503	354.300000
772.190308	361.400000
772.227112	353.000000
772.263855	352.200000
772.300659	353.600000
772.337463	360.100000
772.374207	353.900000
772.411011	354.300000
772.447754	355.500000
772.484497	369.200000
772.521301	362.700000
772.558105	362.600000
772.594849	362.700000
772.631592	364.100000
772.668396	364.400000
772.705139	367.200000
772.741882	366.700000
772.778625	375.000000
772.815430	376.400000
772.852173	373.100000
772.888916	377.600000
772.925720	380.800000
772.962463	386.200000
772.999207	382.400000
773.035950	381.300000
773.072754	384.000000
773.109436	378.400000
773.146240	379.100000
773.182922	379.000000
773.219727	384.000000
773.256470	382.500000
773.293152	375.700000
773.329956	380.000000
773.366699	385.300000
773.403381	377.600000
773.440186	385.600000
773.476929	386.100000
773.513611	384.000000
773.550354	381.800000
773.587158	384.200000
773.623840	379.800000
773.660583	385.500000
773.697327	395.400000
773.734009	390.000000
773.770813	386.100000
773.807495	384.600000
773.844238	385.900000
773.880981	398.000000
773.917664	394.000000
773.954407	400.600000
773.991150	392.800000
774.027832	400.000000
774.064575	392.700000
774.101318	395.400000
774.138000	398.000000
774.174744	398.000000
774.211487	397.200000
774.248108	387.200000
774.284851	391.600000
774.321594	398.000000
774.358276	400.300000
774.395020	407.900000
774.431702	404.100000
774.468384	399.500000
774.505127	397.100000
774.541809	403.400000
774.578491	407.500000
774.615234	411.600000
774.651917	404.300000
774.688599	407.400000
774.725342	415.800000
774.762024	411.100000
774.798706	415.700000
774.835449	416.300000
774.872070	424.300000
774.908813	420.900000
774.945496	421.400000
774.982178	418.200000
775.018860	421.200000
775.055542	421.900000
775.092224	426.400000
775.128967	429.200000
775.165588	429.100000
775.202271	423.100000
775.239014	431.800000
775.275635	434.900000
775.312317	433.000000
775.349060	434.400000
775.385681	435.700000
775.422363	431.500000
775.459045	435.800000
775.495667	435.900000
775.532410	438.800000
775.569092	438.700000
775.605713	441.500000
775.642395	441.700000
775.679016	442.700000
775.715698	444.600000
775.752380	447.600000
775.789001	442.900000
775.825684	444.900000
775.862366	450.400000
775.898987	457.600000
775.935669	450.100000
775.972351	464.200000
776.008972	465.500000
776.045654	466.300000
776.082336	460.000000
776.118958	457.800000
776.155640	465.900000
776.192322	470.900000
776.228882	476.000000
776.265564	475.100000
776.302185	475.700000
776.338867	476.400000
776.375488	469.400000
776.412109	478.900000
776.448792	483.900000
776.485413	492.100000
776.522034	484.200000
776.558716	478.400000
776.595337	480.900000
776.631958	482.400000
776.668579	484.700000
776.705261	490.200000
776.741882	487.800000
776.778503	488.400000
776.815186	490.000000
776.851746	493.700000
776.888367	493.100000
776.924988	498.900000
776.961609	497.000000
776.998291	494.900000
777.034851	488.200000
777.071472	498.100000
777.108154	497.700000
777.144714	509.000000
777.181335	504.700000
777.218018	500.400000
777.254578	508.300000
777.291199	508.700000
777.327759	509.700000
777.364380	516.000000
777.401062	523.200000
777.437622	529.200000
777.474243	514.900000
777.510864	523.900000
777.547424	516.300000
777.584045	521.400000
777.620667	527.100000
777.657227	527.500000
777.693848	529.400000
777.730469	538.600000
777.767029	529.700000
777.803650	534.000000
777.840271	529.400000
777.876831	529.900000
777.913452	537.100000
777.950012	526.600000
777.986633	526.600000
778.023193	526.600000
778.059753	524.900000
778.096375	530.400000
778.132996	538.200000
778.169556	529.200000
778.206116	529.800000
778.242737	527.800000
778.279297	532.400000
778.315857	529.900000
778.352478	536.900000
778.389038	541.800000
778.425598	539.800000
778.462219	547.000000
778.498718	543.100000
778.535339	545.900000
778.571838	546.600000
778.608459	550.300000
778.645020	545.000000
778.681580	552.900000
778.718140	553.400000
778.754761	547.900000
778.791260	551.400000
778.827881	559.500000
778.864441	556.600000
778.900940	563.800000
778.937561	561.400000
778.974121	557.900000
779.010620	556.300000
779.047241	557.700000
779.083801	564.200000
779.120300	563.800000
779.156860	566.700000
779.193359	563.400000
779.229980	564.800000
779.266541	570.600000
779.303040	572.100000
779.339600	568.300000
779.376160	564.300000
779.412659	563.500000
779.449219	559.600000
779.485779	566.000000
779.522278	566.200000
779.558838	569.100000
779.595398	570.800000
779.631897	568.600000
779.668457	560.700000
779.705017	568.600000
779.741516	563.400000
779.778076	560.100000
779.814575	564.200000
779.851074	569.500000
779.887634	568.200000
779.924133	572.400000
779.960693	564.700000
779.997253	573.300000
780.033691	577.400000
780.070251	578.800000
780.106812	585.500000
780.143250	581.300000
780.179810	578.700000
780.216370	574.500000
780.252808	579.800000
780.289368	592.200000
780.325867	594.400000
780.362366	593.100000
780.398865	597.700000
780.435364	594.100000
780.471863	598.800000
780.508423	599.100000
780.544861	600.200000
780.581421	602.600000
780.617920	594.700000
780.654419	590.200000
780.690918	597.200000
780.727417	605.100000
780.763916	605.200000
780.800415	610.700000
780.836914	599.500000
780.873352	611.000000
780.909912	600.700000
780.946411	604.600000
780.982849	611.000000
781.019348	622.900000
781.055786	619.000000
781.092346	619.400000
781.128845	616.000000
781.165283	625.900000
781.201782	636.400000
781.238281	633.700000
781.274719	634.000000
781.311218	638.500000
781.347717	641.500000
781.384155	630.900000
781.420654	636.100000
781.457092	643.600000
781.493591	638.900000
781.530090	635.600000
781.566528	633.400000
781.602966	632.800000
781.639465	639.100000
781.675903	629.800000
781.712402	640.600000
781.748901	644.100000
781.785278	638.800000
781.821777	643.200000
781.858276	643.800000
781.894714	653.200000
781.931152	646.900000
781.967651	649.000000
782.004089	628.400000
782.040527	608.300000
782.076965	575.500000
782.113403	530.000000
782.149902	480.200000
782.186340	421.400000
782.222778	381.900000
782.259277	337.400000
782.295654	324.100000
782.332092	339.700000
782.368591	371.600000
782.404968	407.400000
782.441467	445.400000
782.477905	457.200000
782.514282	437.300000
782.550781	413.400000
782.587219	370.200000
782.623596	342.600000
782.660095	319.200000
782.696472	311.800000
782.732910	311.900000
782.769348	319.700000
782.805786	344.000000
782.842224	348.900000
782.878662	339.000000
782.915039	321.400000
782.951477	300.500000
782.987915	278.000000
783.024292	270.800000
783.060730	271.300000
783.097168	277.300000
783.133545	300.400000
783.169983	348.900000
783.206421	410.900000
783.242798	489.600000
783.279236	561.700000
783.315613	614.600000
783.352051	650.100000
783.388489	671.600000
783.424866	675.900000
783.461304	682.700000
783.497681	691.600000
783.534058	693.100000
783.570496	690.000000
783.606934	694.500000
783.643250	698.700000
783.679687	701.600000
783.716125	697.900000
783.752441	705.100000
783.788879	720.100000
783.825317	733.100000
783.861633	738.600000
783.898071	737.300000
783.934448	753.100000
783.970825	765.700000
784.007263	763.500000
784.043579	768.100000
784.080017	774.700000
784.116394	772.000000
784.152710	773.600000
784.189148	776.400000
784.225525	776.900000
784.261902	770.600000
784.298279	763.000000
784.334656	765.400000
784.371033	760.700000
784.407410	762.800000
784.443787	748.200000
784.480164	738.200000
784.516541	719.400000
784.552856	722.200000
784.589233	719.000000
784.625610	715.500000
784.661987	744.200000
784.698364	736.400000
784.734741	729.400000
784.771057	730.200000
784.807434	742.000000
784.843811	750.500000
784.880127	746.700000
784.916504	774.900000
784.952881	776.000000
784.989197	779.500000
785.025574	781.300000
785.061951	783.300000
785.098267	797.100000
785.134644	796.700000
785.170959	794.400000
785.207275	799.500000
785.243652	795.500000
785.279968	774.900000
785.316345	778.600000
785.352722	783.800000
785.388977	775.700000
785.425354	760.000000
785.461731	742.200000
785.498047	738.700000
785.534363	733.500000
785.570679	737.700000
785.606995	734.500000
785.643372	735.800000
785.679687	731.100000
785.716003	724.600000
785.752380	720.700000
785.788635	728.300000
785.825012	739.400000
785.861328	751.000000
785.897644	742.300000
785.933960	754.900000
785.970337	760.200000
786.006592	777.600000
786.042908	785.800000
786.079285	791.900000
786.115540	803.800000
786.151855	803.300000
786.188171	806.800000
786.224487	805.400000
786.260803	805.300000
786.297119	805.000000
786.333435	807.600000
786.369751	802.800000
786.406006	803.600000
786.442322	783.900000
786.478638	777.000000
786.514954	782.200000
786.551270	776.900000
786.587585	780.000000
786.623840	769.400000
786.660156	762.800000
786.696472	760.500000
786.732727	752.600000
786.769043	757.500000
786.805298	754.900000
786.841614	758.000000
786.877930	772.600000
786.914124	761.200000
786.950439	773.500000
786.986755	784.900000
787.023010	793.800000
787.059326	800.700000
787.095642	807.500000
787.131836	819.800000
787.168152	815.800000
787.204468	818.900000
787.240723	835.100000
787.276978	839.000000
787.313293	848.700000
787.349548	841.900000
787.385803	847.400000
787.422058	841.700000
787.458313	837.000000
787.494629	834.200000
787.530823	835.900000
787.567139	824.600000
787.603455	814.700000
787.639648	804.600000
787.675903	805.600000
787.712219	800.100000
787.748413	799.400000
787.784729	809.100000
787.820984	802.800000
787.857178	801.400000
787.893494	795.400000
787.929749	790.100000
787.965942	805.400000
788.002258	810.400000
788.038452	823.900000
788.074707	817.900000
788.110962	831.000000
788.147217	825.500000
788.183472	837.000000
788.219727	842.000000
788.255920	858.500000
788.292175	866.400000
788.328430	866.000000
788.364624	850.300000
788.400879	851.700000
788.437134	861.000000
788.473328	868.600000
788.509583	870.600000
788.545837	867.500000
788.582031	859.100000
788.618286	856.100000
788.654480	854.800000
788.690735	868.300000
788.726990	873.200000
788.763184	874.400000
788.799377	885.400000
788.835632	877.400000
788.871826	890.100000
788.908081	883.600000
788.944336	882.500000
788.980469	897.800000
789.016724	890.000000
789.052979	894.400000
789.089111	881.300000
789.125366	882.400000
789.161621	867.400000
789.197754	882.700000
789.234009	875.900000
789.270142	869.600000
789.306396	866.100000
789.342590	859.500000
789.378784	847.600000
789.414978	842.600000
789.451233	850.000000
789.487366	854.900000
789.523621	864.900000
789.559814	855.500000
789.595947	854.600000
789.632202	861.200000
789.668335	872.800000
789.704529	893.400000
789.740784	909.600000
789.776917	914.600000
789.813110	907.300000
789.849304	910.400000
789.885498	910.800000
789.921692	926.900000
789.957886	924.400000
789.994019	935.600000
790.030212	945.700000
790.066406	943.900000
790.102539	935.500000
790.138733	944.800000
790.174927	939.500000
790.211060	954.600000
790.247253	950.600000
790.283386	949.700000
790.319580	935.900000
790.355774	917.700000
790.391907	914.800000
790.428101	923.900000
790.464294	924.300000
790.500427	931.400000
790.536621	917.600000
790.572754	900.500000
790.608887	892.800000
790.645081	898.600000
790.681274	915.700000
790.717346	915.800000
790.753540	902.900000
790.789734	886.400000
790.825867	875.900000
790.862000	880.400000
790.898132	889.900000
790.934265	891.700000
790.970459	893.600000
791.006592	889.300000
791.042725	883.800000
791.078918	876.100000
791.114990	872.000000
791.151184	875.200000
791.187317	892.400000
791.223389	893.100000
791.259583	883.700000
791.295715	885.600000
791.331848	890.500000
791.367981	903.100000
791.404114	898.400000
791.440247	907.500000
791.476379	911.200000
791.512451	896.000000
791.548584	892.700000
791.584778	882.400000
791.620850	890.400000
791.656982	900.400000
791.693115	892.900000
791.729187	891.000000
791.765381	893.700000
791.801514	892.600000
791.837585	896.700000
791.873718	903.600000
791.909851	907.900000
791.945923	914.000000
791.982056	897.600000
792.018188	892.600000
792.054260	890.900000
792.090393	898.100000
792.126465	888.600000
792.162598	892.700000
792.198669	894.000000
792.234741	888.600000
792.270874	879.600000
792.307007	864.000000
792.343079	864.500000
792.379150	877.500000
792.415283	867.400000
792.451355	875.900000
792.487488	850.800000
792.523560	847.300000
792.559631	837.100000
792.595764	811.800000
792.631836	783.100000
792.667908	762.100000
792.703979	736.200000
792.740051	747.400000
792.776184	777.600000
792.812256	794.800000
792.848328	803.900000
792.884399	820.700000
792.920471	822.300000
792.956543	825.700000
792.992615	823.700000
793.028748	818.000000
793.064758	819.000000
793.100830	838.200000
793.136963	852.300000
793.172974	852.800000
793.209045	845.300000
793.245178	854.700000
793.281189	842.900000
793.317261	844.800000
793.353271	849.700000
793.389404	862.400000
793.425476	852.200000
793.461487	842.700000
793.497559	833.600000
793.533630	838.500000
793.569641	830.400000
793.605713	834.000000
793.641785	839.900000
793.677795	849.500000
793.713867	844.200000
793.749878	846.100000
793.785950	859.700000
793.822021	864.300000
793.858032	852.700000
793.894104	869.300000
793.930176	869.700000
793.966187	865.300000
794.002258	854.500000
794.038269	869.100000
794.074280	862.300000
794.110352	885.600000
794.146423	869.100000
794.182373	866.000000
794.218445	858.600000
794.254517	856.900000
794.290466	843.300000
794.326538	850.900000
794.362549	854.100000
794.398560	854.900000
794.434631	851.800000
794.470581	837.300000
794.506653	829.100000
794.542664	830.000000
794.578674	827.100000
794.614685	829.900000
794.650757	837.300000
794.686707	839.900000
794.722778	831.000000
794.758789	834.200000
794.794739	842.800000
794.830811	864.600000
794.866821	885.200000
794.902771	889.300000
794.938843	875.800000
794.974792	874.900000
795.010803	880.000000
795.046814	880.000000
795.082825	872.900000
795.118835	890.100000
795.154846	867.700000
795.190796	869.100000
795.226807	856.900000
795.262817	853.700000
795.298767	858.800000
795.334778	876.200000
795.370850	863.700000
795.406799	859.200000
795.442810	854.500000
795.478821	845.700000
795.514709	842.600000
795.550720	872.000000
795.586670	853.700000
795.622681	856.700000
795.658691	860.600000
795.694641	857.700000
795.730652	857.000000
795.766663	859.700000
795.802551	862.500000
795.838562	883.500000
795.874573	878.500000
795.910522	871.900000
795.946472	854.100000
795.982483	857.300000
796.018433	865.200000
796.054382	871.100000
796.090393	863.100000
796.126282	851.400000
796.162292	843.300000
796.198242	836.100000
796.234192	832.900000
796.270203	833.800000
796.306091	835.800000
796.342041	847.300000
796.378052	840.200000
796.413940	843.200000
796.449951	844.400000
796.485901	843.800000
796.521790	849.800000
796.557800	865.900000
796.593689	865.700000
796.629639	859.200000
796.665649	855.700000
796.701599	851.100000
796.737488	852.500000
796.773437	864.000000
796.809387	857.900000
796.845337	865.800000
796.881287	855.200000
796.917175	843.700000
796.953125	837.800000
796.989075	841.400000
797.024963	840.200000
797.060913	846.100000
797.096863	844.600000
797.132751	836.900000
797.168701	822.600000
797.204590	820.100000
797.240540	827.200000
797.276489	835.600000
797.312439	841.200000
797.348328	841.900000
797.384277	834.200000
797.420166	822.400000
797.456055	819.500000
797.492004	821.300000
797.527893	827.900000
797.563843	832.100000
797.599731	828.200000
797.635620	821.400000
797.671570	827.900000
797.707520	828.800000
797.743347	823.500000
797.779297	834.500000
797.815125	835.900000
797.851074	830.500000
797.887024	815.600000
797.922913	801.000000
797.958801	809.000000
797.994690	802.700000
798.030579	816.700000
798.066467	819.000000
798.102356	809.600000
798.138245	800.700000
798.174133	793.800000
798.210083	805.500000
798.245911	818.400000
798.281799	813.400000
798.317749	808.700000
798.353577	807.300000
798.389465	799.900000
798.425293	799.600000
798.461243	805.100000
798.497131	803.200000
798.532959	804.700000
798.568848	813.000000
798.604736	802.800000
798.640564	797.700000
798.676453	793.800000
798.712402	791.200000
798.748230	797.300000
798.784119	801.200000
798.820007	801.100000
798.855835	800.900000
798.891724	794.300000
798.927551	784.300000
798.963379	788.200000
798.999268	789.400000
799.035095	788.300000
799.070984	770.900000
799.106873	768.000000
799.142700	767.400000
799.178528	756.600000
799.214417	760.300000
799.250244	769.100000
799.286133	770.100000
799.321960	769.000000
799.357788	765.900000
799.393677	760.100000
799.429504	763.800000
799.465332	764.100000
799.501221	772.400000
799.537048	779.000000
799.572876	766.900000
799.608704	764.200000
799.644531	778.400000
799.680359	775.400000
799.716248	781.100000
799.752014	788.600000
799.787903	781.000000
799.823730	774.300000
799.859558	768.500000
799.895386	765.300000
799.931213	771.900000
799.967041	765.400000
800.002869	769.400000
800.038696	780.000000
800.074463	766.100000
800.110352	761.700000
800.146179	752.200000
800.181946	764.700000
800.217773	766.400000
800.253540	763.100000
800.289429	764.000000
800.325256	752.100000
800.361023	746.400000
800.396851	754.700000
800.432678	758.300000
800.468445	761.800000
800.504272	760.200000
800.540100	745.600000
800.575867	744.300000
800.611694	748.400000
800.647461	744.200000
800.683289	750.200000
800.719116	757.300000
800.754883	753.200000
800.790649	738.900000
800.826477	732.000000
800.862244	747.100000
800.898071	736.200000
800.933838	740.600000
800.969604	739.200000
801.005432	738.200000
801.041199	737.100000
801.076965	729.300000
801.112793	724.700000
801.148560	721.700000
801.184326	724.600000
801.220154	724.300000
801.255859	717.900000
801.291687	713.900000
801.327454	713.100000
801.363281	709.700000
801.398987	707.800000
801.434814	711.900000
801.470520	719.900000
801.506287	706.000000
801.542114	700.300000
801.577820	703.300000
801.613647	700.800000
801.649414	702.100000
801.685120	704.700000
801.720886	707.400000
801.756714	697.500000
801.792419	689.700000
801.828186	681.200000
801.863892	688.900000
801.899719	684.700000
801.935486	682.900000
801.971252	691.600000
802.006958	681.700000
802.042725	678.600000
802.078430	680.000000
802.114197	674.100000
802.149963	689.000000
802.185669	678.300000
802.221436	672.900000
802.257202	674.800000
802.292908	672.900000
802.328674	679.700000
802.364441	686.500000
802.400146	680.900000
802.435913	686.700000
802.471558	677.700000
802.507324	668.100000
802.543091	668.800000
802.578796	677.300000
802.614502	682.900000
802.650269	690.300000
802.685974	674.500000
802.721741	680.500000
802.757446	677.600000
802.793152	677.300000
802.828918	684.300000
802.864624	683.900000
802.900330	675.300000
802.936035	681.100000
802.971802	674.600000
803.007446	662.300000
803.043213	655.000000
803.078857	672.600000
803.114624	657.600000
803.150330	662.900000
803.185974	655.100000
803.221741	652.800000
803.257446	658.800000
803.293152	665.400000
803.328857	661.700000
803.364563	659.900000
803.400208	661.100000
803.435974	664.300000
803.471680	653.500000
803.507324	648.500000
803.543030	650.600000
803.578735	656.100000
803.614441	655.500000
803.650146	663.400000
803.685791	648.400000
803.721497	651.400000
803.757202	641.800000
803.792847	644.300000
803.828552	642.400000
803.864258	642.900000
803.899902	639.700000
803.935608	627.600000
803.971313	629.800000
804.006958	625.600000
804.042664	625.100000
804.078308	632.800000
804.113953	625.500000
804.149658	632.600000
804.185364	618.600000
804.221008	633.600000
804.256714	618.900000
804.292297	616.000000
804.328003	613.200000
804.363708	609.000000
804.399292	613.200000
804.434998	611.900000
804.470703	601.100000
804.506287	609.000000
804.541992	605.700000
804.577637	609.300000
804.613281	598.100000
804.648926	596.800000
804.684570	601.600000
804.720215	593.200000
804.755920	593.400000
804.791565	592.500000
804.827209	601.300000
804.862854	595.200000
804.898437	593.500000
804.934143	591.900000
804.969788	589.900000
805.005371	590.100000
805.041077	590.300000
805.076721	590.000000
805.112305	585.900000
805.147949	582.600000
805.183655	579.500000
805.219238	586.700000
805.254883	578.400000
805.290466	584.900000
805.326111	577.500000
805.361755	572.100000
805.397400	571.500000
805.432983	576.300000
805.468628	571.300000
805.504211	578.100000
805.539856	573.300000
805.575500	579.100000
805.611084	570.800000
805.646729	563.400000
805.682373	565.900000
805.717957	573.300000
805.753601	573.500000
805.789246	563.200000
805.824768	570.700000
805.860413	579.500000
805.895996	562.200000
805.931641	563.300000
805.967224	569.300000
806.002869	564.000000
806.038452	572.600000
806.074036	577.200000
806.109619	563.200000
806.145264	557.400000
806.180847	555.600000
806.216431	555.400000
806.252014	561.700000
806.287659	561.300000
806.323181	561.700000
806.358826	560.500000
806.394409	546.600000
806.429993	547.200000
806.465576	556.500000
806.501160	546.200000
806.536743	540.900000
806.572327	552.200000
806.607910	544.200000
806.643494	544.600000
806.679077	539.200000
806.714661	538.700000
806.750244	539.400000
806.785828	538.700000
806.821350	538.300000
806.856934	540.100000
806.892517	534.800000
806.928101	531.600000
806.963684	533.300000
806.999268	537.300000
807.034790	523.900000
807.070374	525.000000
807.105896	520.800000
807.141479	519.800000
807.177063	524.800000
807.212585	517.100000
807.248169	518.300000
807.283752	525.300000
807.319275	519.000000
807.354858	519.900000
807.390381	515.300000
807.425903	509.000000
807.461487	512.700000
807.497070	503.400000
807.532593	505.800000
807.568115	502.800000
807.603699	499.100000
807.639221	499.900000
807.674744	501.500000
807.710266	503.000000
807.745850	503.800000
807.781372	499.400000
807.816895	494.700000
807.852417	493.400000
807.888000	491.000000
807.923523	491.700000
807.959045	493.800000
807.994629	488.400000
808.030090	487.000000
808.065613	494.100000
808.101135	495.200000
808.136658	493.300000
808.172241	486.300000
808.207764	489.500000
808.243225	486.500000
808.278809	484.200000
808.314270	484.500000
808.349792	479.400000
808.385315	476.600000
808.420837	486.100000
808.456360	487.900000
808.491882	489.500000
808.527344	483.700000
808.562866	487.800000
808.598389	479.500000
808.633850	480.900000
808.669434	473.400000
808.704895	480.700000
808.740417	485.200000
808.775940	480.700000
808.811462	476.600000
808.846924	471.700000
808.882385	468.200000
808.917847	467.900000
808.953369	466.500000
808.988892	466.700000
809.024353	473.100000
809.059875	476.600000
809.095398	466.200000
809.130798	460.300000
809.166321	461.200000
809.201843	460.200000
809.237305	462.600000
809.272766	465.100000
809.308228	457.800000
809.343750	459.600000
809.379211	460.200000
809.414734	459.800000
809.450134	464.600000
809.485657	449.400000
809.521118	456.600000
809.556580	454.200000
809.592102	453.900000
809.627502	450.100000
809.663025	450.100000
809.698486	446.100000
809.733887	442.000000
809.769409	447.600000
809.804871	439.400000
809.840271	437.700000
809.875793	443.600000
809.911194	443.700000
809.946655	437.200000
809.982178	432.400000
810.017639	442.800000
810.053040	434.100000
810.088501	432.700000
810.123901	430.300000
810.159424	428.400000
810.194885	423.700000
810.230286	430.700000
810.265747	423.600000
810.301208	420.300000
810.336609	424.600000
810.372070	419.400000
810.407532	419.200000
810.442932	421.200000
810.478394	421.500000
810.513794	415.700000
810.549255	410.500000
810.584717	410.500000
810.620117	405.000000
810.655518	413.000000
810.690979	407.900000
810.726379	405.900000
810.761841	400.800000
810.797302	397.700000
810.832642	396.600000
810.868103	407.200000
810.903564	397.300000
810.938904	405.300000
810.974365	395.800000
811.009827	397.500000
811.045166	394.100000
811.080627	388.500000
811.115967	389.100000
811.151428	396.600000
811.186829	390.900000
811.222229	390.500000
811.257629	386.600000
811.293091	388.500000
811.328430	395.400000
811.363892	387.900000
811.399292	391.100000
811.434631	385.500000
811.470093	389.800000
811.505493	381.300000
811.540833	381.000000
811.576294	384.500000
811.611694	384.700000
811.647034	379.300000
811.682434	382.000000
811.717773	379.200000
811.753235	387.600000
811.788635	378.000000
811.823975	380.100000
811.859375	385.800000
811.894775	373.200000
811.930115	378.000000
811.965515	374.800000
812.000916	375.500000
812.036255	372.000000
812.071655	376.000000
812.106995	370.400000
812.142395	371.800000
812.177795	375.800000
812.213196	371.000000
812.248474	373.100000
812.283875	367.500000
812.319214	368.100000
812.354614	369.600000
812.390015	366.300000
812.425293	365.200000
812.460693	365.700000
812.496094	362.100000
812.531433	356.500000
812.566772	358.600000
812.602173	360.800000
812.637451	361.500000
812.672852	356.500000
812.708191	357.700000
812.743530	352.600000
812.778931	347.700000
812.814270	348.500000
812.849609	357.200000
812.884949	349.700000
812.920227	344.900000
812.955627	357.400000
812.990967	351.100000
813.026306	345.200000
813.061646	336.600000
813.096985	331.900000
813.132324	333.800000
813.167664	334.100000
813.203003	339.600000
813.238281	329.100000
813.273682	330.500000
813.308960	326.900000
813.344299	327.800000
813.379639	332.500000
813.414978	327.300000
813.450256	325.000000
813.485596	331.500000
813.520874	322.500000
813.556213	324.200000
813.591614	328.100000
813.626831	319.700000
813.662170	323.800000
813.697510	332.900000
813.732788	320.300000
813.768127	321.600000
813.803467	323.500000
813.838745	318.000000
813.874084	319.400000
813.909363	318.600000
813.944641	319.400000
813.979980	310.600000
814.015320	316.000000
814.050598	315.700000
814.085876	314.600000
814.121155	310.100000
814.156494	313.400000
814.191772	312.600000
814.227051	308.900000
814.262390	308.300000
814.297668	309.500000
814.332947	309.600000
814.368225	306.600000
814.403564	304.800000
814.438782	302.400000
814.474121	304.000000
814.509338	301.600000
814.544617	306.700000
814.579956	300.400000
814.615173	309.200000
814.650513	305.200000
814.685791	298.700000
814.721008	304.200000
814.756348	301.200000
814.791626	300.200000
814.826843	298.600000
814.862122	299.200000
814.897400	296.900000
814.932678	298.600000
814.967957	297.000000
815.003235	295.800000
815.038452	289.800000
815.073730	288.800000
815.108948	298.200000
815.144226	297.600000
815.179504	299.800000
815.214722	287.100000
815.250000	286.200000
815.285278	292.500000
815.320496	288.000000
815.355774	288.900000
815.391052	291.200000
815.426270	288.800000
815.461487	288.100000
815.496765	282.300000
815.531982	281.000000
815.567261	284.200000
815.602539	292.400000
815.637695	286.500000
815.672974	285.800000
815.708191	285.100000
815.743408	288.100000
815.778687	280.400000
815.813904	287.400000
815.849121	273.400000
815.884399	276.800000
815.919556	276.200000
815.954834	278.900000
815.990051	278.800000
816.025269	282.100000
816.060486	273.000000
816.095703	274.000000
816.130920	275.000000
816.166199	273.500000
816.201416	272.300000
816.236572	276.100000
816.271851	270.500000
816.307007	273.900000
816.342224	265.400000
816.377441	268.900000
816.412659	261.100000
816.447876	271.200000
816.483093	266.400000
816.518250	266.600000
816.553467	263.900000
816.588745	267.700000
816.623901	260.000000
816.659119	256.400000
816.694275	261.300000
816.729492	258.500000
816.764709	287.800000
816.799927	256.300000
816.835083	259.100000
816.870300	254.200000
816.905457	257.300000
816.940674	257.200000
816.975830	254.800000
817.010986	251.900000
817.046204	253.000000
817.081421	249.300000
817.116577	251.700000
817.151733	255.400000
817.186951	255.300000
817.222107	252.900000
817.257324	256.200000
817.292419	252.000000
817.327637	245.300000
817.362854	249.000000
817.398010	245.200000
817.433167	247.100000
817.468323	246.200000
817.503479	246.800000
817.538635	252.900000
817.573853	247.000000
817.608948	246.600000
817.644165	241.200000
817.679321	240.800000
817.714478	239.800000
817.749634	243.300000
817.784790	249.800000
817.819946	247.700000
817.855103	235.300000
817.890198	241.000000
817.925415	236.000000
817.960571	242.600000
817.995667	240.100000
818.030823	242.400000
818.066040	237.400000
818.101135	239.600000
818.136292	237.800000
818.171448	233.500000
818.206543	238.000000
818.241699	241.200000
818.276855	239.700000
818.311951	235.700000
818.347107	233.400000
818.382263	238.700000
818.417358	241.600000
818.452515	238.700000
818.487610	241.500000
818.522766	231.700000
818.557922	241.200000
818.593018	235.800000
818.628113	234.000000
818.663269	230.200000
818.698364	235.000000
818.733521	229.400000
818.768677	232.200000
818.803711	227.700000
818.838867	228.100000
818.874023	228.600000
818.909058	228.300000
818.944214	224.800000
818.979370	230.000000
819.014404	227.000000
819.049561	224.000000
819.084595	227.200000
819.119751	222.900000
819.154846	226.400000
819.189941	224.400000
819.225037	220.800000
819.260193	217.600000
819.295227	218.400000
819.330322	217.200000
819.365479	214.400000
819.400513	249.900000
819.435608	214.800000
819.470764	213.200000
819.505798	214.900000
819.540894	217.300000
819.575989	215.700000
819.611084	219.800000
819.646179	224.100000
819.681213	218.600000
819.716309	215.100000
819.751404	216.500000
819.786438	219.400000
819.821533	211.900000
819.856628	215.900000
819.891663	217.200000
819.926758	224.400000
819.961853	220.600000
819.996887	212.400000
820.031982	215.700000
820.067017	214.700000
820.102112	245.800000
820.137207	211.700000
820.172302	222.800000
820.207275	209.600000
820.242371	207.500000
820.277405	210.500000
820.312500	209.200000
820.347534	213.700000
820.382568	214.100000
820.417664	209.800000
820.452759	207.600000
820.487732	208.500000
820.522827	207.600000
820.557861	206.900000
820.592896	207.700000
820.627930	209.900000
820.662964	206.200000
820.698059	210.400000
820.733093	206.800000
820.768127	210.700000
820.803162	208.200000
820.838196	206.200000
820.873230	207.600000
820.908264	209.000000
820.943298	205.100000
820.978333	210.500000
821.013367	208.500000
821.048401	209.200000
821.083435	210.900000
821.118469	201.700000
821.153503	209.500000
821.188477	206.900000
821.223511	203.300000
821.258484	204.800000
821.293579	206.100000
821.328613	201.300000
821.363647	206.400000
821.398621	201.800000
821.433655	205.000000
821.468628	214.800000
821.503662	204.300000
821.538696	207.000000
821.573669	200.500000
821.608704	206.700000
821.643677	204.100000
821.678650	205.300000
821.713684	209.800000
821.748718	203.300000
821.783691	203.100000
821.818726	202.500000
821.853638	206.700000
821.888672	202.300000
821.923706	204.400000
821.958618	201.700000
821.993652	202.400000
822.028687	205.900000
822.063599	209.600000
822.098633	203.500000
822.133667	199.600000
822.168579	201.200000
822.203613	204.500000
822.238586	198.900000
822.273560	204.700000
822.308533	198.900000
822.343567	200.700000
822.378479	201.400000
822.413452	201.100000
822.448425	199.600000
822.483398	205.600000
822.518372	204.300000
822.553345	199.500000
822.588318	209.500000
822.623291	200.900000
822.658203	201.400000
822.693237	202.200000
822.728210	197.600000
822.763123	200.400000
822.798096	198.700000
822.833069	198.200000
822.867981	200.800000
822.902954	202.600000
822.937927	202.700000
822.972900	206.600000
823.007874	196.000000
823.042725	202.700000
823.077698	211.100000
823.112671	196.800000
823.147583	199.900000
823.182556	202.300000
823.217529	205.300000
823.252441	197.600000
823.287415	210.400000
823.322388	202.800000
823.357239	200.100000
823.392212	205.100000
823.427185	207.700000
823.462097	197.500000
823.497009	201.600000
823.531982	198.700000
823.566895	201.400000
823.601807	197.600000
823.636719	199.700000
823.671631	201.600000
823.706604	198.200000
823.741455	202.300000
823.776428	195.700000
823.811340	202.700000
823.846252	206.600000
823.881165	206.000000
823.916138	201.400000
823.950989	208.800000
823.985901	198.800000
824.020813	201.100000
824.055725	198.500000
824.090637	195.300000
824.125610	202.400000
824.160461	202.400000
824.195374	200.900000
824.230225	203.700000
824.265198	195.400000
824.300110	199.100000
824.334961	207.200000
824.369873	194.000000
824.404785	200.900000
824.439636	204.100000
824.474548	192.000000
824.509460	193.100000
824.544312	203.300000
824.579224	200.700000
824.614075	200.300000
824.648987	197.500000
824.683899	198.000000
824.718811	196.200000
824.753662	203.100000
824.788574	202.600000
824.823364	199.500000
824.858276	195.800000
824.893188	200.200000
824.928040	203.100000
824.962952	199.700000
824.997803	201.500000
825.032654	199.500000
825.067566	200.600000
825.102417	196.300000
825.137268	197.800000
825.172119	196.400000
825.206970	195.600000
825.241882	196.900000
825.276733	194.300000
825.311646	195.600000
825.346436	193.400000
825.381348	194.000000
825.416138	197.600000
825.450989	194.300000
825.485901	188.800000
825.520691	191.100000
825.555542	191.700000
825.590454	196.300000
825.625244	189.700000
825.660095	201.900000
825.695007	197.200000
825.729797	195.200000
825.764648	191.700000
825.799438	194.400000
825.834290	195.400000
825.869202	190.600000
825.903992	193.400000
825.938843	193.900000
825.973694	191.000000
826.008484	203.600000
826.043335	191.600000
826.078186	187.500000
826.112976	197.700000
826.147827	197.200000
826.182678	199.200000
826.217468	188.100000
826.252319	198.000000
826.287109	189.300000
826.321899	196.100000
826.356750	192.900000
826.391541	189.100000
826.426392	197.200000
826.461182	192.000000
826.495972	188.400000
826.530823	185.900000
826.565613	192.900000
826.600403	187.800000
826.635254	195.500000
826.670044	186.800000
826.704834	188.100000
826.739685	189.600000
826.774475	194.900000
826.809265	192.200000
826.844055	190.300000
826.878906	197.700000
826.913635	193.200000
826.948425	195.000000
826.983215	194.300000
827.018005	196.200000
827.052856	190.300000
827.087585	195.900000
827.122375	185.500000
827.157227	192.000000
827.191956	201.800000
827.226746	189.600000
827.261536	194.400000
827.296265	188.000000
827.331116	190.700000
827.365906	194.800000
827.400635	188.300000
827.435425	185.200000
827.470215	194.500000
827.504944	192.000000
827.539734	194.500000
827.574463	191.600000
827.609253	197.800000
827.644043	192.500000
827.678772	194.700000
827.713562	189.800000
827.748352	190.600000
827.783081	187.800000
827.817871	192.300000
827.852600	188.800000
827.887329	191.600000
827.922119	185.300000
827.956848	193.600000
827.991638	200.500000
828.026367	193.400000
828.061157	190.900000
828.095886	192.200000
828.130615	204.500000
828.165344	184.300000
828.200073	192.300000
828.234863	191.700000
828.269592	189.800000
828.304321	195.400000
828.339111	192.900000
828.373779	189.000000
828.408569	194.900000
828.443298	195.700000
828.477966	190.100000
828.512756	192.800000
828.547424	188.900000
828.582214	192.300000
828.616943	189.500000
828.651672	191.500000
828.686340	192.300000
828.721130	190.100000
828.755798	191.600000
828.790527	192.600000
828.825256	192.700000
828.859924	193.600000
828.894714	195.200000
828.929443	201.000000
828.964111	188.900000
828.998840	195.400000
829.033569	187.900000
829.068237	191.500000
829.102966	188.900000
829.137634	192.500000
829.172363	193.000000
829.207092	192.700000
829.241821	187.900000
829.276489	187.800000
829.311157	191.700000
829.345825	190.600000
829.380554	195.600000
829.415283	187.800000
829.449951	186.900000
829.484619	199.900000
829.519348	196.900000
829.554016	192.000000
829.588745	190.700000
829.623413	187.200000
829.658081	200.800000
829.692749	187.900000
829.727417	194.900000
829.762146	193.200000
829.796814	190.000000
829.831482	190.500000
829.866150	192.700000
829.900879	189.900000
829.935486	195.300000
829.970154	189.200000
830.004883	202.100000
830.039490	191.900000
830.074219	188.600000
830.108887	190.700000
830.143494	190.600000
830.178223	186.600000
830.212891	190.700000
830.247498	189.100000
830.282166	198.000000
830.316772	194.600000
830.351501	188.800000
830.386169	189.600000
830.420776	189.600000
830.455444	190.100000
830.490112	189.100000
830.524719	184.000000
830.559387	193.300000
830.594055	191.700000
830.628662	191.800000
830.663330	191.100000
830.697998	197.200000
830.732605	191.200000
830.767273	192.400000
830.801941	190.900000
830.836487	199.400000
830.871155	193.300000
830.905762	193.100000
830.940430	185.500000
830.975098	188.500000
831.009644	192.600000
831.044312	198.300000
831.078979	193.900000
831.113525	185.300000
831.148193	191.500000
831.182861	191.100000
831.217407	194.100000
831.252075	204.100000
831.286621	190.000000
831.321289	187.700000
831.355896	193.700000
831.390564	195.800000
831.425110	193.400000
831.459778	194.700000
831.494324	201.300000
831.528931	191.800000
831.563599	197.000000
831.598145	185.300000
831.632751	192.100000
831.667419	190.600000
831.701965	191.900000
831.736572	193.200000
831.771179	188.800000
831.805786	189.100000
831.840393	198.000000
831.874939	186.100000
831.909546	194.000000
831.944153	184.600000
831.978760	191.800000
832.013306	187.400000
832.047913	196.200000
832.082458	198.600000
832.117065	188.100000
832.151672	196.900000
832.186218	193.400000
832.220825	193.100000
832.255432	185.000000
832.289978	189.300000
832.324585	193.700000
832.359192	193.300000
832.393677	190.900000
832.428284	192.600000
832.462830	190.100000
832.497437	191.300000
832.531982	193.900000
832.566589	190.300000
832.601135	193.600000
832.635681	186.900000
832.670227	192.000000
832.704773	198.500000
832.739380	192.500000
832.773926	191.900000
832.808472	190.100000
832.843079	192.000000
832.877563	192.200000
832.912170	190.700000
832.946716	185.800000
832.981201	196.600000
833.015808	194.400000
833.050293	191.000000
833.084839	186.300000
833.119446	190.900000
833.153992	193.900000
833.188477	191.100000
833.223022	189.500000
833.257568	192.300000
833.292114	195.700000
833.326660	200.600000
833.361145	188.400000
833.395691	184.700000
833.430237	191.400000
833.464783	194.600000
833.499329	187.700000
833.533875	188.600000
833.568359	192.500000
833.602905	194.500000
833.637390	195.000000
833.671875	189.600000
833.706421	190.300000
833.740906	189.500000
833.775452	184.000000
833.809998	189.100000
833.844482	198.800000
833.879028	189.900000
833.913513	189.800000
833.947998	193.700000
833.982544	188.000000
834.017090	188.600000
834.051514	184.600000
834.086060	193.100000
834.120544	192.000000
834.155029	192.200000
834.189575	190.500000
834.223999	191.700000
834.258545	193.500000
834.293030	191.600000
834.327515	192.100000
834.362000	189.900000
834.396545	195.600000
834.430969	189.900000
834.465454	194.800000
834.500000	186.200000
834.534424	194.100000
834.568970	183.500000
834.603455	186.100000
834.637878	187.700000
834.672363	192.300000
834.706909	191.000000
834.741333	191.500000
834.775818	185.900000
834.810242	187.500000
834.844727	190.500000
834.879211	190.200000
834.913635	192.300000
834.948181	193.100000
834.982666	192.000000
835.017090	190.200000
835.051575	192.800000
835.086060	189.300000
835.120483	194.500000
835.154907	194.900000
835.189331	191.700000
835.223816	193.200000
835.258301	187.300000
835.292786	187.700000
835.327209	195.100000
835.361694	189.900000
835.396057	190.400000
835.430542	193.500000
835.465027	191.900000
835.499390	188.600000
835.533875	217.300000
835.568359	190.100000
835.602722	188.100000
835.637207	191.400000
835.671692	188.100000
835.706055	207.200000
835.740540	192.600000
835.774902	191.400000
835.809387	193.500000
835.843811	187.800000
835.878235	197.100000
835.912659	186.900000
835.947083	188.300000
835.981506	190.000000
836.015930	186.400000
836.050354	194.000000
836.084778	198.600000
836.119202	192.900000
836.153625	204.700000
836.187988	187.300000
836.222473	190.200000
836.256897	191.200000
836.291260	190.600000
836.325684	192.700000
836.360046	190.400000
836.394470	191.100000
836.428894	197.400000
836.463318	189.100000
836.497681	194.900000
836.532104	197.400000
836.566467	192.900000
836.600891	191.100000
836.635315	195.400000
836.669678	193.300000
836.704102	193.900000
836.738525	194.200000
836.772888	184.500000
836.807251	190.200000
836.841675	193.500000
836.876038	188.400000
836.910461	188.700000
836.944763	194.300000
836.979187	188.800000
837.013611	195.700000
837.047974	186.600000
837.082336	201.200000
837.116699	194.000000
837.151062	193.200000
837.185486	185.900000
837.219849	190.700000
837.254211	194.600000
837.288574	191.200000
837.322937	184.900000
837.357300	183.800000
837.391663	199.500000
837.426086	195.400000
837.460388	192.600000
837.494751	194.000000
837.529114	188.200000
837.563477	198.400000
837.597839	193.100000
837.632141	191.400000
837.666565	190.000000
837.700928	194.500000
837.735229	193.100000
837.769592	193.500000
837.803955	194.400000
837.838257	189.800000
837.872620	187.900000
837.906982	197.300000
837.941284	191.300000
837.975647	193.800000
838.010010	197.800000
838.044312	189.100000
838.078674	190.600000
838.112976	192.400000
838.147339	194.000000
838.181702	193.300000
838.216003	198.800000
838.250366	193.600000
838.284668	194.200000
838.318970	186.400000
838.353333	190.200000
838.387634	191.500000
838.421936	193.700000
838.456299	191.900000
838.490601	196.800000
838.524902	195.800000
838.559265	195.600000
838.593567	194.100000
838.627869	187.400000
838.662170	192.700000
838.696472	186.900000
838.730774	188.200000
838.765137	194.400000
838.799377	181.500000
838.833740	192.500000
838.868042	195.000000
838.902283	187.100000
838.936646	194.800000
838.970947	192.800000
839.005188	196.300000
839.039551	187.000000
839.073792	195.100000
839.108093	190.400000
839.142395	199.200000
839.176697	186.300000
839.210937	192.700000
839.245300	199.500000
839.279541	187.300000
839.313843	192.100000
839.348145	194.200000
839.382385	196.700000
839.416687	195.900000
839.450989	193.200000
839.485229	192.700000
839.519531	188.200000
839.553833	196.500000
839.588013	192.000000
839.622314	193.800000
839.656555	192.400000
839.690857	192.300000
839.725159	186.800000
839.759460	190.700000
839.793640	188.800000
839.827942	192.600000
839.862183	189.100000
839.896423	194.100000
839.930725	201.800000
839.964966	200.200000
839.999207	194.700000
840.033508	198.600000
840.067688	188.100000
840.101990	198.700000
840.136230	191.100000
840.170471	198.200000
840.204712	187.900000
840.238953	189.400000
840.273193	190.800000
840.307434	193.600000
840.341736	189.800000
840.375916	186.100000
840.410217	187.000000
840.444397	196.600000
840.478638	191.500000
840.512878	196.500000
840.547119	191.800000
840.581360	194.700000
840.615601	199.000000
840.649780	201.500000
840.684021	190.500000
840.718262	197.800000
840.752441	197.600000
840.786682	193.000000
840.820862	192.200000
840.855103	199.700000
840.889343	192.600000
840.923584	196.600000
840.957764	194.000000
840.992004	192.500000
841.026184	202.800000
841.060425	192.800000
841.094666	189.300000
841.128845	193.000000
841.163025	193.400000
841.197266	193.200000
841.231445	192.600000
841.265686	193.100000
841.299866	190.100000
841.334045	197.500000
841.368286	191.700000
841.402405	197.100000
841.436646	195.200000
841.470825	190.200000
841.505005	191.900000
841.539185	187.700000
841.573425	191.000000
841.607544	192.200000
841.641785	191.100000
841.675964	187.700000
841.710144	191.900000
841.744324	188.700000
841.778503	191.300000
841.812683	187.700000
841.846863	197.900000
841.881042	197.200000
841.915222	189.300000
841.949402	202.800000
841.983521	186.500000
842.017700	191.400000
842.051880	192.400000
842.086060	194.300000
842.120239	192.500000
842.154419	189.900000
842.188538	192.000000
842.222717	189.400000
842.256897	200.400000
842.291016	192.100000
842.325195	193.100000
842.359375	200.200000
842.393494	197.200000
842.427673	191.800000
842.461853	193.400000
842.495911	200.700000
842.530090	193.300000
842.564209	192.300000
842.598389	191.400000
842.632568	193.200000
842.666626	193.800000
842.700806	192.800000
842.734985	188.300000
842.769043	195.100000
842.803223	190.700000
842.837402	191.400000
842.871460	188.800000
842.905640	201.100000
842.939697	187.900000
842.973877	193.800000
843.007996	195.100000
843.042175	200.100000
843.076233	188.200000
843.110413	194.600000
843.144470	197.500000
843.178589	196.300000
843.212769	189.200000
843.246826	195.500000
843.280945	190.300000
843.315125	191.600000
843.349182	188.900000
843.383301	196.900000
843.417419	201.700000
843.451538	191.700000
843.485657	189.800000
843.519714	191.500000
843.553833	192.200000
843.587952	190.700000
843.622070	190.200000
843.656128	194.700000
843.690247	189.600000
843.724304	191.700000
843.758423	194.900000
843.792542	190.700000
843.826599	194.100000
843.860718	190.300000
843.894836	187.100000
843.928894	192.400000
843.963013	194.100000
843.997070	188.600000
844.031128	188.400000
844.065247	195.500000
844.099304	195.900000
844.133362	193.600000
844.167480	195.100000
844.201599	197.100000
844.235596	195.600000
844.269714	194.400000
844.303711	193.000000
844.337830	185.800000
844.371948	194.000000
844.405945	191.000000
844.440063	187.200000
844.474121	201.400000
844.508118	189.800000
844.542236	191.900000
844.576294	192.400000
844.610352	186.800000
844.644409	192.200000
844.678406	185.400000
844.712524	196.500000
844.746582	197.100000
844.780640	191.300000
844.814636	191.800000
844.848755	202.900000
844.882751	190.600000
844.916809	195.000000
844.950867	193.200000
844.984863	199.100000
845.018921	191.700000
845.052979	188.800000
845.086975	192.000000
845.121033	186.700000
845.155090	190.300000
845.189087	197.200000
845.223145	190.200000
845.257141	193.700000
845.291199	194.700000
845.325256	196.100000
845.359253	194.100000
845.393250	202.900000
845.427307	191.600000
845.461304	191.600000
845.495361	193.000000
845.529358	200.200000
845.563354	192.700000
845.597412	188.000000
845.631409	200.600000
845.665405	198.300000
845.699463	196.500000
845.733459	189.900000
845.767456	201.600000
845.801453	190.200000
845.835449	197.300000
845.869446	194.900000
845.903503	195.500000
845.937439	189.300000
845.971497	197.400000
846.005493	186.700000
846.039429	195.900000
846.073486	201.400000
846.107483	190.700000
846.141418	191.500000
846.175476	193.100000
846.209473	197.300000
846.243408	188.200000
846.277405	193.500000
846.311401	190.200000
846.345337	192.300000
846.379395	197.200000
846.413330	190.400000
846.447327	201.100000
846.481323	189.500000
846.515259	190.600000
846.549255	193.100000
846.583252	194.200000
846.617187	190.300000
846.651184	192.300000
846.685120	191.400000
846.719055	198.700000
846.753052	196.700000
846.786987	195.100000
846.820984	188.700000
846.854980	197.200000
846.888916	189.900000
846.922852	193.000000
846.956848	197.300000
846.990723	190.200000
847.024719	194.800000
847.058716	191.400000
847.092590	198.400000
847.126587	193.200000
847.160522	191.600000
847.194458	195.000000
847.228455	188.700000
847.262390	186.300000
847.296265	191.500000
847.330261	196.600000
847.364136	191.100000
847.398132	190.200000
847.432068	192.700000
847.466003	190.100000
847.499939	191.600000
847.533875	193.700000
847.567749	189.700000
847.601746	190.700000
847.635681	193.800000
847.669556	186.900000
847.703491	197.300000
847.737427	202.300000
847.771301	188.200000
847.805237	195.800000
847.839233	193.000000
847.873108	192.000000
847.907043	191.700000
847.940918	198.400000
847.974854	193.600000
848.008789	197.900000
848.042664	192.100000
848.076538	194.600000
848.110474	192.800000
848.144348	192.900000
848.178284	185.300000
848.212219	193.300000
848.246094	188.600000
848.279968	194.000000
848.313904	194.700000
848.347778	193.300000
848.381653	189.900000
848.415588	191.200000
848.449463	188.500000
848.483337	195.200000
848.517212	197.900000
848.551086	193.500000
848.585022	187.900000
848.618835	201.800000
848.652771	188.900000
848.686646	189.100000
848.720520	198.700000
848.754395	191.800000
848.788330	196.000000
848.822144	196.100000
848.856018	188.900000
848.889954	199.400000
848.923767	189.600000
848.957642	189.100000
848.991577	194.700000
849.025391	192.900000
849.059265	192.200000
849.093079	189.500000
849.126953	187.800000
849.160828	196.900000
849.194641	193.100000
849.228577	190.300000
849.262451	191.500000
849.296265	191.000000
849.330139	190.000000
849.364014	193.400000
849.397827	194.900000
849.431702	193.100000
849.465515	196.000000
849.499329	186.600000
849.533203	190.500000
849.567078	185.500000
849.600891	195.800000
849.634766	192.500000
849.668518	195.700000
849.702393	192.400000
849.736267	188.900000
849.770020	199.800000
849.803894	194.300000
849.837769	192.600000
849.871521	193.100000
849.905396	194.100000
849.939270	189.900000
849.973022	189.700000
850.006897	196.500000
850.040710	195.300000
850.074524	195.400000
850.108337	191.500000
850.142151	197.500000
850.175964	196.800000
850.209778	191.900000
850.243530	183.400000
850.277405	195.200000
850.311218	191.700000
850.344971	189.800000
850.378845	197.600000
850.412659	188.300000
850.446411	194.500000
850.480225	192.200000
850.514038	197.400000
850.547791	196.500000
850.581665	192.100000
850.615417	189.300000
850.649231	193.600000
850.683044	191.500000
850.716858	191.300000
850.750610	192.800000
850.784424	195.500000
850.818176	189.500000
850.851929	192.600000
850.885742	189.500000
850.919495	192.700000
850.953308	198.500000
850.987122	199.000000
851.020874	186.900000
851.054626	187.400000
851.088440	194.300000
851.122192	197.000000
851.156006	192.900000
851.189697	191.900000
851.223511	187.100000
851.257263	196.700000
851.291077	193.200000
851.324829	190.900000
851.358582	189.900000
851.392334	191.800000
851.426086	190.100000
851.459900	198.200000
851.493591	193.000000
851.527344	191.900000
851.561157	191.800000
851.594849	194.600000
851.628662	193.100000
851.662415	200.600000
851.696106	193.700000
851.729858	196.000000
851.763611	188.400000
851.797363	194.200000
851.831116	189.500000
851.864868	194.800000
851.898560	197.500000
851.932312	191.100000
851.966064	195.300000
851.999817	192.300000
852.033569	192.300000
852.067261	197.900000
852.101013	190.600000
852.134766	192.300000
852.168457	185.000000
852.202209	196.900000
852.235901	189.900000
852.269592	195.000000
852.303345	199.400000
852.337036	193.600000
852.370789	192.600000
852.404541	194.800000
852.438171	189.300000
852.471924	192.100000
852.505676	188.200000
852.539307	193.100000
852.573059	191.100000
852.606812	190.800000
852.640442	191.600000
852.674194	197.100000
852.707886	201.100000
852.741577	196.500000
852.775269	188.700000
852.809021	192.400000
852.842651	195.000000
852.876404	198.000000
852.910034	193.600000
852.943787	196.200000
852.977478	195.800000
853.011108	189.600000
853.044861	190.200000
853.078552	197.600000
853.112183	193.000000
853.145874	194.200000
853.179626	186.500000
853.213257	193.100000
853.246948	189.700000
853.280640	199.800000
853.314270	192.200000
853.347961	198.300000
853.381653	194.900000
853.415283	198.000000
853.448975	188.800000
853.482605	194.900000
853.516296	192.500000
853.549988	187.400000
853.583618	194.100000
853.617310	194.900000
853.651001	193.400000
853.684631	190.600000
853.718323	190.600000
853.751953	198.800000
853.785583	184.900000
853.819275	195.300000
853.852966	193.600000
853.886536	188.300000
853.920227	187.500000
853.953918	196.400000
853.987488	190.800000
854.021179	197.200000
854.054749	197.300000
854.088440	197.100000
854.122131	188.200000
854.155701	194.600000
854.189331	189.100000
854.223022	195.400000
854.256592	194.200000
854.290283	190.900000
854.323914	194.800000
854.357483	193.800000
854.391174	194.100000
854.424744	200.000000
854.458374	193.800000
854.492065	202.500000
854.525696	191.600000
854.559265	197.800000
854.592896	202.800000
854.626465	193.300000
854.660095	193.300000
854.693787	194.900000
854.727356	192.000000
854.760986	196.100000
854.794617	195.800000
854.828186	191.800000
854.861816	196.400000
854.895447	193.700000
854.929016	194.100000
854.962585	194.800000
854.996155	201.900000
855.029785	193.500000
855.063416	194.600000
855.097046	196.700000
855.130615	189.400000
855.164185	196.600000
855.197754	194.300000
855.231384	193.700000
855.264954	192.300000
855.298523	195.700000
855.332153	194.400000
855.365723	197.500000
855.399292	191.400000
855.432922	192.000000
855.466492	194.700000
855.500061	189.600000
855.533630	190.000000
855.567200	195.100000
855.600769	196.700000
855.634338	197.500000
855.667969	194.000000
855.701477	189.900000
855.735046	188.800000
855.768616	185.300000
855.802185	193.900000
855.835754	204.500000
855.869324	187.500000
855.902893	190.300000
855.936401	198.600000
855.969971	193.400000
856.003540	187.800000
856.037109	196.400000
856.070618	192.100000
856.104187	189.800000
856.137695	191.000000
856.171265	185.500000
856.204834	194.000000
856.238403	196.600000
856.271912	189.000000
856.305481	195.700000
856.338989	188.000000
856.372559	196.800000
856.406128	195.300000
856.439636	196.400000
856.473145	190.700000
856.506653	200.000000
856.540222	193.400000
856.573792	198.000000
856.607300	196.600000
856.640808	189.000000
856.674377	192.400000
856.707825	226.400000
856.741394	197.200000
856.774902	190.100000
856.808472	185.800000
856.841980	195.600000
856.875488	197.500000
856.908936	187.000000
856.942505	192.300000
856.976013	192.000000
857.009521	188.600000
857.043030	192.800000
857.076477	191.100000
857.110046	198.800000
857.143555	193.300000
857.177063	194.200000
857.210571	191.400000
857.244080	186.700000
857.277527	194.300000
857.311035	193.200000
857.344543	197.800000
857.378052	192.200000
857.411499	196.500000
857.445068	199.000000
857.478516	192.100000
857.512024	188.100000
857.545532	192.000000
857.578979	194.300000
857.612427	194.200000
857.645874	190.600000
857.679382	194.800000
857.712891	196.200000
857.746399	193.400000
857.779846	196.500000
857.813354	197.400000
857.846741	191.400000
857.880249	189.500000
857.913757	194.400000
857.947266	194.200000
857.980652	195.600000
858.014160	192.500000
858.047546	191.600000
858.081055	192.800000
858.114563	202.700000
858.147949	189.200000
858.181458	194.500000
858.214844	192.400000
858.248352	184.900000
858.281799	196.200000
858.315308	200.700000
858.348694	195.500000
858.382141	200.100000
858.415588	196.200000
858.449036	195.100000
858.482483	193.800000
858.515930	190.700000
858.549377	194.200000
858.582825	197.700000
858.616211	194.200000
858.649658	193.800000
858.683105	189.300000
858.716553	191.100000
858.750000	187.700000
858.783386	189.900000
858.816833	187.900000
858.850281	194.800000
858.883728	193.600000
858.917114	194.200000
858.950562	199.900000
858.983948	199.500000
859.017395	197.000000
859.050781	192.400000
859.084167	188.500000
859.117615	189.800000
859.151062	194.100000
859.184448	190.300000
859.217834	191.100000
859.251282	190.500000
859.284668	188.500000
859.318054	186.700000
859.351440	190.400000
859.384888	199.200000
859.418274	186.400000
859.451721	186.900000
859.485046	193.200000
859.518494	194.700000
859.551819	188.600000
859.585266	195.300000
859.618652	196.600000
859.652039	188.700000
859.685425	187.800000
859.718811	188.900000
859.752197	184.200000
859.785583	197.300000
859.819031	197.400000
859.852356	194.400000
859.885742	188.900000
859.919067	193.100000
859.952454	190.500000
859.985901	196.800000
860.019287	191.700000
860.052612	0.000000
860.085999	0.000000
860.119324	0.000000
860.152710	0.000000
860.186096	0.000000
860.219421	0.000000
860.252808	0.000000
860.286133	0.000000
860.319519	0.000000
860.352905	0.000000
860.386292	0.000000
860.419617	0.000000
860.452942	0.000000
860.486267	0.000000
860.519653	0.000000
860.553040	0.000000
860.586365	0.000000
860.619690	0.000000
860.653076	0.000000
860.686340	0.000000
860.719727	0.000000
860.753113	0.000000
860.786377	0.000000
860.819763	0.000000
860.853027	0.000000
860.886414	0.000000
860.919739	0.000000
860.953125	0.000000
860.986389	0.000000
861.019714	0.000000
861.053040	0.000000
861.086365	0.000000
861.119690	0.000000
861.153076	0.000000
861.186340	0.000000
861.219666	0.000000
861.252930	0.000000
861.286316	0.000000
861.319641	0.000000
861.352905	0.000000
861.386230	0.000000
861.419495	0.000000
861.452820	0.000000
861.486145	0.000000
861.519470	0.000000
861.552734	0.000000
861.586060	0.000000
861.619324	0.000000
861.652649	0.000000
861.685974	0.000000
861.719238	0.000000
861.752563	0.000000
861.785828	0.000000
861.819092	0.000000
861.852417	0.000000
861.885742	0.000000
861.918945	0.000000
861.952271	0.000000
861.985535	0.000000
862.018799	0.000000
862.052124	0.000000
862.085449	0.000000
862.118652	0.000000
862.151978	0.000000
862.185181	0.000000
862.218506	0.000000
862.251770	0.000000
862.285034	0.000000
862.318298	0.000000
862.351562	0.000000
862.384827	0.000000
862.418091	0.000000
862.451355	0.000000
862.484619	0.000000
862.517883	0.000000
862.551086	0.000000
862.584351	0.000000
862.617676	0.000000
862.650940	0.000000
862.684143	0.000000
862.717407	0.000000
862.750610	0.000000
862.783875	0.000000
862.817139	0.000000
862.850342	0.000000
862.883606	0.000000
862.916870	0.000000
862.950073	0.000000
862.983337	0.000000
863.016602	0.000000
863.049805	0.000000
863.083069	0.000000
863.116211	0.000000
863.149475	0.000000
863.182739	0.000000
863.216003	0.000000
863.249146	0.000000
863.282410	0.000000
863.315613	0.000000
863.348816	0.000000
863.382080	0.000000
863.415222	0.000000
863.448486	0.000000
863.481689	0.000000
863.514893	0.000000
863.548157	0.000000
863.581360	0.000000
863.614502	0.000000
863.647766	0.000000
863.680908	0.000000
863.714172	0.000000
863.747375	0.000000
863.780579	0.000000
863.813721	0.000000
863.846985	0.000000
863.880127	0.000000
863.913330	0.000000
863.946533	0.000000
863.979675	0.000000
864.012939	0.000000
