Model Number: SPM-001-M   
Serial Number: 10090201
Firmware Version: 004.17.6
Exposure Time: 300000.000000us
Data Taken on: 21-01-2021 14:25:53.279
Wavelength	Amplitude
733.770752	0.000000
733.808716	0.000000
733.846619	0.000000
733.884583	0.000000
733.922546	0.000000
733.960449	0.000000
733.998413	0.000000
734.036377	0.000000
734.074219	0.000000
734.112183	0.000000
734.150085	0.000000
734.188049	0.000000
734.226013	0.000000
734.263916	0.000000
734.301819	0.000000
734.339783	0.000000
734.377686	0.000000
734.415588	0.000000
734.453552	0.000000
734.491455	0.000000
734.529419	0.000000
734.567322	0.000000
734.605225	0.000000
734.643127	0.000000
734.681091	0.000000
734.718994	0.000000
734.756897	0.000000
734.794800	0.000000
734.832703	0.000000
734.870667	0.000000
734.908508	0.000000
734.946472	0.000000
734.984375	0.000000
735.022278	0.000000
735.060181	0.000000
735.098083	0.000000
735.135986	0.000000
735.173889	0.000000
735.211792	0.000000
735.249695	0.000000
735.287598	0.000000
735.325439	0.000000
735.363403	0.000000
735.401306	0.000000
735.439148	0.000000
735.477051	0.000000
735.515015	0.000000
735.552856	0.000000
735.590759	0.000000
735.628662	0.000000
735.666504	0.000000
735.704407	0.000000
735.742310	0.000000
735.780212	0.000000
735.818115	0.000000
735.856018	0.000000
735.893860	0.000000
735.931763	0.000000
735.969604	0.000000
736.007507	0.000000
736.045410	0.000000
736.083252	0.000000
736.121094	0.000000
736.158997	0.000000
736.196838	0.000000
736.234741	0.000000
736.272644	0.000000
736.310486	0.000000
736.348389	0.000000
736.386230	0.000000
736.424072	0.000000
736.461975	0.000000
736.499878	0.000000
736.537720	0.000000
736.575562	0.000000
736.613403	0.000000
736.651306	0.000000
736.689148	0.000000
736.726990	0.000000
736.764893	0.000000
736.802734	0.000000
736.840576	0.000000
736.878418	0.000000
736.916321	0.000000
736.954102	0.000000
736.992004	0.000000
737.029846	0.000000
737.067688	0.000000
737.105530	0.000000
737.143372	0.000000
737.181213	0.000000
737.219116	0.000000
737.256897	0.000000
737.294739	0.000000
737.332642	0.000000
737.370422	0.000000
737.408325	0.000000
737.446167	0.000000
737.483948	0.000000
737.521790	0.000000
737.559692	0.000000
737.597473	0.000000
737.635315	0.000000
737.673157	0.000000
737.710999	0.000000
737.748840	0.000000
737.786621	0.000000
737.824463	0.000000
737.862305	0.000000
737.900085	0.000000
737.937927	0.000000
737.975769	0.000000
738.013550	0.000000
738.051392	0.000000
738.089233	0.000000
738.127014	0.000000
738.164856	0.000000
738.202698	0.000000
738.240479	0.000000
738.278320	0.000000
738.316162	0.000000
738.353943	0.000000
738.391785	0.000000
738.429565	0.000000
738.467407	0.000000
738.505188	0.000000
738.542969	0.000000
738.580811	0.000000
738.618652	0.000000
738.656372	0.000000
738.694214	0.000000
738.732056	0.000000
738.769836	0.000000
738.807617	0.000000
738.845459	0.000000
738.883240	0.000000
738.921021	0.000000
738.958862	0.000000
738.996582	0.000000
739.034424	0.000000
739.072205	0.000000
739.109985	0.000000
739.147827	0.000000
739.185547	0.000000
739.223389	0.000000
739.261169	0.000000
739.298889	0.000000
739.336731	0.000000
739.374512	0.000000
739.412292	0.000000
739.450073	0.000000
739.487854	0.000000
739.525635	0.000000
739.563416	0.000000
739.601135	0.000000
739.638977	0.000000
739.676758	0.000000
739.714478	0.000000
739.752258	0.000000
739.790100	0.000000
739.827820	0.000000
739.865601	0.000000
739.903381	0.000000
739.941101	0.000000
739.978882	194.100000
740.016724	192.600000
740.054443	195.600000
740.092224	189.100000
740.130005	188.800000
740.167725	190.300000
740.205505	189.700000
740.243225	196.700000
740.281006	190.800000
740.318787	187.200000
740.356506	196.600000
740.394287	195.700000
740.432068	188.800000
740.469727	188.900000
740.507507	193.000000
740.545288	191.200000
740.583008	191.900000
740.620789	192.900000
740.658569	186.500000
740.696228	191.800000
740.734009	194.800000
740.771790	183.900000
740.809509	194.800000
740.847229	187.800000
740.884949	189.500000
740.922729	186.500000
740.960449	190.000000
740.998169	188.100000
741.035950	188.500000
741.073669	192.900000
741.111389	192.100000
741.149170	200.000000
741.186890	199.200000
741.224609	195.600000
741.262329	192.600000
741.300110	199.800000
741.337769	189.400000
741.375549	187.400000
741.413208	193.600000
741.450989	189.100000
741.488708	190.500000
741.526367	189.900000
741.564148	195.100000
741.601868	194.400000
741.639526	190.600000
741.677307	192.800000
741.715027	193.600000
741.752686	188.900000
741.790466	197.200000
741.828186	193.100000
741.865845	189.200000
741.903564	186.000000
741.941345	191.300000
741.979004	187.200000
742.016724	194.100000
742.054382	191.600000
742.092102	195.500000
742.129822	186.200000
742.167480	191.500000
742.205200	189.100000
742.242920	193.100000
742.280640	194.400000
742.318359	188.100000
742.356079	190.100000
742.393738	194.400000
742.431396	189.200000
742.469116	196.300000
742.506775	185.100000
742.544495	192.400000
742.582214	194.100000
742.619873	193.000000
742.657593	196.800000
742.695251	196.100000
742.732971	190.900000
742.770630	193.700000
742.808289	192.800000
742.846008	191.500000
742.883728	194.300000
742.921326	193.100000
742.959045	191.100000
742.996765	190.800000
743.034424	191.400000
743.072083	189.900000
743.109802	191.700000
743.147400	188.000000
743.185120	193.700000
743.222839	192.500000
743.260437	198.600000
743.298157	192.400000
743.335754	186.500000
743.373474	190.700000
743.411133	187.900000
743.448792	191.300000
743.486450	192.500000
743.524170	186.000000
743.561768	192.200000
743.599487	196.800000
743.637146	199.600000
743.674744	189.600000
743.712463	190.900000
743.750122	191.500000
743.787720	192.600000
743.825439	189.000000
743.863037	189.900000
743.900696	190.800000
743.938416	217.100000
743.976013	191.300000
744.013672	198.600000
744.051331	194.900000
744.088928	197.600000
744.126587	196.200000
744.164307	193.700000
744.201904	191.300000
744.239563	193.300000
744.277222	195.000000
744.314819	190.600000
744.352478	196.800000
744.390137	192.400000
744.427734	193.800000
744.465393	190.000000
744.502991	188.700000
744.540649	194.800000
744.578308	192.800000
744.615906	188.700000
744.653564	185.100000
744.691223	194.300000
744.728821	186.200000
744.766418	191.900000
744.804077	193.000000
744.841675	189.900000
744.879333	188.100000
744.916992	188.800000
744.954529	190.500000
744.992187	194.000000
745.029785	192.600000
745.067444	189.600000
745.105042	192.200000
745.142639	192.100000
745.180298	200.400000
745.217896	190.200000
745.255493	190.400000
745.293152	194.900000
745.330750	196.000000
745.368347	196.600000
745.405945	195.000000
745.443604	191.600000
745.481140	193.200000
745.518799	191.800000
745.556396	194.600000
745.593994	193.700000
745.631592	192.800000
745.669189	187.200000
745.706787	192.500000
745.744385	189.200000
745.781982	194.100000
745.819580	190.300000
745.857178	191.000000
745.894775	192.700000
745.932373	191.900000
745.969971	193.300000
746.007568	185.500000
746.045166	197.400000
746.082764	197.700000
746.120300	196.000000
746.157898	193.600000
746.195557	192.700000
746.233093	188.100000
746.270691	194.800000
746.308228	193.200000
746.345825	195.400000
746.383423	192.600000
746.420959	190.100000
746.458557	189.000000
746.496155	189.100000
746.533691	191.100000
746.571289	188.100000
746.608887	190.400000
746.646423	193.100000
746.684021	192.300000
746.721619	189.700000
746.759155	192.600000
746.796753	186.400000
746.834351	186.000000
746.871826	189.200000
746.909424	196.200000
746.946960	191.700000
746.984558	188.700000
747.022156	189.800000
747.059631	197.400000
747.097229	193.700000
747.134827	189.600000
747.172363	197.500000
747.209900	195.000000
747.247498	188.100000
747.285034	196.300000
747.322571	197.800000
747.360168	191.200000
747.397644	187.000000
747.435242	195.200000
747.472778	196.500000
747.510315	191.400000
747.547913	190.800000
747.585388	197.000000
747.622925	190.200000
747.660522	186.600000
747.697998	189.300000
747.735596	190.900000
747.773132	190.100000
747.810669	191.400000
747.848206	194.000000
747.885742	188.800000
747.923279	188.100000
747.960815	194.200000
747.998352	193.000000
748.035889	196.000000
748.073425	193.800000
748.110901	191.000000
748.148437	188.500000
748.185974	192.300000
748.223511	198.100000
748.261047	193.800000
748.298584	191.600000
748.336060	191.400000
748.373596	193.100000
748.411133	215.900000
748.448608	188.900000
748.486145	194.000000
748.523682	196.300000
748.561218	197.900000
748.598755	191.200000
748.636292	194.300000
748.673706	190.400000
748.711243	197.400000
748.748718	192.800000
748.786255	192.000000
748.823792	191.200000
748.861267	188.700000
748.898804	193.500000
748.936340	193.100000
748.973816	190.600000
749.011292	198.900000
749.048828	194.600000
749.086304	194.300000
749.123840	200.600000
749.161316	188.700000
749.198792	199.300000
749.236328	196.800000
749.273743	192.100000
749.311279	191.000000
749.348816	195.000000
749.386230	192.600000
749.423767	183.400000
749.461304	194.200000
749.498718	192.600000
749.536255	195.000000
749.573730	200.900000
749.611206	196.800000
749.648682	192.000000
749.686218	191.000000
749.723633	195.200000
749.761169	189.200000
749.798645	189.900000
749.836060	190.300000
749.873596	189.700000
749.911011	192.400000
749.948547	197.200000
749.986023	192.100000
750.023437	193.100000
750.060913	186.700000
750.098450	186.900000
750.135864	191.200000
750.173340	191.800000
750.210815	195.800000
750.248291	189.900000
750.285767	191.900000
750.323242	196.300000
750.360657	194.000000
750.398132	187.500000
750.435608	195.500000
750.473022	189.500000
750.510498	189.500000
750.547974	188.100000
750.585449	190.700000
750.622925	183.500000
750.660339	202.900000
750.697815	192.200000
750.735291	192.900000
750.772644	190.400000
750.810120	191.400000
750.847595	193.700000
750.885010	188.400000
750.922485	197.300000
750.959961	192.100000
750.997375	197.600000
751.034851	194.300000
751.072266	194.300000
751.109680	187.200000
751.147156	196.000000
751.184570	193.400000
751.221985	191.100000
751.259460	186.700000
751.296875	191.700000
751.334290	192.400000
751.371765	193.800000
751.409180	194.700000
751.446594	196.300000
751.484070	194.400000
751.521423	191.900000
751.558899	192.500000
751.596375	199.800000
751.633728	198.000000
751.671204	200.600000
751.708618	189.500000
751.746033	192.900000
751.783447	187.200000
751.820801	188.900000
751.858276	193.800000
751.895691	192.500000
751.933105	190.600000
751.970520	189.600000
752.007935	190.600000
752.045349	196.300000
752.082764	192.600000
752.120178	191.200000
752.157532	190.400000
752.195007	191.300000
752.232422	193.800000
752.269775	195.700000
752.307190	194.600000
752.344543	189.400000
752.382019	191.400000
752.419434	190.800000
752.456787	193.100000
752.494202	197.400000
752.531616	192.600000
752.568970	195.600000
752.606384	194.700000
752.643799	194.300000
752.681152	196.700000
752.718567	194.700000
752.755981	185.500000
752.793335	193.600000
752.830750	186.100000
752.868164	196.000000
752.905518	186.500000
752.942932	195.500000
752.980225	187.200000
753.017639	194.300000
753.055054	194.900000
753.092407	193.500000
753.129822	194.300000
753.167175	198.800000
753.204529	192.700000
753.241943	189.600000
753.279358	188.900000
753.316650	195.800000
753.354065	194.800000
753.391479	195.400000
753.428772	198.900000
753.466187	193.700000
753.503479	189.200000
753.540894	190.700000
753.578308	188.500000
753.615601	190.400000
753.653015	194.400000
753.690369	191.300000
753.727722	190.200000
753.765076	187.700000
753.802490	188.700000
753.839783	185.200000
753.877136	190.500000
753.914551	202.900000
753.951843	189.900000
753.989258	194.900000
754.026611	193.200000
754.063904	193.200000
754.101257	190.300000
754.138611	185.900000
754.175964	194.300000
754.213318	199.700000
754.250610	187.000000
754.288025	189.500000
754.325378	187.100000
754.362671	194.000000
754.400024	190.300000
754.437378	199.100000
754.474670	196.600000
754.512085	189.700000
754.549438	192.900000
754.586731	189.400000
754.624084	191.900000
754.661438	187.200000
754.698730	198.100000
754.736084	190.800000
754.773376	190.200000
754.810730	192.800000
754.848083	191.900000
754.885315	195.900000
754.922668	186.800000
754.960022	187.600000
754.997314	195.600000
755.034668	193.200000
755.072021	193.100000
755.109253	191.000000
755.146606	198.400000
755.183960	192.900000
755.221252	198.100000
755.258545	196.600000
755.295898	197.900000
755.333191	197.800000
755.370544	195.500000
755.407776	193.300000
755.445129	194.100000
755.482422	196.900000
755.519714	191.300000
755.557068	187.700000
755.594360	186.400000
755.631653	195.600000
755.668945	198.300000
755.706299	193.600000
755.743530	201.600000
755.780884	198.800000
755.818176	195.600000
755.855408	196.500000
755.892761	194.100000
755.930054	193.200000
755.967346	195.400000
756.004639	192.600000
756.041870	191.900000
756.079224	197.500000
756.116516	189.300000
756.153748	194.600000
756.191040	199.700000
756.228394	194.700000
756.265625	190.700000
756.302917	194.500000
756.340210	190.800000
756.377441	197.800000
756.414795	200.400000
756.452087	194.100000
756.489319	189.000000
756.526611	198.200000
756.563843	195.100000
756.601135	200.700000
756.638428	201.800000
756.675659	194.000000
756.712952	197.200000
756.750244	196.700000
756.787476	195.400000
756.824768	200.000000
756.862061	194.200000
756.899292	241.700000
756.936584	198.000000
756.973816	203.500000
757.011047	204.000000
757.048340	194.200000
757.085632	196.800000
757.122864	209.100000
757.160156	194.300000
757.197327	196.400000
757.234619	200.200000
757.271912	194.400000
757.309082	199.200000
757.346375	193.200000
757.383667	200.300000
757.420837	196.200000
757.458130	196.500000
757.495422	192.700000
757.532593	198.400000
757.569885	191.000000
757.607117	193.000000
757.644348	196.200000
757.681580	205.900000
757.718811	187.200000
757.756042	196.800000
757.793335	194.700000
757.830505	197.900000
757.867798	195.100000
757.905029	193.300000
757.942200	197.400000
757.979492	195.500000
758.016724	197.200000
758.053894	194.900000
758.091187	211.700000
758.128418	197.300000
758.165588	196.400000
758.202820	207.100000
758.240112	198.400000
758.277283	206.400000
758.314514	199.100000
758.351685	196.600000
758.388916	205.600000
758.426147	204.300000
758.463379	205.600000
758.500610	201.700000
758.537842	198.800000
758.575012	203.900000
758.612244	195.900000
758.649475	208.400000
758.686646	195.300000
758.723877	204.400000
758.761108	205.000000
758.798279	196.600000
758.835510	199.900000
758.872742	204.800000
758.909851	200.500000
758.947083	201.000000
758.984253	201.300000
759.021484	203.100000
759.058716	203.200000
759.095886	202.000000
759.133057	199.800000
759.170288	203.000000
759.207458	199.800000
759.244690	208.300000
759.281860	207.200000
759.319031	202.800000
759.356262	199.900000
759.393433	200.500000
759.430603	200.700000
759.467773	201.700000
759.505005	205.900000
759.542175	206.700000
759.579346	201.700000
759.616516	201.800000
759.653687	206.800000
759.690918	201.800000
759.728027	204.600000
759.765259	203.000000
759.802429	205.700000
759.839539	205.500000
759.876770	208.200000
759.913940	212.200000
759.951111	204.000000
759.988281	206.300000
760.025452	202.500000
760.062561	201.800000
760.099792	213.200000
760.136963	205.900000
760.174072	203.500000
760.211243	201.600000
760.248413	203.000000
760.285583	202.500000
760.322754	212.900000
760.359863	211.200000
760.397034	210.300000
760.434204	205.600000
760.471375	207.100000
760.508545	204.500000
760.545715	204.300000
760.582825	202.400000
760.619995	209.000000
760.657166	202.400000
760.694275	210.900000
760.731445	207.300000
760.768555	208.700000
760.805664	209.600000
760.842834	207.400000
760.879944	209.600000
760.917114	208.100000
760.954285	206.700000
760.991394	202.400000
761.028564	212.200000
761.065674	209.300000
761.102783	204.700000
761.139954	213.200000
761.177124	210.100000
761.214172	213.400000
761.251343	206.500000
761.288452	208.600000
761.325562	210.100000
761.362732	207.200000
761.399841	207.700000
761.436951	210.700000
761.474121	207.000000
761.511169	210.100000
761.548340	213.600000
761.585449	213.300000
761.622559	212.400000
761.659668	211.200000
761.696838	214.900000
761.733887	211.600000
761.771057	209.300000
761.808167	211.200000
761.845276	213.900000
761.882385	220.000000
761.919434	211.500000
761.956604	226.100000
761.993713	210.000000
762.030762	216.200000
762.067871	210.800000
762.105042	213.200000
762.142090	218.300000
762.179199	213.300000
762.216309	216.800000
762.253418	224.400000
762.290527	221.800000
762.327637	217.700000
762.364685	210.100000
762.401794	217.400000
762.438904	217.800000
762.475952	211.800000
762.513062	210.700000
762.550110	212.700000
762.587219	225.200000
762.624329	222.800000
762.661377	218.500000
762.698486	216.900000
762.735596	216.400000
762.772644	212.800000
762.809753	210.600000
762.846863	216.000000
762.883911	221.000000
762.921021	219.100000
762.958069	217.400000
762.995117	223.200000
763.032227	224.400000
763.069336	215.500000
763.106323	215.600000
763.143433	215.000000
763.180481	220.700000
763.217590	219.500000
763.254639	218.100000
763.291687	217.100000
763.328735	224.500000
763.365845	218.900000
763.402893	217.100000
763.439941	219.500000
763.477051	223.400000
763.514038	222.000000
763.551147	218.500000
763.588196	221.300000
763.625244	219.800000
763.662292	225.500000
763.699402	227.500000
763.736389	222.600000
763.773499	231.000000
763.810486	225.200000
763.847534	223.000000
763.884644	225.200000
763.921631	221.700000
763.958679	230.900000
763.995728	224.800000
764.032776	231.000000
764.069824	221.800000
764.106873	229.800000
764.143860	232.700000
764.180969	226.100000
764.218018	233.400000
764.255005	225.700000
764.292053	229.400000
764.329102	234.900000
764.366089	235.700000
764.403137	232.600000
764.440125	227.300000
764.477173	231.500000
764.514221	230.800000
764.551208	231.400000
764.588257	226.900000
764.625305	233.700000
764.662292	238.400000
764.699341	239.600000
764.736389	234.200000
764.773376	246.000000
764.810425	236.000000
764.847473	241.400000
764.884399	238.300000
764.921448	244.800000
764.958435	241.600000
764.995483	236.200000
765.032532	246.400000
765.069458	236.300000
765.106506	239.100000
765.143555	237.000000
765.180481	239.100000
765.217529	248.100000
765.254578	235.200000
765.291504	243.200000
765.328552	241.100000
765.365540	240.800000
765.402527	251.000000
765.439575	238.700000
765.476501	236.300000
765.513550	238.500000
765.550537	244.900000
765.587463	248.400000
765.624512	241.500000
765.661499	235.700000
765.698486	250.000000
765.735474	241.000000
765.772461	244.300000
765.809448	249.500000
765.846436	248.200000
765.883423	253.900000
765.920410	249.700000
765.957397	244.700000
765.994385	249.000000
766.031311	255.500000
766.068359	249.300000
766.105286	249.400000
766.142273	256.100000
766.179260	251.100000
766.216187	247.200000
766.253174	245.500000
766.290161	252.100000
766.327148	254.600000
766.364136	253.300000
766.401123	263.700000
766.438049	249.800000
766.475037	258.600000
766.512024	256.500000
766.548950	266.700000
766.585937	264.100000
766.622864	256.500000
766.659790	258.800000
766.696777	249.100000
766.733704	260.000000
766.770691	253.900000
766.807678	263.300000
766.844604	257.700000
766.881531	259.300000
766.918518	261.700000
766.955444	263.100000
766.992432	259.100000
767.029358	263.000000
767.066284	264.800000
767.103271	262.600000
767.140198	295.100000
767.177124	274.400000
767.214050	267.100000
767.251038	268.800000
767.287964	264.500000
767.324890	262.700000
767.361816	266.400000
767.398743	270.300000
767.435730	265.000000
767.472595	268.600000
767.509583	274.600000
767.546509	264.400000
767.583374	268.100000
767.620361	262.700000
767.657288	268.600000
767.694214	267.100000
767.731140	267.300000
767.768066	267.300000
767.804993	271.400000
767.841919	263.400000
767.878845	269.300000
767.915710	276.100000
767.952698	270.100000
767.989563	271.500000
768.026489	274.400000
768.063416	268.600000
768.100281	268.600000
768.137207	277.800000
768.174133	276.600000
768.211060	273.100000
768.247986	275.700000
768.284912	272.600000
768.321777	273.600000
768.358704	271.800000
768.395630	275.000000
768.432495	271.700000
768.469421	276.800000
768.506348	280.100000
768.543152	285.200000
768.580078	282.000000
768.616943	283.600000
768.653870	283.900000
768.690796	285.000000
768.727661	282.900000
768.764587	282.400000
768.801453	279.900000
768.838318	286.600000
768.875244	285.000000
768.912109	288.100000
768.948975	283.700000
768.985901	285.200000
769.022766	284.900000
769.059631	287.900000
769.096558	285.200000
769.133362	284.600000
769.170288	284.900000
769.207214	284.200000
769.244019	291.200000
769.280945	289.100000
769.317810	295.600000
769.354675	291.700000
769.391541	299.800000
769.428406	292.600000
769.465271	301.000000
769.502136	292.400000
769.539062	297.100000
769.575867	297.000000
769.612732	298.100000
769.649597	300.600000
769.686462	304.200000
769.723328	298.500000
769.760193	299.300000
769.797058	299.000000
769.833923	306.600000
769.870728	305.100000
769.907593	306.000000
769.944519	306.400000
769.981323	309.100000
770.018188	307.700000
770.055054	307.600000
770.091858	307.700000
770.128723	315.400000
770.165588	319.400000
770.202393	310.000000
770.239258	319.900000
770.276062	316.500000
770.312927	315.800000
770.349792	323.500000
770.386597	319.800000
770.423462	329.000000
770.460327	332.400000
770.497131	320.500000
770.533997	317.300000
770.570862	329.000000
770.607605	329.400000
770.644470	331.700000
770.681335	330.900000
770.718140	330.900000
770.754944	324.800000
770.791809	324.200000
770.828613	327.600000
770.865479	326.700000
770.902222	339.400000
770.939087	331.500000
770.975952	323.900000
771.012695	326.800000
771.049561	341.500000
771.086365	334.200000
771.123169	330.300000
771.159973	331.400000
771.196838	335.500000
771.233582	336.400000
771.270447	337.500000
771.307251	339.900000
771.344055	337.200000
771.380859	341.200000
771.417664	339.200000
771.454468	344.500000
771.491272	342.700000
771.528076	343.900000
771.564880	342.900000
771.601685	350.200000
771.638428	342.800000
771.675293	349.000000
771.712097	340.400000
771.748840	354.800000
771.785645	347.600000
771.822449	352.400000
771.859253	353.100000
771.896057	352.200000
771.932861	359.800000
771.969604	355.600000
772.006409	349.900000
772.043213	357.600000
772.079956	355.200000
772.116760	350.600000
772.153503	353.000000
772.190308	362.800000
772.227112	355.800000
772.263855	355.000000
772.300659	357.700000
772.337463	362.000000
772.374207	356.400000
772.411011	353.000000
772.447754	355.500000
772.484497	368.100000
772.521301	361.900000
772.558105	361.600000
772.594849	361.400000
772.631592	365.000000
772.668396	366.100000
772.705139	367.300000
772.741882	365.600000
772.778625	371.500000
772.815430	373.200000
772.852173	374.800000
772.888916	378.600000
772.925720	379.800000
772.962463	385.000000
772.999207	379.600000
773.035950	381.100000
773.072754	381.200000
773.109436	378.000000
773.146240	382.200000
773.182922	380.600000
773.219727	384.600000
773.256470	382.300000
773.293152	375.800000
773.329956	380.200000
773.366699	383.400000
773.403381	377.000000
773.440186	384.300000
773.476929	385.200000
773.513611	382.800000
773.550354	384.400000
773.587158	384.700000
773.623840	381.300000
773.660583	385.900000
773.697327	393.600000
773.734009	388.800000
773.770813	387.200000
773.807495	384.800000
773.844238	386.200000
773.880981	396.500000
773.917664	395.100000
773.954407	400.400000
773.991150	395.200000
774.027832	396.600000
774.064575	389.400000
774.101318	394.000000
774.138000	400.200000
774.174744	395.300000
774.211487	397.000000
774.248108	389.800000
774.284851	390.700000
774.321594	397.800000
774.358276	400.100000
774.395020	407.900000
774.431702	408.500000
774.468384	401.700000
774.505127	398.000000
774.541809	403.100000
774.578491	410.600000
774.615234	413.300000
774.651917	406.700000
774.688599	408.100000
774.725342	415.800000
774.762024	411.300000
774.798706	414.900000
774.835449	416.200000
774.872070	422.200000
774.908813	419.800000
774.945496	421.300000
774.982178	420.200000
775.018860	423.500000
775.055542	423.100000
775.092224	422.800000
775.128967	432.800000
775.165588	431.700000
775.202271	424.300000
775.239014	430.800000
775.275635	432.400000
775.312317	428.100000
775.349060	435.200000
775.385681	436.400000
775.422363	431.900000
775.459045	433.800000
775.495667	439.500000
775.532410	443.100000
775.569092	442.000000
775.605713	441.100000
775.642395	442.100000
775.679016	443.200000
775.715698	444.700000
775.752380	446.900000
775.789001	443.600000
775.825684	449.200000
775.862366	449.000000
775.898987	457.300000
775.935669	449.400000
775.972351	468.600000
776.008972	462.000000
776.045654	468.400000
776.082336	461.700000
776.118958	461.800000
776.155640	463.200000
776.192322	471.900000
776.228882	474.200000
776.265564	474.000000
776.302185	475.000000
776.338867	482.100000
776.375488	473.600000
776.412109	481.000000
776.448792	483.800000
776.485413	491.300000
776.522034	484.300000
776.558716	479.900000
776.595337	481.200000
776.631958	483.300000
776.668579	487.000000
776.705261	492.400000
776.741882	486.500000
776.778503	488.100000
776.815186	488.700000
776.851746	493.100000
776.888367	489.600000
776.924988	503.600000
776.961609	491.600000
776.998291	496.200000
777.034851	489.900000
777.071472	500.600000
777.108154	497.400000
777.144714	510.400000
777.181335	507.100000
777.218018	499.700000
777.254578	511.500000
777.291199	507.300000
777.327759	507.600000
777.364380	515.200000
777.401062	523.200000
777.437622	532.300000
777.474243	522.900000
777.510864	525.900000
777.547424	518.900000
777.584045	524.600000
777.620667	525.700000
777.657227	528.100000
777.693848	524.900000
777.730469	538.300000
777.767029	530.400000
777.803650	533.700000
777.840271	527.900000
777.876831	527.600000
777.913452	539.900000
777.950012	526.900000
777.986633	527.400000
778.023193	527.100000
778.059753	528.900000
778.096375	529.300000
778.132996	542.500000
778.169556	531.100000
778.206116	535.700000
778.242737	532.300000
778.279297	537.700000
778.315857	529.700000
778.352478	535.700000
778.389038	545.800000
778.425598	542.400000
778.462219	546.400000
778.498718	542.900000
778.535339	549.400000
778.571838	549.200000
778.608459	553.100000
778.645020	545.100000
778.681580	547.600000
778.718140	547.700000
778.754761	547.800000
778.791260	553.500000
778.827881	557.500000
778.864441	558.600000
778.900940	565.300000
778.937561	567.200000
778.974121	561.300000
779.010620	555.000000
779.047241	556.400000
779.083801	565.500000
779.120300	565.500000
779.156860	563.600000
779.193359	564.000000
779.229980	564.900000
779.266541	568.500000
779.303040	570.900000
779.339600	566.600000
779.376160	560.100000
779.412659	564.100000
779.449219	563.000000
779.485779	566.400000
779.522278	567.600000
779.558838	569.600000
779.595398	568.800000
779.631897	567.300000
779.668457	560.800000
779.705017	570.400000
779.741516	561.900000
779.778076	559.700000
779.814575	563.700000
779.851074	567.400000
779.887634	566.400000
779.924133	569.200000
779.960693	558.100000
779.997253	570.500000
780.033691	575.900000
780.070251	580.000000
780.106812	590.100000
780.143250	586.700000
780.179810	576.600000
780.216370	576.200000
780.252808	583.100000
780.289368	593.000000
780.325867	595.500000
780.362366	591.000000
780.398865	596.100000
780.435364	593.700000
780.471863	601.900000
780.508423	601.500000
780.544861	606.200000
780.581421	605.700000
780.617920	599.300000
780.654419	593.000000
780.690918	595.300000
780.727417	603.500000
780.763916	602.000000
780.800415	612.100000
780.836914	599.500000
780.873352	610.100000
780.909912	603.900000
780.946411	611.000000
780.982849	613.500000
781.019348	621.000000
781.055786	617.500000
781.092346	615.000000
781.128845	620.100000
781.165283	621.300000
781.201782	632.500000
781.238281	638.700000
781.274719	641.600000
781.311218	634.700000
781.347717	644.200000
781.384155	634.600000
781.420654	636.900000
781.457092	644.900000
781.493591	642.800000
781.530090	640.400000
781.566528	641.000000
781.602966	638.000000
781.639465	636.900000
781.675903	637.700000
781.712402	645.500000
781.748901	648.000000
781.785278	645.300000
781.821777	649.400000
781.858276	652.700000
781.894714	668.500000
781.931152	659.900000
781.967651	663.800000
782.004089	652.400000
782.040527	657.700000
782.076965	650.800000
782.113403	643.700000
782.149902	628.300000
782.186340	599.400000
782.222778	571.200000
782.259277	514.200000
782.295654	475.700000
782.332092	462.500000
782.368591	469.900000
782.404968	502.700000
782.441467	549.400000
782.477905	600.200000
782.514282	625.500000
782.550781	657.800000
782.587219	662.000000
782.623596	669.600000
782.660095	666.400000
782.696472	660.400000
782.732910	649.500000
782.769348	642.200000
782.805786	642.200000
782.842224	622.900000
782.878662	592.200000
782.915039	543.700000
782.951477	490.300000
782.987915	434.900000
783.024292	407.000000
783.060730	394.400000
783.097168	393.800000
783.133545	426.400000
783.169983	476.200000
783.206421	535.900000
783.242798	595.000000
783.279236	642.000000
783.315613	666.900000
783.352051	680.500000
783.388489	690.100000
783.424866	689.200000
783.461304	692.800000
783.497681	703.000000
783.534058	702.600000
783.570496	697.400000
783.606934	696.100000
783.643250	700.200000
783.679687	709.100000
783.716125	700.300000
783.752441	710.500000
783.788879	734.400000
783.825317	741.200000
783.861633	739.700000
783.898071	744.200000
783.934448	758.500000
783.970825	764.500000
784.007263	767.000000
784.043579	770.100000
784.080017	774.800000
784.116394	772.700000
784.152710	773.900000
784.189148	780.900000
784.225525	779.200000
784.261902	771.000000
784.298279	765.000000
784.334656	762.700000
784.371033	758.200000
784.407410	760.700000
784.443787	746.300000
784.480164	736.000000
784.516541	719.000000
784.552856	731.600000
784.589233	726.400000
784.625610	724.600000
784.661987	749.400000
784.698364	739.400000
784.734741	733.500000
784.771057	731.400000
784.807434	741.500000
784.843811	756.400000
784.880127	748.800000
784.916504	773.000000
784.952881	773.600000
784.989197	777.300000
785.025574	775.300000
785.061951	781.900000
785.098267	799.900000
785.134644	800.600000
785.170959	796.700000
785.207275	794.800000
785.243652	795.300000
785.279968	785.400000
785.316345	779.900000
785.352722	780.500000
785.388977	778.300000
785.425354	762.200000
785.461731	742.500000
785.498047	741.700000
785.534363	739.000000
785.570679	732.100000
785.606995	731.900000
785.643372	734.400000
785.679687	733.500000
785.716003	722.600000
785.752380	724.000000
785.788635	731.200000
785.825012	744.800000
785.861328	749.400000
785.897644	739.600000
785.933960	745.600000
785.970337	759.700000
786.006592	776.800000
786.042908	789.000000
786.079285	788.000000
786.115540	803.000000
786.151855	804.300000
786.188171	805.300000
786.224487	813.200000
786.260803	804.100000
786.297119	814.200000
786.333435	807.800000
786.369751	803.500000
786.406006	797.400000
786.442322	781.500000
786.478638	777.700000
786.514954	785.000000
786.551270	779.100000
786.587585	781.900000
786.623840	767.900000
786.660156	768.400000
786.696472	761.000000
786.732727	756.200000
786.769043	762.700000
786.805298	759.300000
786.841614	762.000000
786.877930	764.600000
786.914124	758.300000
786.950439	771.800000
786.986755	778.600000
787.023010	796.200000
787.059326	805.200000
787.095642	812.900000
787.131836	818.300000
787.168152	812.500000
787.204468	820.400000
787.240723	836.300000
787.276978	842.000000
787.313293	853.500000
787.349548	846.700000
787.385803	845.400000
787.422058	837.600000
787.458313	838.700000
787.494629	834.200000
787.530823	835.300000
787.567139	824.600000
787.603455	815.200000
787.639648	803.200000
787.675903	809.300000
787.712219	799.900000
787.748413	798.800000
787.784729	807.300000
787.820984	799.000000
787.857178	794.400000
787.893494	785.300000
787.929749	788.900000
787.965942	799.000000
788.002258	819.700000
788.038452	823.200000
788.074707	818.700000
788.110962	833.400000
788.147217	828.300000
788.183472	836.900000
788.219727	841.800000
788.255920	858.600000
788.292175	870.600000
788.328430	868.700000
788.364624	858.100000
788.400879	858.100000
788.437134	862.300000
788.473328	861.900000
788.509583	867.400000
788.545837	863.100000
788.582031	861.600000
788.618286	854.600000
788.654480	852.800000
788.690735	854.900000
788.726990	877.700000
788.763184	881.600000
788.799377	882.300000
788.835632	871.700000
788.871826	880.800000
788.908081	877.800000
788.944336	874.300000
788.980469	895.700000
789.016724	887.300000
789.052979	893.600000
789.089111	877.300000
789.125366	883.600000
789.161621	873.100000
789.197754	878.600000
789.234009	878.700000
789.270142	874.100000
789.306396	865.900000
789.342590	864.400000
789.378784	843.000000
789.414978	840.200000
789.451233	856.700000
789.487366	857.100000
789.523621	861.500000
789.559814	865.500000
789.595947	861.700000
789.632202	860.400000
789.668335	870.800000
789.704529	890.500000
789.740784	908.400000
789.776917	912.700000
789.813110	905.700000
789.849304	917.800000
789.885498	911.700000
789.921692	930.800000
789.957886	939.500000
789.994019	942.300000
790.030212	938.800000
790.066406	942.900000
790.102539	933.300000
790.138733	940.500000
790.174927	935.200000
790.211060	944.100000
790.247253	944.500000
790.283386	939.200000
790.319580	922.400000
790.355774	916.600000
790.391907	921.200000
790.428101	932.100000
790.464294	930.600000
790.500427	928.000000
790.536621	913.700000
790.572754	897.100000
790.608887	899.500000
790.645081	899.600000
790.681274	911.900000
790.717346	911.800000
790.753540	902.400000
790.789734	891.300000
790.825867	875.800000
790.862000	881.600000
790.898132	893.000000
790.934265	891.600000
790.970459	893.900000
791.006592	891.500000
791.042725	884.700000
791.078918	880.600000
791.114990	882.900000
791.151184	879.300000
791.187317	901.500000
791.223389	902.200000
791.259583	891.800000
791.295715	882.700000
791.331848	887.100000
791.367981	899.700000
791.404114	908.900000
791.440247	906.700000
791.476379	911.600000
791.512451	890.800000
791.548584	889.900000
791.584778	880.700000
791.620850	892.600000
791.656982	903.300000
791.693115	901.500000
791.729187	904.000000
791.765381	901.100000
791.801514	890.900000
791.837585	892.100000
791.873718	902.500000
791.909851	910.800000
791.945923	920.800000
791.982056	899.800000
792.018188	897.500000
792.054260	891.300000
792.090393	887.400000
792.126465	883.900000
792.162598	898.800000
792.198669	897.400000
792.234741	891.700000
792.270874	879.700000
792.307007	870.000000
792.343079	874.100000
792.379150	883.600000
792.415283	877.200000
792.451355	878.400000
792.487488	856.500000
792.523560	850.300000
792.559631	845.900000
792.595764	818.500000
792.631836	784.400000
792.667908	764.300000
792.703979	745.100000
792.740051	754.400000
792.776184	776.600000
792.812256	794.400000
792.848328	811.000000
792.884399	823.100000
792.920471	826.800000
792.956543	817.800000
792.992615	819.300000
793.028748	814.000000
793.064758	814.800000
793.100830	839.400000
793.136963	854.700000
793.172974	856.500000
793.209045	847.100000
793.245178	853.900000
793.281189	840.700000
793.317261	842.900000
793.353271	848.200000
793.389404	864.200000
793.425476	860.300000
793.461487	845.500000
793.497559	837.100000
793.533630	839.100000
793.569641	829.900000
793.605713	841.400000
793.641785	844.500000
793.677795	852.100000
793.713867	853.300000
793.749878	848.400000
793.785950	853.700000
793.822021	863.800000
793.858032	853.100000
793.894104	869.600000
793.930176	869.400000
793.966187	868.700000
794.002258	858.800000
794.038269	870.200000
794.074280	865.400000
794.110352	884.200000
794.146423	869.900000
794.182373	866.200000
794.218445	858.000000
794.254517	852.200000
794.290466	849.800000
794.326538	851.800000
794.362549	856.100000
794.398560	859.100000
794.434631	849.900000
794.470581	831.000000
794.506653	828.700000
794.542664	831.600000
794.578674	832.600000
794.614685	833.800000
794.650757	833.300000
794.686707	840.600000
794.722778	834.600000
794.758789	833.500000
794.794739	840.400000
794.830811	863.000000
794.866821	883.700000
794.902771	888.200000
794.938843	891.500000
794.974792	886.900000
795.010803	885.300000
795.046814	884.800000
795.082825	876.100000
795.118835	887.300000
795.154846	874.800000
795.190796	876.700000
795.226807	859.100000
795.262817	860.100000
795.298767	865.400000
795.334778	874.300000
795.370850	860.800000
795.406799	865.500000
795.442810	856.400000
795.478821	847.600000
795.514709	842.300000
795.550720	870.000000
795.586670	850.000000
795.622681	857.900000
795.658691	860.000000
795.694641	857.400000
795.730652	844.900000
795.766663	851.800000
795.802551	864.200000
795.838562	885.900000
795.874573	871.200000
795.910522	868.600000
795.946472	855.600000
795.982483	861.300000
796.018433	861.200000
796.054382	871.900000
796.090393	852.700000
796.126282	850.800000
796.162292	843.000000
796.198242	832.300000
796.234192	823.000000
796.270203	825.400000
796.306091	834.800000
796.342041	849.900000
796.378052	843.900000
796.413940	845.100000
796.449951	841.700000
796.485901	839.000000
796.521790	842.000000
796.557800	862.100000
796.593689	863.300000
796.629639	864.500000
796.665649	860.600000
796.701599	853.500000
796.737488	848.400000
796.773437	855.000000
796.809387	860.900000
796.845337	863.400000
796.881287	859.100000
796.917175	840.800000
796.953125	832.300000
796.989075	835.800000
797.024963	840.500000
797.060913	846.500000
797.096863	850.100000
797.132751	840.400000
797.168701	830.200000
797.204590	830.800000
797.240540	827.300000
797.276489	828.800000
797.312439	845.100000
797.348328	845.900000
797.384277	838.200000
797.420166	824.600000
797.456055	826.900000
797.492004	820.000000
797.527893	824.600000
797.563843	827.000000
797.599731	824.700000
797.635620	826.200000
797.671570	828.700000
797.707520	823.200000
797.743347	826.300000
797.779297	835.000000
797.815125	832.300000
797.851074	834.200000
797.887024	816.200000
797.922913	807.500000
797.958801	812.900000
797.994690	802.200000
798.030579	812.800000
798.066467	814.500000
798.102356	809.400000
798.138245	795.000000
798.174133	781.900000
798.210083	797.400000
798.245911	813.900000
798.281799	811.900000
798.317749	808.400000
798.353577	813.800000
798.389465	801.400000
798.425293	799.400000
798.461243	799.100000
798.497131	808.100000
798.532959	813.700000
798.568848	820.500000
798.604736	809.300000
798.640564	795.700000
798.676453	791.800000
798.712402	793.000000
798.748230	791.400000
798.784119	799.500000
798.820007	806.700000
798.855835	801.700000
798.891724	797.100000
798.927551	784.400000
798.963379	781.300000
798.999268	781.800000
799.035095	779.100000
799.070984	783.800000
799.106873	771.800000
799.142700	772.800000
799.178528	762.500000
799.214417	768.300000
799.250244	780.300000
799.286133	772.500000
799.321960	773.600000
799.357788	764.600000
799.393677	764.600000
799.429504	767.500000
799.465332	768.100000
799.501221	772.100000
799.537048	777.100000
799.572876	772.500000
799.608704	767.800000
799.644531	776.300000
799.680359	773.900000
799.716248	784.400000
799.752014	789.000000
799.787903	785.300000
799.823730	777.800000
799.859558	768.300000
799.895386	768.100000
799.931213	771.000000
799.967041	763.400000
800.002869	763.500000
800.038696	778.600000
800.074463	759.000000
800.110352	761.700000
800.146179	748.900000
800.181946	761.600000
800.217773	764.400000
800.253540	762.600000
800.289429	760.500000
800.325256	753.900000
800.361023	750.300000
800.396851	751.300000
800.432678	758.200000
800.468445	761.000000
800.504272	759.800000
800.540100	745.700000
800.575867	748.100000
800.611694	752.900000
800.647461	746.900000
800.683289	749.400000
800.719116	758.400000
800.754883	751.600000
800.790649	737.000000
800.826477	738.400000
800.862244	751.800000
800.898071	737.900000
800.933838	742.800000
800.969604	746.100000
801.005432	742.700000
801.041199	739.000000
801.076965	730.200000
801.112793	727.300000
801.148560	719.600000
801.184326	723.500000
801.220154	723.800000
801.255859	714.700000
801.291687	716.300000
801.327454	711.200000
801.363281	711.700000
801.398987	712.000000
801.434814	715.800000
801.470520	712.700000
801.506287	702.900000
801.542114	700.300000
801.577820	698.300000
801.613647	698.200000
801.649414	696.400000
801.685120	703.000000
801.720886	713.200000
801.756714	697.600000
801.792419	687.000000
801.828186	682.000000
801.863892	689.700000
801.899719	684.800000
801.935486	685.000000
801.971252	689.800000
802.006958	681.600000
802.042725	677.100000
802.078430	676.600000
802.114197	675.700000
802.149963	690.400000
802.185669	678.800000
802.221436	683.300000
802.257202	679.300000
802.292908	671.700000
802.328674	680.500000
802.364441	679.900000
802.400146	681.700000
802.435913	690.000000
802.471558	678.700000
802.507324	671.400000
802.543091	669.200000
802.578796	677.200000
802.614502	681.200000
802.650269	692.400000
802.685974	676.100000
802.721741	681.900000
802.757446	681.900000
802.793152	678.600000
802.828918	688.700000
802.864624	679.300000
802.900330	683.700000
802.936035	682.700000
802.971802	675.800000
803.007446	666.600000
803.043213	658.000000
803.078857	672.400000
803.114624	661.300000
803.150330	665.900000
803.185974	656.600000
803.221741	652.900000
803.257446	666.000000
803.293152	662.900000
803.328857	661.300000
803.364563	661.300000
803.400208	659.900000
803.435974	660.800000
803.471680	646.700000
803.507324	643.100000
803.543030	649.500000
803.578735	652.300000
803.614441	648.900000
803.650146	661.000000
803.685791	645.400000
803.721497	644.700000
803.757202	637.500000
803.792847	645.000000
803.828552	642.700000
803.864258	639.000000
803.899902	637.300000
803.935608	621.500000
803.971313	625.800000
804.006958	625.100000
804.042664	624.200000
804.078308	632.000000
804.113953	621.500000
804.149658	629.200000
804.185364	620.000000
804.221008	634.600000
804.256714	613.700000
804.292297	615.900000
804.328003	616.300000
804.363708	619.800000
804.399292	613.400000
804.434998	612.700000
804.470703	602.100000
804.506287	609.600000
804.541992	607.800000
804.577637	609.800000
804.613281	598.000000
804.648926	596.100000
804.684570	600.800000
804.720215	597.400000
804.755920	595.700000
804.791565	595.900000
804.827209	602.800000
804.862854	598.000000
804.898437	594.500000
804.934143	596.700000
804.969788	592.000000
805.005371	590.800000
805.041077	589.700000
805.076721	589.200000
805.112305	581.200000
805.147949	584.800000
805.183655	579.200000
805.219238	582.500000
805.254883	578.700000
805.290466	588.100000
805.326111	581.200000
805.361755	575.700000
805.397400	576.600000
805.432983	575.300000
805.468628	573.900000
805.504211	577.800000
805.539856	579.600000
805.575500	577.800000
805.611084	573.400000
805.646729	562.100000
805.682373	563.400000
805.717957	576.100000
805.753601	577.700000
805.789246	567.800000
805.824768	572.900000
805.860413	574.500000
805.895996	564.600000
805.931641	564.100000
805.967224	569.300000
806.002869	561.200000
806.038452	571.300000
806.074036	573.200000
806.109619	561.600000
806.145264	559.100000
806.180847	559.500000
806.216431	556.700000
806.252014	563.000000
806.287659	560.700000
806.323181	564.800000
806.358826	558.700000
806.394409	547.200000
806.429993	544.500000
806.465576	553.100000
806.501160	545.100000
806.536743	541.200000
806.572327	550.400000
806.607910	548.400000
806.643494	547.300000
806.679077	538.300000
806.714661	536.600000
806.750244	539.600000
806.785828	538.100000
806.821350	537.300000
806.856934	536.400000
806.892517	534.100000
806.928101	529.400000
806.963684	530.800000
806.999268	536.400000
807.034790	523.200000
807.070374	525.500000
807.105896	520.100000
807.141479	514.800000
807.177063	519.900000
807.212585	515.200000
807.248169	517.700000
807.283752	524.300000
807.319275	517.900000
807.354858	522.500000
807.390381	511.100000
807.425903	510.800000
807.461487	510.200000
807.497070	508.500000
807.532593	509.700000
807.568115	508.500000
807.603699	501.100000
807.639221	503.200000
807.674744	503.300000
807.710266	502.600000
807.745850	507.700000
807.781372	500.800000
807.816895	499.000000
807.852417	498.400000
807.888000	491.600000
807.923523	488.700000
807.959045	492.700000
807.994629	489.600000
808.030090	488.800000
808.065613	493.800000
808.101135	497.600000
808.136658	491.000000
808.172241	488.800000
808.207764	488.900000
808.243225	484.000000
808.278809	481.400000
808.314270	489.600000
808.349792	479.600000
808.385315	478.200000
808.420837	483.700000
808.456360	487.100000
808.491882	487.200000
808.527344	485.300000
808.562866	489.400000
808.598389	480.400000
808.633850	478.700000
808.669434	475.200000
808.704895	479.900000
808.740417	483.800000
808.775940	477.700000
808.811462	476.800000
808.846924	470.300000
808.882385	468.000000
808.917847	470.200000
808.953369	472.600000
808.988892	466.100000
809.024353	471.200000
809.059875	470.100000
809.095398	466.900000
809.130798	458.500000
809.166321	460.800000
809.201843	461.300000
809.237305	460.700000
809.272766	468.500000
809.308228	457.600000
809.343750	459.900000
809.379211	458.900000
809.414734	455.500000
809.450134	459.700000
809.485657	450.100000
809.521118	457.900000
809.556580	449.700000
809.592102	450.800000
809.627502	447.400000
809.663025	447.400000
809.698486	443.400000
809.733887	442.800000
809.769409	446.300000
809.804871	437.000000
809.840271	438.300000
809.875793	439.700000
809.911194	441.100000
809.946655	435.800000
809.982178	433.100000
810.017639	436.300000
810.053040	434.000000
810.088501	431.500000
810.123901	432.100000
810.159424	428.300000
810.194885	426.900000
810.230286	429.600000
810.265747	422.200000
810.301208	421.400000
810.336609	422.300000
810.372070	412.100000
810.407532	415.800000
810.442932	421.600000
810.478394	424.200000
810.513794	418.100000
810.549255	416.000000
810.584717	411.600000
810.620117	409.700000
810.655518	415.700000
810.690979	408.700000
810.726379	406.600000
810.761841	399.800000
810.797302	398.900000
810.832642	397.400000
810.868103	408.600000
810.903564	399.600000
810.938904	405.800000
810.974365	396.500000
811.009827	396.700000
811.045166	392.300000
811.080627	386.100000
811.115967	388.700000
811.151428	393.600000
811.186829	388.800000
811.222229	390.500000
811.257629	383.500000
811.293091	388.800000
811.328430	394.400000
811.363892	388.500000
811.399292	390.500000
811.434631	384.600000
811.470093	390.500000
811.505493	384.100000
811.540833	382.300000
811.576294	385.900000
811.611694	385.600000
811.647034	378.200000
811.682434	380.800000
811.717773	383.600000
811.753235	385.600000
811.788635	381.300000
811.823975	379.400000
811.859375	385.200000
811.894775	374.300000
811.930115	378.900000
811.965515	376.800000
812.000916	375.500000
812.036255	370.700000
812.071655	377.700000
812.106995	367.700000
812.142395	370.500000
812.177795	375.900000
812.213196	375.200000
812.248474	374.200000
812.283875	366.800000
812.319214	370.600000
812.354614	366.900000
812.390015	364.600000
812.425293	365.800000
812.460693	366.600000
812.496094	363.300000
812.531433	357.400000
812.566772	358.100000
812.602173	357.700000
812.637451	359.100000
812.672852	358.200000
812.708191	358.300000
812.743530	354.100000
812.778931	347.400000
812.814270	349.500000
812.849609	352.900000
812.884949	350.700000
812.920227	342.400000
812.955627	357.400000
812.990967	347.600000
813.026306	343.500000
813.061646	337.900000
813.096985	334.000000
813.132324	331.600000
813.167664	335.900000
813.203003	338.800000
813.238281	328.600000
813.273682	328.700000
813.308960	327.900000
813.344299	325.100000
813.379639	334.600000
813.414978	327.800000
813.450256	327.300000
813.485596	329.500000
813.520874	322.200000
813.556213	322.000000
813.591614	327.900000
813.626831	320.200000
813.662170	324.200000
813.697510	329.900000
813.732788	316.900000
813.768127	322.600000
813.803467	321.300000
813.838745	317.000000
813.874084	321.200000
813.909363	319.900000
813.944641	321.900000
813.979980	309.700000
814.015320	315.300000
814.050598	314.600000
814.085876	315.200000
814.121155	310.700000
814.156494	311.200000
814.191772	312.700000
814.227051	308.300000
814.262390	310.900000
814.297668	309.300000
814.332947	309.000000
814.368225	302.900000
814.403564	307.200000
814.438782	306.200000
814.474121	307.700000
814.509338	302.100000
814.544617	308.800000
814.579956	300.500000
814.615173	309.200000
814.650513	305.600000
814.685791	299.600000
814.721008	302.200000
814.756348	303.300000
814.791626	297.900000
814.826843	300.400000
814.862122	299.700000
814.897400	298.500000
814.932678	299.200000
814.967957	296.900000
815.003235	296.800000
815.038452	292.800000
815.073730	292.300000
815.108948	300.600000
815.144226	297.300000
815.179504	299.300000
815.214722	287.600000
815.250000	288.400000
815.285278	293.000000
815.320496	287.600000
815.355774	289.400000
815.391052	289.400000
815.426270	287.400000
815.461487	286.300000
815.496765	281.100000
815.531982	281.300000
815.567261	284.100000
815.602539	290.300000
815.637695	285.800000
815.672974	285.900000
815.708191	287.500000
815.743408	288.600000
815.778687	280.300000
815.813904	286.800000
815.849121	274.500000
815.884399	276.300000
815.919556	277.600000
815.954834	276.600000
815.990051	280.000000
816.025269	283.500000
816.060486	273.900000
816.095703	272.900000
816.130920	274.900000
816.166199	271.700000
816.201416	274.900000
816.236572	276.600000
816.271851	271.000000
816.307007	274.000000
816.342224	265.200000
816.377441	268.800000
816.412659	263.400000
816.447876	271.200000
816.483093	267.500000
816.518250	265.800000
816.553467	265.000000
816.588745	268.800000
816.623901	262.500000
816.659119	255.600000
816.694275	261.400000
816.729492	260.000000
816.764709	287.200000
816.799927	255.300000
816.835083	259.400000
816.870300	253.800000
816.905457	258.700000
816.940674	258.100000
816.975830	254.400000
817.010986	252.200000
817.046204	252.000000
817.081421	249.300000
817.116577	251.000000
817.151733	256.800000
817.186951	254.800000
817.222107	252.800000
817.257324	255.700000
817.292419	254.000000
817.327637	245.800000
817.362854	247.900000
817.398010	246.000000
817.433167	249.100000
817.468323	245.700000
817.503479	247.000000
817.538635	253.600000
817.573853	249.600000
817.608948	247.500000
817.644165	243.800000
817.679321	242.300000
817.714478	242.800000
817.749634	243.300000
817.784790	253.400000
817.819946	247.100000
817.855103	234.600000
817.890198	240.300000
817.925415	234.100000
817.960571	241.000000
817.995667	242.100000
818.030823	239.800000
818.066040	237.800000
818.101135	240.600000
818.136292	237.700000
818.171448	233.700000
818.206543	238.200000
818.241699	239.900000
818.276855	237.800000
818.311951	236.100000
818.347107	232.900000
818.382263	238.000000
818.417358	240.200000
818.452515	239.000000
818.487610	240.200000
818.522766	231.900000
818.557922	240.500000
818.593018	234.900000
818.628113	232.700000
818.663269	230.500000
818.698364	234.500000
818.733521	229.600000
818.768677	234.000000
818.803711	228.300000
818.838867	228.500000
818.874023	231.500000
818.909058	226.900000
818.944214	225.700000
818.979370	230.700000
819.014404	228.700000
819.049561	225.100000
819.084595	230.600000
819.119751	222.800000
819.154846	228.300000
819.189941	222.500000
819.225037	222.200000
819.260193	218.900000
819.295227	218.800000
819.330322	216.500000
819.365479	217.200000
819.400513	249.400000
819.435608	214.900000
819.470764	212.500000
819.505798	215.500000
819.540894	217.000000
819.575989	215.400000
819.611084	219.500000
819.646179	223.400000
819.681213	218.000000
819.716309	215.100000
819.751404	214.300000
819.786438	220.100000
819.821533	211.100000
819.856628	217.000000
819.891663	217.600000
819.926758	224.700000
819.961853	222.000000
819.996887	211.400000
820.031982	216.300000
820.067017	212.900000
820.102112	245.900000
820.137207	210.300000
820.172302	224.100000
820.207275	209.800000
820.242371	211.900000
820.277405	210.000000
820.312500	210.900000
820.347534	214.100000
820.382568	217.100000
820.417664	209.700000
820.452759	208.200000
820.487732	207.200000
820.522827	209.400000
820.557861	205.000000
820.592896	208.500000
820.627930	209.000000
820.662964	207.000000
820.698059	210.900000
820.733093	208.100000
820.768127	210.800000
820.803162	207.900000
820.838196	206.600000
820.873230	208.000000
820.908264	209.200000
820.943298	205.700000
820.978333	209.000000
821.013367	208.400000
821.048401	210.000000
821.083435	210.700000
821.118469	200.700000
821.153503	210.600000
821.188477	207.000000
821.223511	201.800000
821.258484	206.100000
821.293579	206.800000
821.328613	201.300000
821.363647	203.700000
821.398621	202.000000
821.433655	203.400000
821.468628	215.000000
821.503662	203.900000
821.538696	207.000000
821.573669	200.400000
821.608704	207.700000
821.643677	202.400000
821.678650	207.900000
821.713684	211.000000
821.748718	203.800000
821.783691	204.100000
821.818726	205.100000
821.853638	205.000000
821.888672	203.900000
821.923706	203.600000
821.958618	203.000000
821.993652	202.500000
822.028687	207.700000
822.063599	210.500000
822.098633	206.500000
822.133667	199.600000
822.168579	202.700000
822.203613	203.400000
822.238586	200.100000
822.273560	203.900000
822.308533	200.300000
822.343567	198.800000
822.378479	203.800000
822.413452	199.500000
822.448425	198.600000
822.483398	204.800000
822.518372	205.200000
822.553345	198.100000
822.588318	209.900000
822.623291	200.900000
822.658203	200.600000
822.693237	201.000000
822.728210	197.900000
822.763123	201.900000
822.798096	199.100000
822.833069	200.300000
822.867981	200.300000
822.902954	203.100000
822.937927	202.100000
822.972900	207.800000
823.007874	196.300000
823.042725	205.600000
823.077698	209.700000
823.112671	198.400000
823.147583	200.400000
823.182556	204.200000
823.217529	204.200000
823.252441	200.900000
823.287415	208.600000
823.322388	203.200000
823.357239	199.500000
823.392212	207.200000
823.427185	205.800000
823.462097	198.300000
823.497009	201.900000
823.531982	198.800000
823.566895	199.600000
823.601807	195.400000
823.636719	198.700000
823.671631	202.100000
823.706604	197.300000
823.741455	202.800000
823.776428	196.000000
823.811340	202.100000
823.846252	206.600000
823.881165	206.200000
823.916138	199.100000
823.950989	207.200000
823.985901	198.400000
824.020813	200.800000
824.055725	198.300000
824.090637	195.900000
824.125610	199.700000
824.160461	201.200000
824.195374	200.700000
824.230225	203.300000
824.265198	194.800000
824.300110	197.600000
824.334961	208.000000
824.369873	193.700000
824.404785	203.300000
824.439636	203.200000
824.474548	194.300000
824.509460	192.700000
824.544312	204.800000
824.579224	201.100000
824.614075	202.100000
824.648987	199.100000
824.683899	198.800000
824.718811	196.200000
824.753662	204.100000
824.788574	201.100000
824.823364	200.700000
824.858276	195.200000
824.893188	202.000000
824.928040	202.200000
824.962952	200.100000
824.997803	200.600000
825.032654	198.800000
825.067566	200.500000
825.102417	195.700000
825.137268	195.900000
825.172119	197.300000
825.206970	195.500000
825.241882	195.500000
825.276733	193.400000
825.311646	196.700000
825.346436	192.800000
825.381348	192.600000
825.416138	196.900000
825.450989	192.300000
825.485901	188.300000
825.520691	190.900000
825.555542	192.000000
825.590454	194.500000
825.625244	189.600000
825.660095	200.900000
825.695007	198.400000
825.729797	195.000000
825.764648	190.800000
825.799438	193.400000
825.834290	195.700000
825.869202	190.900000
825.903992	195.800000
825.938843	193.100000
825.973694	190.100000
826.008484	203.700000
826.043335	192.200000
826.078186	188.000000
826.112976	198.500000
826.147827	197.100000
826.182678	201.500000
826.217468	188.900000
826.252319	199.000000
826.287109	189.500000
826.321899	197.200000
826.356750	192.400000
826.391541	190.400000
826.426392	196.500000
826.461182	192.800000
826.495972	188.100000
826.530823	187.200000
826.565613	191.800000
826.600403	188.700000
826.635254	193.900000
826.670044	186.600000
826.704834	187.000000
826.739685	189.200000
826.774475	193.500000
826.809265	192.300000
826.844055	190.500000
826.878906	196.400000
826.913635	192.500000
826.948425	193.600000
826.983215	193.800000
827.018005	196.300000
827.052856	191.500000
827.087585	195.600000
827.122375	186.300000
827.157227	191.700000
827.191956	203.400000
827.226746	188.800000
827.261536	196.300000
827.296265	187.800000
827.331116	190.300000
827.365906	194.200000
827.400635	190.300000
827.435425	184.500000
827.470215	196.800000
827.504944	191.300000
827.539734	197.300000
827.574463	191.800000
827.609253	198.500000
827.644043	192.800000
827.678772	195.400000
827.713562	190.300000
827.748352	190.800000
827.783081	187.900000
827.817871	193.100000
827.852600	189.300000
827.887329	192.900000
827.922119	183.500000
827.956848	195.600000
827.991638	201.400000
828.026367	192.500000
828.061157	192.800000
828.095886	193.400000
828.130615	203.900000
828.165344	184.700000
828.200073	190.900000
828.234863	191.100000
828.269592	190.900000
828.304321	195.000000
828.339111	191.700000
828.373779	188.100000
828.408569	194.200000
828.443298	196.200000
828.477966	190.600000
828.512756	192.300000
828.547424	187.600000
828.582214	190.300000
828.616943	191.300000
828.651672	190.800000
828.686340	195.500000
828.721130	189.800000
828.755798	192.900000
828.790527	191.200000
828.825256	193.200000
828.859924	191.900000
828.894714	197.400000
828.929443	198.100000
828.964111	190.000000
828.998840	196.100000
829.033569	189.800000
829.068237	190.400000
829.102966	190.300000
829.137634	192.900000
829.172363	193.600000
829.207092	192.600000
829.241821	189.600000
829.276489	185.100000
829.311157	192.200000
829.345825	190.800000
829.380554	196.400000
829.415283	188.600000
829.449951	185.600000
829.484619	199.100000
829.519348	198.000000
829.554016	191.100000
829.588745	192.200000
829.623413	186.400000
829.658081	200.500000
829.692749	187.700000
829.727417	195.300000
829.762146	192.700000
829.796814	189.000000
829.831482	190.000000
829.866150	192.800000
829.900879	190.000000
829.935486	193.400000
829.970154	189.800000
830.004883	200.900000
830.039490	193.100000
830.074219	188.500000
830.108887	192.100000
830.143494	190.500000
830.178223	187.400000
830.212891	190.700000
830.247498	192.800000
830.282166	196.900000
830.316772	196.600000
830.351501	189.100000
830.386169	192.400000
830.420776	190.100000
830.455444	194.000000
830.490112	189.400000
830.524719	186.200000
830.559387	194.700000
830.594055	194.100000
830.628662	193.300000
830.663330	192.800000
830.697998	196.400000
830.732605	192.200000
830.767273	192.200000
830.801941	191.900000
830.836487	199.000000
830.871155	193.500000
830.905762	192.400000
830.940430	186.000000
830.975098	187.700000
831.009644	190.700000
831.044312	198.200000
831.078979	194.300000
831.113525	185.300000
831.148193	191.900000
831.182861	191.100000
831.217407	193.400000
831.252075	202.400000
831.286621	189.300000
831.321289	188.600000
831.355896	191.400000
831.390564	198.300000
831.425110	191.900000
831.459778	196.200000
831.494324	201.000000
831.528931	194.800000
831.563599	196.000000
831.598145	187.800000
831.632751	192.400000
831.667419	191.200000
831.701965	192.800000
831.736572	193.300000
831.771179	188.000000
831.805786	190.000000
831.840393	197.400000
831.874939	186.300000
831.909546	195.400000
831.944153	186.100000
831.978760	191.200000
832.013306	188.200000
832.047913	196.000000
832.082458	199.100000
832.117065	189.700000
832.151672	199.300000
832.186218	192.500000
832.220825	194.200000
832.255432	185.500000
832.289978	190.500000
832.324585	192.900000
832.359192	193.400000
832.393677	190.800000
832.428284	192.900000
832.462830	189.400000
832.497437	192.300000
832.531982	192.700000
832.566589	190.300000
832.601135	193.700000
832.635681	186.100000
832.670227	190.800000
832.704773	196.200000
832.739380	193.100000
832.773926	192.500000
832.808472	188.100000
832.843079	190.800000
832.877563	194.700000
832.912170	189.800000
832.946716	186.700000
832.981201	195.700000
833.015808	196.000000
833.050293	191.700000
833.084839	189.400000
833.119446	190.300000
833.153992	195.400000
833.188477	190.500000
833.223022	189.800000
833.257568	192.900000
833.292114	197.000000
833.326660	200.800000
833.361145	191.100000
833.395691	185.300000
833.430237	191.600000
833.464783	194.300000
833.499329	190.800000
833.533875	187.700000
833.568359	194.000000
833.602905	193.700000
833.637390	196.600000
833.671875	189.700000
833.706421	190.400000
833.740906	189.400000
833.775452	184.800000
833.809998	188.400000
833.844482	197.900000
833.879028	190.900000
833.913513	189.300000
833.947998	193.400000
833.982544	187.800000
834.017090	189.300000
834.051514	183.900000
834.086060	193.900000
834.120544	191.800000
834.155029	193.400000
834.189575	189.600000
834.223999	194.300000
834.258545	192.900000
834.293030	190.900000
834.327515	191.500000
834.362000	189.600000
834.396545	194.200000
834.430969	191.200000
834.465454	194.500000
834.500000	186.200000
834.534424	193.700000
834.568970	185.300000
834.603455	186.200000
834.637878	190.500000
834.672363	192.300000
834.706909	191.800000
834.741333	191.300000
834.775818	186.800000
834.810242	188.600000
834.844727	191.100000
834.879211	190.800000
834.913635	193.800000
834.948181	192.900000
834.982666	193.000000
835.017090	190.200000
835.051575	193.400000
835.086060	189.500000
835.120483	194.600000
835.154907	194.500000
835.189331	191.000000
835.223816	194.200000
835.258301	185.700000
835.292786	188.800000
835.327209	195.700000
835.361694	188.100000
835.396057	190.500000
835.430542	193.200000
835.465027	191.300000
835.499390	189.400000
835.533875	217.500000
835.568359	190.400000
835.602722	185.900000
835.637207	193.000000
835.671692	188.100000
835.706055	207.600000
835.740540	193.300000
835.774902	193.800000
835.809387	193.500000
835.843811	188.500000
835.878235	195.800000
835.912659	187.600000
835.947083	189.600000
835.981506	193.900000
836.015930	186.400000
836.050354	197.100000
836.084778	198.100000
836.119202	197.100000
836.153625	204.800000
836.187988	189.700000
836.222473	189.900000
836.256897	193.200000
836.291260	190.100000
836.325684	194.200000
836.360046	189.800000
836.394470	190.500000
836.428894	196.500000
836.463318	189.600000
836.497681	192.600000
836.532104	196.400000
836.566467	192.200000
836.600891	191.200000
836.635315	196.200000
836.669678	193.700000
836.704102	193.900000
836.738525	193.700000
836.772888	186.400000
836.807251	188.900000
836.841675	194.200000
836.876038	188.300000
836.910461	188.500000
836.944763	194.300000
836.979187	188.300000
837.013611	196.000000
837.047974	186.500000
837.082336	200.700000
837.116699	194.600000
837.151062	191.600000
837.185486	188.700000
837.219849	189.800000
837.254211	195.600000
837.288574	190.900000
837.322937	189.500000
837.357300	184.200000
837.391663	202.400000
837.426086	196.100000
837.460388	191.900000
837.494751	194.300000
837.529114	190.700000
837.563477	197.600000
837.597839	193.500000
837.632141	190.900000
837.666565	190.100000
837.700928	194.900000
837.735229	193.700000
837.769592	194.200000
837.803955	195.500000
837.838257	190.000000
837.872620	188.900000
837.906982	196.000000
837.941284	193.300000
837.975647	193.100000
838.010010	197.400000
838.044312	188.100000
838.078674	190.500000
838.112976	191.800000
838.147339	194.500000
838.181702	191.300000
838.216003	197.500000
838.250366	191.900000
838.284668	193.300000
838.318970	186.100000
838.353333	191.000000
838.387634	192.300000
838.421936	192.300000
838.456299	194.100000
838.490601	196.900000
838.524902	195.300000
838.559265	196.000000
838.593567	195.700000
838.627869	187.400000
838.662170	194.200000
838.696472	186.500000
838.730774	189.800000
838.765137	194.100000
838.799377	183.500000
838.833740	192.400000
838.868042	197.300000
838.902283	185.100000
838.936646	199.100000
838.970947	193.100000
839.005188	197.900000
839.039551	187.100000
839.073792	197.600000
839.108093	191.100000
839.142395	198.800000
839.176697	185.800000
839.210937	192.600000
839.245300	199.800000
839.279541	187.600000
839.313843	189.000000
839.348145	192.700000
839.382385	195.800000
839.416687	195.100000
839.450989	193.700000
839.485229	191.800000
839.519531	187.400000
839.553833	195.400000
839.588013	191.800000
839.622314	192.100000
839.656555	192.700000
839.690857	190.600000
839.725159	187.300000
839.759460	191.100000
839.793640	190.000000
839.827942	191.400000
839.862183	187.400000
839.896423	193.800000
839.930725	204.400000
839.964966	199.200000
839.999207	197.100000
840.033508	197.600000
840.067688	190.200000
840.101990	198.200000
840.136230	191.300000
840.170471	197.400000
840.204712	188.600000
840.238953	189.000000
840.273193	193.700000
840.307434	195.000000
840.341736	188.900000
840.375916	186.900000
840.410217	189.900000
840.444397	195.500000
840.478638	194.000000
840.512878	195.100000
840.547119	193.000000
840.581360	195.100000
840.615601	199.400000
840.649780	201.100000
840.684021	193.100000
840.718262	196.800000
840.752441	199.600000
840.786682	192.600000
840.820862	193.500000
840.855103	198.200000
840.889343	191.900000
840.923584	195.400000
840.957764	193.800000
840.992004	193.800000
841.026184	203.200000
841.060425	190.200000
841.094666	189.000000
841.128845	195.600000
841.163025	193.600000
841.197266	193.600000
841.231445	191.800000
841.265686	193.600000
841.299866	188.800000
841.334045	197.800000
841.368286	192.400000
841.402405	198.500000
841.436646	195.000000
841.470825	190.500000
841.505005	190.500000
841.539185	189.000000
841.573425	188.400000
841.607544	191.600000
841.641785	191.400000
841.675964	188.400000
841.710144	190.700000
841.744324	190.100000
841.778503	190.000000
841.812683	190.100000
841.846863	198.200000
841.881042	198.900000
841.915222	189.500000
841.949402	203.000000
841.983521	185.800000
842.017700	191.500000
842.051880	192.000000
842.086060	195.400000
842.120239	192.900000
842.154419	191.300000
842.188538	192.400000
842.222717	190.200000
842.256897	198.400000
842.291016	192.100000
842.325195	193.000000
842.359375	200.400000
842.393494	197.200000
842.427673	192.300000
842.461853	192.900000
842.495911	199.700000
842.530090	192.300000
842.564209	191.200000
842.598389	193.100000
842.632568	192.600000
842.666626	195.700000
842.700806	190.900000
842.734985	190.700000
842.769043	194.700000
842.803223	191.800000
842.837402	190.600000
842.871460	189.900000
842.905640	200.600000
842.939697	189.800000
842.973877	195.500000
843.007996	197.600000
843.042175	200.100000
843.076233	190.800000
843.110413	193.200000
843.144470	198.800000
843.178589	195.800000
843.212769	190.000000
843.246826	195.600000
843.280945	190.200000
843.315125	192.000000
843.349182	189.200000
843.383301	196.400000
843.417419	203.300000
843.451538	192.900000
843.485657	189.300000
843.519714	193.200000
843.553833	192.700000
843.587952	189.600000
843.622070	190.200000
843.656128	194.800000
843.690247	188.700000
843.724304	191.700000
843.758423	194.600000
843.792542	190.400000
843.826599	193.500000
843.860718	190.200000
843.894836	188.300000
843.928894	193.100000
843.963013	192.600000
843.997070	187.400000
844.031128	187.400000
844.065247	196.000000
844.099304	196.100000
844.133362	193.400000
844.167480	193.800000
844.201599	198.200000
844.235596	193.400000
844.269714	193.100000
844.303711	192.400000
844.337830	186.300000
844.371948	194.600000
844.405945	192.700000
844.440063	187.700000
844.474121	203.400000
844.508118	191.700000
844.542236	193.700000
844.576294	192.900000
844.610352	189.000000
844.644409	191.100000
844.678406	186.900000
844.712524	196.000000
844.746582	198.500000
844.780640	193.100000
844.814636	193.600000
844.848755	202.200000
844.882751	191.800000
844.916809	193.800000
844.950867	193.900000
844.984863	198.000000
845.018921	189.900000
845.052979	189.900000
845.086975	194.700000
845.121033	186.100000
845.155090	188.800000
845.189087	197.500000
845.223145	191.700000
845.257141	193.800000
845.291199	195.100000
845.325256	196.300000
845.359253	194.000000
845.393250	202.900000
845.427307	191.200000
845.461304	193.600000
845.495361	192.500000
845.529358	201.200000
845.563354	190.800000
845.597412	189.900000
845.631409	199.500000
845.665405	199.900000
845.699463	195.200000
845.733459	192.000000
845.767456	200.700000
845.801453	192.100000
845.835449	197.000000
845.869446	196.100000
845.903503	195.400000
845.937439	188.400000
845.971497	197.200000
846.005493	187.400000
846.039429	194.900000
846.073486	202.300000
846.107483	192.800000
846.141418	192.100000
846.175476	193.400000
846.209473	198.600000
846.243408	188.900000
846.277405	192.300000
846.311401	191.300000
846.345337	192.600000
846.379395	195.800000
846.413330	191.100000
846.447327	198.700000
846.481323	188.300000
846.515259	189.200000
846.549255	192.900000
846.583252	194.200000
846.617187	189.500000
846.651184	191.900000
846.685120	191.300000
846.719055	199.400000
846.753052	195.300000
846.786987	195.700000
846.820984	186.500000
846.854980	199.100000
846.888916	189.000000
846.922852	194.400000
846.956848	198.600000
846.990723	190.700000
847.024719	193.400000
847.058716	191.600000
847.092590	197.800000
847.126587	194.900000
847.160522	190.700000
847.194458	197.600000
847.228455	188.700000
847.262390	189.500000
847.296265	192.100000
847.330261	195.900000
847.364136	191.500000
847.398132	191.700000
847.432068	192.700000
847.466003	190.900000
847.499939	190.500000
847.533875	196.100000
847.567749	190.400000
847.601746	191.700000
847.635681	194.400000
847.669556	186.600000
847.703491	197.700000
847.737427	202.500000
847.771301	188.200000
847.805237	195.200000
847.839233	192.700000
847.873108	191.600000
847.907043	191.500000
847.940918	198.400000
847.974854	194.000000
848.008789	196.200000
848.042664	192.000000
848.076538	194.600000
848.110474	192.000000
848.144348	194.200000
848.178284	186.700000
848.212219	194.000000
848.246094	190.900000
848.279968	193.800000
848.313904	195.600000
848.347778	193.600000
848.381653	192.800000
848.415588	189.700000
848.449463	189.400000
848.483337	194.800000
848.517212	200.100000
848.551086	193.600000
848.585022	191.100000
848.618835	202.300000
848.652771	191.300000
848.686646	189.000000
848.720520	198.000000
848.754395	191.700000
848.788330	195.700000
848.822144	196.200000
848.856018	191.800000
848.889954	199.700000
848.923767	189.100000
848.957642	190.400000
848.991577	194.100000
849.025391	191.100000
849.059265	191.100000
849.093079	189.600000
849.126953	188.500000
849.160828	197.000000
849.194641	192.200000
849.228577	189.400000
849.262451	190.700000
849.296265	191.700000
849.330139	189.400000
849.364014	192.300000
849.397827	195.000000
849.431702	192.400000
849.465515	196.700000
849.499329	186.800000
849.533203	190.300000
849.567078	184.200000
849.600891	194.100000
849.634766	192.200000
849.668518	195.700000
849.702393	193.000000
849.736267	188.300000
849.770020	201.000000
849.803894	195.700000
849.837769	194.600000
849.871521	192.300000
849.905396	196.500000
849.939270	189.100000
849.973022	193.400000
850.006897	194.900000
850.040710	196.500000
850.074524	196.300000
850.108337	192.900000
850.142151	197.100000
850.175964	198.300000
850.209778	190.000000
850.243530	184.000000
850.277405	195.100000
850.311218	193.100000
850.344971	190.500000
850.378845	200.300000
850.412659	190.100000
850.446411	195.100000
850.480225	193.100000
850.514038	195.700000
850.547791	194.500000
850.581665	193.400000
850.615417	189.100000
850.649231	194.400000
850.683044	190.700000
850.716858	191.900000
850.750610	193.200000
850.784424	195.100000
850.818176	189.600000
850.851929	192.200000
850.885742	190.300000
850.919495	193.700000
850.953308	198.700000
850.987122	197.400000
851.020874	188.600000
851.054626	187.500000
851.088440	195.100000
851.122192	194.900000
851.156006	194.500000
851.189697	192.400000
851.223511	189.800000
851.257263	197.500000
851.291077	195.300000
851.324829	193.100000
851.358582	192.500000
851.392334	191.400000
851.426086	191.200000
851.459900	199.000000
851.493591	194.500000
851.527344	191.700000
851.561157	192.100000
851.594849	194.900000
851.628662	193.500000
851.662415	200.200000
851.696106	195.400000
851.729858	195.800000
851.763611	188.800000
851.797363	193.400000
851.831116	189.400000
851.864868	195.200000
851.898560	197.400000
851.932312	191.900000
851.966064	196.000000
851.999817	191.400000
852.033569	190.800000
852.067261	196.800000
852.101013	189.400000
852.134766	191.600000
852.168457	186.500000
852.202209	196.400000
852.235901	188.800000
852.269592	194.500000
852.303345	197.500000
852.337036	196.100000
852.370789	192.400000
852.404541	195.800000
852.438171	189.100000
852.471924	192.600000
852.505676	187.900000
852.539307	194.400000
852.573059	191.000000
852.606812	192.400000
852.640442	191.100000
852.674194	198.100000
852.707886	202.700000
852.741577	199.900000
852.775269	189.600000
852.809021	193.200000
852.842651	194.800000
852.876404	197.500000
852.910034	194.300000
852.943787	198.400000
852.977478	194.800000
853.011108	191.600000
853.044861	189.400000
853.078552	197.700000
853.112183	195.200000
853.145874	193.600000
853.179626	187.300000
853.213257	194.200000
853.246948	190.600000
853.280640	200.000000
853.314270	192.200000
853.347961	199.100000
853.381653	195.700000
853.415283	197.600000
853.448975	188.800000
853.482605	194.700000
853.516296	192.500000
853.549988	189.100000
853.583618	194.100000
853.617310	194.100000
853.651001	194.700000
853.684631	190.500000
853.718323	190.500000
853.751953	199.100000
853.785583	186.200000
853.819275	196.600000
853.852966	195.400000
853.886536	186.400000
853.920227	189.000000
853.953918	197.700000
853.987488	192.500000
854.021179	195.600000
854.054749	199.800000
854.088440	194.700000
854.122131	190.100000
854.155701	195.600000
854.189331	189.900000
854.223022	194.200000
854.256592	196.200000
854.290283	191.400000
854.323914	195.900000
854.357483	191.700000
854.391174	196.400000
854.424744	199.800000
854.458374	194.100000
854.492065	201.500000
854.525696	192.300000
854.559265	197.400000
854.592896	202.300000
854.626465	193.200000
854.660095	192.300000
854.693787	194.900000
854.727356	191.100000
854.760986	195.800000
854.794617	194.600000
854.828186	191.100000
854.861816	196.000000
854.895447	193.800000
854.929016	193.100000
854.962585	194.300000
854.996155	201.300000
855.029785	193.200000
855.063416	194.900000
855.097046	196.300000
855.130615	189.300000
855.164185	197.900000
855.197754	193.400000
855.231384	195.100000
855.264954	192.500000
855.298523	194.300000
855.332153	194.700000
855.365723	199.300000
855.399292	190.200000
855.432922	192.000000
855.466492	195.000000
855.500061	191.000000
855.533630	189.900000
855.567200	196.100000
855.600769	196.700000
855.634338	198.200000
855.667969	194.600000
855.701477	190.300000
855.735046	188.500000
855.768616	186.700000
855.802185	194.400000
855.835754	205.200000
855.869324	186.600000
855.902893	192.500000
855.936401	198.600000
855.969971	193.800000
856.003540	188.000000
856.037109	194.200000
856.070618	192.300000
856.104187	189.200000
856.137695	191.700000
856.171265	186.500000
856.204834	194.000000
856.238403	197.100000
856.271912	189.900000
856.305481	194.800000
856.338989	188.800000
856.372559	195.300000
856.406128	195.800000
856.439636	195.700000
856.473145	190.200000
856.506653	199.500000
856.540222	192.300000
856.573792	198.700000
856.607300	197.100000
856.640808	189.100000
856.674377	194.700000
856.707825	226.300000
856.741394	197.900000
856.774902	190.800000
856.808472	187.800000
856.841980	197.100000
856.875488	199.800000
856.908936	187.400000
856.942505	193.500000
856.976013	191.600000
857.009521	190.700000
857.043030	192.900000
857.076477	193.600000
857.110046	199.200000
857.143555	193.300000
857.177063	195.800000
857.210571	192.400000
857.244080	187.600000
857.277527	195.300000
857.311035	192.200000
857.344543	198.700000
857.378052	191.900000
857.411499	198.100000
857.445068	199.400000
857.478516	192.300000
857.512024	189.700000
857.545532	192.600000
857.578979	194.400000
857.612427	193.700000
857.645874	189.800000
857.679382	194.000000
857.712891	197.300000
857.746399	193.300000
857.779846	196.200000
857.813354	198.200000
857.846741	192.400000
857.880249	189.500000
857.913757	193.800000
857.947266	193.400000
857.980652	196.100000
858.014160	192.600000
858.047546	192.800000
858.081055	190.800000
858.114563	203.100000
858.147949	188.600000
858.181458	195.600000
858.214844	192.300000
858.248352	188.800000
858.281799	195.300000
858.315308	203.300000
858.348694	196.700000
858.382141	201.200000
858.415588	196.300000
858.449036	197.600000
858.482483	194.400000
858.515930	190.700000
858.549377	193.100000
858.582825	199.100000
858.616211	194.800000
858.649658	197.200000
858.683105	187.600000
858.716553	190.300000
858.750000	188.400000
858.783386	191.100000
858.816833	186.600000
858.850281	194.300000
858.883728	192.500000
858.917114	193.900000
858.950562	199.700000
858.983948	199.000000
859.017395	196.700000
859.050781	192.200000
859.084167	188.500000
859.117615	190.600000
859.151062	195.800000
859.184448	189.500000
859.217834	192.000000
859.251282	191.200000
859.284668	189.300000
859.318054	186.500000
859.351440	190.500000
859.384888	199.500000
859.418274	186.700000
859.451721	186.000000
859.485046	194.500000
859.518494	195.000000
859.551819	189.100000
859.585266	195.900000
859.618652	198.400000
859.652039	188.300000
859.685425	189.800000
859.718811	187.300000
859.752197	185.200000
859.785583	198.100000
859.819031	199.400000
859.852356	195.800000
859.885742	191.200000
859.919067	193.100000
859.952454	191.800000
859.985901	195.600000
860.019287	191.700000
860.052612	0.000000
860.085999	0.000000
860.119324	0.000000
860.152710	0.000000
860.186096	0.000000
860.219421	0.000000
860.252808	0.000000
860.286133	0.000000
860.319519	0.000000
860.352905	0.000000
860.386292	0.000000
860.419617	0.000000
860.452942	0.000000
860.486267	0.000000
860.519653	0.000000
860.553040	0.000000
860.586365	0.000000
860.619690	0.000000
860.653076	0.000000
860.686340	0.000000
860.719727	0.000000
860.753113	0.000000
860.786377	0.000000
860.819763	0.000000
860.853027	0.000000
860.886414	0.000000
860.919739	0.000000
860.953125	0.000000
860.986389	0.000000
861.019714	0.000000
861.053040	0.000000
861.086365	0.000000
861.119690	0.000000
861.153076	0.000000
861.186340	0.000000
861.219666	0.000000
861.252930	0.000000
861.286316	0.000000
861.319641	0.000000
861.352905	0.000000
861.386230	0.000000
861.419495	0.000000
861.452820	0.000000
861.486145	0.000000
861.519470	0.000000
861.552734	0.000000
861.586060	0.000000
861.619324	0.000000
861.652649	0.000000
861.685974	0.000000
861.719238	0.000000
861.752563	0.000000
861.785828	0.000000
861.819092	0.000000
861.852417	0.000000
861.885742	0.000000
861.918945	0.000000
861.952271	0.000000
861.985535	0.000000
862.018799	0.000000
862.052124	0.000000
862.085449	0.000000
862.118652	0.000000
862.151978	0.000000
862.185181	0.000000
862.218506	0.000000
862.251770	0.000000
862.285034	0.000000
862.318298	0.000000
862.351562	0.000000
862.384827	0.000000
862.418091	0.000000
862.451355	0.000000
862.484619	0.000000
862.517883	0.000000
862.551086	0.000000
862.584351	0.000000
862.617676	0.000000
862.650940	0.000000
862.684143	0.000000
862.717407	0.000000
862.750610	0.000000
862.783875	0.000000
862.817139	0.000000
862.850342	0.000000
862.883606	0.000000
862.916870	0.000000
862.950073	0.000000
862.983337	0.000000
863.016602	0.000000
863.049805	0.000000
863.083069	0.000000
863.116211	0.000000
863.149475	0.000000
863.182739	0.000000
863.216003	0.000000
863.249146	0.000000
863.282410	0.000000
863.315613	0.000000
863.348816	0.000000
863.382080	0.000000
863.415222	0.000000
863.448486	0.000000
863.481689	0.000000
863.514893	0.000000
863.548157	0.000000
863.581360	0.000000
863.614502	0.000000
863.647766	0.000000
863.680908	0.000000
863.714172	0.000000
863.747375	0.000000
863.780579	0.000000
863.813721	0.000000
863.846985	0.000000
863.880127	0.000000
863.913330	0.000000
863.946533	0.000000
863.979675	0.000000
864.012939	0.000000
