Model Number: SPM-001-M   
Serial Number: 10090201
Firmware Version: 004.17.6
Exposure Time: 300000.000000us
Data Taken on: 21-01-2021 14:24:01.080
Wavelength	Amplitude
733.770752	0.000000
733.808716	0.000000
733.846619	0.000000
733.884583	0.000000
733.922546	0.000000
733.960449	0.000000
733.998413	0.000000
734.036377	0.000000
734.074219	0.000000
734.112183	0.000000
734.150085	0.000000
734.188049	0.000000
734.226013	0.000000
734.263916	0.000000
734.301819	0.000000
734.339783	0.000000
734.377686	0.000000
734.415588	0.000000
734.453552	0.000000
734.491455	0.000000
734.529419	0.000000
734.567322	0.000000
734.605225	0.000000
734.643127	0.000000
734.681091	0.000000
734.718994	0.000000
734.756897	0.000000
734.794800	0.000000
734.832703	0.000000
734.870667	0.000000
734.908508	0.000000
734.946472	0.000000
734.984375	0.000000
735.022278	0.000000
735.060181	0.000000
735.098083	0.000000
735.135986	0.000000
735.173889	0.000000
735.211792	0.000000
735.249695	0.000000
735.287598	0.000000
735.325439	0.000000
735.363403	0.000000
735.401306	0.000000
735.439148	0.000000
735.477051	0.000000
735.515015	0.000000
735.552856	0.000000
735.590759	0.000000
735.628662	0.000000
735.666504	0.000000
735.704407	0.000000
735.742310	0.000000
735.780212	0.000000
735.818115	0.000000
735.856018	0.000000
735.893860	0.000000
735.931763	0.000000
735.969604	0.000000
736.007507	0.000000
736.045410	0.000000
736.083252	0.000000
736.121094	0.000000
736.158997	0.000000
736.196838	0.000000
736.234741	0.000000
736.272644	0.000000
736.310486	0.000000
736.348389	0.000000
736.386230	0.000000
736.424072	0.000000
736.461975	0.000000
736.499878	0.000000
736.537720	0.000000
736.575562	0.000000
736.613403	0.000000
736.651306	0.000000
736.689148	0.000000
736.726990	0.000000
736.764893	0.000000
736.802734	0.000000
736.840576	0.000000
736.878418	0.000000
736.916321	0.000000
736.954102	0.000000
736.992004	0.000000
737.029846	0.000000
737.067688	0.000000
737.105530	0.000000
737.143372	0.000000
737.181213	0.000000
737.219116	0.000000
737.256897	0.000000
737.294739	0.000000
737.332642	0.000000
737.370422	0.000000
737.408325	0.000000
737.446167	0.000000
737.483948	0.000000
737.521790	0.000000
737.559692	0.000000
737.597473	0.000000
737.635315	0.000000
737.673157	0.000000
737.710999	0.000000
737.748840	0.000000
737.786621	0.000000
737.824463	0.000000
737.862305	0.000000
737.900085	0.000000
737.937927	0.000000
737.975769	0.000000
738.013550	0.000000
738.051392	0.000000
738.089233	0.000000
738.127014	0.000000
738.164856	0.000000
738.202698	0.000000
738.240479	0.000000
738.278320	0.000000
738.316162	0.000000
738.353943	0.000000
738.391785	0.000000
738.429565	0.000000
738.467407	0.000000
738.505188	0.000000
738.542969	0.000000
738.580811	0.000000
738.618652	0.000000
738.656372	0.000000
738.694214	0.000000
738.732056	0.000000
738.769836	0.000000
738.807617	0.000000
738.845459	0.000000
738.883240	0.000000
738.921021	0.000000
738.958862	0.000000
738.996582	0.000000
739.034424	0.000000
739.072205	0.000000
739.109985	0.000000
739.147827	0.000000
739.185547	0.000000
739.223389	0.000000
739.261169	0.000000
739.298889	0.000000
739.336731	0.000000
739.374512	0.000000
739.412292	0.000000
739.450073	0.000000
739.487854	0.000000
739.525635	0.000000
739.563416	0.000000
739.601135	0.000000
739.638977	0.000000
739.676758	0.000000
739.714478	0.000000
739.752258	0.000000
739.790100	0.000000
739.827820	0.000000
739.865601	0.000000
739.903381	0.000000
739.941101	0.000000
739.978882	194.200000
740.016724	190.600000
740.054443	194.600000
740.092224	189.400000
740.130005	188.900000
740.167725	189.000000
740.205505	190.000000
740.243225	197.500000
740.281006	192.600000
740.318787	188.200000
740.356506	195.300000
740.394287	195.500000
740.432068	188.700000
740.469727	186.200000
740.507507	193.200000
740.545288	191.600000
740.583008	193.400000
740.620789	191.700000
740.658569	185.100000
740.696228	191.100000
740.734009	193.400000
740.771790	184.100000
740.809509	194.100000
740.847229	188.100000
740.884949	188.300000
740.922729	186.200000
740.960449	189.200000
740.998169	187.600000
741.035950	187.700000
741.073669	190.400000
741.111389	192.000000
741.149170	199.400000
741.186890	195.500000
741.224609	194.800000
741.262329	192.100000
741.300110	197.800000
741.337769	186.800000
741.375549	186.900000
741.413208	192.300000
741.450989	188.700000
741.488708	189.100000
741.526367	189.000000
741.564148	195.200000
741.601868	194.900000
741.639526	192.200000
741.677307	192.600000
741.715027	192.900000
741.752686	188.100000
741.790466	197.400000
741.828186	192.700000
741.865845	188.600000
741.903564	185.700000
741.941345	192.100000
741.979004	187.900000
742.016724	196.200000
742.054382	193.000000
742.092102	195.700000
742.129822	185.400000
742.167480	190.900000
742.205200	190.100000
742.242920	194.500000
742.280640	193.900000
742.318359	188.000000
742.356079	190.100000
742.393738	194.800000
742.431396	188.300000
742.469116	194.600000
742.506775	183.500000
742.544495	193.100000
742.582214	194.400000
742.619873	192.700000
742.657593	198.100000
742.695251	196.000000
742.732971	190.700000
742.770630	192.600000
742.808289	192.500000
742.846008	191.400000
742.883728	191.700000
742.921326	191.900000
742.959045	189.000000
742.996765	190.400000
743.034424	191.400000
743.072083	188.800000
743.109802	190.900000
743.147400	188.100000
743.185120	191.700000
743.222839	192.100000
743.260437	197.700000
743.298157	193.500000
743.335754	185.200000
743.373474	191.300000
743.411133	186.400000
743.448792	191.000000
743.486450	192.200000
743.524170	186.200000
743.561768	192.500000
743.599487	196.600000
743.637146	200.000000
743.674744	190.700000
743.712463	190.900000
743.750122	191.800000
743.787720	192.800000
743.825439	188.600000
743.863037	191.300000
743.900696	190.300000
743.938416	217.500000
743.976013	189.700000
744.013672	199.800000
744.051331	193.400000
744.088928	198.700000
744.126587	195.300000
744.164307	193.500000
744.201904	188.900000
744.239563	192.400000
744.277222	193.400000
744.314819	190.900000
744.352478	195.800000
744.390137	193.000000
744.427734	192.400000
744.465393	189.900000
744.502991	187.900000
744.540649	194.200000
744.578308	192.500000
744.615906	188.000000
744.653564	184.500000
744.691223	193.400000
744.728821	186.600000
744.766418	190.700000
744.804077	192.700000
744.841675	190.600000
744.879333	188.400000
744.916992	190.600000
744.954529	190.000000
744.992187	195.600000
745.029785	192.400000
745.067444	189.000000
745.105042	192.600000
745.142639	193.300000
745.180298	201.600000
745.217896	188.500000
745.255493	191.400000
745.293152	194.700000
745.330750	196.600000
745.368347	196.500000
745.405945	195.400000
745.443604	191.700000
745.481140	195.300000
745.518799	191.000000
745.556396	195.400000
745.593994	193.100000
745.631592	190.800000
745.669189	186.400000
745.706787	191.200000
745.744385	188.700000
745.781982	193.500000
745.819580	188.600000
745.857178	191.600000
745.894775	191.100000
745.932373	193.000000
745.969971	192.200000
746.007568	185.100000
746.045166	196.800000
746.082764	197.500000
746.120300	193.900000
746.157898	192.400000
746.195557	190.500000
746.233093	187.100000
746.270691	193.300000
746.308228	193.400000
746.345825	194.900000
746.383423	192.700000
746.420959	188.900000
746.458557	188.000000
746.496155	189.300000
746.533691	190.900000
746.571289	188.800000
746.608887	191.200000
746.646423	193.200000
746.684021	193.300000
746.721619	190.200000
746.759155	193.100000
746.796753	187.200000
746.834351	186.300000
746.871826	190.100000
746.909424	196.400000
746.946960	190.900000
746.984558	190.600000
747.022156	189.600000
747.059631	197.800000
747.097229	193.200000
747.134827	190.600000
747.172363	195.700000
747.209900	194.100000
747.247498	188.700000
747.285034	196.800000
747.322571	196.200000
747.360168	190.600000
747.397644	185.700000
747.435242	194.600000
747.472778	196.000000
747.510315	190.500000
747.547913	191.900000
747.585388	195.800000
747.622925	190.300000
747.660522	184.900000
747.697998	190.300000
747.735596	191.600000
747.773132	188.600000
747.810669	192.100000
747.848206	194.300000
747.885742	188.500000
747.923279	188.300000
747.960815	193.200000
747.998352	192.300000
748.035889	195.500000
748.073425	195.200000
748.110901	191.100000
748.148437	188.200000
748.185974	193.000000
748.223511	199.000000
748.261047	194.800000
748.298584	192.400000
748.336060	192.800000
748.373596	192.100000
748.411133	217.000000
748.448608	187.600000
748.486145	194.600000
748.523682	194.700000
748.561218	199.200000
748.598755	191.200000
748.636292	193.700000
748.673706	190.600000
748.711243	198.500000
748.748718	192.400000
748.786255	192.000000
748.823792	190.500000
748.861267	188.200000
748.898804	193.500000
748.936340	193.300000
748.973816	189.400000
749.011292	195.900000
749.048828	192.200000
749.086304	194.500000
749.123840	199.100000
749.161316	188.300000
749.198792	198.400000
749.236328	196.400000
749.273743	190.400000
749.311279	190.900000
749.348816	195.300000
749.386230	192.400000
749.423767	183.400000
749.461304	194.700000
749.498718	193.200000
749.536255	196.800000
749.573730	200.500000
749.611206	196.800000
749.648682	191.700000
749.686218	191.100000
749.723633	195.100000
749.761169	189.500000
749.798645	189.900000
749.836060	190.100000
749.873596	189.600000
749.911011	192.500000
749.948547	197.100000
749.986023	191.700000
750.023437	191.000000
750.060913	186.500000
750.098450	187.600000
750.135864	190.300000
750.173340	192.100000
750.210815	195.700000
750.248291	188.400000
750.285767	192.500000
750.323242	195.700000
750.360657	193.000000
750.398132	188.000000
750.435608	193.300000
750.473022	189.000000
750.510498	188.600000
750.547974	187.500000
750.585449	189.700000
750.622925	184.500000
750.660339	201.500000
750.697815	192.800000
750.735291	191.700000
750.772644	191.500000
750.810120	191.900000
750.847595	194.000000
750.885010	188.400000
750.922485	197.900000
750.959961	190.600000
750.997375	197.000000
751.034851	195.700000
751.072266	195.900000
751.109680	187.500000
751.147156	196.900000
751.184570	194.400000
751.221985	192.100000
751.259460	187.100000
751.296875	193.100000
751.334290	192.300000
751.371765	194.500000
751.409180	194.600000
751.446594	196.100000
751.484070	194.300000
751.521423	192.500000
751.558899	192.400000
751.596375	198.400000
751.633728	197.900000
751.671204	199.800000
751.708618	190.000000
751.746033	192.100000
751.783447	187.500000
751.820801	187.700000
751.858276	194.600000
751.895691	190.800000
751.933105	190.000000
751.970520	186.800000
752.007935	188.900000
752.045349	194.900000
752.082764	191.100000
752.120178	188.700000
752.157532	189.100000
752.195007	190.100000
752.232422	193.900000
752.269775	195.800000
752.307190	194.100000
752.344543	187.800000
752.382019	191.600000
752.419434	190.400000
752.456787	193.200000
752.494202	196.100000
752.531616	192.900000
752.568970	195.200000
752.606384	193.300000
752.643799	193.200000
752.681152	197.700000
752.718567	195.600000
752.755981	186.200000
752.793335	193.400000
752.830750	186.700000
752.868164	195.300000
752.905518	187.400000
752.942932	195.700000
752.980225	187.300000
753.017639	194.400000
753.055054	194.800000
753.092407	193.300000
753.129822	195.900000
753.167175	200.100000
753.204529	192.000000
753.241943	191.000000
753.279358	186.200000
753.316650	194.300000
753.354065	191.300000
753.391479	195.300000
753.428772	196.700000
753.466187	192.900000
753.503479	187.400000
753.540894	191.100000
753.578308	187.400000
753.615601	188.700000
753.653015	191.300000
753.690369	189.300000
753.727722	188.500000
753.765076	186.400000
753.802490	188.100000
753.839783	186.300000
753.877136	189.300000
753.914551	201.500000
753.951843	187.000000
753.989258	195.000000
754.026611	193.400000
754.063904	193.200000
754.101257	189.000000
754.138611	186.300000
754.175964	192.600000
754.213318	201.000000
754.250610	187.600000
754.288025	188.900000
754.325378	189.700000
754.362671	195.300000
754.400024	190.900000
754.437378	198.100000
754.474670	197.400000
754.512085	188.000000
754.549438	192.400000
754.586731	189.300000
754.624084	191.400000
754.661438	186.900000
754.698730	198.200000
754.736084	190.400000
754.773376	191.100000
754.810730	192.200000
754.848083	192.300000
754.885315	194.400000
754.922668	186.200000
754.960022	187.800000
754.997314	196.300000
755.034668	190.600000
755.072021	192.700000
755.109253	189.500000
755.146606	196.400000
755.183960	190.700000
755.221252	197.000000
755.258545	194.600000
755.295898	196.800000
755.333191	196.400000
755.370544	194.600000
755.407776	193.600000
755.445129	193.800000
755.482422	196.200000
755.519714	190.200000
755.557068	187.400000
755.594360	187.400000
755.631653	196.700000
755.668945	197.200000
755.706299	194.800000
755.743530	201.200000
755.780884	199.900000
755.818176	195.500000
755.855408	198.100000
755.892761	194.500000
755.930054	194.300000
755.967346	194.600000
756.004639	193.900000
756.041870	192.600000
756.079224	198.400000
756.116516	189.700000
756.153748	195.900000
756.191040	199.900000
756.228394	196.000000
756.265625	189.500000
756.302917	195.100000
756.340210	190.900000
756.377441	197.600000
756.414795	198.700000
756.452087	194.400000
756.489319	188.600000
756.526611	196.200000
756.563843	193.900000
756.601135	199.700000
756.638428	201.000000
756.675659	192.900000
756.712952	196.700000
756.750244	196.000000
756.787476	195.000000
756.824768	198.400000
756.862061	193.200000
756.899292	239.900000
756.936584	198.300000
756.973816	203.300000
757.011047	204.200000
757.048340	196.000000
757.085632	195.600000
757.122864	209.600000
757.160156	194.600000
757.197327	197.400000
757.234619	199.700000
757.271912	193.600000
757.309082	198.600000
757.346375	193.500000
757.383667	200.700000
757.420837	196.100000
757.458130	197.800000
757.495422	193.800000
757.532593	198.800000
757.569885	191.300000
757.607117	192.800000
757.644348	196.900000
757.681580	208.000000
757.718811	186.500000
757.756042	195.700000
757.793335	192.700000
757.830505	198.200000
757.867798	194.300000
757.905029	195.300000
757.942200	196.800000
757.979492	194.100000
758.016724	194.100000
758.053894	194.000000
758.091187	210.100000
758.128418	197.200000
758.165588	195.600000
758.202820	205.500000
758.240112	196.900000
758.277283	205.900000
758.314514	196.700000
758.351685	195.300000
758.388916	202.900000
758.426147	203.000000
758.463379	203.300000
758.500610	199.100000
758.537842	199.500000
758.575012	203.700000
758.612244	195.500000
758.649475	208.900000
758.686646	193.900000
758.723877	205.000000
758.761108	206.500000
758.798279	198.600000
758.835510	200.400000
758.872742	204.700000
758.909851	201.500000
758.947083	202.100000
758.984253	202.200000
759.021484	202.700000
759.058716	204.700000
759.095886	203.300000
759.133057	200.400000
759.170288	202.900000
759.207458	199.500000
759.244690	207.800000
759.281860	208.400000
759.319031	201.300000
759.356262	201.300000
759.393433	198.200000
759.430603	201.000000
759.467773	199.600000
759.505005	206.700000
759.542175	205.200000
759.579346	200.900000
759.616516	202.700000
759.653687	206.100000
759.690918	201.100000
759.728027	203.100000
759.765259	203.300000
759.802429	205.600000
759.839539	205.100000
759.876770	207.600000
759.913940	211.600000
759.951111	204.700000
759.988281	205.100000
760.025452	202.900000
760.062561	202.400000
760.099792	213.000000
760.136963	207.100000
760.174072	203.100000
760.211243	201.600000
760.248413	202.100000
760.285583	202.200000
760.322754	213.200000
760.359863	209.600000
760.397034	208.900000
760.434204	205.300000
760.471375	205.400000
760.508545	204.800000
760.545715	205.200000
760.582825	202.800000
760.619995	208.100000
760.657166	202.700000
760.694275	211.400000
760.731445	207.600000
760.768555	206.200000
760.805664	209.900000
760.842834	207.400000
760.879944	209.900000
760.917114	207.800000
760.954285	205.100000
760.991394	201.600000
761.028564	210.900000
761.065674	208.100000
761.102783	205.000000
761.139954	210.600000
761.177124	209.600000
761.214172	213.100000
761.251343	205.800000
761.288452	208.200000
761.325562	210.800000
761.362732	206.000000
761.399841	207.400000
761.436951	211.000000
761.474121	206.700000
761.511169	208.700000
761.548340	212.000000
761.585449	212.200000
761.622559	213.400000
761.659668	211.700000
761.696838	216.100000
761.733887	211.100000
761.771057	209.300000
761.808167	210.600000
761.845276	213.500000
761.882385	221.100000
761.919434	211.400000
761.956604	227.100000
761.993713	208.600000
762.030762	218.400000
762.067871	211.000000
762.105042	212.800000
762.142090	217.700000
762.179199	214.100000
762.216309	215.900000
762.253418	224.400000
762.290527	220.100000
762.327637	218.200000
762.364685	209.800000
762.401794	216.600000
762.438904	213.600000
762.475952	211.400000
762.513062	210.400000
762.550110	211.400000
762.587219	221.100000
762.624329	221.900000
762.661377	217.000000
762.698486	216.700000
762.735596	215.500000
762.772644	212.500000
762.809753	210.000000
762.846863	214.400000
762.883911	220.500000
762.921021	218.500000
762.958069	215.000000
762.995117	221.500000
763.032227	222.600000
763.069336	217.700000
763.106323	213.900000
763.143433	211.900000
763.180481	218.800000
763.217590	219.800000
763.254639	217.700000
763.291687	217.900000
763.328735	225.300000
763.365845	218.200000
763.402893	217.700000
763.439941	219.500000
763.477051	222.800000
763.514038	221.300000
763.551147	219.100000
763.588196	220.600000
763.625244	221.700000
763.662292	226.600000
763.699402	227.900000
763.736389	224.500000
763.773499	231.200000
763.810486	225.600000
763.847534	223.600000
763.884644	224.400000
763.921631	222.900000
763.958679	230.200000
763.995728	223.500000
764.032776	229.800000
764.069824	220.800000
764.106873	228.900000
764.143860	232.100000
764.180969	224.200000
764.218018	231.500000
764.255005	224.000000
764.292053	225.000000
764.329102	233.300000
764.366089	233.000000
764.403137	230.700000
764.440125	227.700000
764.477173	229.300000
764.514221	232.800000
764.551208	229.800000
764.588257	227.500000
764.625305	233.400000
764.662292	239.700000
764.699341	239.800000
764.736389	232.700000
764.773376	246.900000
764.810425	236.900000
764.847473	242.300000
764.884399	237.900000
764.921448	244.600000
764.958435	242.800000
764.995483	237.400000
765.032532	248.100000
765.069458	237.700000
765.106506	237.700000
765.143555	236.500000
765.180481	239.000000
765.217529	247.500000
765.254578	235.300000
765.291504	243.200000
765.328552	240.100000
765.365540	238.900000
765.402527	249.500000
765.439575	241.600000
765.476501	236.900000
765.513550	237.200000
765.550537	241.800000
765.587463	248.600000
765.624512	239.300000
765.661499	236.700000
765.698486	247.500000
765.735474	239.900000
765.772461	243.100000
765.809448	249.200000
765.846436	247.300000
765.883423	251.100000
765.920410	246.400000
765.957397	240.900000
765.994385	248.000000
766.031311	254.400000
766.068359	250.400000
766.105286	247.800000
766.142273	254.700000
766.179260	250.500000
766.216187	247.800000
766.253174	245.700000
766.290161	251.100000
766.327148	253.400000
766.364136	252.900000
766.401123	265.000000
766.438049	249.500000
766.475037	259.300000
766.512024	256.400000
766.548950	266.000000
766.585937	261.900000
766.622864	257.600000
766.659790	258.400000
766.696777	249.000000
766.733704	260.300000
766.770691	253.900000
766.807678	265.600000
766.844604	260.400000
766.881531	259.500000
766.918518	262.100000
766.955444	265.600000
766.992432	258.900000
767.029358	263.600000
767.066284	263.300000
767.103271	261.600000
767.140198	293.900000
767.177124	274.000000
767.214050	265.300000
767.251038	266.900000
767.287964	264.500000
767.324890	261.700000
767.361816	265.500000
767.398743	270.200000
767.435730	263.200000
767.472595	269.200000
767.509583	273.100000
767.546509	263.500000
767.583374	268.800000
767.620361	263.000000
767.657288	267.800000
767.694214	269.400000
767.731140	269.300000
767.768066	268.300000
767.804993	271.200000
767.841919	264.700000
767.878845	270.100000
767.915710	275.900000
767.952698	271.900000
767.989563	272.400000
768.026489	274.000000
768.063416	266.300000
768.100281	267.900000
768.137207	276.700000
768.174133	276.100000
768.211060	276.000000
768.247986	275.100000
768.284912	271.600000
768.321777	274.100000
768.358704	270.200000
768.395630	276.100000
768.432495	270.600000
768.469421	276.400000
768.506348	277.600000
768.543152	283.100000
768.580078	280.400000
768.616943	280.600000
768.653870	280.300000
768.690796	281.100000
768.727661	278.900000
768.764587	281.600000
768.801453	277.000000
768.838318	285.700000
768.875244	285.300000
768.912109	288.500000
768.948975	283.500000
768.985901	282.200000
769.022766	281.000000
769.059631	288.600000
769.096558	285.200000
769.133362	285.700000
769.170288	284.800000
769.207214	283.800000
769.244019	290.600000
769.280945	288.000000
769.317810	296.200000
769.354675	291.800000
769.391541	297.900000
769.428406	294.900000
769.465271	301.400000
769.502136	292.800000
769.539062	299.100000
769.575867	298.000000
769.612732	298.900000
769.649597	301.600000
769.686462	303.000000
769.723328	298.000000
769.760193	299.200000
769.797058	300.300000
769.833923	307.200000
769.870728	301.300000
769.907593	307.000000
769.944519	305.700000
769.981323	308.900000
770.018188	308.000000
770.055054	307.700000
770.091858	305.800000
770.128723	316.600000
770.165588	319.600000
770.202393	309.300000
770.239258	318.400000
770.276062	316.200000
770.312927	315.200000
770.349792	320.300000
770.386597	319.900000
770.423462	326.100000
770.460327	332.800000
770.497131	319.400000
770.533997	318.400000
770.570862	330.700000
770.607605	328.500000
770.644470	327.000000
770.681335	328.100000
770.718140	328.900000
770.754944	325.800000
770.791809	326.600000
770.828613	329.100000
770.865479	328.900000
770.902222	337.500000
770.939087	332.300000
770.975952	325.300000
771.012695	328.800000
771.049561	342.800000
771.086365	332.200000
771.123169	330.400000
771.159973	334.000000
771.196838	336.800000
771.233582	337.300000
771.270447	338.900000
771.307251	342.200000
771.344055	340.000000
771.380859	340.700000
771.417664	338.300000
771.454468	345.100000
771.491272	343.300000
771.528076	343.000000
771.564880	341.600000
771.601685	348.600000
771.638428	344.300000
771.675293	346.000000
771.712097	337.500000
771.748840	353.800000
771.785645	347.700000
771.822449	348.100000
771.859253	352.400000
771.896057	351.100000
771.932861	361.500000
771.969604	352.500000
772.006409	347.900000
772.043213	355.800000
772.079956	355.500000
772.116760	349.300000
772.153503	351.400000
772.190308	361.600000
772.227112	353.700000
772.263855	352.500000
772.300659	357.600000
772.337463	366.800000
772.374207	355.400000
772.411011	354.100000
772.447754	357.700000
772.484497	368.200000
772.521301	360.500000
772.558105	364.200000
772.594849	364.100000
772.631592	369.000000
772.668396	365.800000
772.705139	367.700000
772.741882	366.000000
772.778625	375.700000
772.815430	374.300000
772.852173	372.900000
772.888916	376.000000
772.925720	380.100000
772.962463	384.100000
772.999207	379.400000
773.035950	381.700000
773.072754	382.700000
773.109436	379.500000
773.146240	380.500000
773.182922	376.100000
773.219727	383.200000
773.256470	379.500000
773.293152	373.500000
773.329956	379.300000
773.366699	384.100000
773.403381	375.400000
773.440186	382.900000
773.476929	382.100000
773.513611	380.300000
773.550354	379.900000
773.587158	383.500000
773.623840	380.500000
773.660583	383.400000
773.697327	394.900000
773.734009	389.100000
773.770813	387.200000
773.807495	385.100000
773.844238	386.900000
773.880981	398.800000
773.917664	397.000000
773.954407	399.100000
773.991150	393.400000
774.027832	395.300000
774.064575	387.500000
774.101318	394.200000
774.138000	400.500000
774.174744	396.300000
774.211487	399.900000
774.248108	388.800000
774.284851	390.300000
774.321594	393.700000
774.358276	396.600000
774.395020	406.100000
774.431702	405.500000
774.468384	398.100000
774.505127	396.500000
774.541809	403.400000
774.578491	408.200000
774.615234	410.700000
774.651917	404.000000
774.688599	406.400000
774.725342	417.400000
774.762024	411.500000
774.798706	414.100000
774.835449	414.700000
774.872070	425.400000
774.908813	421.900000
774.945496	418.400000
774.982178	420.400000
775.018860	419.700000
775.055542	422.400000
775.092224	423.800000
775.128967	430.400000
775.165588	428.200000
775.202271	421.000000
775.239014	431.900000
775.275635	432.700000
775.312317	430.300000
775.349060	437.300000
775.385681	435.700000
775.422363	433.200000
775.459045	436.800000
775.495667	438.600000
775.532410	445.400000
775.569092	443.000000
775.605713	441.100000
775.642395	441.300000
775.679016	441.900000
775.715698	442.400000
775.752380	447.300000
775.789001	446.400000
775.825684	448.100000
775.862366	450.200000
775.898987	457.100000
775.935669	451.200000
775.972351	468.100000
776.008972	463.800000
776.045654	463.100000
776.082336	459.300000
776.118958	461.100000
776.155640	465.100000
776.192322	470.600000
776.228882	476.000000
776.265564	476.700000
776.302185	474.000000
776.338867	475.100000
776.375488	467.400000
776.412109	477.000000
776.448792	481.200000
776.485413	492.300000
776.522034	484.700000
776.558716	481.900000
776.595337	480.900000
776.631958	485.500000
776.668579	483.900000
776.705261	495.800000
776.741882	490.900000
776.778503	490.800000
776.815186	487.100000
776.851746	494.100000
776.888367	490.800000
776.924988	503.700000
776.961609	494.200000
776.998291	493.800000
777.034851	490.700000
777.071472	501.000000
777.108154	496.600000
777.144714	509.300000
777.181335	506.900000
777.218018	498.500000
777.254578	506.700000
777.291199	507.400000
777.327759	508.800000
777.364380	517.000000
777.401062	520.400000
777.437622	530.000000
777.474243	516.200000
777.510864	523.600000
777.547424	520.800000
777.584045	522.000000
777.620667	524.600000
777.657227	527.500000
777.693848	529.600000
777.730469	540.400000
777.767029	529.200000
777.803650	534.700000
777.840271	529.400000
777.876831	533.300000
777.913452	538.300000
777.950012	529.100000
777.986633	523.600000
778.023193	524.400000
778.059753	525.500000
778.096375	527.800000
778.132996	539.200000
778.169556	532.700000
778.206116	532.500000
778.242737	530.800000
778.279297	537.100000
778.315857	530.400000
778.352478	536.300000
778.389038	543.500000
778.425598	544.700000
778.462219	546.000000
778.498718	543.800000
778.535339	547.900000
778.571838	553.000000
778.608459	551.800000
778.645020	543.700000
778.681580	551.200000
778.718140	553.300000
778.754761	547.500000
778.791260	551.200000
778.827881	559.700000
778.864441	561.200000
778.900940	563.500000
778.937561	562.800000
778.974121	561.300000
779.010620	554.300000
779.047241	556.500000
779.083801	563.400000
779.120300	565.800000
779.156860	568.100000
779.193359	563.800000
779.229980	568.700000
779.266541	571.000000
779.303040	571.500000
779.339600	565.000000
779.376160	560.400000
779.412659	565.400000
779.449219	562.200000
779.485779	568.900000
779.522278	572.000000
779.558838	572.600000
779.595398	576.100000
779.631897	572.500000
779.668457	562.000000
779.705017	569.100000
779.741516	565.000000
779.778076	563.400000
779.814575	563.500000
779.851074	572.300000
779.887634	569.900000
779.924133	576.100000
779.960693	562.200000
779.997253	573.700000
780.033691	576.600000
780.070251	578.100000
780.106812	584.500000
780.143250	585.200000
780.179810	578.900000
780.216370	581.100000
780.252808	587.800000
780.289368	597.300000
780.325867	595.200000
780.362366	589.600000
780.398865	592.500000
780.435364	592.800000
780.471863	602.400000
780.508423	602.400000
780.544861	603.900000
780.581421	603.200000
780.617920	596.300000
780.654419	594.000000
780.690918	596.500000
780.727417	607.400000
780.763916	605.000000
780.800415	612.400000
780.836914	599.100000
780.873352	612.000000
780.909912	600.500000
780.946411	607.100000
780.982849	614.500000
781.019348	620.900000
781.055786	614.900000
781.092346	612.100000
781.128845	619.300000
781.165283	621.800000
781.201782	631.800000
781.238281	630.300000
781.274719	634.400000
781.311218	630.200000
781.347717	643.200000
781.384155	633.300000
781.420654	633.800000
781.457092	639.600000
781.493591	637.000000
781.530090	635.300000
781.566528	634.500000
781.602966	633.000000
781.639465	639.200000
781.675903	632.000000
781.712402	633.500000
781.748901	637.000000
781.785278	633.000000
781.821777	636.400000
781.858276	629.800000
781.894714	630.600000
781.931152	611.000000
781.967651	573.800000
782.004089	513.400000
782.040527	450.500000
782.076965	386.700000
782.113403	334.700000
782.149902	308.000000
782.186340	289.200000
782.222778	296.300000
782.259277	285.000000
782.295654	281.800000
782.332092	282.200000
782.368591	284.600000
782.404968	284.300000
782.441467	289.000000
782.477905	285.100000
782.514282	274.700000
782.550781	278.100000
782.587219	278.000000
782.623596	287.400000
782.660095	292.300000
782.696472	294.400000
782.732910	295.300000
782.769348	296.700000
782.805786	318.400000
782.842224	328.000000
782.878662	326.100000
782.915039	317.100000
782.951477	304.600000
782.987915	294.100000
783.024292	297.700000
783.060730	306.800000
783.097168	305.300000
783.133545	309.800000
783.169983	322.700000
783.206421	351.400000
783.242798	405.000000
783.279236	471.500000
783.315613	539.300000
783.352051	600.400000
783.388489	641.700000
783.424866	656.300000
783.461304	675.400000
783.497681	688.900000
783.534058	687.700000
783.570496	691.100000
783.606934	690.300000
783.643250	697.000000
783.679687	698.800000
783.716125	698.300000
783.752441	706.500000
783.788879	723.700000
783.825317	729.700000
783.861633	735.400000
783.898071	743.200000
783.934448	756.700000
783.970825	762.700000
784.007263	761.600000
784.043579	775.800000
784.080017	776.200000
784.116394	771.500000
784.152710	776.800000
784.189148	781.900000
784.225525	774.100000
784.261902	769.600000
784.298279	766.600000
784.334656	764.300000
784.371033	751.900000
784.407410	754.100000
784.443787	751.400000
784.480164	741.600000
784.516541	717.900000
784.552856	725.100000
784.589233	721.400000
784.625610	720.500000
784.661987	745.600000
784.698364	740.500000
784.734741	736.200000
784.771057	737.400000
784.807434	742.500000
784.843811	752.500000
784.880127	754.500000
784.916504	772.100000
784.952881	777.000000
784.989197	774.100000
785.025574	778.900000
785.061951	781.800000
785.098267	801.100000
785.134644	798.700000
785.170959	796.800000
785.207275	801.100000
785.243652	794.000000
785.279968	781.800000
785.316345	779.100000
785.352722	783.100000
785.388977	779.000000
785.425354	763.600000
785.461731	746.200000
785.498047	743.200000
785.534363	737.400000
785.570679	733.100000
785.606995	734.900000
785.643372	736.200000
785.679687	731.100000
785.716003	723.100000
785.752380	723.300000
785.788635	726.400000
785.825012	734.500000
785.861328	743.300000
785.897644	739.700000
785.933960	753.600000
785.970337	762.300000
786.006592	774.800000
786.042908	781.200000
786.079285	792.500000
786.115540	806.000000
786.151855	806.900000
786.188171	804.100000
786.224487	802.900000
786.260803	800.900000
786.297119	810.800000
786.333435	806.800000
786.369751	799.400000
786.406006	800.200000
786.442322	783.100000
786.478638	778.200000
786.514954	780.700000
786.551270	772.700000
786.587585	781.900000
786.623840	766.600000
786.660156	757.800000
786.696472	751.000000
786.732727	751.900000
786.769043	761.600000
786.805298	753.600000
786.841614	760.700000
786.877930	765.700000
786.914124	763.600000
786.950439	776.700000
786.986755	781.000000
787.023010	798.600000
787.059326	804.900000
787.095642	808.900000
787.131836	818.200000
787.168152	816.200000
787.204468	824.600000
787.240723	830.800000
787.276978	841.500000
787.313293	850.200000
787.349548	838.700000
787.385803	847.900000
787.422058	842.100000
787.458313	838.300000
787.494629	835.500000
787.530823	833.800000
787.567139	817.100000
787.603455	808.900000
787.639648	806.900000
787.675903	812.900000
787.712219	808.000000
787.748413	806.500000
787.784729	810.700000
787.820984	801.300000
787.857178	792.500000
787.893494	792.100000
787.929749	791.500000
787.965942	802.500000
788.002258	817.400000
788.038452	824.100000
788.074707	818.500000
788.110962	825.500000
788.147217	826.200000
788.183472	836.200000
788.219727	851.400000
788.255920	860.700000
788.292175	870.500000
788.328430	868.600000
788.364624	859.000000
788.400879	856.000000
788.437134	859.000000
788.473328	868.200000
788.509583	872.300000
788.545837	864.100000
788.582031	860.000000
788.618286	856.800000
788.654480	857.700000
788.690735	864.600000
788.726990	880.600000
788.763184	876.300000
788.799377	888.600000
788.835632	880.700000
788.871826	891.100000
788.908081	890.400000
788.944336	879.900000
788.980469	894.400000
789.016724	893.700000
789.052979	896.600000
789.089111	882.100000
789.125366	879.300000
789.161621	871.600000
789.197754	885.100000
789.234009	878.600000
789.270142	865.800000
789.306396	866.100000
789.342590	864.100000
789.378784	849.700000
789.414978	838.300000
789.451233	847.000000
789.487366	850.100000
789.523621	855.600000
789.559814	854.100000
789.595947	851.500000
789.632202	861.200000
789.668335	876.100000
789.704529	896.000000
789.740784	913.700000
789.776917	911.800000
789.813110	904.200000
789.849304	910.400000
789.885498	918.900000
789.921692	931.000000
789.957886	935.000000
789.994019	937.100000
790.030212	946.800000
790.066406	948.000000
790.102539	942.100000
790.138733	947.000000
790.174927	933.000000
790.211060	956.800000
790.247253	952.800000
790.283386	950.500000
790.319580	935.600000
790.355774	925.900000
790.391907	919.000000
790.428101	931.900000
790.464294	932.200000
790.500427	932.700000
790.536621	916.800000
790.572754	899.700000
790.608887	899.800000
790.645081	903.700000
790.681274	913.600000
790.717346	919.400000
790.753540	904.900000
790.789734	886.000000
790.825867	874.300000
790.862000	880.600000
790.898132	887.700000
790.934265	888.900000
790.970459	889.200000
791.006592	887.900000
791.042725	879.200000
791.078918	875.500000
791.114990	871.800000
791.151184	871.100000
791.187317	896.500000
791.223389	902.100000
791.259583	888.200000
791.295715	892.200000
791.331848	891.800000
791.367981	899.000000
791.404114	902.000000
791.440247	910.400000
791.476379	910.900000
791.512451	891.100000
791.548584	890.100000
791.584778	882.900000
791.620850	894.700000
791.656982	903.300000
791.693115	900.500000
791.729187	898.800000
791.765381	898.200000
791.801514	896.300000
791.837585	893.100000
791.873718	900.800000
791.909851	914.000000
791.945923	923.000000
791.982056	902.100000
792.018188	895.300000
792.054260	885.800000
792.090393	885.500000
792.126465	878.000000
792.162598	894.000000
792.198669	891.000000
792.234741	890.600000
792.270874	877.900000
792.307007	866.200000
792.343079	868.900000
792.379150	879.100000
792.415283	871.100000
792.451355	876.600000
792.487488	857.500000
792.523560	851.400000
792.559631	844.300000
792.595764	813.600000
792.631836	772.700000
792.667908	759.500000
792.703979	738.500000
792.740051	751.700000
792.776184	781.600000
792.812256	796.300000
792.848328	809.200000
792.884399	826.900000
792.920471	822.800000
792.956543	821.700000
792.992615	819.100000
793.028748	815.400000
793.064758	820.600000
793.100830	837.000000
793.136963	856.600000
793.172974	853.500000
793.209045	847.300000
793.245178	853.100000
793.281189	837.400000
793.317261	840.900000
793.353271	846.300000
793.389404	853.000000
793.425476	851.000000
793.461487	839.900000
793.497559	830.400000
793.533630	832.100000
793.569641	830.400000
793.605713	839.700000
793.641785	843.500000
793.677795	853.100000
793.713867	841.300000
793.749878	850.400000
793.785950	862.400000
793.822021	866.800000
793.858032	855.500000
793.894104	877.000000
793.930176	865.300000
793.966187	871.900000
794.002258	854.400000
794.038269	864.400000
794.074280	861.800000
794.110352	887.500000
794.146423	869.400000
794.182373	866.400000
794.218445	863.800000
794.254517	859.900000
794.290466	845.200000
794.326538	846.000000
794.362549	853.000000
794.398560	858.000000
794.434631	856.300000
794.470581	836.600000
794.506653	826.000000
794.542664	829.900000
794.578674	836.700000
794.614685	837.100000
794.650757	835.800000
794.686707	834.900000
794.722778	832.100000
794.758789	831.400000
794.794739	841.200000
794.830811	865.100000
794.866821	886.700000
794.902771	889.000000
794.938843	884.600000
794.974792	879.500000
795.010803	880.700000
795.046814	877.300000
795.082825	870.800000
795.118835	889.100000
795.154846	872.100000
795.190796	877.100000
795.226807	862.000000
795.262817	862.700000
795.298767	867.900000
795.334778	875.200000
795.370850	862.500000
795.406799	858.000000
795.442810	850.700000
795.478821	844.000000
795.514709	840.900000
795.550720	866.200000
795.586670	845.900000
795.622681	858.200000
795.658691	866.400000
795.694641	854.800000
795.730652	844.900000
795.766663	854.100000
795.802551	861.600000
795.838562	870.400000
795.874573	865.900000
795.910522	868.900000
795.946472	855.200000
795.982483	859.700000
796.018433	864.300000
796.054382	872.100000
796.090393	865.000000
796.126282	859.000000
796.162292	838.200000
796.198242	837.100000
796.234192	836.200000
796.270203	832.600000
796.306091	838.600000
796.342041	850.400000
796.378052	842.900000
796.413940	843.900000
796.449951	845.000000
796.485901	846.600000
796.521790	850.500000
796.557800	867.100000
796.593689	860.600000
796.629639	864.300000
796.665649	854.300000
796.701599	848.400000
796.737488	846.500000
796.773437	860.100000
796.809387	858.800000
796.845337	861.900000
796.881287	858.100000
796.917175	841.400000
796.953125	836.500000
796.989075	839.800000
797.024963	839.400000
797.060913	843.500000
797.096863	845.900000
797.132751	837.800000
797.168701	822.900000
797.204590	830.700000
797.240540	827.800000
797.276489	832.700000
797.312439	839.300000
797.348328	839.200000
797.384277	831.300000
797.420166	828.800000
797.456055	823.100000
797.492004	823.700000
797.527893	829.200000
797.563843	832.400000
797.599731	828.000000
797.635620	822.500000
797.671570	823.600000
797.707520	824.800000
797.743347	830.500000
797.779297	837.800000
797.815125	828.800000
797.851074	824.400000
797.887024	817.100000
797.922913	803.900000
797.958801	806.700000
797.994690	800.900000
798.030579	813.200000
798.066467	821.900000
798.102356	815.100000
798.138245	806.100000
798.174133	792.900000
798.210083	803.000000
798.245911	811.300000
798.281799	812.600000
798.317749	810.900000
798.353577	809.200000
798.389465	802.900000
798.425293	802.600000
798.461243	800.600000
798.497131	801.600000
798.532959	807.600000
798.568848	816.300000
798.604736	799.600000
798.640564	784.000000
798.676453	790.000000
798.712402	797.200000
798.748230	798.300000
798.784119	802.300000
798.820007	798.800000
798.855835	797.500000
798.891724	789.500000
798.927551	781.600000
798.963379	790.200000
798.999268	788.900000
799.035095	782.400000
799.070984	783.700000
799.106873	767.900000
799.142700	765.900000
799.178528	759.800000
799.214417	765.400000
799.250244	772.200000
799.286133	769.700000
799.321960	773.700000
799.357788	766.300000
799.393677	759.800000
799.429504	764.900000
799.465332	764.000000
799.501221	770.700000
799.537048	773.400000
799.572876	768.600000
799.608704	764.600000
799.644531	772.100000
799.680359	773.400000
799.716248	784.100000
799.752014	790.600000
799.787903	787.100000
799.823730	780.000000
799.859558	762.700000
799.895386	761.500000
799.931213	767.300000
799.967041	768.200000
800.002869	769.000000
800.038696	781.100000
800.074463	758.000000
800.110352	761.300000
800.146179	756.700000
800.181946	761.700000
800.217773	765.300000
800.253540	764.600000
800.289429	762.600000
800.325256	752.700000
800.361023	746.900000
800.396851	756.600000
800.432678	759.700000
800.468445	762.100000
800.504272	764.600000
800.540100	751.400000
800.575867	747.300000
800.611694	745.800000
800.647461	739.400000
800.683289	746.300000
800.719116	754.300000
800.754883	748.700000
800.790649	741.900000
800.826477	732.800000
800.862244	746.500000
800.898071	735.000000
800.933838	736.400000
800.969604	741.000000
801.005432	737.700000
801.041199	735.400000
801.076965	726.500000
801.112793	718.400000
801.148560	712.700000
801.184326	722.000000
801.220154	721.900000
801.255859	714.300000
801.291687	716.900000
801.327454	708.700000
801.363281	712.200000
801.398987	709.500000
801.434814	709.700000
801.470520	712.100000
801.506287	708.200000
801.542114	702.200000
801.577820	696.400000
801.613647	694.800000
801.649414	694.600000
801.685120	697.900000
801.720886	701.600000
801.756714	690.900000
801.792419	686.700000
801.828186	684.600000
801.863892	684.300000
801.899719	682.500000
801.935486	682.900000
801.971252	690.400000
802.006958	680.300000
802.042725	679.600000
802.078430	677.800000
802.114197	679.700000
802.149963	693.500000
802.185669	685.900000
802.221436	680.600000
802.257202	677.000000
802.292908	674.400000
802.328674	679.900000
802.364441	682.600000
802.400146	678.200000
802.435913	685.800000
802.471558	678.500000
802.507324	671.400000
802.543091	664.700000
802.578796	682.000000
802.614502	681.000000
802.650269	688.700000
802.685974	671.300000
802.721741	675.200000
802.757446	674.000000
802.793152	673.400000
802.828918	682.400000
802.864624	678.300000
802.900330	679.800000
802.936035	679.500000
802.971802	673.200000
803.007446	665.700000
803.043213	659.500000
803.078857	674.100000
803.114624	660.200000
803.150330	664.400000
803.185974	657.400000
803.221741	656.100000
803.257446	660.700000
803.293152	666.200000
803.328857	664.300000
803.364563	661.200000
803.400208	655.400000
803.435974	659.100000
803.471680	652.900000
803.507324	648.100000
803.543030	655.800000
803.578735	657.800000
803.614441	655.600000
803.650146	663.700000
803.685791	649.600000
803.721497	647.800000
803.757202	640.800000
803.792847	641.800000
803.828552	641.000000
803.864258	640.400000
803.899902	632.300000
803.935608	620.000000
803.971313	626.800000
804.006958	621.200000
804.042664	620.900000
804.078308	630.000000
804.113953	624.700000
804.149658	627.800000
804.185364	619.400000
804.221008	636.500000
804.256714	617.200000
804.292297	616.900000
804.328003	613.500000
804.363708	612.600000
804.399292	611.400000
804.434998	606.100000
804.470703	606.200000
804.506287	613.200000
804.541992	601.000000
804.577637	606.200000
804.613281	599.500000
804.648926	597.900000
804.684570	602.900000
804.720215	596.100000
804.755920	593.200000
804.791565	596.500000
804.827209	600.600000
804.862854	595.000000
804.898437	594.200000
804.934143	591.600000
804.969788	587.500000
805.005371	592.700000
805.041077	587.200000
805.076721	593.800000
805.112305	587.900000
805.147949	583.300000
805.183655	576.700000
805.219238	589.400000
805.254883	581.700000
805.290466	584.000000
805.326111	577.200000
805.361755	570.900000
805.397400	573.500000
805.432983	572.400000
805.468628	566.700000
805.504211	574.700000
805.539856	574.200000
805.575500	575.000000
805.611084	570.500000
805.646729	564.300000
805.682373	567.900000
805.717957	570.200000
805.753601	574.700000
805.789246	560.800000
805.824768	570.900000
805.860413	574.100000
805.895996	559.000000
805.931641	559.800000
805.967224	568.000000
806.002869	560.900000
806.038452	568.200000
806.074036	569.900000
806.109619	555.300000
806.145264	556.600000
806.180847	559.100000
806.216431	558.400000
806.252014	561.300000
806.287659	560.900000
806.323181	567.600000
806.358826	565.500000
806.394409	548.700000
806.429993	546.600000
806.465576	557.300000
806.501160	547.700000
806.536743	542.900000
806.572327	548.100000
806.607910	546.500000
806.643494	547.100000
806.679077	540.200000
806.714661	537.300000
806.750244	540.200000
806.785828	537.100000
806.821350	537.400000
806.856934	537.400000
806.892517	529.900000
806.928101	526.800000
806.963684	527.900000
806.999268	536.200000
807.034790	523.500000
807.070374	524.100000
807.105896	519.700000
807.141479	518.900000
807.177063	522.700000
807.212585	517.900000
807.248169	516.200000
807.283752	520.500000
807.319275	517.300000
807.354858	519.900000
807.390381	516.000000
807.425903	507.200000
807.461487	508.500000
807.497070	503.400000
807.532593	506.000000
807.568115	502.800000
807.603699	498.800000
807.639221	497.900000
807.674744	502.100000
807.710266	502.500000
807.745850	505.300000
807.781372	499.600000
807.816895	498.800000
807.852417	497.500000
807.888000	494.200000
807.923523	490.200000
807.959045	495.000000
807.994629	492.000000
808.030090	491.200000
808.065613	495.800000
808.101135	495.600000
808.136658	491.900000
808.172241	490.300000
808.207764	487.800000
808.243225	482.900000
808.278809	481.800000
808.314270	488.700000
808.349792	475.400000
808.385315	474.200000
808.420837	482.800000
808.456360	487.800000
808.491882	486.500000
808.527344	481.500000
808.562866	486.800000
808.598389	477.900000
808.633850	477.200000
808.669434	470.400000
808.704895	477.800000
808.740417	483.400000
808.775940	481.500000
808.811462	473.300000
808.846924	472.200000
808.882385	471.600000
808.917847	468.200000
808.953369	471.700000
808.988892	466.400000
809.024353	473.600000
809.059875	473.500000
809.095398	465.600000
809.130798	459.200000
809.166321	459.700000
809.201843	461.500000
809.237305	464.900000
809.272766	467.700000
809.308228	457.300000
809.343750	455.900000
809.379211	461.400000
809.414734	457.900000
809.450134	463.200000
809.485657	448.100000
809.521118	452.500000
809.556580	450.100000
809.592102	453.900000
809.627502	450.500000
809.663025	447.900000
809.698486	445.900000
809.733887	444.000000
809.769409	444.800000
809.804871	436.400000
809.840271	436.300000
809.875793	437.200000
809.911194	442.700000
809.946655	437.800000
809.982178	432.800000
810.017639	437.400000
810.053040	433.400000
810.088501	431.600000
810.123901	427.400000
810.159424	431.400000
810.194885	426.000000
810.230286	429.100000
810.265747	421.000000
810.301208	415.800000
810.336609	420.400000
810.372070	414.200000
810.407532	418.700000
810.442932	420.800000
810.478394	421.800000
810.513794	418.700000
810.549255	417.100000
810.584717	409.600000
810.620117	407.800000
810.655518	412.600000
810.690979	411.500000
810.726379	410.300000
810.761841	404.400000
810.797302	403.400000
810.832642	398.000000
810.868103	408.300000
810.903564	397.600000
810.938904	405.000000
810.974365	396.600000
811.009827	399.100000
811.045166	395.200000
811.080627	387.800000
811.115967	394.000000
811.151428	395.700000
811.186829	391.200000
811.222229	390.000000
811.257629	382.000000
811.293091	383.900000
811.328430	392.800000
811.363892	387.500000
811.399292	390.000000
811.434631	383.400000
811.470093	388.000000
811.505493	379.900000
811.540833	382.900000
811.576294	385.800000
811.611694	384.000000
811.647034	376.800000
811.682434	376.700000
811.717773	382.500000
811.753235	387.700000
811.788635	376.800000
811.823975	379.000000
811.859375	384.400000
811.894775	374.200000
811.930115	377.500000
811.965515	376.400000
812.000916	373.700000
812.036255	373.500000
812.071655	375.900000
812.106995	369.000000
812.142395	370.600000
812.177795	375.900000
812.213196	372.800000
812.248474	371.100000
812.283875	365.800000
812.319214	367.100000
812.354614	369.000000
812.390015	364.900000
812.425293	364.700000
812.460693	364.500000
812.496094	361.000000
812.531433	358.200000
812.566772	358.800000
812.602173	357.600000
812.637451	359.100000
812.672852	354.300000
812.708191	359.200000
812.743530	349.200000
812.778931	346.000000
812.814270	348.000000
812.849609	353.400000
812.884949	349.300000
812.920227	341.400000
812.955627	354.600000
812.990967	349.700000
813.026306	345.300000
813.061646	335.200000
813.096985	330.800000
813.132324	330.400000
813.167664	333.700000
813.203003	339.100000
813.238281	330.400000
813.273682	329.000000
813.308960	324.800000
813.344299	328.400000
813.379639	331.700000
813.414978	327.500000
813.450256	325.500000
813.485596	327.800000
813.520874	324.000000
813.556213	326.800000
813.591614	330.600000
813.626831	320.600000
813.662170	324.400000
813.697510	331.400000
813.732788	319.200000
813.768127	323.300000
813.803467	322.000000
813.838745	317.300000
813.874084	320.100000
813.909363	318.800000
813.944641	322.100000
813.979980	310.300000
814.015320	315.600000
814.050598	312.700000
814.085876	314.800000
814.121155	310.400000
814.156494	311.100000
814.191772	309.600000
814.227051	310.000000
814.262390	307.900000
814.297668	306.100000
814.332947	308.700000
814.368225	302.800000
814.403564	302.500000
814.438782	302.000000
814.474121	304.300000
814.509338	302.400000
814.544617	306.800000
814.579956	299.500000
814.615173	306.800000
814.650513	303.700000
814.685791	296.700000
814.721008	302.800000
814.756348	300.300000
814.791626	298.300000
814.826843	298.600000
814.862122	296.700000
814.897400	296.000000
814.932678	297.000000
814.967957	295.600000
815.003235	296.500000
815.038452	292.000000
815.073730	291.200000
815.108948	298.100000
815.144226	297.200000
815.179504	300.300000
815.214722	288.400000
815.250000	287.700000
815.285278	292.100000
815.320496	288.200000
815.355774	287.300000
815.391052	290.000000
815.426270	287.900000
815.461487	286.200000
815.496765	281.900000
815.531982	280.200000
815.567261	284.700000
815.602539	289.600000
815.637695	283.500000
815.672974	284.500000
815.708191	286.100000
815.743408	287.800000
815.778687	278.700000
815.813904	287.200000
815.849121	272.600000
815.884399	276.400000
815.919556	275.000000
815.954834	276.600000
815.990051	278.800000
816.025269	283.100000
816.060486	273.200000
816.095703	273.900000
816.130920	273.400000
816.166199	271.300000
816.201416	273.500000
816.236572	277.400000
816.271851	268.600000
816.307007	276.100000
816.342224	266.700000
816.377441	267.800000
816.412659	261.600000
816.447876	269.800000
816.483093	266.500000
816.518250	267.600000
816.553467	265.900000
816.588745	268.100000
816.623901	261.100000
816.659119	255.100000
816.694275	262.000000
816.729492	259.500000
816.764709	289.100000
816.799927	256.000000
816.835083	262.000000
816.870300	252.300000
816.905457	257.800000
816.940674	257.800000
816.975830	253.300000
817.010986	250.100000
817.046204	252.000000
817.081421	248.200000
817.116577	250.000000
817.151733	254.900000
817.186951	255.300000
817.222107	251.300000
817.257324	256.000000
817.292419	252.600000
817.327637	246.700000
817.362854	248.000000
817.398010	244.800000
817.433167	244.400000
817.468323	244.800000
817.503479	247.000000
817.538635	253.900000
817.573853	248.000000
817.608948	246.100000
817.644165	244.200000
817.679321	242.300000
817.714478	241.500000
817.749634	244.000000
817.784790	251.500000
817.819946	247.800000
817.855103	235.100000
817.890198	240.700000
817.925415	234.300000
817.960571	241.600000
817.995667	240.700000
818.030823	240.300000
818.066040	238.200000
818.101135	240.300000
818.136292	238.300000
818.171448	234.600000
818.206543	237.200000
818.241699	240.500000
818.276855	238.300000
818.311951	236.100000
818.347107	233.200000
818.382263	236.900000
818.417358	242.200000
818.452515	238.800000
818.487610	241.900000
818.522766	230.200000
818.557922	239.200000
818.593018	235.600000
818.628113	234.100000
818.663269	228.900000
818.698364	233.500000
818.733521	229.000000
818.768677	233.300000
818.803711	226.800000
818.838867	226.100000
818.874023	229.300000
818.909058	225.900000
818.944214	224.500000
818.979370	228.600000
819.014404	226.300000
819.049561	223.700000
819.084595	229.100000
819.119751	224.000000
819.154846	227.200000
819.189941	224.100000
819.225037	220.500000
819.260193	217.900000
819.295227	218.800000
819.330322	216.500000
819.365479	216.700000
819.400513	249.800000
819.435608	214.900000
819.470764	213.100000
819.505798	215.700000
819.540894	217.400000
819.575989	216.300000
819.611084	220.300000
819.646179	224.800000
819.681213	218.700000
819.716309	215.200000
819.751404	215.600000
819.786438	220.300000
819.821533	211.800000
819.856628	216.600000
819.891663	217.300000
819.926758	224.400000
819.961853	217.500000
819.996887	213.700000
820.031982	214.400000
820.067017	213.600000
820.102112	244.200000
820.137207	211.100000
820.172302	222.800000
820.207275	210.800000
820.242371	210.000000
820.277405	209.600000
820.312500	210.000000
820.347534	212.500000
820.382568	215.100000
820.417664	209.400000
820.452759	208.100000
820.487732	209.800000
820.522827	208.800000
820.557861	205.100000
820.592896	207.800000
820.627930	209.000000
820.662964	206.300000
820.698059	209.300000
820.733093	207.600000
820.768127	211.200000
820.803162	208.000000
820.838196	206.200000
820.873230	208.500000
820.908264	207.800000
820.943298	205.300000
820.978333	210.700000
821.013367	207.700000
821.048401	210.000000
821.083435	210.700000
821.118469	200.700000
821.153503	210.000000
821.188477	207.500000
821.223511	202.300000
821.258484	204.000000
821.293579	206.300000
821.328613	200.500000
821.363647	204.800000
821.398621	200.000000
821.433655	203.200000
821.468628	214.300000
821.503662	203.400000
821.538696	205.400000
821.573669	201.200000
821.608704	206.300000
821.643677	202.900000
821.678650	206.100000
821.713684	207.500000
821.748718	202.500000
821.783691	203.300000
821.818726	203.900000
821.853638	205.000000
821.888672	201.800000
821.923706	202.400000
821.958618	200.200000
821.993652	201.400000
822.028687	206.200000
822.063599	210.200000
822.098633	203.700000
822.133667	198.800000
822.168579	202.300000
822.203613	204.500000
822.238586	199.600000
822.273560	203.200000
822.308533	199.300000
822.343567	200.900000
822.378479	202.100000
822.413452	201.300000
822.448425	199.500000
822.483398	205.700000
822.518372	204.500000
822.553345	198.300000
822.588318	210.900000
822.623291	200.300000
822.658203	199.200000
822.693237	200.000000
822.728210	199.100000
822.763123	200.800000
822.798096	197.100000
822.833069	199.600000
822.867981	198.900000
822.902954	201.300000
822.937927	203.100000
822.972900	207.400000
823.007874	194.700000
823.042725	204.100000
823.077698	208.500000
823.112671	196.000000
823.147583	200.100000
823.182556	201.200000
823.217529	203.600000
823.252441	197.800000
823.287415	210.100000
823.322388	203.200000
823.357239	200.200000
823.392212	205.100000
823.427185	205.500000
823.462097	197.600000
823.497009	202.800000
823.531982	199.700000
823.566895	201.000000
823.601807	196.700000
823.636719	199.300000
823.671631	203.300000
823.706604	197.800000
823.741455	203.300000
823.776428	194.400000
823.811340	203.700000
823.846252	206.100000
823.881165	207.900000
823.916138	201.000000
823.950989	208.800000
823.985901	198.500000
824.020813	201.200000
824.055725	197.200000
824.090637	196.400000
824.125610	201.500000
824.160461	202.200000
824.195374	200.500000
824.230225	203.000000
824.265198	193.000000
824.300110	197.800000
824.334961	206.100000
824.369873	190.900000
824.404785	201.300000
824.439636	202.600000
824.474548	192.700000
824.509460	191.700000
824.544312	201.700000
824.579224	201.200000
824.614075	199.500000
824.648987	197.800000
824.683899	197.400000
824.718811	196.800000
824.753662	203.000000
824.788574	202.100000
824.823364	199.400000
824.858276	197.100000
824.893188	201.800000
824.928040	202.200000
824.962952	200.500000
824.997803	201.300000
825.032654	198.200000
825.067566	200.200000
825.102417	196.000000
825.137268	196.500000
825.172119	197.800000
825.206970	195.800000
825.241882	197.000000
825.276733	192.600000
825.311646	195.400000
825.346436	193.900000
825.381348	194.200000
825.416138	196.600000
825.450989	193.700000
825.485901	189.100000
825.520691	192.300000
825.555542	192.200000
825.590454	196.000000
825.625244	189.700000
825.660095	200.100000
825.695007	196.900000
825.729797	194.900000
825.764648	190.100000
825.799438	195.600000
825.834290	194.400000
825.869202	189.700000
825.903992	195.300000
825.938843	192.900000
825.973694	188.000000
826.008484	202.000000
826.043335	190.000000
826.078186	185.800000
826.112976	195.800000
826.147827	197.400000
826.182678	200.400000
826.217468	186.900000
826.252319	197.600000
826.287109	188.800000
826.321899	196.200000
826.356750	191.700000
826.391541	188.800000
826.426392	196.500000
826.461182	192.600000
826.495972	188.600000
826.530823	185.500000
826.565613	193.600000
826.600403	189.400000
826.635254	195.200000
826.670044	187.400000
826.704834	187.500000
826.739685	189.900000
826.774475	194.100000
826.809265	193.700000
826.844055	189.800000
826.878906	197.000000
826.913635	193.900000
826.948425	194.300000
826.983215	193.000000
827.018005	194.500000
827.052856	189.100000
827.087585	195.400000
827.122375	185.900000
827.157227	191.700000
827.191956	201.800000
827.226746	188.100000
827.261536	193.800000
827.296265	188.000000
827.331116	188.800000
827.365906	194.900000
827.400635	188.900000
827.435425	185.100000
827.470215	196.000000
827.504944	191.200000
827.539734	193.900000
827.574463	189.600000
827.609253	197.800000
827.644043	192.700000
827.678772	196.000000
827.713562	190.200000
827.748352	189.900000
827.783081	188.900000
827.817871	192.200000
827.852600	188.600000
827.887329	192.300000
827.922119	185.600000
827.956848	194.500000
827.991638	201.700000
828.026367	193.900000
828.061157	191.200000
828.095886	193.000000
828.130615	204.100000
828.165344	186.300000
828.200073	190.600000
828.234863	191.000000
828.269592	190.100000
828.304321	195.100000
828.339111	191.900000
828.373779	190.500000
828.408569	194.900000
828.443298	197.000000
828.477966	189.600000
828.512756	192.600000
828.547424	187.300000
828.582214	190.900000
828.616943	188.600000
828.651672	191.400000
828.686340	194.500000
828.721130	188.800000
828.755798	191.100000
828.790527	192.100000
828.825256	189.700000
828.859924	191.400000
828.894714	195.100000
828.929443	198.500000
828.964111	189.500000
828.998840	194.400000
829.033569	188.500000
829.068237	190.700000
829.102966	190.200000
829.137634	194.400000
829.172363	192.200000
829.207092	192.900000
829.241821	188.900000
829.276489	186.300000
829.311157	191.800000
829.345825	190.100000
829.380554	196.100000
829.415283	187.800000
829.449951	186.700000
829.484619	197.800000
829.519348	196.800000
829.554016	191.600000
829.588745	192.200000
829.623413	187.200000
829.658081	199.800000
829.692749	187.000000
829.727417	195.800000
829.762146	190.800000
829.796814	189.700000
829.831482	190.400000
829.866150	193.900000
829.900879	189.400000
829.935486	193.100000
829.970154	189.700000
830.004883	201.500000
830.039490	191.700000
830.074219	188.900000
830.108887	191.400000
830.143494	190.000000
830.178223	186.600000
830.212891	189.900000
830.247498	190.300000
830.282166	196.700000
830.316772	194.600000
830.351501	187.400000
830.386169	189.400000
830.420776	188.900000
830.455444	190.700000
830.490112	188.800000
830.524719	185.000000
830.559387	192.200000
830.594055	192.600000
830.628662	191.000000
830.663330	191.000000
830.697998	197.000000
830.732605	190.700000
830.767273	192.800000
830.801941	190.400000
830.836487	198.400000
830.871155	193.200000
830.905762	193.500000
830.940430	187.300000
830.975098	188.200000
831.009644	192.400000
831.044312	198.100000
831.078979	192.400000
831.113525	184.000000
831.148193	193.300000
831.182861	189.400000
831.217407	195.100000
831.252075	203.000000
831.286621	189.900000
831.321289	187.600000
831.355896	192.300000
831.390564	196.500000
831.425110	193.200000
831.459778	195.600000
831.494324	200.900000
831.528931	192.600000
831.563599	197.600000
831.598145	186.200000
831.632751	191.300000
831.667419	189.800000
831.701965	193.200000
831.736572	192.200000
831.771179	188.100000
831.805786	188.200000
831.840393	196.200000
831.874939	184.700000
831.909546	194.600000
831.944153	184.400000
831.978760	191.700000
832.013306	189.000000
832.047913	195.200000
832.082458	198.700000
832.117065	188.400000
832.151672	198.600000
832.186218	192.400000
832.220825	193.100000
832.255432	185.300000
832.289978	189.800000
832.324585	192.200000
832.359192	194.500000
832.393677	191.300000
832.428284	192.500000
832.462830	189.000000
832.497437	192.500000
832.531982	193.700000
832.566589	191.300000
832.601135	192.000000
832.635681	186.700000
832.670227	190.800000
832.704773	198.200000
832.739380	191.800000
832.773926	192.900000
832.808472	187.500000
832.843079	191.200000
832.877563	192.800000
832.912170	190.700000
832.946716	186.200000
832.981201	195.000000
833.015808	194.400000
833.050293	192.900000
833.084839	187.700000
833.119446	190.100000
833.153992	195.200000
833.188477	189.700000
833.223022	188.200000
833.257568	192.500000
833.292114	196.400000
833.326660	201.700000
833.361145	189.300000
833.395691	185.900000
833.430237	192.500000
833.464783	192.900000
833.499329	188.900000
833.533875	188.500000
833.568359	194.000000
833.602905	195.600000
833.637390	196.500000
833.671875	188.900000
833.706421	190.400000
833.740906	189.600000
833.775452	184.700000
833.809998	189.000000
833.844482	198.600000
833.879028	191.500000
833.913513	190.300000
833.947998	193.300000
833.982544	189.300000
834.017090	187.900000
834.051514	184.900000
834.086060	192.200000
834.120544	190.800000
834.155029	191.900000
834.189575	189.800000
834.223999	192.500000
834.258545	192.200000
834.293030	191.800000
834.327515	192.000000
834.362000	187.800000
834.396545	195.000000
834.430969	188.100000
834.465454	194.300000
834.500000	183.800000
834.534424	192.100000
834.568970	183.300000
834.603455	183.900000
834.637878	188.000000
834.672363	192.400000
834.706909	189.900000
834.741333	190.700000
834.775818	186.300000
834.810242	187.000000
834.844727	190.100000
834.879211	189.000000
834.913635	191.700000
834.948181	191.700000
834.982666	192.300000
835.017090	190.000000
835.051575	193.800000
835.086060	189.500000
835.120483	194.700000
835.154907	194.000000
835.189331	191.700000
835.223816	194.000000
835.258301	187.500000
835.292786	187.700000
835.327209	195.000000
835.361694	188.800000
835.396057	189.600000
835.430542	193.100000
835.465027	192.100000
835.499390	187.200000
835.533875	218.100000
835.568359	187.200000
835.602722	186.700000
835.637207	191.800000
835.671692	186.600000
835.706055	204.700000
835.740540	193.300000
835.774902	191.600000
835.809387	193.100000
835.843811	186.300000
835.878235	195.200000
835.912659	185.200000
835.947083	189.000000
835.981506	191.000000
836.015930	185.700000
836.050354	195.500000
836.084778	197.100000
836.119202	194.100000
836.153625	203.600000
836.187988	187.600000
836.222473	187.300000
836.256897	191.600000
836.291260	190.300000
836.325684	193.200000
836.360046	188.100000
836.394470	190.600000
836.428894	197.200000
836.463318	188.000000
836.497681	194.500000
836.532104	196.400000
836.566467	191.500000
836.600891	191.400000
836.635315	194.900000
836.669678	193.400000
836.704102	193.500000
836.738525	194.400000
836.772888	184.700000
836.807251	190.600000
836.841675	192.800000
836.876038	189.200000
836.910461	188.600000
836.944763	195.500000
836.979187	187.700000
837.013611	195.300000
837.047974	185.300000
837.082336	201.800000
837.116699	192.200000
837.151062	192.500000
837.185486	184.900000
837.219849	189.600000
837.254211	193.400000
837.288574	191.100000
837.322937	187.400000
837.357300	182.300000
837.391663	200.500000
837.426086	193.900000
837.460388	191.100000
837.494751	194.900000
837.529114	189.300000
837.563477	196.400000
837.597839	191.300000
837.632141	190.400000
837.666565	189.200000
837.700928	194.400000
837.735229	192.900000
837.769592	193.600000
837.803955	194.900000
837.838257	190.600000
837.872620	190.200000
837.906982	197.100000
837.941284	192.900000
837.975647	193.900000
838.010010	196.400000
838.044312	190.200000
838.078674	190.800000
838.112976	192.100000
838.147339	195.000000
838.181702	190.900000
838.216003	198.600000
838.250366	191.200000
838.284668	194.200000
838.318970	185.300000
838.353333	192.100000
838.387634	189.600000
838.421936	193.200000
838.456299	192.500000
838.490601	197.300000
838.524902	195.200000
838.559265	196.100000
838.593567	192.400000
838.627869	186.700000
838.662170	192.500000
838.696472	186.300000
838.730774	188.100000
838.765137	193.600000
838.799377	180.300000
838.833740	191.400000
838.868042	194.700000
838.902283	185.800000
838.936646	196.600000
838.970947	191.700000
839.005188	196.700000
839.039551	187.300000
839.073792	195.500000
839.108093	190.400000
839.142395	199.700000
839.176697	185.300000
839.210937	192.800000
839.245300	200.300000
839.279541	188.200000
839.313843	190.300000
839.348145	195.400000
839.382385	193.600000
839.416687	196.800000
839.450989	194.000000
839.485229	191.300000
839.519531	188.600000
839.553833	195.800000
839.588013	190.500000
839.622314	194.600000
839.656555	192.500000
839.690857	192.200000
839.725159	185.700000
839.759460	191.800000
839.793640	188.800000
839.827942	191.800000
839.862183	186.600000
839.896423	192.600000
839.930725	202.200000
839.964966	200.200000
839.999207	194.800000
840.033508	198.500000
840.067688	188.100000
840.101990	197.600000
840.136230	190.700000
840.170471	197.400000
840.204712	187.200000
840.238953	188.800000
840.273193	191.800000
840.307434	194.000000
840.341736	187.500000
840.375916	185.800000
840.410217	188.000000
840.444397	194.800000
840.478638	193.500000
840.512878	194.600000
840.547119	192.100000
840.581360	194.700000
840.615601	198.100000
840.649780	201.900000
840.684021	191.300000
840.718262	198.500000
840.752441	197.800000
840.786682	192.400000
840.820862	193.800000
840.855103	199.200000
840.889343	192.500000
840.923584	195.300000
840.957764	194.800000
840.992004	192.800000
841.026184	203.100000
841.060425	190.500000
841.094666	190.200000
841.128845	193.900000
841.163025	192.700000
841.197266	192.000000
841.231445	193.100000
841.265686	192.000000
841.299866	189.300000
841.334045	196.500000
841.368286	190.300000
841.402405	197.700000
841.436646	194.100000
841.470825	188.600000
841.505005	190.700000
841.539185	187.100000
841.573425	188.900000
841.607544	191.100000
841.641785	192.200000
841.675964	188.700000
841.710144	192.600000
841.744324	188.200000
841.778503	190.400000
841.812683	188.900000
841.846863	197.700000
841.881042	197.500000
841.915222	190.200000
841.949402	204.100000
841.983521	185.700000
842.017700	191.200000
842.051880	193.300000
842.086060	195.200000
842.120239	192.700000
842.154419	191.800000
842.188538	191.900000
842.222717	189.400000
842.256897	199.000000
842.291016	191.700000
842.325195	192.800000
842.359375	201.000000
842.393494	197.100000
842.427673	193.200000
842.461853	192.400000
842.495911	199.900000
842.530090	193.900000
842.564209	191.900000
842.598389	192.800000
842.632568	193.300000
842.666626	194.400000
842.700806	191.200000
842.734985	187.600000
842.769043	194.700000
842.803223	190.000000
842.837402	191.300000
842.871460	188.800000
842.905640	199.700000
842.939697	188.800000
842.973877	193.600000
843.007996	195.900000
843.042175	199.700000
843.076233	189.500000
843.110413	193.200000
843.144470	197.200000
843.178589	196.300000
843.212769	189.500000
843.246826	195.700000
843.280945	190.100000
843.315125	191.500000
843.349182	190.000000
843.383301	197.400000
843.417419	201.500000
843.451538	191.000000
843.485657	191.200000
843.519714	192.700000
843.553833	193.200000
843.587952	189.500000
843.622070	190.500000
843.656128	194.100000
843.690247	190.900000
843.724304	191.600000
843.758423	195.000000
843.792542	190.400000
843.826599	192.700000
843.860718	190.400000
843.894836	186.500000
843.928894	193.000000
843.963013	192.700000
843.997070	188.500000
844.031128	188.500000
844.065247	196.200000
844.099304	196.000000
844.133362	192.200000
844.167480	194.400000
844.201599	196.700000
844.235596	193.700000
844.269714	193.500000
844.303711	194.200000
844.337830	185.000000
844.371948	193.400000
844.405945	191.400000
844.440063	188.900000
844.474121	202.900000
844.508118	190.500000
844.542236	191.400000
844.576294	191.900000
844.610352	187.800000
844.644409	191.500000
844.678406	185.800000
844.712524	197.300000
844.746582	196.400000
844.780640	192.300000
844.814636	192.700000
844.848755	203.000000
844.882751	191.800000
844.916809	194.800000
844.950867	195.200000
844.984863	199.100000
845.018921	192.800000
845.052979	190.100000
845.086975	193.000000
845.121033	188.200000
845.155090	190.600000
845.189087	197.000000
845.223145	191.600000
845.257141	192.600000
845.291199	195.500000
845.325256	196.800000
845.359253	194.100000
845.393250	203.300000
845.427307	191.200000
845.461304	192.500000
845.495361	193.400000
845.529358	199.400000
845.563354	191.400000
845.597412	188.300000
845.631409	200.700000
845.665405	196.700000
845.699463	195.500000
845.733459	190.100000
845.767456	201.600000
845.801453	189.100000
845.835449	196.600000
845.869446	195.400000
845.903503	194.400000
845.937439	188.600000
845.971497	197.500000
846.005493	186.700000
846.039429	196.300000
846.073486	200.300000
846.107483	188.700000
846.141418	190.900000
846.175476	193.500000
846.209473	197.500000
846.243408	189.500000
846.277405	194.700000
846.311401	189.100000
846.345337	193.000000
846.379395	197.100000
846.413330	190.400000
846.447327	201.000000
846.481323	191.600000
846.515259	189.700000
846.549255	193.000000
846.583252	194.100000
846.617187	190.000000
846.651184	192.500000
846.685120	191.900000
846.719055	199.800000
846.753052	196.500000
846.786987	194.800000
846.820984	188.000000
846.854980	197.300000
846.888916	190.300000
846.922852	194.100000
846.956848	197.400000
846.990723	188.600000
847.024719	194.500000
847.058716	190.500000
847.092590	197.500000
847.126587	193.800000
847.160522	190.700000
847.194458	195.300000
847.228455	188.200000
847.262390	187.800000
847.296265	190.700000
847.330261	196.100000
847.364136	188.600000
847.398132	191.200000
847.432068	193.300000
847.466003	192.200000
847.499939	193.100000
847.533875	194.200000
847.567749	191.300000
847.601746	190.900000
847.635681	194.100000
847.669556	187.500000
847.703491	198.400000
847.737427	202.900000
847.771301	188.800000
847.805237	195.600000
847.839233	192.800000
847.873108	192.700000
847.907043	192.600000
847.940918	199.800000
847.974854	193.100000
848.008789	196.700000
848.042664	191.900000
848.076538	194.400000
848.110474	192.000000
848.144348	192.800000
848.178284	186.500000
848.212219	194.700000
848.246094	189.100000
848.279968	193.100000
848.313904	193.100000
848.347778	193.300000
848.381653	191.400000
848.415588	190.400000
848.449463	189.000000
848.483337	193.500000
848.517212	198.000000
848.551086	192.400000
848.585022	188.700000
848.618835	201.600000
848.652771	189.100000
848.686646	188.700000
848.720520	197.900000
848.754395	192.000000
848.788330	196.300000
848.822144	194.200000
848.856018	190.400000
848.889954	200.200000
848.923767	189.800000
848.957642	189.800000
848.991577	194.700000
849.025391	192.600000
849.059265	192.500000
849.093079	188.300000
849.126953	188.700000
849.160828	196.800000
849.194641	194.700000
849.228577	190.100000
849.262451	192.300000
849.296265	192.200000
849.330139	190.500000
849.364014	193.000000
849.397827	193.800000
849.431702	192.600000
849.465515	198.100000
849.499329	185.300000
849.533203	190.100000
849.567078	184.200000
849.600891	196.000000
849.634766	189.400000
849.668518	194.800000
849.702393	192.900000
849.736267	188.200000
849.770020	198.400000
849.803894	195.800000
849.837769	192.200000
849.871521	192.300000
849.905396	194.800000
849.939270	188.700000
849.973022	190.600000
850.006897	196.700000
850.040710	195.100000
850.074524	195.900000
850.108337	191.400000
850.142151	197.300000
850.175964	198.500000
850.209778	191.000000
850.243530	184.200000
850.277405	196.800000
850.311218	192.400000
850.344971	190.200000
850.378845	198.700000
850.412659	189.700000
850.446411	194.300000
850.480225	192.600000
850.514038	198.400000
850.547791	195.100000
850.581665	193.600000
850.615417	190.200000
850.649231	194.800000
850.683044	191.100000
850.716858	193.200000
850.750610	193.200000
850.784424	196.100000
850.818176	189.000000
850.851929	192.900000
850.885742	188.400000
850.919495	193.300000
850.953308	197.700000
850.987122	199.700000
851.020874	186.900000
851.054626	188.900000
851.088440	194.800000
851.122192	195.000000
851.156006	190.900000
851.189697	192.300000
851.223511	187.800000
851.257263	196.800000
851.291077	194.300000
851.324829	190.100000
851.358582	189.400000
851.392334	191.200000
851.426086	189.600000
851.459900	199.700000
851.493591	193.100000
851.527344	192.000000
851.561157	192.800000
851.594849	194.900000
851.628662	193.900000
851.662415	200.600000
851.696106	194.400000
851.729858	196.000000
851.763611	189.000000
851.797363	194.300000
851.831116	190.600000
851.864868	194.800000
851.898560	197.100000
851.932312	190.800000
851.966064	195.600000
851.999817	192.500000
852.033569	192.800000
852.067261	197.200000
852.101013	190.200000
852.134766	190.500000
852.168457	185.500000
852.202209	196.400000
852.235901	188.500000
852.269592	194.100000
852.303345	199.700000
852.337036	195.000000
852.370789	192.700000
852.404541	196.500000
852.438171	189.800000
852.471924	192.200000
852.505676	189.300000
852.539307	193.300000
852.573059	190.500000
852.606812	190.700000
852.640442	191.200000
852.674194	195.000000
852.707886	201.500000
852.741577	198.000000
852.775269	188.800000
852.809021	192.200000
852.842651	194.600000
852.876404	197.600000
852.910034	194.100000
852.943787	196.400000
852.977478	195.800000
853.011108	188.800000
853.044861	189.500000
853.078552	198.000000
853.112183	193.100000
853.145874	192.400000
853.179626	187.100000
853.213257	194.600000
853.246948	189.500000
853.280640	200.400000
853.314270	190.600000
853.347961	199.000000
853.381653	195.000000
853.415283	197.800000
853.448975	188.600000
853.482605	194.900000
853.516296	193.200000
853.549988	189.400000
853.583618	194.400000
853.617310	194.800000
853.651001	192.500000
853.684631	191.200000
853.718323	189.600000
853.751953	199.900000
853.785583	186.100000
853.819275	196.600000
853.852966	193.900000
853.886536	187.500000
853.920227	187.300000
853.953918	195.900000
853.987488	189.200000
854.021179	195.500000
854.054749	197.400000
854.088440	194.300000
854.122131	188.100000
854.155701	193.800000
854.189331	187.700000
854.223022	194.100000
854.256592	194.200000
854.290283	189.900000
854.323914	194.300000
854.357483	193.000000
854.391174	194.800000
854.424744	200.100000
854.458374	193.200000
854.492065	203.500000
854.525696	196.700000
854.559265	198.300000
854.592896	203.600000
854.626465	191.400000
854.660095	193.200000
854.693787	194.600000
854.727356	192.400000
854.760986	196.200000
854.794617	195.600000
854.828186	191.400000
854.861816	194.500000
854.895447	192.900000
854.929016	193.700000
854.962585	193.100000
854.996155	200.300000
855.029785	193.400000
855.063416	194.300000
855.097046	195.000000
855.130615	190.300000
855.164185	197.600000
855.197754	194.000000
855.231384	193.400000
855.264954	191.600000
855.298523	195.100000
855.332153	192.800000
855.365723	196.700000
855.399292	191.400000
855.432922	191.100000
855.466492	194.200000
855.500061	190.200000
855.533630	190.300000
855.567200	194.400000
855.600769	195.900000
855.634338	196.800000
855.667969	193.700000
855.701477	189.300000
855.735046	189.500000
855.768616	187.400000
855.802185	193.500000
855.835754	204.300000
855.869324	187.400000
855.902893	191.900000
855.936401	196.900000
855.969971	192.800000
856.003540	188.600000
856.037109	195.300000
856.070618	190.700000
856.104187	188.800000
856.137695	189.500000
856.171265	186.900000
856.204834	194.100000
856.238403	196.100000
856.271912	190.200000
856.305481	195.300000
856.338989	189.100000
856.372559	195.600000
856.406128	194.000000
856.439636	196.200000
856.473145	190.700000
856.506653	199.700000
856.540222	191.700000
856.573792	197.300000
856.607300	196.200000
856.640808	188.900000
856.674377	191.900000
856.707825	225.900000
856.741394	196.000000
856.774902	189.800000
856.808472	185.500000
856.841980	195.300000
856.875488	197.400000
856.908936	186.900000
856.942505	190.400000
856.976013	190.700000
857.009521	188.200000
857.043030	192.400000
857.076477	193.100000
857.110046	199.200000
857.143555	193.200000
857.177063	193.900000
857.210571	190.800000
857.244080	188.200000
857.277527	194.000000
857.311035	191.300000
857.344543	197.300000
857.378052	191.400000
857.411499	198.200000
857.445068	198.900000
857.478516	191.200000
857.512024	188.100000
857.545532	192.200000
857.578979	193.800000
857.612427	195.100000
857.645874	189.700000
857.679382	194.300000
857.712891	197.600000
857.746399	192.100000
857.779846	197.000000
857.813354	197.400000
857.846741	192.300000
857.880249	190.300000
857.913757	193.100000
857.947266	195.200000
857.980652	193.800000
858.014160	192.100000
858.047546	190.000000
858.081055	191.500000
858.114563	201.600000
858.147949	189.000000
858.181458	194.000000
858.214844	192.800000
858.248352	187.300000
858.281799	194.900000
858.315308	201.500000
858.348694	195.000000
858.382141	199.400000
858.415588	195.300000
858.449036	195.400000
858.482483	193.400000
858.515930	190.400000
858.549377	191.600000
858.582825	197.500000
858.616211	194.800000
858.649658	194.400000
858.683105	187.300000
858.716553	190.600000
858.750000	188.600000
858.783386	191.900000
858.816833	187.000000
858.850281	194.900000
858.883728	193.400000
858.917114	194.000000
858.950562	200.600000
858.983948	200.400000
859.017395	196.300000
859.050781	191.900000
859.084167	189.200000
859.117615	191.100000
859.151062	194.700000
859.184448	189.700000
859.217834	190.900000
859.251282	192.100000
859.284668	188.300000
859.318054	187.300000
859.351440	191.100000
859.384888	200.000000
859.418274	186.200000
859.451721	185.600000
859.485046	193.800000
859.518494	194.100000
859.551819	188.800000
859.585266	194.800000
859.618652	196.000000
859.652039	187.800000
859.685425	187.400000
859.718811	188.300000
859.752197	184.300000
859.785583	195.600000
859.819031	198.100000
859.852356	194.500000
859.885742	190.000000
859.919067	192.200000
859.952454	190.600000
859.985901	196.300000
860.019287	192.700000
860.052612	0.000000
860.085999	0.000000
860.119324	0.000000
860.152710	0.000000
860.186096	0.000000
860.219421	0.000000
860.252808	0.000000
860.286133	0.000000
860.319519	0.000000
860.352905	0.000000
860.386292	0.000000
860.419617	0.000000
860.452942	0.000000
860.486267	0.000000
860.519653	0.000000
860.553040	0.000000
860.586365	0.000000
860.619690	0.000000
860.653076	0.000000
860.686340	0.000000
860.719727	0.000000
860.753113	0.000000
860.786377	0.000000
860.819763	0.000000
860.853027	0.000000
860.886414	0.000000
860.919739	0.000000
860.953125	0.000000
860.986389	0.000000
861.019714	0.000000
861.053040	0.000000
861.086365	0.000000
861.119690	0.000000
861.153076	0.000000
861.186340	0.000000
861.219666	0.000000
861.252930	0.000000
861.286316	0.000000
861.319641	0.000000
861.352905	0.000000
861.386230	0.000000
861.419495	0.000000
861.452820	0.000000
861.486145	0.000000
861.519470	0.000000
861.552734	0.000000
861.586060	0.000000
861.619324	0.000000
861.652649	0.000000
861.685974	0.000000
861.719238	0.000000
861.752563	0.000000
861.785828	0.000000
861.819092	0.000000
861.852417	0.000000
861.885742	0.000000
861.918945	0.000000
861.952271	0.000000
861.985535	0.000000
862.018799	0.000000
862.052124	0.000000
862.085449	0.000000
862.118652	0.000000
862.151978	0.000000
862.185181	0.000000
862.218506	0.000000
862.251770	0.000000
862.285034	0.000000
862.318298	0.000000
862.351562	0.000000
862.384827	0.000000
862.418091	0.000000
862.451355	0.000000
862.484619	0.000000
862.517883	0.000000
862.551086	0.000000
862.584351	0.000000
862.617676	0.000000
862.650940	0.000000
862.684143	0.000000
862.717407	0.000000
862.750610	0.000000
862.783875	0.000000
862.817139	0.000000
862.850342	0.000000
862.883606	0.000000
862.916870	0.000000
862.950073	0.000000
862.983337	0.000000
863.016602	0.000000
863.049805	0.000000
863.083069	0.000000
863.116211	0.000000
863.149475	0.000000
863.182739	0.000000
863.216003	0.000000
863.249146	0.000000
863.282410	0.000000
863.315613	0.000000
863.348816	0.000000
863.382080	0.000000
863.415222	0.000000
863.448486	0.000000
863.481689	0.000000
863.514893	0.000000
863.548157	0.000000
863.581360	0.000000
863.614502	0.000000
863.647766	0.000000
863.680908	0.000000
863.714172	0.000000
863.747375	0.000000
863.780579	0.000000
863.813721	0.000000
863.846985	0.000000
863.880127	0.000000
863.913330	0.000000
863.946533	0.000000
863.979675	0.000000
864.012939	0.000000
