Model Number: SPM-001-M   
Serial Number: 10090201
Firmware Version: 004.17.6
Exposure Time: 300000.000000us
Data Taken on: 21-01-2021 14:55:41.262
Wavelength	Amplitude
733.770752	0.000000
733.808716	0.000000
733.846619	0.000000
733.884583	0.000000
733.922546	0.000000
733.960449	0.000000
733.998413	0.000000
734.036377	0.000000
734.074219	0.000000
734.112183	0.000000
734.150085	0.000000
734.188049	0.000000
734.226013	0.000000
734.263916	0.000000
734.301819	0.000000
734.339783	0.000000
734.377686	0.000000
734.415588	0.000000
734.453552	0.000000
734.491455	0.000000
734.529419	0.000000
734.567322	0.000000
734.605225	0.000000
734.643127	0.000000
734.681091	0.000000
734.718994	0.000000
734.756897	0.000000
734.794800	0.000000
734.832703	0.000000
734.870667	0.000000
734.908508	0.000000
734.946472	0.000000
734.984375	0.000000
735.022278	0.000000
735.060181	0.000000
735.098083	0.000000
735.135986	0.000000
735.173889	0.000000
735.211792	0.000000
735.249695	0.000000
735.287598	0.000000
735.325439	0.000000
735.363403	0.000000
735.401306	0.000000
735.439148	0.000000
735.477051	0.000000
735.515015	0.000000
735.552856	0.000000
735.590759	0.000000
735.628662	0.000000
735.666504	0.000000
735.704407	0.000000
735.742310	0.000000
735.780212	0.000000
735.818115	0.000000
735.856018	0.000000
735.893860	0.000000
735.931763	0.000000
735.969604	0.000000
736.007507	0.000000
736.045410	0.000000
736.083252	0.000000
736.121094	0.000000
736.158997	0.000000
736.196838	0.000000
736.234741	0.000000
736.272644	0.000000
736.310486	0.000000
736.348389	0.000000
736.386230	0.000000
736.424072	0.000000
736.461975	0.000000
736.499878	0.000000
736.537720	0.000000
736.575562	0.000000
736.613403	0.000000
736.651306	0.000000
736.689148	0.000000
736.726990	0.000000
736.764893	0.000000
736.802734	0.000000
736.840576	0.000000
736.878418	0.000000
736.916321	0.000000
736.954102	0.000000
736.992004	0.000000
737.029846	0.000000
737.067688	0.000000
737.105530	0.000000
737.143372	0.000000
737.181213	0.000000
737.219116	0.000000
737.256897	0.000000
737.294739	0.000000
737.332642	0.000000
737.370422	0.000000
737.408325	0.000000
737.446167	0.000000
737.483948	0.000000
737.521790	0.000000
737.559692	0.000000
737.597473	0.000000
737.635315	0.000000
737.673157	0.000000
737.710999	0.000000
737.748840	0.000000
737.786621	0.000000
737.824463	0.000000
737.862305	0.000000
737.900085	0.000000
737.937927	0.000000
737.975769	0.000000
738.013550	0.000000
738.051392	0.000000
738.089233	0.000000
738.127014	0.000000
738.164856	0.000000
738.202698	0.000000
738.240479	0.000000
738.278320	0.000000
738.316162	0.000000
738.353943	0.000000
738.391785	0.000000
738.429565	0.000000
738.467407	0.000000
738.505188	0.000000
738.542969	0.000000
738.580811	0.000000
738.618652	0.000000
738.656372	0.000000
738.694214	0.000000
738.732056	0.000000
738.769836	0.000000
738.807617	0.000000
738.845459	0.000000
738.883240	0.000000
738.921021	0.000000
738.958862	0.000000
738.996582	0.000000
739.034424	0.000000
739.072205	0.000000
739.109985	0.000000
739.147827	0.000000
739.185547	0.000000
739.223389	0.000000
739.261169	0.000000
739.298889	0.000000
739.336731	0.000000
739.374512	0.000000
739.412292	0.000000
739.450073	0.000000
739.487854	0.000000
739.525635	0.000000
739.563416	0.000000
739.601135	0.000000
739.638977	0.000000
739.676758	0.000000
739.714478	0.000000
739.752258	0.000000
739.790100	0.000000
739.827820	0.000000
739.865601	0.000000
739.903381	0.000000
739.941101	0.000000
739.978882	193.500000
740.016724	189.100000
740.054443	193.500000
740.092224	189.600000
740.130005	189.200000
740.167725	188.800000
740.205505	189.800000
740.243225	196.800000
740.281006	191.400000
740.318787	185.300000
740.356506	197.000000
740.394287	194.400000
740.432068	188.700000
740.469727	186.800000
740.507507	193.500000
740.545288	190.700000
740.583008	192.800000
740.620789	191.400000
740.658569	184.700000
740.696228	191.900000
740.734009	194.700000
740.771790	184.000000
740.809509	192.600000
740.847229	187.200000
740.884949	189.300000
740.922729	187.000000
740.960449	190.100000
740.998169	188.100000
741.035950	187.100000
741.073669	191.600000
741.111389	193.800000
741.149170	199.700000
741.186890	198.500000
741.224609	194.400000
741.262329	191.400000
741.300110	197.000000
741.337769	188.600000
741.375549	185.400000
741.413208	192.200000
741.450989	188.600000
741.488708	188.400000
741.526367	188.800000
741.564148	195.000000
741.601868	193.400000
741.639526	190.400000
741.677307	191.700000
741.715027	193.600000
741.752686	187.200000
741.790466	194.900000
741.828186	192.100000
741.865845	188.500000
741.903564	186.900000
741.941345	191.900000
741.979004	188.000000
742.016724	195.800000
742.054382	192.300000
742.092102	193.900000
742.129822	186.000000
742.167480	189.800000
742.205200	189.300000
742.242920	193.600000
742.280640	194.400000
742.318359	189.200000
742.356079	190.600000
742.393738	193.600000
742.431396	189.700000
742.469116	195.000000
742.506775	184.500000
742.544495	192.300000
742.582214	194.300000
742.619873	190.500000
742.657593	196.300000
742.695251	195.500000
742.732971	190.400000
742.770630	194.300000
742.808289	192.500000
742.846008	192.000000
742.883728	192.500000
742.921326	191.200000
742.959045	188.500000
742.996765	190.500000
743.034424	192.000000
743.072083	189.100000
743.109802	189.800000
743.147400	187.000000
743.185120	190.900000
743.222839	190.300000
743.260437	195.900000
743.298157	191.400000
743.335754	184.800000
743.373474	190.500000
743.411133	186.000000
743.448792	191.000000
743.486450	192.700000
743.524170	185.100000
743.561768	190.200000
743.599487	195.100000
743.637146	200.600000
743.674744	190.400000
743.712463	189.700000
743.750122	192.200000
743.787720	193.200000
743.825439	189.000000
743.863037	190.900000
743.900696	190.900000
743.938416	217.900000
743.976013	190.200000
744.013672	198.600000
744.051331	195.900000
744.088928	197.700000
744.126587	195.400000
744.164307	193.000000
744.201904	188.600000
744.239563	192.600000
744.277222	193.200000
744.314819	191.200000
744.352478	195.900000
744.390137	193.300000
744.427734	191.100000
744.465393	188.400000
744.502991	188.600000
744.540649	194.100000
744.578308	190.600000
744.615906	188.100000
744.653564	183.400000
744.691223	193.000000
744.728821	185.100000
744.766418	190.800000
744.804077	191.700000
744.841675	189.200000
744.879333	186.400000
744.916992	190.300000
744.954529	189.200000
744.992187	195.900000
745.029785	190.800000
745.067444	189.000000
745.105042	192.200000
745.142639	192.500000
745.180298	198.900000
745.217896	190.500000
745.255493	189.800000
745.293152	194.100000
745.330750	196.500000
745.368347	196.200000
745.405945	194.100000
745.443604	192.000000
745.481140	194.900000
745.518799	191.300000
745.556396	195.700000
745.593994	193.400000
745.631592	192.900000
745.669189	186.900000
745.706787	192.500000
745.744385	189.800000
745.781982	195.000000
745.819580	187.200000
745.857178	191.600000
745.894775	191.000000
745.932373	192.900000
745.969971	192.500000
746.007568	185.300000
746.045166	197.200000
746.082764	195.400000
746.120300	192.400000
746.157898	192.800000
746.195557	191.700000
746.233093	186.700000
746.270691	192.900000
746.308228	192.300000
746.345825	194.700000
746.383423	193.300000
746.420959	187.500000
746.458557	189.600000
746.496155	189.500000
746.533691	192.400000
746.571289	188.400000
746.608887	191.300000
746.646423	193.000000
746.684021	192.800000
746.721619	188.700000
746.759155	193.300000
746.796753	185.600000
746.834351	185.700000
746.871826	188.800000
746.909424	196.300000
746.946960	190.800000
746.984558	191.500000
747.022156	190.200000
747.059631	197.700000
747.097229	192.900000
747.134827	189.600000
747.172363	195.300000
747.209900	193.500000
747.247498	188.800000
747.285034	195.500000
747.322571	197.400000
747.360168	190.400000
747.397644	185.600000
747.435242	195.100000
747.472778	196.300000
747.510315	189.100000
747.547913	190.000000
747.585388	195.700000
747.622925	189.100000
747.660522	186.000000
747.697998	189.500000
747.735596	190.400000
747.773132	189.900000
747.810669	191.800000
747.848206	193.500000
747.885742	189.200000
747.923279	186.800000
747.960815	192.400000
747.998352	192.200000
748.035889	195.700000
748.073425	193.700000
748.110901	189.600000
748.148437	188.200000
748.185974	192.000000
748.223511	197.500000
748.261047	193.300000
748.298584	192.000000
748.336060	191.600000
748.373596	193.800000
748.411133	216.400000
748.448608	188.700000
748.486145	194.200000
748.523682	194.500000
748.561218	198.800000
748.598755	192.200000
748.636292	193.300000
748.673706	190.400000
748.711243	198.100000
748.748718	192.800000
748.786255	192.100000
748.823792	191.800000
748.861267	187.200000
748.898804	193.700000
748.936340	192.300000
748.973816	189.400000
749.011292	196.400000
749.048828	192.400000
749.086304	192.600000
749.123840	200.200000
749.161316	188.300000
749.198792	198.900000
749.236328	196.200000
749.273743	192.300000
749.311279	190.800000
749.348816	194.300000
749.386230	191.700000
749.423767	182.200000
749.461304	195.700000
749.498718	193.600000
749.536255	195.300000
749.573730	200.300000
749.611206	198.000000
749.648682	190.500000
749.686218	191.200000
749.723633	195.100000
749.761169	190.000000
749.798645	189.200000
749.836060	189.600000
749.873596	188.700000
749.911011	193.500000
749.948547	196.500000
749.986023	191.300000
750.023437	190.600000
750.060913	186.800000
750.098450	186.600000
750.135864	189.700000
750.173340	192.000000
750.210815	196.200000
750.248291	189.400000
750.285767	191.400000
750.323242	195.800000
750.360657	193.600000
750.398132	187.300000
750.435608	193.900000
750.473022	188.800000
750.510498	189.400000
750.547974	188.100000
750.585449	191.500000
750.622925	183.400000
750.660339	200.400000
750.697815	191.800000
750.735291	191.100000
750.772644	189.900000
750.810120	191.000000
750.847595	193.700000
750.885010	187.700000
750.922485	197.000000
750.959961	191.200000
750.997375	196.000000
751.034851	194.200000
751.072266	194.700000
751.109680	187.100000
751.147156	197.000000
751.184570	193.100000
751.221985	191.300000
751.259460	186.000000
751.296875	192.600000
751.334290	191.600000
751.371765	194.800000
751.409180	195.000000
751.446594	197.200000
751.484070	193.200000
751.521423	191.700000
751.558899	191.600000
751.596375	199.300000
751.633728	196.800000
751.671204	199.800000
751.708618	188.700000
751.746033	192.600000
751.783447	186.900000
751.820801	188.100000
751.858276	194.600000
751.895691	192.600000
751.933105	190.500000
751.970520	187.500000
752.007935	189.200000
752.045349	195.900000
752.082764	190.100000
752.120178	189.800000
752.157532	189.200000
752.195007	189.400000
752.232422	193.000000
752.269775	195.600000
752.307190	193.400000
752.344543	187.100000
752.382019	191.900000
752.419434	191.000000
752.456787	194.600000
752.494202	195.800000
752.531616	194.100000
752.568970	193.500000
752.606384	193.400000
752.643799	194.100000
752.681152	198.400000
752.718567	194.600000
752.755981	186.200000
752.793335	194.300000
752.830750	186.700000
752.868164	196.400000
752.905518	187.600000
752.942932	195.100000
752.980225	188.000000
753.017639	194.000000
753.055054	195.700000
753.092407	192.300000
753.129822	194.800000
753.167175	199.500000
753.204529	190.900000
753.241943	189.600000
753.279358	187.700000
753.316650	193.600000
753.354065	193.600000
753.391479	196.200000
753.428772	197.300000
753.466187	193.600000
753.503479	187.800000
753.540894	191.000000
753.578308	187.500000
753.615601	187.900000
753.653015	191.800000
753.690369	190.600000
753.727722	189.400000
753.765076	186.200000
753.802490	187.900000
753.839783	185.600000
753.877136	189.600000
753.914551	200.100000
753.951843	191.200000
753.989258	195.100000
754.026611	192.300000
754.063904	194.300000
754.101257	188.700000
754.138611	185.000000
754.175964	192.900000
754.213318	199.900000
754.250610	186.300000
754.288025	190.800000
754.325378	186.900000
754.362671	195.200000
754.400024	191.500000
754.437378	199.000000
754.474670	198.800000
754.512085	189.800000
754.549438	193.400000
754.586731	188.800000
754.624084	192.800000
754.661438	189.100000
754.698730	199.000000
754.736084	191.300000
754.773376	191.500000
754.810730	192.900000
754.848083	192.300000
754.885315	195.500000
754.922668	186.500000
754.960022	188.800000
754.997314	196.000000
755.034668	192.100000
755.072021	192.500000
755.109253	189.800000
755.146606	196.800000
755.183960	190.400000
755.221252	198.500000
755.258545	194.300000
755.295898	195.600000
755.333191	196.700000
755.370544	193.400000
755.407776	190.900000
755.445129	193.000000
755.482422	195.500000
755.519714	190.500000
755.557068	187.800000
755.594360	186.500000
755.631653	195.100000
755.668945	198.500000
755.706299	193.000000
755.743530	201.400000
755.780884	199.500000
755.818176	194.500000
755.855408	197.400000
755.892761	195.300000
755.930054	194.300000
755.967346	195.200000
756.004639	194.400000
756.041870	193.400000
756.079224	196.500000
756.116516	191.000000
756.153748	196.600000
756.191040	200.600000
756.228394	194.600000
756.265625	189.800000
756.302917	193.700000
756.340210	191.400000
756.377441	197.300000
756.414795	198.100000
756.452087	193.600000
756.489319	188.000000
756.526611	197.700000
756.563843	193.300000
756.601135	200.000000
756.638428	201.000000
756.675659	193.200000
756.712952	198.400000
756.750244	196.100000
756.787476	194.900000
756.824768	197.900000
756.862061	193.700000
756.899292	241.800000
756.936584	196.300000
756.973816	202.600000
757.011047	203.400000
757.048340	195.300000
757.085632	195.700000
757.122864	209.200000
757.160156	192.500000
757.197327	196.000000
757.234619	199.700000
757.271912	194.300000
757.309082	198.700000
757.346375	193.100000
757.383667	199.900000
757.420837	196.100000
757.458130	197.400000
757.495422	194.100000
757.532593	198.800000
757.569885	191.200000
757.607117	192.600000
757.644348	197.400000
757.681580	208.500000
757.718811	187.600000
757.756042	197.200000
757.793335	192.800000
757.830505	197.900000
757.867798	195.000000
757.905029	193.600000
757.942200	196.000000
757.979492	195.500000
758.016724	195.100000
758.053894	195.200000
758.091187	209.400000
758.128418	195.400000
758.165588	196.100000
758.202820	205.500000
758.240112	198.300000
758.277283	204.600000
758.314514	197.300000
758.351685	195.100000
758.388916	203.400000
758.426147	202.100000
758.463379	204.300000
758.500610	200.500000
758.537842	198.800000
758.575012	203.500000
758.612244	195.500000
758.649475	207.900000
758.686646	194.800000
758.723877	204.300000
758.761108	203.800000
758.798279	198.700000
758.835510	201.000000
758.872742	205.300000
758.909851	202.200000
758.947083	202.200000
758.984253	201.300000
759.021484	203.300000
759.058716	202.600000
759.095886	205.300000
759.133057	201.500000
759.170288	203.800000
759.207458	199.100000
759.244690	209.000000
759.281860	205.100000
759.319031	202.400000
759.356262	199.300000
759.393433	199.200000
759.430603	200.400000
759.467773	199.500000
759.505005	206.300000
759.542175	207.400000
759.579346	200.300000
759.616516	201.000000
759.653687	204.300000
759.690918	199.600000
759.728027	201.900000
759.765259	204.800000
759.802429	205.700000
759.839539	203.500000
759.876770	206.800000
759.913940	209.200000
759.951111	203.500000
759.988281	204.400000
760.025452	201.000000
760.062561	200.900000
760.099792	211.900000
760.136963	206.500000
760.174072	202.800000
760.211243	201.400000
760.248413	201.400000
760.285583	201.500000
760.322754	211.800000
760.359863	210.900000
760.397034	209.900000
760.434204	205.700000
760.471375	204.900000
760.508545	204.600000
760.545715	205.500000
760.582825	203.100000
760.619995	208.200000
760.657166	202.900000
760.694275	211.000000
760.731445	208.400000
760.768555	206.600000
760.805664	210.300000
760.842834	207.200000
760.879944	210.000000
760.917114	208.700000
760.954285	205.900000
760.991394	201.700000
761.028564	211.500000
761.065674	208.000000
761.102783	205.200000
761.139954	212.100000
761.177124	211.000000
761.214172	212.700000
761.251343	206.100000
761.288452	206.900000
761.325562	211.200000
761.362732	204.500000
761.399841	206.500000
761.436951	210.000000
761.474121	205.800000
761.511169	207.900000
761.548340	212.200000
761.585449	212.300000
761.622559	213.300000
761.659668	210.600000
761.696838	214.200000
761.733887	210.900000
761.771057	209.500000
761.808167	211.000000
761.845276	215.100000
761.882385	221.100000
761.919434	212.900000
761.956604	227.200000
761.993713	209.700000
762.030762	215.400000
762.067871	212.600000
762.105042	213.300000
762.142090	218.500000
762.179199	213.300000
762.216309	217.000000
762.253418	225.400000
762.290527	219.800000
762.327637	216.300000
762.364685	210.500000
762.401794	218.000000
762.438904	217.200000
762.475952	212.800000
762.513062	210.300000
762.550110	211.400000
762.587219	222.200000
762.624329	222.700000
762.661377	217.700000
762.698486	217.100000
762.735596	215.700000
762.772644	213.400000
762.809753	209.900000
762.846863	215.000000
762.883911	219.700000
762.921021	218.600000
762.958069	217.300000
762.995117	222.500000
763.032227	222.800000
763.069336	215.900000
763.106323	214.900000
763.143433	212.700000
763.180481	218.000000
763.217590	220.600000
763.254639	218.700000
763.291687	217.300000
763.328735	225.400000
763.365845	219.000000
763.402893	216.800000
763.439941	219.100000
763.477051	224.500000
763.514038	222.500000
763.551147	219.600000
763.588196	221.400000
763.625244	220.200000
763.662292	227.000000
763.699402	229.100000
763.736389	223.700000
763.773499	231.600000
763.810486	225.700000
763.847534	223.300000
763.884644	225.100000
763.921631	221.900000
763.958679	230.000000
763.995728	223.700000
764.032776	231.300000
764.069824	220.600000
764.106873	229.100000
764.143860	231.900000
764.180969	224.900000
764.218018	231.000000
764.255005	226.700000
764.292053	226.900000
764.329102	235.500000
764.366089	235.200000
764.403137	233.500000
764.440125	225.900000
764.477173	229.100000
764.514221	231.800000
764.551208	230.100000
764.588257	227.600000
764.625305	234.600000
764.662292	238.700000
764.699341	239.600000
764.736389	234.400000
764.773376	246.500000
764.810425	237.300000
764.847473	242.000000
764.884399	238.300000
764.921448	244.400000
764.958435	241.800000
764.995483	237.000000
765.032532	248.600000
765.069458	238.500000
765.106506	240.400000
765.143555	238.800000
765.180481	241.100000
765.217529	248.800000
765.254578	235.900000
765.291504	245.200000
765.328552	241.300000
765.365540	239.100000
765.402527	250.100000
765.439575	241.200000
765.476501	238.200000
765.513550	238.000000
765.550537	244.200000
765.587463	248.800000
765.624512	241.300000
765.661499	236.100000
765.698486	248.100000
765.735474	239.900000
765.772461	242.600000
765.809448	250.300000
765.846436	246.400000
765.883423	251.400000
765.920410	247.300000
765.957397	242.700000
765.994385	247.300000
766.031311	255.700000
766.068359	250.800000
766.105286	248.900000
766.142273	255.400000
766.179260	249.700000
766.216187	246.600000
766.253174	245.800000
766.290161	250.700000
766.327148	253.100000
766.364136	254.400000
766.401123	263.900000
766.438049	248.800000
766.475037	257.700000
766.512024	256.400000
766.548950	267.200000
766.585937	263.700000
766.622864	259.200000
766.659790	259.000000
766.696777	250.100000
766.733704	259.700000
766.770691	256.600000
766.807678	264.800000
766.844604	259.000000
766.881531	260.800000
766.918518	264.000000
766.955444	264.600000
766.992432	260.000000
767.029358	264.800000
767.066284	265.600000
767.103271	263.800000
767.140198	293.800000
767.177124	273.300000
767.214050	265.300000
767.251038	267.600000
767.287964	263.700000
767.324890	263.100000
767.361816	265.800000
767.398743	270.100000
767.435730	265.100000
767.472595	268.800000
767.509583	272.100000
767.546509	264.600000
767.583374	270.200000
767.620361	262.200000
767.657288	267.400000
767.694214	268.800000
767.731140	267.100000
767.768066	268.800000
767.804993	272.700000
767.841919	265.100000
767.878845	272.000000
767.915710	276.200000
767.952698	269.700000
767.989563	272.300000
768.026489	273.400000
768.063416	268.300000
768.100281	269.600000
768.137207	279.300000
768.174133	276.300000
768.211060	275.700000
768.247986	274.000000
768.284912	273.400000
768.321777	275.400000
768.358704	271.800000
768.395630	277.800000
768.432495	271.600000
768.469421	278.300000
768.506348	279.900000
768.543152	285.100000
768.580078	280.400000
768.616943	283.300000
768.653870	284.600000
768.690796	284.500000
768.727661	283.200000
768.764587	283.400000
768.801453	278.700000
768.838318	286.600000
768.875244	283.100000
768.912109	288.300000
768.948975	284.500000
768.985901	286.600000
769.022766	283.400000
769.059631	288.300000
769.096558	285.200000
769.133362	286.100000
769.170288	286.500000
769.207214	288.100000
769.244019	291.300000
769.280945	290.400000
769.317810	296.000000
769.354675	290.400000
769.391541	298.400000
769.428406	296.000000
769.465271	302.900000
769.502136	295.500000
769.539062	301.200000
769.575867	298.500000
769.612732	299.500000
769.649597	303.400000
769.686462	303.400000
769.723328	300.200000
769.760193	299.300000
769.797058	300.900000
769.833923	309.700000
769.870728	304.200000
769.907593	308.300000
769.944519	307.500000
769.981323	310.700000
770.018188	309.400000
770.055054	309.700000
770.091858	310.600000
770.128723	316.200000
770.165588	319.600000
770.202393	311.500000
770.239258	321.400000
770.276062	316.300000
770.312927	318.800000
770.349792	324.400000
770.386597	320.400000
770.423462	329.500000
770.460327	335.100000
770.497131	322.500000
770.533997	320.200000
770.570862	330.100000
770.607605	333.700000
770.644470	329.600000
770.681335	329.000000
770.718140	332.100000
770.754944	327.800000
770.791809	326.700000
770.828613	328.900000
770.865479	332.400000
770.902222	339.500000
770.939087	333.300000
770.975952	328.800000
771.012695	331.000000
771.049561	343.800000
771.086365	336.800000
771.123169	334.600000
771.159973	334.200000
771.196838	334.500000
771.233582	338.300000
771.270447	336.900000
771.307251	342.100000
771.344055	341.600000
771.380859	342.500000
771.417664	341.400000
771.454468	346.700000
771.491272	345.300000
771.528076	346.700000
771.564880	343.400000
771.601685	348.700000
771.638428	345.200000
771.675293	349.100000
771.712097	341.400000
771.748840	355.100000
771.785645	348.000000
771.822449	352.100000
771.859253	354.400000
771.896057	353.000000
771.932861	363.100000
771.969604	358.800000
772.006409	350.100000
772.043213	361.200000
772.079956	357.900000
772.116760	351.100000
772.153503	354.600000
772.190308	365.600000
772.227112	357.300000
772.263855	356.300000
772.300659	359.100000
772.337463	366.100000
772.374207	356.000000
772.411011	355.500000
772.447754	358.700000
772.484497	371.500000
772.521301	363.800000
772.558105	364.600000
772.594849	363.200000
772.631592	367.100000
772.668396	364.700000
772.705139	368.900000
772.741882	366.900000
772.778625	374.900000
772.815430	378.700000
772.852173	375.300000
772.888916	381.700000
772.925720	380.500000
772.962463	388.500000
772.999207	382.400000
773.035950	385.300000
773.072754	385.200000
773.109436	379.200000
773.146240	382.100000
773.182922	379.500000
773.219727	385.200000
773.256470	385.500000
773.293152	376.200000
773.329956	383.000000
773.366699	388.200000
773.403381	379.800000
773.440186	384.300000
773.476929	386.300000
773.513611	382.900000
773.550354	382.600000
773.587158	383.600000
773.623840	383.200000
773.660583	386.200000
773.697327	397.800000
773.734009	390.600000
773.770813	387.900000
773.807495	385.900000
773.844238	388.200000
773.880981	400.000000
773.917664	395.900000
773.954407	404.000000
773.991150	393.700000
774.027832	398.300000
774.064575	391.900000
774.101318	396.900000
774.138000	401.100000
774.174744	398.300000
774.211487	398.600000
774.248108	390.700000
774.284851	389.700000
774.321594	397.900000
774.358276	402.700000
774.395020	409.700000
774.431702	409.800000
774.468384	400.800000
774.505127	399.700000
774.541809	409.300000
774.578491	411.200000
774.615234	413.300000
774.651917	408.400000
774.688599	411.200000
774.725342	416.200000
774.762024	413.500000
774.798706	416.100000
774.835449	418.600000
774.872070	421.700000
774.908813	422.200000
774.945496	422.000000
774.982178	419.700000
775.018860	423.000000
775.055542	424.900000
775.092224	426.500000
775.128967	432.300000
775.165588	432.000000
775.202271	424.600000
775.239014	432.500000
775.275635	433.800000
775.312317	435.200000
775.349060	437.900000
775.385681	438.000000
775.422363	431.800000
775.459045	436.700000
775.495667	440.200000
775.532410	445.400000
775.569092	443.800000
775.605713	441.500000
775.642395	439.900000
775.679016	445.000000
775.715698	447.000000
775.752380	448.500000
775.789001	448.800000
775.825684	449.300000
775.862366	451.400000
775.898987	457.700000
775.935669	450.300000
775.972351	469.000000
776.008972	466.700000
776.045654	468.200000
776.082336	461.500000
776.118958	461.500000
776.155640	465.000000
776.192322	467.900000
776.228882	474.100000
776.265564	476.700000
776.302185	475.800000
776.338867	479.300000
776.375488	471.200000
776.412109	476.700000
776.448792	481.100000
776.485413	490.700000
776.522034	481.000000
776.558716	479.800000
776.595337	482.600000
776.631958	486.900000
776.668579	486.800000
776.705261	496.200000
776.741882	490.500000
776.778503	490.500000
776.815186	489.900000
776.851746	495.000000
776.888367	492.200000
776.924988	504.500000
776.961609	496.900000
776.998291	498.800000
777.034851	492.700000
777.071472	501.500000
777.108154	500.200000
777.144714	513.400000
777.181335	512.600000
777.218018	506.100000
777.254578	509.800000
777.291199	502.800000
777.327759	511.700000
777.364380	520.700000
777.401062	522.100000
777.437622	534.300000
777.474243	524.100000
777.510864	523.400000
777.547424	520.100000
777.584045	526.100000
777.620667	526.600000
777.657227	529.000000
777.693848	525.000000
777.730469	537.700000
777.767029	526.500000
777.803650	535.000000
777.840271	533.500000
777.876831	531.600000
777.913452	539.700000
777.950012	525.200000
777.986633	524.300000
778.023193	525.800000
778.059753	523.100000
778.096375	528.400000
778.132996	540.800000
778.169556	533.800000
778.206116	532.900000
778.242737	529.100000
778.279297	538.300000
778.315857	530.300000
778.352478	534.400000
778.389038	538.500000
778.425598	542.800000
778.462219	548.900000
778.498718	544.800000
778.535339	549.800000
778.571838	551.100000
778.608459	556.500000
778.645020	544.800000
778.681580	552.800000
778.718140	547.900000
778.754761	544.100000
778.791260	553.600000
778.827881	558.500000
778.864441	560.800000
778.900940	566.900000
778.937561	565.800000
778.974121	562.000000
779.010620	559.500000
779.047241	557.400000
779.083801	563.600000
779.120300	565.700000
779.156860	567.200000
779.193359	562.100000
779.229980	564.900000
779.266541	568.000000
779.303040	571.400000
779.339600	566.500000
779.376160	562.500000
779.412659	564.800000
779.449219	561.500000
779.485779	566.200000
779.522278	566.600000
779.558838	570.800000
779.595398	573.000000
779.631897	566.900000
779.668457	559.200000
779.705017	564.800000
779.741516	553.700000
779.778076	552.300000
779.814575	553.900000
779.851074	558.000000
779.887634	553.700000
779.924133	555.200000
779.960693	541.100000
779.997253	544.200000
780.033691	550.900000
780.070251	548.300000
780.106812	551.700000
780.143250	545.100000
780.179810	538.500000
780.216370	533.500000
780.252808	532.900000
780.289368	535.000000
780.325867	534.100000
780.362366	521.600000
780.398865	529.600000
780.435364	519.900000
780.471863	523.100000
780.508423	516.900000
780.544861	519.600000
780.581421	510.500000
780.617920	499.400000
780.654419	495.700000
780.690918	490.100000
780.727417	494.400000
780.763916	492.100000
780.800415	494.300000
780.836914	479.100000
780.873352	483.700000
780.909912	470.200000
780.946411	472.000000
780.982849	473.400000
781.019348	478.100000
781.055786	470.700000
781.092346	462.300000
781.128845	463.400000
781.165283	462.100000
781.201782	467.800000
781.238281	466.800000
781.274719	467.700000
781.311218	463.200000
781.347717	468.300000
781.384155	452.000000
781.420654	456.400000
781.457092	463.200000
781.493591	460.000000
781.530090	450.900000
781.566528	451.400000
781.602966	446.900000
781.639465	448.800000
781.675903	446.800000
781.712402	454.100000
781.748901	454.700000
781.785278	448.900000
781.821777	451.800000
781.858276	453.200000
781.894714	461.300000
781.931152	455.700000
781.967651	460.500000
782.004089	458.300000
782.040527	463.600000
782.076965	468.200000
782.113403	469.400000
782.149902	473.700000
782.186340	473.700000
782.222778	484.100000
782.259277	478.400000
782.295654	482.900000
782.332092	491.600000
782.368591	495.600000
782.404968	496.200000
782.441467	501.300000
782.477905	505.700000
782.514282	507.500000
782.550781	522.900000
782.587219	524.800000
782.623596	536.100000
782.660095	540.100000
782.696472	546.000000
782.732910	552.000000
782.769348	558.700000
782.805786	582.700000
782.842224	586.600000
782.878662	587.000000
782.915039	594.300000
782.951477	603.300000
782.987915	604.300000
783.024292	617.300000
783.060730	625.700000
783.097168	623.800000
783.133545	620.700000
783.169983	623.500000
783.206421	628.700000
783.242798	630.500000
783.279236	629.700000
783.315613	636.900000
783.352051	641.700000
783.388489	640.200000
783.424866	640.700000
783.461304	656.500000
783.497681	664.200000
783.534058	662.600000
783.570496	666.300000
783.606934	664.300000
783.643250	671.800000
783.679687	678.600000
783.716125	677.400000
783.752441	693.300000
783.788879	716.000000
783.825317	726.000000
783.861633	727.700000
783.898071	730.500000
783.934448	751.400000
783.970825	759.300000
784.007263	760.100000
784.043579	765.600000
784.080017	772.500000
784.116394	761.400000
784.152710	768.500000
784.189148	776.100000
784.225525	770.600000
784.261902	767.200000
784.298279	765.600000
784.334656	765.100000
784.371033	753.600000
784.407410	758.000000
784.443787	740.800000
784.480164	733.700000
784.516541	720.500000
784.552856	727.000000
784.589233	721.000000
784.625610	715.600000
784.661987	735.400000
784.698364	736.200000
784.734741	729.200000
784.771057	730.500000
784.807434	739.000000
784.843811	752.800000
784.880127	745.400000
784.916504	769.900000
784.952881	774.900000
784.989197	774.500000
785.025574	774.200000
785.061951	779.200000
785.098267	790.000000
785.134644	792.400000
785.170959	787.100000
785.207275	788.900000
785.243652	791.200000
785.279968	779.000000
785.316345	780.100000
785.352722	778.900000
785.388977	778.900000
785.425354	764.900000
785.461731	745.600000
785.498047	733.100000
785.534363	728.000000
785.570679	733.700000
785.606995	735.800000
785.643372	738.500000
785.679687	737.100000
785.716003	722.700000
785.752380	718.000000
785.788635	727.500000
785.825012	743.800000
785.861328	747.800000
785.897644	741.900000
785.933960	754.600000
785.970337	753.700000
786.006592	772.700000
786.042908	780.200000
786.079285	788.700000
786.115540	805.000000
786.151855	811.300000
786.188171	800.400000
786.224487	807.500000
786.260803	800.100000
786.297119	806.200000
786.333435	797.100000
786.369751	795.200000
786.406006	795.400000
786.442322	782.600000
786.478638	772.500000
786.514954	775.600000
786.551270	775.200000
786.587585	786.400000
786.623840	766.200000
786.660156	765.300000
786.696472	756.600000
786.732727	756.400000
786.769043	759.700000
786.805298	747.800000
786.841614	751.800000
786.877930	766.900000
786.914124	761.900000
786.950439	770.000000
786.986755	773.300000
787.023010	788.200000
787.059326	795.300000
787.095642	799.900000
787.131836	809.900000
787.168152	812.200000
787.204468	815.000000
787.240723	825.900000
787.276978	832.600000
787.313293	841.800000
787.349548	838.300000
787.385803	844.700000
787.422058	839.900000
787.458313	832.200000
787.494629	827.000000
787.530823	835.500000
787.567139	817.400000
787.603455	817.500000
787.639648	805.800000
787.675903	808.200000
787.712219	806.600000
787.748413	802.600000
787.784729	807.700000
787.820984	790.500000
787.857178	789.800000
787.893494	784.400000
787.929749	788.800000
787.965942	798.800000
788.002258	810.300000
788.038452	824.000000
788.074707	819.500000
788.110962	830.300000
788.147217	820.400000
788.183472	827.200000
788.219727	837.600000
788.255920	855.100000
788.292175	866.600000
788.328430	861.100000
788.364624	848.100000
788.400879	849.300000
788.437134	854.000000
788.473328	854.700000
788.509583	860.200000
788.545837	856.100000
788.582031	856.000000
788.618286	852.600000
788.654480	849.300000
788.690735	858.600000
788.726990	878.400000
788.763184	877.200000
788.799377	878.200000
788.835632	870.000000
788.871826	881.800000
788.908081	887.400000
788.944336	889.400000
788.980469	894.600000
789.016724	887.200000
789.052979	889.100000
789.089111	866.800000
789.125366	875.700000
789.161621	870.300000
789.197754	881.700000
789.234009	870.700000
789.270142	867.300000
789.306396	864.600000
789.342590	854.900000
789.378784	843.800000
789.414978	841.800000
789.451233	845.500000
789.487366	848.100000
789.523621	860.200000
789.559814	859.700000
789.595947	848.500000
789.632202	853.600000
789.668335	867.400000
789.704529	887.500000
789.740784	897.000000
789.776917	904.700000
789.813110	901.100000
789.849304	907.300000
789.885498	897.800000
789.921692	913.700000
789.957886	917.000000
789.994019	925.500000
790.030212	929.100000
790.066406	937.100000
790.102539	926.400000
790.138733	933.300000
790.174927	925.000000
790.211060	943.400000
790.247253	937.100000
790.283386	932.800000
790.319580	921.800000
790.355774	910.700000
790.391907	912.900000
790.428101	921.600000
790.464294	923.900000
790.500427	924.400000
790.536621	913.400000
790.572754	899.100000
790.608887	887.200000
790.645081	893.400000
790.681274	907.400000
790.717346	912.300000
790.753540	903.400000
790.789734	886.800000
790.825867	866.900000
790.862000	874.000000
790.898132	887.500000
790.934265	891.100000
790.970459	887.500000
791.006592	882.500000
791.042725	879.900000
791.078918	878.800000
791.114990	872.100000
791.151184	873.500000
791.187317	889.200000
791.223389	896.600000
791.259583	883.300000
791.295715	882.400000
791.331848	885.900000
791.367981	891.600000
791.404114	899.100000
791.440247	902.800000
791.476379	903.800000
791.512451	881.200000
791.548584	880.500000
791.584778	873.500000
791.620850	887.500000
791.656982	896.600000
791.693115	893.900000
791.729187	893.900000
791.765381	894.600000
791.801514	891.400000
791.837585	891.000000
791.873718	897.200000
791.909851	899.700000
791.945923	912.600000
791.982056	891.600000
792.018188	886.000000
792.054260	878.800000
792.090393	875.000000
792.126465	872.000000
792.162598	882.900000
792.198669	879.300000
792.234741	876.400000
792.270874	862.500000
792.307007	850.400000
792.343079	855.500000
792.379150	868.100000
792.415283	858.100000
792.451355	860.400000
792.487488	841.800000
792.523560	845.800000
792.559631	835.300000
792.595764	807.500000
792.631836	767.700000
792.667908	744.000000
792.703979	719.300000
792.740051	730.600000
792.776184	769.000000
792.812256	783.200000
792.848328	797.100000
792.884399	807.200000
792.920471	814.000000
792.956543	810.300000
792.992615	813.200000
793.028748	799.700000
793.064758	809.900000
793.100830	832.300000
793.136963	840.800000
793.172974	839.100000
793.209045	835.400000
793.245178	842.000000
793.281189	821.300000
793.317261	831.300000
793.353271	829.500000
793.389404	845.600000
793.425476	840.000000
793.461487	825.000000
793.497559	818.400000
793.533630	818.500000
793.569641	811.600000
793.605713	823.400000
793.641785	831.800000
793.677795	834.800000
793.713867	823.300000
793.749878	834.000000
793.785950	839.400000
793.822021	850.300000
793.858032	841.100000
793.894104	851.700000
793.930176	849.300000
793.966187	850.000000
794.002258	841.600000
794.038269	854.500000
794.074280	858.600000
794.110352	882.500000
794.146423	863.300000
794.182373	855.300000
794.218445	845.800000
794.254517	849.400000
794.290466	835.300000
794.326538	837.800000
794.362549	833.700000
794.398560	837.600000
794.434631	845.400000
794.470581	824.700000
794.506653	816.600000
794.542664	812.200000
794.578674	821.700000
794.614685	822.100000
794.650757	818.200000
794.686707	824.800000
794.722778	820.300000
794.758789	820.600000
794.794739	833.300000
794.830811	850.800000
794.866821	872.500000
794.902771	868.800000
794.938843	869.100000
794.974792	866.300000
795.010803	868.700000
795.046814	870.300000
795.082825	855.700000
795.118835	867.100000
795.154846	848.800000
795.190796	858.200000
795.226807	841.100000
795.262817	845.800000
795.298767	849.500000
795.334778	859.700000
795.370850	842.100000
795.406799	850.400000
795.442810	834.600000
795.478821	836.600000
795.514709	833.400000
795.550720	856.600000
795.586670	835.100000
795.622681	845.800000
795.658691	846.500000
795.694641	839.800000
795.730652	834.000000
795.766663	852.100000
795.802551	851.400000
795.838562	867.900000
795.874573	850.700000
795.910522	849.300000
795.946472	841.900000
795.982483	847.100000
796.018433	845.800000
796.054382	860.600000
796.090393	845.800000
796.126282	839.600000
796.162292	826.400000
796.198242	821.200000
796.234192	822.500000
796.270203	820.200000
796.306091	826.600000
796.342041	836.200000
796.378052	824.600000
796.413940	823.600000
796.449951	826.200000
796.485901	829.800000
796.521790	833.800000
796.557800	850.300000
796.593689	849.200000
796.629639	848.500000
796.665649	841.000000
796.701599	838.600000
796.737488	834.000000
796.773437	840.600000
796.809387	848.300000
796.845337	857.000000
796.881287	842.700000
796.917175	823.700000
796.953125	821.400000
796.989075	830.200000
797.024963	834.100000
797.060913	833.700000
797.096863	830.900000
797.132751	822.700000
797.168701	810.700000
797.204590	815.400000
797.240540	810.000000
797.276489	814.700000
797.312439	826.000000
797.348328	820.600000
797.384277	816.800000
797.420166	810.700000
797.456055	810.100000
797.492004	808.200000
797.527893	813.500000
797.563843	814.700000
797.599731	813.700000
797.635620	805.900000
797.671570	812.000000
797.707520	811.900000
797.743347	809.600000
797.779297	811.800000
797.815125	811.100000
797.851074	807.600000
797.887024	798.600000
797.922913	788.400000
797.958801	789.900000
797.994690	785.200000
798.030579	796.300000
798.066467	807.100000
798.102356	789.200000
798.138245	787.700000
798.174133	781.300000
798.210083	787.100000
798.245911	801.300000
798.281799	798.900000
798.317749	796.500000
798.353577	795.300000
798.389465	786.800000
798.425293	785.900000
798.461243	789.700000
798.497131	789.900000
798.532959	793.400000
798.568848	801.800000
798.604736	785.800000
798.640564	775.800000
798.676453	774.000000
798.712402	773.900000
798.748230	776.400000
798.784119	781.800000
798.820007	784.100000
798.855835	777.000000
798.891724	771.200000
798.927551	763.800000
798.963379	768.500000
798.999268	770.600000
799.035095	760.400000
799.070984	764.700000
799.106873	763.400000
799.142700	759.500000
799.178528	748.900000
799.214417	755.300000
799.250244	760.300000
799.286133	761.600000
799.321960	763.200000
799.357788	749.700000
799.393677	744.900000
799.429504	745.300000
799.465332	744.700000
799.501221	754.700000
799.537048	758.100000
799.572876	750.700000
799.608704	741.400000
799.644531	751.700000
799.680359	756.100000
799.716248	766.100000
799.752014	778.500000
799.787903	770.300000
799.823730	758.900000
799.859558	755.900000
799.895386	756.600000
799.931213	750.100000
799.967041	745.500000
800.002869	746.200000
800.038696	755.800000
800.074463	747.200000
800.110352	749.400000
800.146179	737.300000
800.181946	751.900000
800.217773	761.600000
800.253540	753.100000
800.289429	744.700000
800.325256	741.400000
800.361023	728.600000
800.396851	739.000000
800.432678	744.600000
800.468445	743.200000
800.504272	744.000000
800.540100	734.300000
800.575867	730.800000
800.611694	732.900000
800.647461	726.400000
800.683289	735.600000
800.719116	739.300000
800.754883	734.600000
800.790649	723.700000
800.826477	720.100000
800.862244	730.800000
800.898071	717.900000
800.933838	716.700000
800.969604	722.500000
801.005432	720.900000
801.041199	726.600000
801.076965	718.100000
801.112793	708.600000
801.148560	706.200000
801.184326	706.500000
801.220154	706.400000
801.255859	703.100000
801.291687	699.600000
801.327454	694.000000
801.363281	694.100000
801.398987	688.400000
801.434814	692.900000
801.470520	705.200000
801.506287	694.400000
801.542114	688.300000
801.577820	689.300000
801.613647	687.100000
801.649414	685.700000
801.685120	685.800000
801.720886	692.100000
801.756714	677.700000
801.792419	672.700000
801.828186	666.400000
801.863892	674.900000
801.899719	670.100000
801.935486	670.400000
801.971252	676.400000
802.006958	669.800000
802.042725	666.200000
802.078430	667.900000
802.114197	661.800000
802.149963	672.700000
802.185669	664.400000
802.221436	668.500000
802.257202	664.900000
802.292908	658.300000
802.328674	666.200000
802.364441	666.800000
802.400146	664.100000
802.435913	668.700000
802.471558	662.800000
802.507324	660.400000
802.543091	653.100000
802.578796	671.300000
802.614502	670.800000
802.650269	672.100000
802.685974	657.800000
802.721741	664.100000
802.757446	668.100000
802.793152	661.600000
802.828918	668.600000
802.864624	669.200000
802.900330	663.400000
802.936035	662.600000
802.971802	662.800000
803.007446	652.500000
803.043213	642.500000
803.078857	655.400000
803.114624	645.600000
803.150330	651.200000
803.185974	647.700000
803.221741	643.800000
803.257446	648.700000
803.293152	648.300000
803.328857	648.800000
803.364563	647.500000
803.400208	638.700000
803.435974	646.700000
803.471680	636.800000
803.507324	632.900000
803.543030	640.400000
803.578735	640.300000
803.614441	640.500000
803.650146	650.000000
803.685791	639.500000
803.721497	630.700000
803.757202	624.200000
803.792847	633.500000
803.828552	632.600000
803.864258	628.200000
803.899902	623.100000
803.935608	611.600000
803.971313	614.900000
804.006958	612.900000
804.042664	614.600000
804.078308	614.900000
804.113953	610.700000
804.149658	616.500000
804.185364	606.900000
804.221008	619.700000
804.256714	603.800000
804.292297	599.000000
804.328003	600.500000
804.363708	595.900000
804.399292	596.700000
804.434998	594.000000
804.470703	582.900000
804.506287	599.600000
804.541992	595.900000
804.577637	596.700000
804.613281	586.800000
804.648926	585.900000
804.684570	588.100000
804.720215	579.900000
804.755920	574.700000
804.791565	583.200000
804.827209	585.700000
804.862854	580.400000
804.898437	578.100000
804.934143	580.200000
804.969788	576.100000
805.005371	580.400000
805.041077	578.600000
805.076721	575.900000
805.112305	567.900000
805.147949	569.900000
805.183655	564.800000
805.219238	574.400000
805.254883	569.400000
805.290466	576.100000
805.326111	571.000000
805.361755	563.200000
805.397400	560.300000
805.432983	556.200000
805.468628	553.400000
805.504211	564.900000
805.539856	566.600000
805.575500	566.600000
805.611084	560.000000
805.646729	553.200000
805.682373	554.700000
805.717957	560.800000
805.753601	564.000000
805.789246	558.000000
805.824768	562.200000
805.860413	561.500000
805.895996	551.500000
805.931641	553.400000
805.967224	561.100000
806.002869	550.100000
806.038452	557.300000
806.074036	564.300000
806.109619	550.200000
806.145264	545.700000
806.180847	549.100000
806.216431	545.000000
806.252014	548.500000
806.287659	546.300000
806.323181	554.500000
806.358826	552.900000
806.394409	540.200000
806.429993	535.100000
806.465576	543.700000
806.501160	534.500000
806.536743	529.700000
806.572327	535.600000
806.607910	534.400000
806.643494	534.300000
806.679077	526.600000
806.714661	525.300000
806.750244	525.400000
806.785828	526.500000
806.821350	523.800000
806.856934	528.000000
806.892517	523.900000
806.928101	520.300000
806.963684	522.300000
806.999268	521.400000
807.034790	508.400000
807.070374	515.000000
807.105896	509.100000
807.141479	507.400000
807.177063	513.700000
807.212585	505.800000
807.248169	505.900000
807.283752	508.100000
807.319275	507.200000
807.354858	507.100000
807.390381	502.200000
807.425903	496.800000
807.461487	496.200000
807.497070	491.500000
807.532593	492.000000
807.568115	489.600000
807.603699	490.700000
807.639221	485.600000
807.674744	489.800000
807.710266	491.700000
807.745850	491.100000
807.781372	488.500000
807.816895	487.500000
807.852417	489.200000
807.888000	482.700000
807.923523	479.400000
807.959045	482.600000
807.994629	477.900000
808.030090	478.700000
808.065613	482.300000
808.101135	483.300000
808.136658	480.100000
808.172241	477.800000
808.207764	479.300000
808.243225	475.100000
808.278809	472.700000
808.314270	476.500000
808.349792	464.900000
808.385315	466.800000
808.420837	472.400000
808.456360	472.000000
808.491882	474.400000
808.527344	472.000000
808.562866	479.900000
808.598389	471.000000
808.633850	467.200000
808.669434	460.200000
808.704895	468.500000
808.740417	472.100000
808.775940	468.700000
808.811462	469.400000
808.846924	464.200000
808.882385	462.100000
808.917847	460.700000
808.953369	458.800000
808.988892	454.400000
809.024353	458.700000
809.059875	462.200000
809.095398	459.700000
809.130798	449.900000
809.166321	453.000000
809.201843	452.800000
809.237305	454.900000
809.272766	458.500000
809.308228	449.000000
809.343750	446.400000
809.379211	447.300000
809.414734	448.000000
809.450134	453.300000
809.485657	437.100000
809.521118	444.600000
809.556580	443.500000
809.592102	439.800000
809.627502	441.400000
809.663025	437.700000
809.698486	434.700000
809.733887	431.300000
809.769409	436.800000
809.804871	427.300000
809.840271	428.700000
809.875793	431.400000
809.911194	435.200000
809.946655	426.500000
809.982178	423.500000
810.017639	429.200000
810.053040	426.800000
810.088501	424.900000
810.123901	426.300000
810.159424	419.200000
810.194885	415.200000
810.230286	420.100000
810.265747	415.300000
810.301208	410.600000
810.336609	413.000000
810.372070	406.000000
810.407532	406.400000
810.442932	410.800000
810.478394	412.600000
810.513794	407.100000
810.549255	405.500000
810.584717	402.100000
810.620117	399.500000
810.655518	407.200000
810.690979	401.600000
810.726379	401.000000
810.761841	397.100000
810.797302	391.500000
810.832642	393.200000
810.868103	401.500000
810.903564	392.400000
810.938904	396.800000
810.974365	386.200000
811.009827	390.400000
811.045166	385.000000
811.080627	379.800000
811.115967	383.800000
811.151428	388.800000
811.186829	385.500000
811.222229	383.100000
811.257629	377.500000
811.293091	382.400000
811.328430	387.100000
811.363892	379.800000
811.399292	382.500000
811.434631	378.500000
811.470093	383.200000
811.505493	376.900000
811.540833	374.400000
811.576294	376.900000
811.611694	376.600000
811.647034	374.200000
811.682434	375.600000
811.717773	374.800000
811.753235	378.500000
811.788635	370.100000
811.823975	370.300000
811.859375	378.500000
811.894775	367.400000
811.930115	371.700000
811.965515	370.100000
812.000916	372.200000
812.036255	363.200000
812.071655	369.800000
812.106995	364.000000
812.142395	366.200000
812.177795	370.000000
812.213196	367.400000
812.248474	366.500000
812.283875	362.900000
812.319214	361.700000
812.354614	362.400000
812.390015	358.400000
812.425293	360.100000
812.460693	361.000000
812.496094	355.700000
812.531433	350.300000
812.566772	351.300000
812.602173	354.100000
812.637451	353.900000
812.672852	348.700000
812.708191	354.100000
812.743530	345.800000
812.778931	341.700000
812.814270	342.800000
812.849609	349.300000
812.884949	344.400000
812.920227	337.700000
812.955627	347.500000
812.990967	343.300000
813.026306	339.800000
813.061646	329.200000
813.096985	327.000000
813.132324	324.500000
813.167664	328.200000
813.203003	336.400000
813.238281	325.300000
813.273682	325.700000
813.308960	322.900000
813.344299	323.900000
813.379639	330.500000
813.414978	322.500000
813.450256	322.600000
813.485596	325.800000
813.520874	318.000000
813.556213	321.500000
813.591614	325.100000
813.626831	316.600000
813.662170	318.000000
813.697510	325.300000
813.732788	314.800000
813.768127	317.500000
813.803467	317.300000
813.838745	312.000000
813.874084	315.800000
813.909363	314.300000
813.944641	316.400000
813.979980	306.400000
814.015320	312.100000
814.050598	309.300000
814.085876	308.400000
814.121155	306.900000
814.156494	307.100000
814.191772	306.400000
814.227051	303.400000
814.262390	304.500000
814.297668	301.900000
814.332947	304.700000
814.368225	299.600000
814.403564	299.900000
814.438782	299.000000
814.474121	300.200000
814.509338	297.200000
814.544617	301.800000
814.579956	295.400000
814.615173	306.200000
814.650513	300.700000
814.685791	295.700000
814.721008	299.200000
814.756348	296.300000
814.791626	294.000000
814.826843	295.000000
814.862122	294.000000
814.897400	291.400000
814.932678	291.500000
814.967957	292.100000
815.003235	294.400000
815.038452	291.000000
815.073730	285.900000
815.108948	296.100000
815.144226	292.300000
815.179504	294.400000
815.214722	284.300000
815.250000	284.800000
815.285278	287.700000
815.320496	284.700000
815.355774	286.000000
815.391052	288.900000
815.426270	285.800000
815.461487	284.300000
815.496765	280.700000
815.531982	278.300000
815.567261	280.800000
815.602539	285.400000
815.637695	283.000000
815.672974	283.200000
815.708191	283.600000
815.743408	282.900000
815.778687	275.900000
815.813904	283.000000
815.849121	272.600000
815.884399	273.800000
815.919556	269.800000
815.954834	274.600000
815.990051	275.100000
816.025269	278.300000
816.060486	269.200000
816.095703	268.600000
816.130920	272.500000
816.166199	268.700000
816.201416	272.900000
816.236572	273.900000
816.271851	266.400000
816.307007	271.800000
816.342224	264.000000
816.377441	265.800000
816.412659	261.700000
816.447876	268.000000
816.483093	263.200000
816.518250	265.300000
816.553467	263.000000
816.588745	267.400000
816.623901	258.700000
816.659119	252.600000
816.694275	258.000000
816.729492	255.400000
816.764709	284.800000
816.799927	252.300000
816.835083	256.100000
816.870300	250.100000
816.905457	253.400000
816.940674	255.000000
816.975830	251.400000
817.010986	249.600000
817.046204	250.700000
817.081421	245.800000
817.116577	248.300000
817.151733	251.300000
817.186951	252.000000
817.222107	250.400000
817.257324	251.200000
817.292419	250.500000
817.327637	243.600000
817.362854	246.900000
817.398010	243.800000
817.433167	248.500000
817.468323	244.700000
817.503479	244.900000
817.538635	253.100000
817.573853	247.000000
817.608948	245.100000
817.644165	241.000000
817.679321	240.000000
817.714478	240.500000
817.749634	241.900000
817.784790	250.300000
817.819946	244.600000
817.855103	233.800000
817.890198	239.200000
817.925415	235.500000
817.960571	240.100000
817.995667	241.200000
818.030823	239.900000
818.066040	236.700000
818.101135	237.700000
818.136292	237.200000
818.171448	232.800000
818.206543	235.200000
818.241699	238.100000
818.276855	236.600000
818.311951	233.200000
818.347107	232.600000
818.382263	237.000000
818.417358	239.700000
818.452515	238.400000
818.487610	239.900000
818.522766	230.000000
818.557922	238.200000
818.593018	234.100000
818.628113	232.000000
818.663269	227.600000
818.698364	231.400000
818.733521	228.900000
818.768677	230.000000
818.803711	225.700000
818.838867	225.000000
818.874023	228.500000
818.909058	225.600000
818.944214	225.200000
818.979370	227.700000
819.014404	226.800000
819.049561	221.500000
819.084595	227.600000
819.119751	220.100000
819.154846	227.000000
819.189941	223.600000
819.225037	220.200000
819.260193	215.800000
819.295227	216.700000
819.330322	215.500000
819.365479	214.600000
819.400513	248.600000
819.435608	214.600000
819.470764	211.600000
819.505798	214.500000
819.540894	216.300000
819.575989	214.700000
819.611084	220.200000
819.646179	222.500000
819.681213	218.100000
819.716309	213.900000
819.751404	213.800000
819.786438	218.700000
819.821533	208.100000
819.856628	216.100000
819.891663	215.000000
819.926758	223.800000
819.961853	218.700000
819.996887	212.200000
820.031982	214.800000
820.067017	212.800000
820.102112	244.800000
820.137207	210.300000
820.172302	222.800000
820.207275	208.700000
820.242371	208.100000
820.277405	209.100000
820.312500	211.200000
820.347534	211.100000
820.382568	215.100000
820.417664	207.700000
820.452759	208.300000
820.487732	207.000000
820.522827	208.700000
820.557861	205.600000
820.592896	207.100000
820.627930	207.200000
820.662964	206.400000
820.698059	211.400000
820.733093	206.700000
820.768127	209.600000
820.803162	208.200000
820.838196	204.100000
820.873230	207.100000
820.908264	209.300000
820.943298	204.900000
820.978333	208.700000
821.013367	207.600000
821.048401	209.700000
821.083435	209.900000
821.118469	200.900000
821.153503	209.500000
821.188477	206.800000
821.223511	201.800000
821.258484	204.700000
821.293579	205.200000
821.328613	200.600000
821.363647	203.700000
821.398621	199.700000
821.433655	202.200000
821.468628	214.100000
821.503662	203.200000
821.538696	207.100000
821.573669	199.700000
821.608704	205.600000
821.643677	201.700000
821.678650	205.400000
821.713684	207.700000
821.748718	203.900000
821.783691	202.600000
821.818726	203.300000
821.853638	203.900000
821.888672	202.300000
821.923706	202.100000
821.958618	201.500000
821.993652	201.200000
822.028687	205.400000
822.063599	208.700000
822.098633	203.400000
822.133667	197.500000
822.168579	202.600000
822.203613	202.200000
822.238586	199.700000
822.273560	204.500000
822.308533	200.900000
822.343567	199.000000
822.378479	200.400000
822.413452	200.300000
822.448425	198.800000
822.483398	205.100000
822.518372	205.400000
822.553345	198.900000
822.588318	207.800000
822.623291	199.300000
822.658203	198.500000
822.693237	201.600000
822.728210	197.200000
822.763123	200.200000
822.798096	196.300000
822.833069	198.200000
822.867981	199.500000
822.902954	200.200000
822.937927	201.000000
822.972900	207.500000
823.007874	193.900000
823.042725	203.700000
823.077698	206.900000
823.112671	196.600000
823.147583	199.200000
823.182556	202.500000
823.217529	202.000000
823.252441	198.400000
823.287415	209.800000
823.322388	202.900000
823.357239	199.500000
823.392212	206.900000
823.427185	206.100000
823.462097	197.100000
823.497009	201.700000
823.531982	198.900000
823.566895	199.900000
823.601807	197.500000
823.636719	198.800000
823.671631	202.600000
823.706604	197.300000
823.741455	201.700000
823.776428	193.800000
823.811340	201.600000
823.846252	206.300000
823.881165	206.100000
823.916138	200.100000
823.950989	205.800000
823.985901	198.000000
824.020813	200.200000
824.055725	197.400000
824.090637	194.700000
824.125610	200.200000
824.160461	201.700000
824.195374	199.000000
824.230225	201.600000
824.265198	193.400000
824.300110	197.000000
824.334961	206.800000
824.369873	190.800000
824.404785	199.600000
824.439636	202.000000
824.474548	192.400000
824.509460	191.100000
824.544312	203.100000
824.579224	200.000000
824.614075	199.800000
824.648987	197.100000
824.683899	198.200000
824.718811	195.500000
824.753662	202.200000
824.788574	201.400000
824.823364	200.200000
824.858276	194.100000
824.893188	200.600000
824.928040	201.200000
824.962952	200.700000
824.997803	201.300000
825.032654	199.400000
825.067566	199.500000
825.102417	195.800000
825.137268	197.300000
825.172119	196.900000
825.206970	193.600000
825.241882	196.700000
825.276733	192.700000
825.311646	194.800000
825.346436	191.000000
825.381348	192.600000
825.416138	196.000000
825.450989	193.500000
825.485901	187.800000
825.520691	190.200000
825.555542	190.400000
825.590454	193.900000
825.625244	191.300000
825.660095	200.500000
825.695007	196.700000
825.729797	193.400000
825.764648	190.500000
825.799438	194.000000
825.834290	193.900000
825.869202	189.600000
825.903992	193.800000
825.938843	191.700000
825.973694	189.800000
826.008484	201.900000
826.043335	190.400000
826.078186	186.900000
826.112976	197.000000
826.147827	197.100000
826.182678	201.100000
826.217468	187.200000
826.252319	198.700000
826.287109	189.900000
826.321899	197.400000
826.356750	190.100000
826.391541	189.700000
826.426392	194.300000
826.461182	192.300000
826.495972	188.200000
826.530823	185.300000
826.565613	192.900000
826.600403	188.800000
826.635254	194.000000
826.670044	186.500000
826.704834	187.600000
826.739685	186.800000
826.774475	194.000000
826.809265	192.700000
826.844055	189.700000
826.878906	196.800000
826.913635	193.000000
826.948425	192.500000
826.983215	193.600000
827.018005	193.200000
827.052856	188.900000
827.087585	194.000000
827.122375	184.200000
827.157227	190.400000
827.191956	202.400000
827.226746	188.000000
827.261536	192.900000
827.296265	187.500000
827.331116	189.300000
827.365906	192.300000
827.400635	188.300000
827.435425	185.800000
827.470215	194.000000
827.504944	191.400000
827.539734	195.200000
827.574463	190.200000
827.609253	197.400000
827.644043	190.500000
827.678772	195.000000
827.713562	191.300000
827.748352	190.600000
827.783081	187.900000
827.817871	192.500000
827.852600	187.600000
827.887329	192.300000
827.922119	185.300000
827.956848	195.100000
827.991638	201.300000
828.026367	194.000000
828.061157	190.900000
828.095886	192.200000
828.130615	203.800000
828.165344	184.800000
828.200073	190.700000
828.234863	190.000000
828.269592	190.500000
828.304321	195.100000
828.339111	191.300000
828.373779	189.600000
828.408569	194.400000
828.443298	195.600000
828.477966	188.400000
828.512756	191.100000
828.547424	188.200000
828.582214	189.400000
828.616943	189.400000
828.651672	190.700000
828.686340	193.600000
828.721130	188.500000
828.755798	190.700000
828.790527	191.000000
828.825256	192.900000
828.859924	192.300000
828.894714	196.000000
828.929443	197.600000
828.964111	189.300000
828.998840	194.300000
829.033569	188.300000
829.068237	189.200000
829.102966	190.600000
829.137634	192.600000
829.172363	194.300000
829.207092	192.400000
829.241821	189.600000
829.276489	186.100000
829.311157	193.200000
829.345825	190.100000
829.380554	195.700000
829.415283	187.800000
829.449951	187.500000
829.484619	197.600000
829.519348	197.100000
829.554016	190.900000
829.588745	192.100000
829.623413	186.900000
829.658081	199.400000
829.692749	187.300000
829.727417	195.900000
829.762146	192.500000
829.796814	189.000000
829.831482	189.800000
829.866150	191.400000
829.900879	190.900000
829.935486	194.800000
829.970154	188.400000
830.004883	199.900000
830.039490	191.800000
830.074219	186.700000
830.108887	192.700000
830.143494	191.200000
830.178223	187.100000
830.212891	190.300000
830.247498	191.800000
830.282166	197.900000
830.316772	195.800000
830.351501	189.900000
830.386169	189.900000
830.420776	188.300000
830.455444	191.800000
830.490112	187.700000
830.524719	186.400000
830.559387	193.700000
830.594055	194.300000
830.628662	191.000000
830.663330	191.900000
830.697998	196.200000
830.732605	191.600000
830.767273	192.800000
830.801941	191.700000
830.836487	197.400000
830.871155	192.600000
830.905762	192.100000
830.940430	186.700000
830.975098	187.700000
831.009644	191.700000
831.044312	198.300000
831.078979	194.100000
831.113525	184.100000
831.148193	191.800000
831.182861	189.600000
831.217407	194.200000
831.252075	201.700000
831.286621	189.800000
831.321289	186.800000
831.355896	191.500000
831.390564	195.900000
831.425110	192.000000
831.459778	196.000000
831.494324	202.000000
831.528931	191.300000
831.563599	195.500000
831.598145	186.900000
831.632751	191.600000
831.667419	190.900000
831.701965	193.000000
831.736572	193.500000
831.771179	186.700000
831.805786	188.400000
831.840393	196.700000
831.874939	186.300000
831.909546	194.800000
831.944153	185.700000
831.978760	190.100000
832.013306	188.600000
832.047913	195.600000
832.082458	199.000000
832.117065	189.000000
832.151672	199.000000
832.186218	192.900000
832.220825	194.200000
832.255432	185.400000
832.289978	189.300000
832.324585	191.900000
832.359192	193.100000
832.393677	191.300000
832.428284	192.100000
832.462830	190.300000
832.497437	190.700000
832.531982	193.900000
832.566589	189.600000
832.601135	192.700000
832.635681	186.100000
832.670227	190.200000
832.704773	197.300000
832.739380	191.700000
832.773926	192.700000
832.808472	188.500000
832.843079	191.100000
832.877563	191.900000
832.912170	190.700000
832.946716	185.400000
832.981201	195.700000
833.015808	194.800000
833.050293	190.700000
833.084839	187.800000
833.119446	189.600000
833.153992	194.800000
833.188477	190.900000
833.223022	189.000000
833.257568	193.200000
833.292114	195.700000
833.326660	200.100000
833.361145	189.000000
833.395691	186.100000
833.430237	191.200000
833.464783	193.700000
833.499329	187.800000
833.533875	187.700000
833.568359	195.100000
833.602905	195.000000
833.637390	195.800000
833.671875	189.600000
833.706421	189.800000
833.740906	188.200000
833.775452	183.700000
833.809998	189.500000
833.844482	198.100000
833.879028	190.500000
833.913513	189.800000
833.947998	193.400000
833.982544	188.300000
834.017090	190.100000
834.051514	183.200000
834.086060	192.600000
834.120544	191.600000
834.155029	191.800000
834.189575	191.000000
834.223999	191.800000
834.258545	190.900000
834.293030	190.900000
834.327515	190.500000
834.362000	190.200000
834.396545	194.200000
834.430969	190.800000
834.465454	194.100000
834.500000	184.000000
834.534424	192.600000
834.568970	184.500000
834.603455	185.000000
834.637878	187.800000
834.672363	192.300000
834.706909	191.500000
834.741333	191.900000
834.775818	185.900000
834.810242	188.400000
834.844727	191.700000
834.879211	190.500000
834.913635	192.500000
834.948181	190.700000
834.982666	192.900000
835.017090	190.300000
835.051575	192.200000
835.086060	189.400000
835.120483	194.600000
835.154907	193.800000
835.189331	189.700000
835.223816	194.700000
835.258301	187.600000
835.292786	187.200000
835.327209	194.400000
835.361694	187.700000
835.396057	189.000000
835.430542	193.400000
835.465027	190.500000
835.499390	187.300000
835.533875	216.900000
835.568359	188.200000
835.602722	186.000000
835.637207	191.500000
835.671692	186.700000
835.706055	206.400000
835.740540	191.500000
835.774902	192.600000
835.809387	190.800000
835.843811	187.400000
835.878235	194.900000
835.912659	187.300000
835.947083	188.300000
835.981506	191.200000
836.015930	185.500000
836.050354	193.300000
836.084778	197.500000
836.119202	194.600000
836.153625	204.700000
836.187988	188.800000
836.222473	187.600000
836.256897	192.800000
836.291260	189.100000
836.325684	193.800000
836.360046	188.800000
836.394470	189.900000
836.428894	197.300000
836.463318	189.800000
836.497681	193.100000
836.532104	197.400000
836.566467	191.700000
836.600891	189.700000
836.635315	194.700000
836.669678	192.700000
836.704102	194.400000
836.738525	193.100000
836.772888	185.100000
836.807251	188.400000
836.841675	193.900000
836.876038	188.200000
836.910461	188.300000
836.944763	193.100000
836.979187	187.300000
837.013611	195.600000
837.047974	186.700000
837.082336	200.000000
837.116699	192.500000
837.151062	192.800000
837.185486	185.900000
837.219849	190.200000
837.254211	194.600000
837.288574	191.700000
837.322937	186.100000
837.357300	182.400000
837.391663	200.400000
837.426086	193.900000
837.460388	192.400000
837.494751	194.800000
837.529114	190.200000
837.563477	196.100000
837.597839	191.500000
837.632141	190.200000
837.666565	187.800000
837.700928	194.000000
837.735229	193.100000
837.769592	193.000000
837.803955	195.500000
837.838257	188.800000
837.872620	189.700000
837.906982	198.000000
837.941284	191.700000
837.975647	193.100000
838.010010	197.800000
838.044312	189.300000
838.078674	190.400000
838.112976	191.400000
838.147339	194.400000
838.181702	191.800000
838.216003	199.400000
838.250366	191.600000
838.284668	193.800000
838.318970	184.700000
838.353333	190.600000
838.387634	189.500000
838.421936	191.300000
838.456299	191.800000
838.490601	196.300000
838.524902	194.800000
838.559265	192.900000
838.593567	194.900000
838.627869	186.200000
838.662170	192.900000
838.696472	186.200000
838.730774	188.300000
838.765137	193.300000
838.799377	181.500000
838.833740	192.000000
838.868042	195.100000
838.902283	185.400000
838.936646	196.900000
838.970947	191.600000
839.005188	197.600000
839.039551	184.900000
839.073792	195.900000
839.108093	190.000000
839.142395	199.600000
839.176697	185.700000
839.210937	192.300000
839.245300	200.400000
839.279541	186.800000
839.313843	188.900000
839.348145	194.900000
839.382385	195.400000
839.416687	196.600000
839.450989	193.100000
839.485229	189.900000
839.519531	188.000000
839.553833	196.800000
839.588013	189.900000
839.622314	192.500000
839.656555	192.400000
839.690857	190.800000
839.725159	187.300000
839.759460	191.800000
839.793640	187.200000
839.827942	190.900000
839.862183	187.700000
839.896423	192.800000
839.930725	201.200000
839.964966	198.000000
839.999207	195.500000
840.033508	196.800000
840.067688	188.800000
840.101990	197.400000
840.136230	190.900000
840.170471	198.400000
840.204712	187.800000
840.238953	188.400000
840.273193	191.700000
840.307434	193.700000
840.341736	188.900000
840.375916	186.700000
840.410217	189.300000
840.444397	194.500000
840.478638	194.000000
840.512878	196.300000
840.547119	191.200000
840.581360	194.300000
840.615601	198.600000
840.649780	201.500000
840.684021	192.100000
840.718262	198.000000
840.752441	199.000000
840.786682	192.200000
840.820862	192.400000
840.855103	197.100000
840.889343	191.000000
840.923584	194.100000
840.957764	193.400000
840.992004	193.600000
841.026184	203.100000
841.060425	190.800000
841.094666	188.400000
841.128845	193.400000
841.163025	192.700000
841.197266	193.700000
841.231445	191.200000
841.265686	193.000000
841.299866	187.400000
841.334045	198.300000
841.368286	190.900000
841.402405	196.900000
841.436646	193.500000
841.470825	188.900000
841.505005	189.800000
841.539185	187.500000
841.573425	189.500000
841.607544	191.800000
841.641785	191.100000
841.675964	188.100000
841.710144	191.600000
841.744324	188.300000
841.778503	190.400000
841.812683	189.100000
841.846863	197.500000
841.881042	196.800000
841.915222	189.800000
841.949402	203.100000
841.983521	184.500000
842.017700	191.300000
842.051880	192.400000
842.086060	194.200000
842.120239	191.500000
842.154419	191.000000
842.188538	192.400000
842.222717	190.400000
842.256897	198.800000
842.291016	191.900000
842.325195	193.100000
842.359375	198.700000
842.393494	197.900000
842.427673	192.400000
842.461853	193.600000
842.495911	199.100000
842.530090	193.000000
842.564209	189.800000
842.598389	192.600000
842.632568	192.300000
842.666626	194.500000
842.700806	189.900000
842.734985	189.000000
842.769043	193.000000
842.803223	190.900000
842.837402	190.000000
842.871460	188.600000
842.905640	200.900000
842.939697	188.900000
842.973877	192.300000
843.007996	196.400000
843.042175	199.900000
843.076233	190.200000
843.110413	193.000000
843.144470	196.700000
843.178589	195.700000
843.212769	190.500000
843.246826	194.900000
843.280945	189.000000
843.315125	189.600000
843.349182	188.900000
843.383301	195.700000
843.417419	202.300000
843.451538	193.400000
843.485657	191.100000
843.519714	191.200000
843.553833	193.900000
843.587952	190.000000
843.622070	190.000000
843.656128	193.300000
843.690247	189.900000
843.724304	190.800000
843.758423	193.200000
843.792542	189.800000
843.826599	192.700000
843.860718	191.100000
843.894836	186.500000
843.928894	193.000000
843.963013	193.100000
843.997070	188.100000
844.031128	187.100000
844.065247	194.900000
844.099304	194.500000
844.133362	192.200000
844.167480	194.200000
844.201599	196.600000
844.235596	193.600000
844.269714	193.200000
844.303711	191.900000
844.337830	186.200000
844.371948	193.500000
844.405945	192.000000
844.440063	187.600000
844.474121	203.400000
844.508118	190.100000
844.542236	191.400000
844.576294	192.000000
844.610352	187.900000
844.644409	192.300000
844.678406	184.500000
844.712524	195.800000
844.746582	196.600000
844.780640	190.400000
844.814636	192.500000
844.848755	199.400000
844.882751	192.200000
844.916809	193.600000
844.950867	194.100000
844.984863	199.200000
845.018921	190.700000
845.052979	188.600000
845.086975	193.300000
845.121033	185.100000
845.155090	189.800000
845.189087	198.300000
845.223145	190.700000
845.257141	192.600000
845.291199	193.600000
845.325256	197.300000
845.359253	194.100000
845.393250	202.900000
845.427307	191.200000
845.461304	191.500000
845.495361	191.900000
845.529358	198.500000
845.563354	189.700000
845.597412	187.800000
845.631409	198.800000
845.665405	195.600000
845.699463	194.700000
845.733459	189.900000
845.767456	200.400000
845.801453	190.700000
845.835449	195.800000
845.869446	195.700000
845.903503	195.400000
845.937439	189.200000
845.971497	196.700000
846.005493	187.800000
846.039429	195.200000
846.073486	201.000000
846.107483	189.700000
846.141418	190.900000
846.175476	192.600000
846.209473	197.600000
846.243408	188.600000
846.277405	193.200000
846.311401	190.500000
846.345337	192.500000
846.379395	196.500000
846.413330	190.900000
846.447327	200.400000
846.481323	189.900000
846.515259	190.900000
846.549255	190.800000
846.583252	194.200000
846.617187	188.900000
846.651184	193.500000
846.685120	190.800000
846.719055	197.900000
846.753052	194.900000
846.786987	194.000000
846.820984	187.300000
846.854980	196.600000
846.888916	188.600000
846.922852	193.100000
846.956848	196.200000
846.990723	190.000000
847.024719	193.300000
847.058716	190.200000
847.092590	197.000000
847.126587	194.400000
847.160522	188.700000
847.194458	196.700000
847.228455	189.600000
847.262390	187.200000
847.296265	191.000000
847.330261	195.500000
847.364136	190.400000
847.398132	191.900000
847.432068	191.900000
847.466003	191.000000
847.499939	190.800000
847.533875	194.800000
847.567749	191.900000
847.601746	190.500000
847.635681	193.600000
847.669556	186.200000
847.703491	196.800000
847.737427	203.500000
847.771301	187.700000
847.805237	193.600000
847.839233	193.200000
847.873108	191.500000
847.907043	191.000000
847.940918	198.300000
847.974854	193.000000
848.008789	196.100000
848.042664	191.300000
848.076538	193.100000
848.110474	192.000000
848.144348	193.300000
848.178284	187.500000
848.212219	193.300000
848.246094	191.800000
848.279968	192.600000
848.313904	193.700000
848.347778	192.400000
848.381653	190.400000
848.415588	190.100000
848.449463	188.100000
848.483337	194.300000
848.517212	198.700000
848.551086	191.700000
848.585022	189.100000
848.618835	201.100000
848.652771	189.300000
848.686646	189.100000
848.720520	198.800000
848.754395	193.300000
848.788330	196.500000
848.822144	195.700000
848.856018	191.000000
848.889954	199.600000
848.923767	189.600000
848.957642	189.500000
848.991577	193.900000
849.025391	190.900000
849.059265	192.100000
849.093079	188.800000
849.126953	188.300000
849.160828	196.200000
849.194641	192.900000
849.228577	190.900000
849.262451	192.100000
849.296265	190.900000
849.330139	189.600000
849.364014	193.100000
849.397827	192.900000
849.431702	192.500000
849.465515	196.400000
849.499329	185.100000
849.533203	187.900000
849.567078	183.900000
849.600891	194.500000
849.634766	191.000000
849.668518	194.400000
849.702393	191.800000
849.736267	187.500000
849.770020	200.500000
849.803894	194.100000
849.837769	192.400000
849.871521	192.700000
849.905396	195.700000
849.939270	188.800000
849.973022	192.500000
850.006897	194.400000
850.040710	194.900000
850.074524	195.400000
850.108337	192.400000
850.142151	196.200000
850.175964	196.100000
850.209778	191.300000
850.243530	183.700000
850.277405	195.600000
850.311218	191.800000
850.344971	189.300000
850.378845	199.400000
850.412659	189.200000
850.446411	196.200000
850.480225	191.800000
850.514038	195.700000
850.547791	194.700000
850.581665	193.800000
850.615417	189.100000
850.649231	193.000000
850.683044	189.900000
850.716858	190.700000
850.750610	193.500000
850.784424	195.000000
850.818176	187.600000
850.851929	190.700000
850.885742	189.300000
850.919495	192.700000
850.953308	197.600000
850.987122	198.900000
851.020874	186.800000
851.054626	188.200000
851.088440	193.400000
851.122192	196.800000
851.156006	191.800000
851.189697	192.200000
851.223511	187.900000
851.257263	195.700000
851.291077	194.800000
851.324829	189.900000
851.358582	190.600000
851.392334	191.600000
851.426086	190.400000
851.459900	197.500000
851.493591	193.900000
851.527344	193.000000
851.561157	192.600000
851.594849	194.100000
851.628662	192.100000
851.662415	199.900000
851.696106	194.900000
851.729858	197.200000
851.763611	189.000000
851.797363	193.800000
851.831116	188.500000
851.864868	195.300000
851.898560	198.300000
851.932312	189.700000
851.966064	194.000000
851.999817	190.700000
852.033569	191.500000
852.067261	197.000000
852.101013	188.900000
852.134766	191.900000
852.168457	183.200000
852.202209	196.800000
852.235901	188.900000
852.269592	194.100000
852.303345	198.500000
852.337036	194.400000
852.370789	193.300000
852.404541	194.300000
852.438171	188.900000
852.471924	192.800000
852.505676	187.100000
852.539307	194.100000
852.573059	190.400000
852.606812	192.200000
852.640442	190.300000
852.674194	197.300000
852.707886	202.300000
852.741577	197.500000
852.775269	189.400000
852.809021	193.100000
852.842651	194.800000
852.876404	198.100000
852.910034	192.900000
852.943787	197.200000
852.977478	195.000000
853.011108	190.900000
853.044861	189.600000
853.078552	197.800000
853.112183	193.800000
853.145874	193.500000
853.179626	186.000000
853.213257	194.300000
853.246948	188.900000
853.280640	200.100000
853.314270	192.200000
853.347961	197.100000
853.381653	194.900000
853.415283	198.100000
853.448975	188.300000
853.482605	194.500000
853.516296	192.100000
853.549988	187.500000
853.583618	193.300000
853.617310	195.000000
853.651001	192.000000
853.684631	189.800000
853.718323	188.700000
853.751953	197.400000
853.785583	185.400000
853.819275	197.200000
853.852966	192.300000
853.886536	186.700000
853.920227	187.800000
853.953918	196.100000
853.987488	191.800000
854.021179	195.800000
854.054749	198.500000
854.088440	194.900000
854.122131	189.900000
854.155701	193.600000
854.189331	189.100000
854.223022	196.500000
854.256592	194.300000
854.290283	189.800000
854.323914	195.000000
854.357483	192.900000
854.391174	194.900000
854.424744	199.300000
854.458374	193.400000
854.492065	204.100000
854.525696	190.800000
854.559265	196.400000
854.592896	202.500000
854.626465	192.700000
854.660095	192.600000
854.693787	194.400000
854.727356	192.900000
854.760986	195.200000
854.794617	194.900000
854.828186	191.200000
854.861816	194.100000
854.895447	194.100000
854.929016	192.700000
854.962585	194.300000
854.996155	200.400000
855.029785	192.200000
855.063416	194.100000
855.097046	195.700000
855.130615	187.400000
855.164185	196.500000
855.197754	193.200000
855.231384	193.400000
855.264954	190.900000
855.298523	196.000000
855.332153	193.300000
855.365723	197.500000
855.399292	190.700000
855.432922	192.600000
855.466492	194.100000
855.500061	190.500000
855.533630	189.100000
855.567200	194.400000
855.600769	196.100000
855.634338	197.700000
855.667969	192.900000
855.701477	189.800000
855.735046	189.500000
855.768616	186.600000
855.802185	194.100000
855.835754	206.100000
855.869324	185.300000
855.902893	193.700000
855.936401	198.000000
855.969971	193.100000
856.003540	188.200000
856.037109	195.000000
856.070618	190.700000
856.104187	188.600000
856.137695	191.700000
856.171265	184.800000
856.204834	193.200000
856.238403	196.800000
856.271912	189.200000
856.305481	193.600000
856.338989	187.000000
856.372559	194.600000
856.406128	195.600000
856.439636	195.500000
856.473145	190.200000
856.506653	199.300000
856.540222	192.500000
856.573792	195.700000
856.607300	195.000000
856.640808	188.300000
856.674377	192.600000
856.707825	225.100000
856.741394	196.700000
856.774902	187.900000
856.808472	186.100000
856.841980	195.500000
856.875488	197.900000
856.908936	186.900000
856.942505	192.400000
856.976013	191.000000
857.009521	190.800000
857.043030	192.700000
857.076477	192.800000
857.110046	198.200000
857.143555	194.100000
857.177063	194.600000
857.210571	190.100000
857.244080	186.800000
857.277527	193.600000
857.311035	191.700000
857.344543	200.100000
857.378052	191.300000
857.411499	196.800000
857.445068	199.600000
857.478516	191.900000
857.512024	187.400000
857.545532	191.300000
857.578979	194.100000
857.612427	194.100000
857.645874	189.700000
857.679382	193.900000
857.712891	196.200000
857.746399	191.300000
857.779846	195.100000
857.813354	196.500000
857.846741	193.200000
857.880249	188.900000
857.913757	193.900000
857.947266	193.200000
857.980652	193.900000
858.014160	191.900000
858.047546	191.200000
858.081055	191.700000
858.114563	202.400000
858.147949	188.300000
858.181458	193.800000
858.214844	191.400000
858.248352	187.000000
858.281799	195.800000
858.315308	202.400000
858.348694	196.200000
858.382141	200.500000
858.415588	195.300000
858.449036	195.700000
858.482483	193.400000
858.515930	191.500000
858.549377	193.400000
858.582825	200.000000
858.616211	195.300000
858.649658	194.800000
858.683105	189.000000
858.716553	191.300000
858.750000	187.500000
858.783386	190.100000
858.816833	186.600000
858.850281	193.900000
858.883728	193.200000
858.917114	194.200000
858.950562	199.000000
858.983948	199.300000
859.017395	195.800000
859.050781	191.000000
859.084167	187.800000
859.117615	188.700000
859.151062	195.000000
859.184448	189.500000
859.217834	191.200000
859.251282	191.700000
859.284668	188.000000
859.318054	187.500000
859.351440	191.400000
859.384888	198.600000
859.418274	187.500000
859.451721	185.700000
859.485046	194.200000
859.518494	193.800000
859.551819	189.500000
859.585266	194.400000
859.618652	195.700000
859.652039	188.300000
859.685425	187.600000
859.718811	188.500000
859.752197	185.100000
859.785583	197.500000
859.819031	198.600000
859.852356	196.000000
859.885742	189.800000
859.919067	191.800000
859.952454	191.700000
859.985901	195.200000
860.019287	192.100000
860.052612	0.000000
860.085999	0.000000
860.119324	0.000000
860.152710	0.000000
860.186096	0.000000
860.219421	0.000000
860.252808	0.000000
860.286133	0.000000
860.319519	0.000000
860.352905	0.000000
860.386292	0.000000
860.419617	0.000000
860.452942	0.000000
860.486267	0.000000
860.519653	0.000000
860.553040	0.000000
860.586365	0.000000
860.619690	0.000000
860.653076	0.000000
860.686340	0.000000
860.719727	0.000000
860.753113	0.000000
860.786377	0.000000
860.819763	0.000000
860.853027	0.000000
860.886414	0.000000
860.919739	0.000000
860.953125	0.000000
860.986389	0.000000
861.019714	0.000000
861.053040	0.000000
861.086365	0.000000
861.119690	0.000000
861.153076	0.000000
861.186340	0.000000
861.219666	0.000000
861.252930	0.000000
861.286316	0.000000
861.319641	0.000000
861.352905	0.000000
861.386230	0.000000
861.419495	0.000000
861.452820	0.000000
861.486145	0.000000
861.519470	0.000000
861.552734	0.000000
861.586060	0.000000
861.619324	0.000000
861.652649	0.000000
861.685974	0.000000
861.719238	0.000000
861.752563	0.000000
861.785828	0.000000
861.819092	0.000000
861.852417	0.000000
861.885742	0.000000
861.918945	0.000000
861.952271	0.000000
861.985535	0.000000
862.018799	0.000000
862.052124	0.000000
862.085449	0.000000
862.118652	0.000000
862.151978	0.000000
862.185181	0.000000
862.218506	0.000000
862.251770	0.000000
862.285034	0.000000
862.318298	0.000000
862.351562	0.000000
862.384827	0.000000
862.418091	0.000000
862.451355	0.000000
862.484619	0.000000
862.517883	0.000000
862.551086	0.000000
862.584351	0.000000
862.617676	0.000000
862.650940	0.000000
862.684143	0.000000
862.717407	0.000000
862.750610	0.000000
862.783875	0.000000
862.817139	0.000000
862.850342	0.000000
862.883606	0.000000
862.916870	0.000000
862.950073	0.000000
862.983337	0.000000
863.016602	0.000000
863.049805	0.000000
863.083069	0.000000
863.116211	0.000000
863.149475	0.000000
863.182739	0.000000
863.216003	0.000000
863.249146	0.000000
863.282410	0.000000
863.315613	0.000000
863.348816	0.000000
863.382080	0.000000
863.415222	0.000000
863.448486	0.000000
863.481689	0.000000
863.514893	0.000000
863.548157	0.000000
863.581360	0.000000
863.614502	0.000000
863.647766	0.000000
863.680908	0.000000
863.714172	0.000000
863.747375	0.000000
863.780579	0.000000
863.813721	0.000000
863.846985	0.000000
863.880127	0.000000
863.913330	0.000000
863.946533	0.000000
863.979675	0.000000
864.012939	0.000000
