Model Number: SPM-001-M   
Serial Number: 10090201
Firmware Version: 004.17.6
Exposure Time: 300000.000000us
Data Taken on: 21-01-2021 14:49:25.664
Wavelength	Amplitude
733.770752	0.000000
733.808716	0.000000
733.846619	0.000000
733.884583	0.000000
733.922546	0.000000
733.960449	0.000000
733.998413	0.000000
734.036377	0.000000
734.074219	0.000000
734.112183	0.000000
734.150085	0.000000
734.188049	0.000000
734.226013	0.000000
734.263916	0.000000
734.301819	0.000000
734.339783	0.000000
734.377686	0.000000
734.415588	0.000000
734.453552	0.000000
734.491455	0.000000
734.529419	0.000000
734.567322	0.000000
734.605225	0.000000
734.643127	0.000000
734.681091	0.000000
734.718994	0.000000
734.756897	0.000000
734.794800	0.000000
734.832703	0.000000
734.870667	0.000000
734.908508	0.000000
734.946472	0.000000
734.984375	0.000000
735.022278	0.000000
735.060181	0.000000
735.098083	0.000000
735.135986	0.000000
735.173889	0.000000
735.211792	0.000000
735.249695	0.000000
735.287598	0.000000
735.325439	0.000000
735.363403	0.000000
735.401306	0.000000
735.439148	0.000000
735.477051	0.000000
735.515015	0.000000
735.552856	0.000000
735.590759	0.000000
735.628662	0.000000
735.666504	0.000000
735.704407	0.000000
735.742310	0.000000
735.780212	0.000000
735.818115	0.000000
735.856018	0.000000
735.893860	0.000000
735.931763	0.000000
735.969604	0.000000
736.007507	0.000000
736.045410	0.000000
736.083252	0.000000
736.121094	0.000000
736.158997	0.000000
736.196838	0.000000
736.234741	0.000000
736.272644	0.000000
736.310486	0.000000
736.348389	0.000000
736.386230	0.000000
736.424072	0.000000
736.461975	0.000000
736.499878	0.000000
736.537720	0.000000
736.575562	0.000000
736.613403	0.000000
736.651306	0.000000
736.689148	0.000000
736.726990	0.000000
736.764893	0.000000
736.802734	0.000000
736.840576	0.000000
736.878418	0.000000
736.916321	0.000000
736.954102	0.000000
736.992004	0.000000
737.029846	0.000000
737.067688	0.000000
737.105530	0.000000
737.143372	0.000000
737.181213	0.000000
737.219116	0.000000
737.256897	0.000000
737.294739	0.000000
737.332642	0.000000
737.370422	0.000000
737.408325	0.000000
737.446167	0.000000
737.483948	0.000000
737.521790	0.000000
737.559692	0.000000
737.597473	0.000000
737.635315	0.000000
737.673157	0.000000
737.710999	0.000000
737.748840	0.000000
737.786621	0.000000
737.824463	0.000000
737.862305	0.000000
737.900085	0.000000
737.937927	0.000000
737.975769	0.000000
738.013550	0.000000
738.051392	0.000000
738.089233	0.000000
738.127014	0.000000
738.164856	0.000000
738.202698	0.000000
738.240479	0.000000
738.278320	0.000000
738.316162	0.000000
738.353943	0.000000
738.391785	0.000000
738.429565	0.000000
738.467407	0.000000
738.505188	0.000000
738.542969	0.000000
738.580811	0.000000
738.618652	0.000000
738.656372	0.000000
738.694214	0.000000
738.732056	0.000000
738.769836	0.000000
738.807617	0.000000
738.845459	0.000000
738.883240	0.000000
738.921021	0.000000
738.958862	0.000000
738.996582	0.000000
739.034424	0.000000
739.072205	0.000000
739.109985	0.000000
739.147827	0.000000
739.185547	0.000000
739.223389	0.000000
739.261169	0.000000
739.298889	0.000000
739.336731	0.000000
739.374512	0.000000
739.412292	0.000000
739.450073	0.000000
739.487854	0.000000
739.525635	0.000000
739.563416	0.000000
739.601135	0.000000
739.638977	0.000000
739.676758	0.000000
739.714478	0.000000
739.752258	0.000000
739.790100	0.000000
739.827820	0.000000
739.865601	0.000000
739.903381	0.000000
739.941101	0.000000
739.978882	194.800000
740.016724	190.300000
740.054443	193.900000
740.092224	189.000000
740.130005	188.500000
740.167725	189.200000
740.205505	189.400000
740.243225	196.800000
740.281006	192.500000
740.318787	186.400000
740.356506	197.100000
740.394287	195.700000
740.432068	190.200000
740.469727	187.200000
740.507507	195.400000
740.545288	190.600000
740.583008	193.000000
740.620789	192.300000
740.658569	186.800000
740.696228	193.100000
740.734009	195.100000
740.771790	183.500000
740.809509	195.900000
740.847229	187.700000
740.884949	190.000000
740.922729	187.300000
740.960449	190.600000
740.998169	188.800000
741.035950	189.300000
741.073669	192.400000
741.111389	192.900000
741.149170	199.500000
741.186890	199.500000
741.224609	194.000000
741.262329	192.900000
741.300110	199.400000
741.337769	188.700000
741.375549	187.800000
741.413208	192.300000
741.450989	189.000000
741.488708	190.500000
741.526367	189.300000
741.564148	194.500000
741.601868	194.600000
741.639526	191.500000
741.677307	192.800000
741.715027	194.600000
741.752686	189.100000
741.790466	196.500000
741.828186	192.700000
741.865845	189.100000
741.903564	187.000000
741.941345	192.900000
741.979004	188.100000
742.016724	195.300000
742.054382	191.900000
742.092102	195.500000
742.129822	187.100000
742.167480	190.800000
742.205200	190.200000
742.242920	194.000000
742.280640	195.000000
742.318359	188.500000
742.356079	190.800000
742.393738	194.500000
742.431396	190.400000
742.469116	195.000000
742.506775	184.000000
742.544495	192.700000
742.582214	195.000000
742.619873	192.100000
742.657593	197.600000
742.695251	194.900000
742.732971	190.700000
742.770630	192.700000
742.808289	192.600000
742.846008	191.000000
742.883728	191.600000
742.921326	192.200000
742.959045	189.500000
742.996765	190.500000
743.034424	191.700000
743.072083	189.200000
743.109802	190.500000
743.147400	187.600000
743.185120	192.000000
743.222839	191.500000
743.260437	197.200000
743.298157	193.300000
743.335754	185.000000
743.373474	192.000000
743.411133	186.000000
743.448792	191.600000
743.486450	191.800000
743.524170	185.900000
743.561768	191.500000
743.599487	196.600000
743.637146	199.500000
743.674744	191.200000
743.712463	189.400000
743.750122	192.700000
743.787720	192.600000
743.825439	190.300000
743.863037	190.800000
743.900696	192.400000
743.938416	216.700000
743.976013	191.200000
744.013672	196.800000
744.051331	195.800000
744.088928	197.600000
744.126587	196.300000
744.164307	193.500000
744.201904	188.600000
744.239563	192.700000
744.277222	194.700000
744.314819	191.300000
744.352478	197.200000
744.390137	194.600000
744.427734	195.000000
744.465393	190.300000
744.502991	189.200000
744.540649	193.500000
744.578308	192.400000
744.615906	189.000000
744.653564	185.300000
744.691223	193.900000
744.728821	187.400000
744.766418	193.000000
744.804077	193.100000
744.841675	191.300000
744.879333	187.800000
744.916992	191.300000
744.954529	190.700000
744.992187	196.700000
745.029785	189.800000
745.067444	190.700000
745.105042	192.100000
745.142639	193.500000
745.180298	200.000000
745.217896	190.800000
745.255493	191.100000
745.293152	196.200000
745.330750	196.500000
745.368347	197.200000
745.405945	194.200000
745.443604	192.400000
745.481140	195.100000
745.518799	192.000000
745.556396	195.400000
745.593994	194.100000
745.631592	192.100000
745.669189	186.800000
745.706787	193.600000
745.744385	189.300000
745.781982	194.100000
745.819580	188.600000
745.857178	192.600000
745.894775	192.300000
745.932373	193.300000
745.969971	192.700000
746.007568	186.200000
746.045166	198.400000
746.082764	197.700000
746.120300	194.300000
746.157898	194.500000
746.195557	192.000000
746.233093	187.600000
746.270691	194.900000
746.308228	194.300000
746.345825	196.400000
746.383423	195.000000
746.420959	190.700000
746.458557	191.600000
746.496155	191.100000
746.533691	194.700000
746.571289	189.700000
746.608887	192.400000
746.646423	193.900000
746.684021	193.500000
746.721619	188.900000
746.759155	193.900000
746.796753	187.400000
746.834351	187.600000
746.871826	190.300000
746.909424	196.000000
746.946960	191.900000
746.984558	191.600000
747.022156	190.200000
747.059631	198.400000
747.097229	192.800000
747.134827	190.000000
747.172363	196.000000
747.209900	194.500000
747.247498	189.200000
747.285034	195.900000
747.322571	196.300000
747.360168	191.700000
747.397644	185.900000
747.435242	194.700000
747.472778	196.400000
747.510315	190.800000
747.547913	191.300000
747.585388	196.600000
747.622925	191.000000
747.660522	186.000000
747.697998	190.800000
747.735596	191.600000
747.773132	191.200000
747.810669	192.000000
747.848206	194.700000
747.885742	189.400000
747.923279	188.000000
747.960815	193.000000
747.998352	194.000000
748.035889	195.800000
748.073425	195.400000
748.110901	190.400000
748.148437	190.100000
748.185974	191.500000
748.223511	200.600000
748.261047	195.900000
748.298584	193.300000
748.336060	192.700000
748.373596	194.500000
748.411133	216.800000
748.448608	189.700000
748.486145	195.300000
748.523682	195.700000
748.561218	197.800000
748.598755	193.900000
748.636292	195.600000
748.673706	191.300000
748.711243	198.700000
748.748718	192.600000
748.786255	191.800000
748.823792	192.000000
748.861267	188.400000
748.898804	194.800000
748.936340	194.200000
748.973816	189.700000
749.011292	197.800000
749.048828	193.200000
749.086304	194.100000
749.123840	200.000000
749.161316	189.500000
749.198792	199.300000
749.236328	196.800000
749.273743	192.900000
749.311279	191.300000
749.348816	195.900000
749.386230	193.400000
749.423767	184.200000
749.461304	196.100000
749.498718	193.000000
749.536255	196.400000
749.573730	202.400000
749.611206	197.600000
749.648682	193.100000
749.686218	194.200000
749.723633	194.800000
749.761169	192.300000
749.798645	189.300000
749.836060	190.300000
749.873596	189.100000
749.911011	195.100000
749.948547	198.200000
749.986023	192.300000
750.023437	191.400000
750.060913	187.500000
750.098450	186.500000
750.135864	191.400000
750.173340	191.700000
750.210815	196.300000
750.248291	187.300000
750.285767	192.900000
750.323242	196.300000
750.360657	195.200000
750.398132	187.800000
750.435608	195.300000
750.473022	188.400000
750.510498	189.400000
750.547974	189.200000
750.585449	190.100000
750.622925	184.200000
750.660339	202.800000
750.697815	193.200000
750.735291	190.800000
750.772644	192.500000
750.810120	194.500000
750.847595	194.100000
750.885010	188.500000
750.922485	198.200000
750.959961	191.800000
750.997375	197.900000
751.034851	194.800000
751.072266	195.700000
751.109680	188.200000
751.147156	197.300000
751.184570	195.600000
751.221985	192.700000
751.259460	185.800000
751.296875	193.000000
751.334290	191.800000
751.371765	196.200000
751.409180	196.500000
751.446594	197.800000
751.484070	193.600000
751.521423	193.600000
751.558899	191.900000
751.596375	200.600000
751.633728	198.600000
751.671204	200.700000
751.708618	189.800000
751.746033	192.900000
751.783447	188.000000
751.820801	189.400000
751.858276	194.800000
751.895691	191.500000
751.933105	189.900000
751.970520	188.700000
752.007935	189.500000
752.045349	197.300000
752.082764	192.000000
752.120178	189.200000
752.157532	188.900000
752.195007	190.100000
752.232422	193.600000
752.269775	195.300000
752.307190	194.900000
752.344543	189.300000
752.382019	191.000000
752.419434	190.800000
752.456787	195.400000
752.494202	196.500000
752.531616	193.500000
752.568970	194.700000
752.606384	194.000000
752.643799	194.400000
752.681152	197.900000
752.718567	195.100000
752.755981	187.100000
752.793335	193.900000
752.830750	187.800000
752.868164	196.300000
752.905518	188.000000
752.942932	194.800000
752.980225	188.000000
753.017639	194.800000
753.055054	196.100000
753.092407	193.600000
753.129822	195.800000
753.167175	198.900000
753.204529	192.500000
753.241943	189.800000
753.279358	188.000000
753.316650	194.200000
753.354065	192.800000
753.391479	196.600000
753.428772	198.900000
753.466187	194.000000
753.503479	188.800000
753.540894	191.600000
753.578308	188.100000
753.615601	187.200000
753.653015	191.800000
753.690369	190.700000
753.727722	189.300000
753.765076	187.300000
753.802490	187.700000
753.839783	186.900000
753.877136	190.400000
753.914551	200.900000
753.951843	189.900000
753.989258	194.700000
754.026611	191.600000
754.063904	192.300000
754.101257	188.900000
754.138611	187.000000
754.175964	191.300000
754.213318	200.300000
754.250610	187.400000
754.288025	190.700000
754.325378	187.900000
754.362671	195.500000
754.400024	191.800000
754.437378	200.800000
754.474670	197.800000
754.512085	189.500000
754.549438	193.700000
754.586731	190.100000
754.624084	191.800000
754.661438	188.600000
754.698730	199.600000
754.736084	191.700000
754.773376	191.500000
754.810730	193.200000
754.848083	190.600000
754.885315	195.700000
754.922668	187.400000
754.960022	188.500000
754.997314	195.600000
755.034668	192.900000
755.072021	194.000000
755.109253	190.900000
755.146606	197.200000
755.183960	191.600000
755.221252	198.100000
755.258545	195.200000
755.295898	198.400000
755.333191	197.100000
755.370544	194.500000
755.407776	192.800000
755.445129	193.300000
755.482422	196.000000
755.519714	192.100000
755.557068	188.700000
755.594360	187.000000
755.631653	195.700000
755.668945	199.100000
755.706299	194.900000
755.743530	203.500000
755.780884	198.900000
755.818176	197.700000
755.855408	196.400000
755.892761	195.400000
755.930054	193.000000
755.967346	196.800000
756.004639	193.800000
756.041870	194.000000
756.079224	197.800000
756.116516	191.900000
756.153748	196.400000
756.191040	200.900000
756.228394	195.900000
756.265625	190.400000
756.302917	195.100000
756.340210	192.700000
756.377441	196.300000
756.414795	200.600000
756.452087	193.500000
756.489319	189.200000
756.526611	198.700000
756.563843	194.800000
756.601135	201.000000
756.638428	201.900000
756.675659	193.500000
756.712952	197.900000
756.750244	198.000000
756.787476	196.300000
756.824768	200.700000
756.862061	193.700000
756.899292	241.600000
756.936584	198.400000
756.973816	204.300000
757.011047	204.700000
757.048340	195.300000
757.085632	195.700000
757.122864	209.000000
757.160156	193.700000
757.197327	197.900000
757.234619	200.000000
757.271912	193.900000
757.309082	201.100000
757.346375	192.800000
757.383667	200.800000
757.420837	198.000000
757.458130	197.300000
757.495422	194.000000
757.532593	198.400000
757.569885	189.700000
757.607117	192.300000
757.644348	197.600000
757.681580	208.000000
757.718811	188.200000
757.756042	196.900000
757.793335	194.900000
757.830505	197.800000
757.867798	195.300000
757.905029	193.800000
757.942200	198.500000
757.979492	194.700000
758.016724	195.400000
758.053894	196.400000
758.091187	209.000000
758.128418	196.500000
758.165588	196.900000
758.202820	205.800000
758.240112	197.200000
758.277283	205.800000
758.314514	198.400000
758.351685	196.200000
758.388916	205.300000
758.426147	204.200000
758.463379	205.300000
758.500610	201.300000
758.537842	199.500000
758.575012	203.300000
758.612244	196.000000
758.649475	210.500000
758.686646	195.800000
758.723877	204.400000
758.761108	206.200000
758.798279	198.800000
758.835510	199.200000
758.872742	206.100000
758.909851	202.100000
758.947083	203.100000
758.984253	201.400000
759.021484	203.900000
759.058716	203.800000
759.095886	203.800000
759.133057	201.700000
759.170288	204.800000
759.207458	197.900000
759.244690	210.300000
759.281860	207.000000
759.319031	202.700000
759.356262	200.600000
759.393433	200.600000
759.430603	202.600000
759.467773	202.100000
759.505005	206.100000
759.542175	206.700000
759.579346	202.200000
759.616516	204.300000
759.653687	205.900000
759.690918	201.300000
759.728027	204.900000
759.765259	204.900000
759.802429	206.200000
759.839539	205.800000
759.876770	209.000000
759.913940	211.500000
759.951111	205.100000
759.988281	204.700000
760.025452	202.600000
760.062561	200.900000
760.099792	213.800000
760.136963	207.900000
760.174072	204.300000
760.211243	202.000000
760.248413	202.400000
760.285583	201.200000
760.322754	214.100000
760.359863	211.000000
760.397034	211.600000
760.434204	205.600000
760.471375	206.700000
760.508545	203.800000
760.545715	207.100000
760.582825	203.500000
760.619995	207.000000
760.657166	202.100000
760.694275	211.600000
760.731445	207.600000
760.768555	207.800000
760.805664	209.200000
760.842834	208.900000
760.879944	209.100000
760.917114	208.900000
760.954285	205.700000
760.991394	203.500000
761.028564	212.000000
761.065674	209.900000
761.102783	205.200000
761.139954	212.100000
761.177124	211.400000
761.214172	213.600000
761.251343	206.900000
761.288452	209.200000
761.325562	213.300000
761.362732	207.200000
761.399841	208.700000
761.436951	210.500000
761.474121	207.000000
761.511169	209.100000
761.548340	214.400000
761.585449	212.700000
761.622559	214.100000
761.659668	209.700000
761.696838	214.700000
761.733887	212.000000
761.771057	211.100000
761.808167	209.900000
761.845276	215.000000
761.882385	220.400000
761.919434	213.800000
761.956604	225.300000
761.993713	209.300000
762.030762	217.200000
762.067871	212.200000
762.105042	212.800000
762.142090	219.600000
762.179199	213.200000
762.216309	218.800000
762.253418	224.100000
762.290527	221.800000
762.327637	218.100000
762.364685	210.100000
762.401794	218.000000
762.438904	216.000000
762.475952	212.200000
762.513062	211.800000
762.550110	211.600000
762.587219	225.400000
762.624329	222.000000
762.661377	218.400000
762.698486	216.500000
762.735596	216.300000
762.772644	212.200000
762.809753	212.100000
762.846863	215.900000
762.883911	221.200000
762.921021	217.500000
762.958069	216.600000
762.995117	223.900000
763.032227	225.000000
763.069336	216.500000
763.106323	215.800000
763.143433	213.500000
763.180481	221.400000
763.217590	220.700000
763.254639	217.200000
763.291687	218.100000
763.328735	225.300000
763.365845	218.600000
763.402893	218.400000
763.439941	221.700000
763.477051	223.300000
763.514038	222.500000
763.551147	219.500000
763.588196	220.500000
763.625244	220.700000
763.662292	227.800000
763.699402	228.900000
763.736389	224.400000
763.773499	231.000000
763.810486	225.600000
763.847534	224.500000
763.884644	227.100000
763.921631	223.500000
763.958679	231.200000
763.995728	225.900000
764.032776	231.000000
764.069824	220.400000
764.106873	227.200000
764.143860	231.900000
764.180969	224.500000
764.218018	233.200000
764.255005	225.500000
764.292053	227.600000
764.329102	234.400000
764.366089	235.600000
764.403137	234.000000
764.440125	228.500000
764.477173	230.300000
764.514221	233.900000
764.551208	231.400000
764.588257	228.700000
764.625305	235.100000
764.662292	238.800000
764.699341	240.500000
764.736389	235.700000
764.773376	248.600000
764.810425	238.900000
764.847473	242.000000
764.884399	240.100000
764.921448	245.300000
764.958435	244.900000
764.995483	237.400000
765.032532	249.300000
765.069458	237.200000
765.106506	241.600000
765.143555	238.200000
765.180481	241.900000
765.217529	248.500000
765.254578	237.600000
765.291504	243.100000
765.328552	242.200000
765.365540	238.600000
765.402527	250.200000
765.439575	240.400000
765.476501	238.800000
765.513550	239.300000
765.550537	242.200000
765.587463	248.700000
765.624512	242.700000
765.661499	236.400000
765.698486	249.600000
765.735474	241.100000
765.772461	245.200000
765.809448	249.700000
765.846436	250.300000
765.883423	252.800000
765.920410	247.500000
765.957397	243.600000
765.994385	249.100000
766.031311	255.300000
766.068359	248.900000
766.105286	250.800000
766.142273	256.200000
766.179260	250.900000
766.216187	247.600000
766.253174	244.600000
766.290161	250.800000
766.327148	253.600000
766.364136	255.100000
766.401123	264.000000
766.438049	248.600000
766.475037	260.400000
766.512024	256.600000
766.548950	270.000000
766.585937	261.600000
766.622864	258.300000
766.659790	259.000000
766.696777	250.800000
766.733704	262.400000
766.770691	253.400000
766.807678	266.600000
766.844604	260.200000
766.881531	260.500000
766.918518	264.700000
766.955444	263.800000
766.992432	261.100000
767.029358	263.400000
767.066284	263.800000
767.103271	262.000000
767.140198	295.800000
767.177124	274.500000
767.214050	265.800000
767.251038	267.800000
767.287964	264.300000
767.324890	263.800000
767.361816	266.000000
767.398743	270.400000
767.435730	265.600000
767.472595	269.600000
767.509583	272.800000
767.546509	265.400000
767.583374	269.900000
767.620361	264.600000
767.657288	270.000000
767.694214	270.100000
767.731140	268.900000
767.768066	271.100000
767.804993	272.500000
767.841919	266.600000
767.878845	272.300000
767.915710	278.600000
767.952698	272.400000
767.989563	274.200000
768.026489	276.100000
768.063416	269.700000
768.100281	269.400000
768.137207	279.800000
768.174133	277.200000
768.211060	276.700000
768.247986	275.400000
768.284912	273.500000
768.321777	275.900000
768.358704	272.500000
768.395630	277.100000
768.432495	273.900000
768.469421	276.300000
768.506348	282.400000
768.543152	286.100000
768.580078	282.800000
768.616943	284.100000
768.653870	284.200000
768.690796	284.500000
768.727661	284.000000
768.764587	284.000000
768.801453	278.300000
768.838318	288.600000
768.875244	286.700000
768.912109	290.500000
768.948975	283.000000
768.985901	285.900000
769.022766	284.400000
769.059631	287.700000
769.096558	285.800000
769.133362	286.200000
769.170288	287.800000
769.207214	288.100000
769.244019	289.900000
769.280945	290.500000
769.317810	297.300000
769.354675	293.200000
769.391541	299.400000
769.428406	296.100000
769.465271	303.200000
769.502136	295.000000
769.539062	297.700000
769.575867	298.100000
769.612732	298.400000
769.649597	302.500000
769.686462	304.700000
769.723328	300.700000
769.760193	297.800000
769.797058	302.700000
769.833923	308.900000
769.870728	304.200000
769.907593	305.500000
769.944519	308.000000
769.981323	309.900000
770.018188	311.000000
770.055054	307.400000
770.091858	307.400000
770.128723	315.300000
770.165588	322.400000
770.202393	310.700000
770.239258	319.800000
770.276062	317.000000
770.312927	317.600000
770.349792	322.600000
770.386597	321.700000
770.423462	329.200000
770.460327	335.000000
770.497131	322.000000
770.533997	320.200000
770.570862	330.500000
770.607605	332.600000
770.644470	333.000000
770.681335	329.800000
770.718140	331.100000
770.754944	324.800000
770.791809	325.700000
770.828613	328.900000
770.865479	333.100000
770.902222	338.700000
770.939087	333.500000
770.975952	327.500000
771.012695	332.100000
771.049561	341.700000
771.086365	335.600000
771.123169	333.900000
771.159973	336.500000
771.196838	338.300000
771.233582	340.200000
771.270447	340.200000
771.307251	343.800000
771.344055	339.200000
771.380859	340.700000
771.417664	336.800000
771.454468	346.300000
771.491272	341.800000
771.528076	344.000000
771.564880	342.900000
771.601685	350.000000
771.638428	343.200000
771.675293	350.300000
771.712097	339.800000
771.748840	354.400000
771.785645	349.800000
771.822449	350.600000
771.859253	354.300000
771.896057	352.000000
771.932861	361.400000
771.969604	356.800000
772.006409	350.800000
772.043213	358.100000
772.079956	357.200000
772.116760	351.200000
772.153503	354.200000
772.190308	363.200000
772.227112	356.900000
772.263855	352.800000
772.300659	359.600000
772.337463	365.400000
772.374207	357.000000
772.411011	353.800000
772.447754	358.500000
772.484497	370.900000
772.521301	364.000000
772.558105	361.800000
772.594849	361.900000
772.631592	367.500000
772.668396	366.300000
772.705139	366.400000
772.741882	367.800000
772.778625	374.100000
772.815430	376.000000
772.852173	373.000000
772.888916	377.700000
772.925720	380.900000
772.962463	386.600000
772.999207	380.300000
773.035950	383.800000
773.072754	385.700000
773.109436	381.600000
773.146240	381.700000
773.182922	379.400000
773.219727	384.600000
773.256470	382.300000
773.293152	374.100000
773.329956	380.600000
773.366699	383.200000
773.403381	379.600000
773.440186	385.200000
773.476929	388.500000
773.513611	383.000000
773.550354	383.700000
773.587158	384.400000
773.623840	381.100000
773.660583	386.100000
773.697327	396.400000
773.734009	387.400000
773.770813	385.800000
773.807495	385.100000
773.844238	386.500000
773.880981	398.400000
773.917664	394.500000
773.954407	404.200000
773.991150	393.800000
774.027832	397.800000
774.064575	390.500000
774.101318	395.900000
774.138000	398.100000
774.174744	394.900000
774.211487	398.900000
774.248108	390.700000
774.284851	392.100000
774.321594	402.000000
774.358276	402.100000
774.395020	407.800000
774.431702	403.300000
774.468384	398.600000
774.505127	395.500000
774.541809	405.800000
774.578491	409.500000
774.615234	413.000000
774.651917	409.100000
774.688599	410.500000
774.725342	416.000000
774.762024	413.000000
774.798706	416.500000
774.835449	421.000000
774.872070	427.200000
774.908813	421.900000
774.945496	420.600000
774.982178	421.800000
775.018860	422.400000
775.055542	423.600000
775.092224	425.600000
775.128967	427.800000
775.165588	428.500000
775.202271	421.700000
775.239014	432.000000
775.275635	433.300000
775.312317	436.000000
775.349060	436.100000
775.385681	439.500000
775.422363	435.600000
775.459045	438.100000
775.495667	437.700000
775.532410	441.900000
775.569092	441.100000
775.605713	443.100000
775.642395	444.000000
775.679016	443.900000
775.715698	445.000000
775.752380	451.100000
775.789001	443.200000
775.825684	446.300000
775.862366	448.800000
775.898987	456.500000
775.935669	447.000000
775.972351	465.400000
776.008972	467.700000
776.045654	469.700000
776.082336	463.000000
776.118958	464.000000
776.155640	462.500000
776.192322	470.500000
776.228882	475.700000
776.265564	474.800000
776.302185	475.900000
776.338867	476.300000
776.375488	469.600000
776.412109	479.200000
776.448792	483.900000
776.485413	491.200000
776.522034	484.700000
776.558716	479.500000
776.595337	481.300000
776.631958	488.600000
776.668579	488.700000
776.705261	498.000000
776.741882	491.800000
776.778503	489.200000
776.815186	494.400000
776.851746	493.800000
776.888367	492.200000
776.924988	503.800000
776.961609	494.400000
776.998291	497.300000
777.034851	489.900000
777.071472	500.800000
777.108154	497.200000
777.144714	502.600000
777.181335	506.300000
777.218018	496.600000
777.254578	509.000000
777.291199	508.900000
777.327759	514.400000
777.364380	518.300000
777.401062	523.200000
777.437622	530.800000
777.474243	520.600000
777.510864	523.500000
777.547424	519.500000
777.584045	524.000000
777.620667	525.000000
777.657227	530.000000
777.693848	526.900000
777.730469	539.100000
777.767029	532.300000
777.803650	535.800000
777.840271	528.500000
777.876831	530.600000
777.913452	536.300000
777.950012	525.600000
777.986633	523.900000
778.023193	523.900000
778.059753	524.900000
778.096375	529.000000
778.132996	539.800000
778.169556	530.700000
778.206116	535.100000
778.242737	533.100000
778.279297	541.400000
778.315857	529.000000
778.352478	535.700000
778.389038	542.000000
778.425598	545.300000
778.462219	550.500000
778.498718	543.800000
778.535339	549.200000
778.571838	553.100000
778.608459	551.600000
778.645020	542.300000
778.681580	553.700000
778.718140	550.500000
778.754761	545.700000
778.791260	550.600000
778.827881	562.300000
778.864441	561.700000
778.900940	568.100000
778.937561	561.900000
778.974121	559.500000
779.010620	550.800000
779.047241	558.200000
779.083801	563.100000
779.120300	560.200000
779.156860	564.000000
779.193359	560.600000
779.229980	563.700000
779.266541	565.700000
779.303040	569.100000
779.339600	566.200000
779.376160	562.600000
779.412659	564.500000
779.449219	560.600000
779.485779	569.500000
779.522278	566.300000
779.558838	572.400000
779.595398	566.300000
779.631897	564.500000
779.668457	558.600000
779.705017	565.100000
779.741516	556.300000
779.778076	555.900000
779.814575	552.800000
779.851074	556.300000
779.887634	556.800000
779.924133	560.300000
779.960693	540.700000
779.997253	548.600000
780.033691	551.600000
780.070251	544.000000
780.106812	546.900000
780.143250	539.400000
780.179810	530.700000
780.216370	522.200000
780.252808	525.800000
780.289368	523.700000
780.325867	519.800000
780.362366	511.300000
780.398865	512.300000
780.435364	495.700000
780.471863	499.700000
780.508423	486.800000
780.544861	481.500000
780.581421	474.500000
780.617920	461.800000
780.654419	455.200000
780.690918	453.500000
780.727417	444.900000
780.763916	436.900000
780.800415	433.300000
780.836914	416.100000
780.873352	418.100000
780.909912	401.200000
780.946411	397.100000
780.982849	395.600000
781.019348	392.800000
781.055786	379.400000
781.092346	371.800000
781.128845	366.400000
781.165283	359.800000
781.201782	358.500000
781.238281	351.900000
781.274719	345.600000
781.311218	338.100000
781.347717	341.000000
781.384155	325.800000
781.420654	320.500000
781.457092	322.100000
781.493591	313.500000
781.530090	306.000000
781.566528	305.500000
781.602966	302.000000
781.639465	297.500000
781.675903	289.800000
781.712402	289.800000
781.748901	291.700000
781.785278	281.600000
781.821777	285.900000
781.858276	281.600000
781.894714	287.100000
781.931152	279.100000
781.967651	284.000000
782.004089	275.300000
782.040527	282.800000
782.076965	279.900000
782.113403	280.200000
782.149902	281.600000
782.186340	280.400000
782.222778	291.700000
782.259277	286.500000
782.295654	287.100000
782.332092	291.900000
782.368591	293.500000
782.404968	296.400000
782.441467	304.000000
782.477905	311.900000
782.514282	312.200000
782.550781	325.300000
782.587219	328.500000
782.623596	338.900000
782.660095	346.300000
782.696472	357.300000
782.732910	365.400000
782.769348	369.600000
782.805786	392.800000
782.842224	401.100000
782.878662	407.900000
782.915039	413.900000
782.951477	427.400000
782.987915	433.000000
783.024292	449.700000
783.060730	461.900000
783.097168	466.400000
783.133545	469.400000
783.169983	482.000000
783.206421	486.600000
783.242798	498.400000
783.279236	503.500000
783.315613	516.600000
783.352051	523.700000
783.388489	534.900000
783.424866	535.500000
783.461304	552.000000
783.497681	566.800000
783.534058	573.900000
783.570496	583.100000
783.606934	589.900000
783.643250	595.700000
783.679687	612.300000
783.716125	614.800000
783.752441	629.300000
783.788879	649.800000
783.825317	659.300000
783.861633	671.600000
783.898071	682.200000
783.934448	698.000000
783.970825	713.300000
784.007263	723.700000
784.043579	729.100000
784.080017	740.600000
784.116394	733.300000
784.152710	744.800000
784.189148	756.200000
784.225525	753.900000
784.261902	752.100000
784.298279	747.500000
784.334656	748.800000
784.371033	742.900000
784.407410	750.000000
784.443787	734.100000
784.480164	722.300000
784.516541	715.700000
784.552856	722.800000
784.589233	725.200000
784.625610	720.500000
784.661987	737.100000
784.698364	735.800000
784.734741	724.600000
784.771057	725.400000
784.807434	731.400000
784.843811	742.900000
784.880127	743.800000
784.916504	767.800000
784.952881	772.500000
784.989197	770.100000
785.025574	769.300000
785.061951	776.500000
785.098267	791.800000
785.134644	791.200000
785.170959	788.500000
785.207275	787.500000
785.243652	792.700000
785.279968	778.900000
785.316345	778.100000
785.352722	777.200000
785.388977	775.600000
785.425354	758.200000
785.461731	741.300000
785.498047	740.300000
785.534363	733.800000
785.570679	733.900000
785.606995	737.400000
785.643372	741.500000
785.679687	733.800000
785.716003	724.000000
785.752380	721.200000
785.788635	734.900000
785.825012	747.100000
785.861328	750.100000
785.897644	742.600000
785.933960	751.800000
785.970337	750.400000
786.006592	773.400000
786.042908	781.100000
786.079285	784.200000
786.115540	796.000000
786.151855	797.700000
786.188171	794.800000
786.224487	798.700000
786.260803	798.100000
786.297119	805.000000
786.333435	800.300000
786.369751	794.300000
786.406006	795.700000
786.442322	783.200000
786.478638	774.500000
786.514954	782.900000
786.551270	770.900000
786.587585	771.800000
786.623840	764.500000
786.660156	766.000000
786.696472	758.100000
786.732727	752.300000
786.769043	756.500000
786.805298	751.400000
786.841614	751.500000
786.877930	762.600000
786.914124	749.400000
786.950439	765.600000
786.986755	779.700000
787.023010	790.900000
787.059326	791.700000
787.095642	800.200000
787.131836	812.000000
787.168152	806.600000
787.204468	814.300000
787.240723	827.700000
787.276978	837.800000
787.313293	842.200000
787.349548	842.400000
787.385803	842.100000
787.422058	838.300000
787.458313	835.600000
787.494629	826.100000
787.530823	830.900000
787.567139	819.600000
787.603455	810.800000
787.639648	798.500000
787.675903	801.500000
787.712219	798.800000
787.748413	800.200000
787.784729	804.800000
787.820984	794.800000
787.857178	787.600000
787.893494	783.600000
787.929749	790.700000
787.965942	802.200000
788.002258	813.500000
788.038452	817.000000
788.074707	817.100000
788.110962	827.200000
788.147217	827.300000
788.183472	835.000000
788.219727	844.300000
788.255920	861.900000
788.292175	860.700000
788.328430	856.800000
788.364624	851.600000
788.400879	847.500000
788.437134	854.600000
788.473328	860.700000
788.509583	858.200000
788.545837	861.700000
788.582031	859.500000
788.618286	855.200000
788.654480	848.300000
788.690735	859.100000
788.726990	873.300000
788.763184	868.400000
788.799377	878.000000
788.835632	875.500000
788.871826	884.300000
788.908081	876.800000
788.944336	874.100000
788.980469	888.300000
789.016724	882.300000
789.052979	884.700000
789.089111	874.400000
789.125366	874.900000
789.161621	868.500000
789.197754	883.300000
789.234009	874.200000
789.270142	872.500000
789.306396	864.700000
789.342590	865.700000
789.378784	847.600000
789.414978	838.300000
789.451233	842.000000
789.487366	852.500000
789.523621	853.600000
789.559814	857.100000
789.595947	853.900000
789.632202	855.100000
789.668335	868.500000
789.704529	886.900000
789.740784	899.400000
789.776917	897.600000
789.813110	898.600000
789.849304	903.100000
789.885498	897.900000
789.921692	909.300000
789.957886	918.100000
789.994019	927.000000
790.030212	931.300000
790.066406	932.500000
790.102539	927.900000
790.138733	930.200000
790.174927	925.800000
790.211060	944.500000
790.247253	936.200000
790.283386	927.400000
790.319580	920.400000
790.355774	907.600000
790.391907	908.300000
790.428101	914.500000
790.464294	915.100000
790.500427	916.200000
790.536621	901.000000
790.572754	894.500000
790.608887	890.300000
790.645081	900.800000
790.681274	912.500000
790.717346	909.300000
790.753540	901.300000
790.789734	888.400000
790.825867	873.700000
790.862000	867.900000
790.898132	880.800000
790.934265	882.800000
790.970459	881.900000
791.006592	886.500000
791.042725	886.100000
791.078918	877.400000
791.114990	870.100000
791.151184	874.900000
791.187317	888.800000
791.223389	891.900000
791.259583	881.000000
791.295715	875.800000
791.331848	883.700000
791.367981	890.800000
791.404114	895.900000
791.440247	908.500000
791.476379	907.100000
791.512451	886.500000
791.548584	887.000000
791.584778	878.800000
791.620850	890.800000
791.656982	892.600000
791.693115	891.700000
791.729187	886.600000
791.765381	887.600000
791.801514	882.000000
791.837585	879.000000
791.873718	887.800000
791.909851	896.600000
791.945923	906.200000
791.982056	889.800000
792.018188	884.200000
792.054260	878.900000
792.090393	874.500000
792.126465	870.000000
792.162598	888.000000
792.198669	879.800000
792.234741	875.400000
792.270874	862.700000
792.307007	854.400000
792.343079	857.400000
792.379150	867.100000
792.415283	858.600000
792.451355	861.800000
792.487488	846.000000
792.523560	836.900000
792.559631	824.700000
792.595764	799.000000
792.631836	765.200000
792.667908	744.100000
792.703979	720.600000
792.740051	733.700000
792.776184	768.200000
792.812256	781.400000
792.848328	793.300000
792.884399	810.000000
792.920471	805.900000
792.956543	807.400000
792.992615	808.000000
793.028748	800.800000
793.064758	799.400000
793.100830	825.000000
793.136963	845.900000
793.172974	839.300000
793.209045	831.700000
793.245178	833.700000
793.281189	828.700000
793.317261	833.300000
793.353271	830.900000
793.389404	849.300000
793.425476	838.700000
793.461487	824.400000
793.497559	820.000000
793.533630	821.800000
793.569641	815.500000
793.605713	816.700000
793.641785	822.300000
793.677795	829.700000
793.713867	825.600000
793.749878	833.400000
793.785950	847.200000
793.822021	847.500000
793.858032	835.400000
793.894104	854.200000
793.930176	852.800000
793.966187	859.100000
794.002258	847.600000
794.038269	856.300000
794.074280	849.100000
794.110352	873.200000
794.146423	861.300000
794.182373	849.500000
794.218445	842.300000
794.254517	841.100000
794.290466	832.000000
794.326538	835.600000
794.362549	834.100000
794.398560	840.800000
794.434631	840.000000
794.470581	826.000000
794.506653	816.700000
794.542664	817.900000
794.578674	824.600000
794.614685	822.000000
794.650757	824.600000
794.686707	824.300000
794.722778	816.400000
794.758789	825.300000
794.794739	828.500000
794.830811	844.300000
794.866821	861.900000
794.902771	861.100000
794.938843	856.600000
794.974792	858.000000
795.010803	859.700000
795.046814	866.100000
795.082825	857.000000
795.118835	880.300000
795.154846	860.100000
795.190796	866.200000
795.226807	843.500000
795.262817	850.100000
795.298767	847.100000
795.334778	852.900000
795.370850	846.100000
795.406799	842.500000
795.442810	834.200000
795.478821	834.300000
795.514709	827.600000
795.550720	854.000000
795.586670	828.700000
795.622681	833.700000
795.658691	836.800000
795.694641	842.800000
795.730652	837.700000
795.766663	840.800000
795.802551	844.600000
795.838562	859.000000
795.874573	848.800000
795.910522	847.100000
795.946472	835.300000
795.982483	833.300000
796.018433	842.900000
796.054382	852.900000
796.090393	844.300000
796.126282	837.700000
796.162292	824.700000
796.198242	813.600000
796.234192	815.800000
796.270203	812.400000
796.306091	818.900000
796.342041	831.300000
796.378052	830.500000
796.413940	831.700000
796.449951	830.800000
796.485901	824.700000
796.521790	832.000000
796.557800	847.800000
796.593689	847.000000
796.629639	841.200000
796.665649	838.200000
796.701599	834.500000
796.737488	830.800000
796.773437	843.600000
796.809387	841.500000
796.845337	848.300000
796.881287	843.400000
796.917175	821.600000
796.953125	818.400000
796.989075	822.800000
797.024963	829.000000
797.060913	823.200000
797.096863	832.600000
797.132751	825.400000
797.168701	806.400000
797.204590	808.600000
797.240540	814.500000
797.276489	824.000000
797.312439	829.500000
797.348328	829.600000
797.384277	823.200000
797.420166	807.000000
797.456055	803.700000
797.492004	804.800000
797.527893	808.800000
797.563843	812.900000
797.599731	811.200000
797.635620	808.300000
797.671570	811.700000
797.707520	812.100000
797.743347	813.600000
797.779297	816.700000
797.815125	824.900000
797.851074	814.600000
797.887024	805.800000
797.922913	795.600000
797.958801	790.600000
797.994690	785.300000
798.030579	791.800000
798.066467	800.200000
798.102356	797.000000
798.138245	790.000000
798.174133	777.900000
798.210083	791.200000
798.245911	800.900000
798.281799	791.800000
798.317749	792.400000
798.353577	793.100000
798.389465	784.700000
798.425293	785.500000
798.461243	777.700000
798.497131	786.000000
798.532959	794.900000
798.568848	798.700000
798.604736	787.400000
798.640564	774.000000
798.676453	772.100000
798.712402	775.500000
798.748230	782.200000
798.784119	781.400000
798.820007	782.000000
798.855835	783.100000
798.891724	778.300000
798.927551	773.200000
798.963379	773.300000
798.999268	768.600000
799.035095	767.500000
799.070984	763.300000
799.106873	748.900000
799.142700	754.100000
799.178528	738.000000
799.214417	747.800000
799.250244	758.700000
799.286133	759.900000
799.321960	760.000000
799.357788	752.700000
799.393677	746.400000
799.429504	750.300000
799.465332	749.200000
799.501221	757.100000
799.537048	756.100000
799.572876	753.100000
799.608704	752.200000
799.644531	753.200000
799.680359	753.700000
799.716248	765.700000
799.752014	773.600000
799.787903	767.300000
799.823730	763.100000
799.859558	754.900000
799.895386	747.300000
799.931213	750.100000
799.967041	752.200000
800.002869	747.300000
800.038696	756.700000
800.074463	747.100000
800.110352	753.000000
800.146179	736.400000
800.181946	744.800000
800.217773	753.600000
800.253540	754.300000
800.289429	747.900000
800.325256	738.000000
800.361023	728.300000
800.396851	735.100000
800.432678	743.300000
800.468445	750.900000
800.504272	754.500000
800.540100	735.100000
800.575867	727.700000
800.611694	732.000000
800.647461	722.900000
800.683289	733.500000
800.719116	738.100000
800.754883	737.600000
800.790649	721.100000
800.826477	716.000000
800.862244	727.600000
800.898071	719.600000
800.933838	722.200000
800.969604	721.200000
801.005432	721.000000
801.041199	723.700000
801.076965	711.500000
801.112793	705.600000
801.148560	701.800000
801.184326	704.400000
801.220154	707.000000
801.255859	699.600000
801.291687	705.300000
801.327454	692.300000
801.363281	695.900000
801.398987	692.100000
801.434814	688.300000
801.470520	696.500000
801.506287	694.400000
801.542114	688.400000
801.577820	685.100000
801.613647	680.400000
801.649414	678.400000
801.685120	683.900000
801.720886	688.900000
801.756714	673.200000
801.792419	673.900000
801.828186	672.500000
801.863892	671.500000
801.899719	667.100000
801.935486	670.400000
801.971252	677.800000
802.006958	669.000000
802.042725	663.400000
802.078430	659.600000
802.114197	659.200000
802.149963	672.200000
802.185669	665.300000
802.221436	666.700000
802.257202	665.900000
802.292908	658.400000
802.328674	665.400000
802.364441	669.100000
802.400146	665.600000
802.435913	665.600000
802.471558	662.000000
802.507324	659.000000
802.543091	653.500000
802.578796	666.400000
802.614502	663.900000
802.650269	675.000000
802.685974	659.100000
802.721741	661.900000
802.757446	663.200000
802.793152	658.500000
802.828918	663.500000
802.864624	671.400000
802.900330	668.600000
802.936035	666.100000
802.971802	658.300000
803.007446	648.800000
803.043213	643.000000
803.078857	655.700000
803.114624	644.300000
803.150330	649.900000
803.185974	640.200000
803.221741	635.800000
803.257446	645.300000
803.293152	650.900000
803.328857	648.400000
803.364563	646.600000
803.400208	640.600000
803.435974	640.500000
803.471680	633.500000
803.507324	633.600000
803.543030	639.400000
803.578735	641.300000
803.614441	636.900000
803.650146	645.200000
803.685791	635.800000
803.721497	638.300000
803.757202	626.800000
803.792847	634.100000
803.828552	628.200000
803.864258	625.200000
803.899902	620.800000
803.935608	616.400000
803.971313	616.100000
804.006958	608.700000
804.042664	609.300000
804.078308	619.000000
804.113953	613.400000
804.149658	622.300000
804.185364	607.000000
804.221008	623.800000
804.256714	605.000000
804.292297	603.200000
804.328003	602.000000
804.363708	595.700000
804.399292	597.800000
804.434998	596.600000
804.470703	591.600000
804.506287	602.500000
804.541992	593.200000
804.577637	596.500000
804.613281	585.400000
804.648926	582.800000
804.684570	583.800000
804.720215	579.100000
804.755920	582.600000
804.791565	579.300000
804.827209	587.500000
804.862854	585.700000
804.898437	578.800000
804.934143	580.000000
804.969788	579.200000
805.005371	576.200000
805.041077	578.200000
805.076721	580.400000
805.112305	570.200000
805.147949	569.700000
805.183655	562.600000
805.219238	566.900000
805.254883	566.400000
805.290466	571.400000
805.326111	565.900000
805.361755	565.700000
805.397400	561.800000
805.432983	561.400000
805.468628	556.600000
805.504211	565.700000
805.539856	563.800000
805.575500	565.200000
805.611084	560.800000
805.646729	551.000000
805.682373	553.400000
805.717957	560.100000
805.753601	564.200000
805.789246	556.800000
805.824768	564.800000
805.860413	562.500000
805.895996	547.900000
805.931641	550.700000
805.967224	555.600000
806.002869	551.500000
806.038452	557.600000
806.074036	564.300000
806.109619	545.600000
806.145264	541.700000
806.180847	542.400000
806.216431	541.100000
806.252014	543.200000
806.287659	544.600000
806.323181	551.700000
806.358826	548.800000
806.394409	541.200000
806.429993	539.400000
806.465576	541.000000
806.501160	533.600000
806.536743	527.900000
806.572327	537.700000
806.607910	536.600000
806.643494	534.300000
806.679077	527.200000
806.714661	526.400000
806.750244	529.600000
806.785828	526.200000
806.821350	527.300000
806.856934	526.400000
806.892517	520.700000
806.928101	519.300000
806.963684	525.000000
806.999268	527.200000
807.034790	512.400000
807.070374	515.700000
807.105896	511.200000
807.141479	507.700000
807.177063	510.500000
807.212585	506.000000
807.248169	504.200000
807.283752	512.000000
807.319275	508.400000
807.354858	506.200000
807.390381	502.300000
807.425903	498.500000
807.461487	498.300000
807.497070	495.500000
807.532593	496.600000
807.568115	492.500000
807.603699	492.400000
807.639221	484.900000
807.674744	487.900000
807.710266	492.500000
807.745850	494.200000
807.781372	490.800000
807.816895	486.500000
807.852417	488.900000
807.888000	484.500000
807.923523	479.100000
807.959045	484.400000
807.994629	480.100000
808.030090	479.600000
808.065613	479.500000
808.101135	482.700000
808.136658	477.800000
808.172241	481.700000
808.207764	481.700000
808.243225	475.700000
808.278809	472.700000
808.314270	477.000000
808.349792	469.300000
808.385315	467.100000
808.420837	470.200000
808.456360	473.500000
808.491882	480.000000
808.527344	473.400000
808.562866	478.700000
808.598389	466.200000
808.633850	467.700000
808.669434	465.000000
808.704895	468.900000
808.740417	475.700000
808.775940	471.400000
808.811462	464.900000
808.846924	461.000000
808.882385	457.100000
808.917847	458.500000
808.953369	459.600000
808.988892	455.000000
809.024353	462.100000
809.059875	462.200000
809.095398	456.600000
809.130798	451.700000
809.166321	450.800000
809.201843	447.800000
809.237305	452.000000
809.272766	459.300000
809.308228	446.200000
809.343750	447.100000
809.379211	447.000000
809.414734	450.700000
809.450134	450.700000
809.485657	440.800000
809.521118	445.200000
809.556580	443.200000
809.592102	442.100000
809.627502	443.000000
809.663025	437.700000
809.698486	436.900000
809.733887	430.900000
809.769409	436.800000
809.804871	428.200000
809.840271	427.200000
809.875793	429.900000
809.911194	435.500000
809.946655	429.800000
809.982178	425.600000
810.017639	427.300000
810.053040	425.200000
810.088501	426.200000
810.123901	423.800000
810.159424	421.800000
810.194885	417.400000
810.230286	421.500000
810.265747	410.900000
810.301208	411.100000
810.336609	413.200000
810.372070	406.100000
810.407532	409.800000
810.442932	413.600000
810.478394	414.600000
810.513794	406.900000
810.549255	404.800000
810.584717	402.400000
810.620117	397.400000
810.655518	405.100000
810.690979	399.800000
810.726379	402.200000
810.761841	393.300000
810.797302	389.600000
810.832642	389.500000
810.868103	403.800000
810.903564	391.500000
810.938904	398.100000
810.974365	383.800000
811.009827	389.300000
811.045166	386.100000
811.080627	381.900000
811.115967	382.900000
811.151428	386.600000
811.186829	382.200000
811.222229	385.200000
811.257629	377.600000
811.293091	383.300000
811.328430	388.300000
811.363892	382.300000
811.399292	382.900000
811.434631	379.000000
811.470093	382.300000
811.505493	375.200000
811.540833	372.000000
811.576294	377.000000
811.611694	372.900000
811.647034	367.600000
811.682434	372.600000
811.717773	376.400000
811.753235	379.400000
811.788635	372.900000
811.823975	375.100000
811.859375	379.300000
811.894775	367.200000
811.930115	369.100000
811.965515	369.100000
812.000916	371.300000
812.036255	368.300000
812.071655	369.400000
812.106995	362.200000
812.142395	364.100000
812.177795	370.900000
812.213196	365.700000
812.248474	368.400000
812.283875	361.500000
812.319214	363.600000
812.354614	363.500000
812.390015	357.700000
812.425293	359.500000
812.460693	359.000000
812.496094	357.700000
812.531433	351.800000
812.566772	354.600000
812.602173	354.200000
812.637451	352.900000
812.672852	350.800000
812.708191	353.100000
812.743530	347.200000
812.778931	342.100000
812.814270	345.300000
812.849609	351.100000
812.884949	345.900000
812.920227	339.700000
812.955627	350.400000
812.990967	342.400000
813.026306	338.700000
813.061646	330.100000
813.096985	327.700000
813.132324	326.500000
813.167664	329.500000
813.203003	334.700000
813.238281	323.400000
813.273682	324.100000
813.308960	321.500000
813.344299	322.900000
813.379639	330.600000
813.414978	324.700000
813.450256	321.100000
813.485596	326.000000
813.520874	318.200000
813.556213	320.200000
813.591614	325.500000
813.626831	318.100000
813.662170	318.800000
813.697510	324.000000
813.732788	314.900000
813.768127	319.400000
813.803467	318.700000
813.838745	314.000000
813.874084	315.900000
813.909363	315.400000
813.944641	315.000000
813.979980	309.000000
814.015320	310.400000
814.050598	307.000000
814.085876	310.000000
814.121155	308.100000
814.156494	308.600000
814.191772	309.400000
814.227051	303.300000
814.262390	306.000000
814.297668	306.200000
814.332947	306.400000
814.368225	300.400000
814.403564	302.800000
814.438782	297.400000
814.474121	300.400000
814.509338	297.500000
814.544617	305.100000
814.579956	299.500000
814.615173	307.300000
814.650513	300.600000
814.685791	296.400000
814.721008	298.500000
814.756348	297.600000
814.791626	296.000000
814.826843	296.400000
814.862122	295.800000
814.897400	294.200000
814.932678	293.300000
814.967957	292.700000
815.003235	293.800000
815.038452	288.300000
815.073730	284.700000
815.108948	294.000000
815.144226	292.600000
815.179504	294.300000
815.214722	284.100000
815.250000	285.000000
815.285278	290.300000
815.320496	284.000000
815.355774	286.500000
815.391052	286.800000
815.426270	284.500000
815.461487	282.600000
815.496765	280.200000
815.531982	276.800000
815.567261	280.600000
815.602539	286.900000
815.637695	281.300000
815.672974	281.600000
815.708191	282.000000
815.743408	282.600000
815.778687	277.000000
815.813904	282.200000
815.849121	271.500000
815.884399	272.000000
815.919556	272.800000
815.954834	273.600000
815.990051	276.000000
816.025269	279.100000
816.060486	271.700000
816.095703	270.900000
816.130920	273.500000
816.166199	268.300000
816.201416	272.600000
816.236572	273.900000
816.271851	267.100000
816.307007	270.900000
816.342224	262.100000
816.377441	265.900000
816.412659	263.000000
816.447876	268.100000
816.483093	265.500000
816.518250	262.900000
816.553467	260.900000
816.588745	264.100000
816.623901	258.700000
816.659119	254.100000
816.694275	259.900000
816.729492	255.800000
816.764709	284.500000
816.799927	253.100000
816.835083	257.500000
816.870300	251.600000
816.905457	256.700000
816.940674	256.100000
816.975830	251.300000
817.010986	248.000000
817.046204	248.500000
817.081421	247.800000
817.116577	247.000000
817.151733	253.600000
817.186951	251.500000
817.222107	250.900000
817.257324	252.300000
817.292419	250.400000
817.327637	244.900000
817.362854	247.000000
817.398010	243.400000
817.433167	246.100000
817.468323	241.500000
817.503479	243.700000
817.538635	252.700000
817.573853	246.600000
817.608948	244.200000
817.644165	240.900000
817.679321	241.600000
817.714478	238.800000
817.749634	243.700000
817.784790	250.900000
817.819946	246.600000
817.855103	232.800000
817.890198	239.300000
817.925415	232.800000
817.960571	240.000000
817.995667	241.200000
818.030823	240.100000
818.066040	234.600000
818.101135	239.800000
818.136292	238.200000
818.171448	234.000000
818.206543	236.000000
818.241699	238.100000
818.276855	236.800000
818.311951	235.200000
818.347107	230.900000
818.382263	235.600000
818.417358	240.200000
818.452515	238.000000
818.487610	238.000000
818.522766	229.000000
818.557922	239.300000
818.593018	235.500000
818.628113	232.500000
818.663269	229.600000
818.698364	232.400000
818.733521	227.600000
818.768677	231.000000
818.803711	227.900000
818.838867	225.600000
818.874023	228.700000
818.909058	226.300000
818.944214	223.700000
818.979370	228.400000
819.014404	227.300000
819.049561	224.800000
819.084595	228.500000
819.119751	221.400000
819.154846	227.700000
819.189941	223.900000
819.225037	220.600000
819.260193	216.500000
819.295227	217.200000
819.330322	215.600000
819.365479	216.400000
819.400513	250.800000
819.435608	213.300000
819.470764	212.400000
819.505798	214.300000
819.540894	217.800000
819.575989	214.200000
819.611084	220.100000
819.646179	222.100000
819.681213	219.000000
819.716309	214.700000
819.751404	214.600000
819.786438	219.600000
819.821533	211.200000
819.856628	215.000000
819.891663	216.900000
819.926758	223.800000
819.961853	219.400000
819.996887	211.300000
820.031982	215.700000
820.067017	212.900000
820.102112	244.600000
820.137207	210.700000
820.172302	223.300000
820.207275	210.000000
820.242371	208.500000
820.277405	211.500000
820.312500	211.500000
820.347534	213.000000
820.382568	213.800000
820.417664	209.000000
820.452759	207.900000
820.487732	208.100000
820.522827	208.500000
820.557861	204.300000
820.592896	207.100000
820.627930	207.700000
820.662964	204.900000
820.698059	210.800000
820.733093	207.800000
820.768127	210.100000
820.803162	206.000000
820.838196	205.100000
820.873230	206.300000
820.908264	209.000000
820.943298	204.800000
820.978333	211.100000
821.013367	207.300000
821.048401	210.300000
821.083435	209.900000
821.118469	200.400000
821.153503	209.300000
821.188477	207.400000
821.223511	200.200000
821.258484	205.500000
821.293579	206.500000
821.328613	200.800000
821.363647	204.100000
821.398621	201.600000
821.433655	202.600000
821.468628	216.200000
821.503662	203.200000
821.538696	205.900000
821.573669	200.500000
821.608704	207.600000
821.643677	202.400000
821.678650	205.400000
821.713684	209.400000
821.748718	203.200000
821.783691	203.000000
821.818726	203.200000
821.853638	205.900000
821.888672	202.200000
821.923706	202.300000
821.958618	200.900000
821.993652	201.400000
822.028687	206.300000
822.063599	209.900000
822.098633	205.300000
822.133667	198.000000
822.168579	201.800000
822.203613	203.300000
822.238586	199.500000
822.273560	205.200000
822.308533	200.500000
822.343567	200.100000
822.378479	201.700000
822.413452	200.800000
822.448425	198.200000
822.483398	205.500000
822.518372	206.200000
822.553345	198.800000
822.588318	207.900000
822.623291	199.900000
822.658203	200.200000
822.693237	201.200000
822.728210	199.100000
822.763123	201.500000
822.798096	198.000000
822.833069	200.100000
822.867981	199.600000
822.902954	202.500000
822.937927	201.900000
822.972900	208.700000
823.007874	195.500000
823.042725	204.400000
823.077698	209.400000
823.112671	197.800000
823.147583	199.600000
823.182556	202.500000
823.217529	204.800000
823.252441	199.400000
823.287415	209.600000
823.322388	204.400000
823.357239	199.100000
823.392212	206.500000
823.427185	206.100000
823.462097	197.600000
823.497009	202.600000
823.531982	198.100000
823.566895	201.200000
823.601807	196.300000
823.636719	200.000000
823.671631	201.900000
823.706604	198.000000
823.741455	201.600000
823.776428	194.900000
823.811340	202.700000
823.846252	205.300000
823.881165	205.200000
823.916138	200.800000
823.950989	207.200000
823.985901	197.300000
824.020813	199.900000
824.055725	199.100000
824.090637	195.700000
824.125610	203.200000
824.160461	201.700000
824.195374	200.200000
824.230225	203.000000
824.265198	194.600000
824.300110	196.800000
824.334961	207.200000
824.369873	193.400000
824.404785	200.600000
824.439636	203.500000
824.474548	193.100000
824.509460	191.900000
824.544312	203.400000
824.579224	201.000000
824.614075	200.400000
824.648987	197.100000
824.683899	198.500000
824.718811	195.500000
824.753662	201.900000
824.788574	201.800000
824.823364	200.400000
824.858276	195.000000
824.893188	201.300000
824.928040	201.800000
824.962952	198.900000
824.997803	201.500000
825.032654	198.300000
825.067566	198.800000
825.102417	196.300000
825.137268	196.600000
825.172119	196.400000
825.206970	196.700000
825.241882	196.900000
825.276733	194.600000
825.311646	195.200000
825.346436	193.300000
825.381348	191.600000
825.416138	196.200000
825.450989	192.000000
825.485901	190.000000
825.520691	190.800000
825.555542	190.800000
825.590454	193.000000
825.625244	190.500000
825.660095	201.200000
825.695007	198.000000
825.729797	195.400000
825.764648	192.200000
825.799438	193.600000
825.834290	195.500000
825.869202	190.000000
825.903992	195.700000
825.938843	191.600000
825.973694	189.500000
826.008484	203.400000
826.043335	190.800000
826.078186	187.100000
826.112976	198.500000
826.147827	198.200000
826.182678	199.700000
826.217468	188.800000
826.252319	198.400000
826.287109	189.700000
826.321899	196.100000
826.356750	192.200000
826.391541	189.000000
826.426392	195.800000
826.461182	192.100000
826.495972	187.800000
826.530823	186.000000
826.565613	192.500000
826.600403	188.600000
826.635254	193.900000
826.670044	185.800000
826.704834	185.700000
826.739685	187.400000
826.774475	194.200000
826.809265	192.500000
826.844055	190.700000
826.878906	197.000000
826.913635	193.300000
826.948425	194.300000
826.983215	195.300000
827.018005	195.600000
827.052856	190.300000
827.087585	195.100000
827.122375	188.300000
827.157227	192.100000
827.191956	202.900000
827.226746	188.000000
827.261536	195.300000
827.296265	188.800000
827.331116	190.300000
827.365906	194.300000
827.400635	190.800000
827.435425	186.200000
827.470215	196.600000
827.504944	191.900000
827.539734	195.400000
827.574463	192.000000
827.609253	197.200000
827.644043	190.400000
827.678772	195.500000
827.713562	190.400000
827.748352	190.300000
827.783081	188.200000
827.817871	192.900000
827.852600	188.400000
827.887329	191.800000
827.922119	185.400000
827.956848	195.300000
827.991638	202.900000
828.026367	192.400000
828.061157	192.300000
828.095886	191.900000
828.130615	205.900000
828.165344	185.700000
828.200073	191.100000
828.234863	189.800000
828.269592	190.300000
828.304321	195.100000
828.339111	191.900000
828.373779	188.900000
828.408569	195.900000
828.443298	195.300000
828.477966	189.800000
828.512756	192.800000
828.547424	189.100000
828.582214	189.800000
828.616943	190.600000
828.651672	191.200000
828.686340	194.700000
828.721130	188.300000
828.755798	191.500000
828.790527	192.300000
828.825256	193.800000
828.859924	193.300000
828.894714	196.100000
828.929443	199.300000
828.964111	189.700000
828.998840	190.400000
829.033569	188.300000
829.068237	191.000000
829.102966	189.900000
829.137634	191.400000
829.172363	193.300000
829.207092	192.300000
829.241821	187.700000
829.276489	187.000000
829.311157	192.500000
829.345825	191.100000
829.380554	196.300000
829.415283	189.500000
829.449951	185.500000
829.484619	198.400000
829.519348	196.800000
829.554016	191.000000
829.588745	192.900000
829.623413	187.300000
829.658081	199.300000
829.692749	187.700000
829.727417	195.900000
829.762146	193.100000
829.796814	188.900000
829.831482	190.700000
829.866150	192.900000
829.900879	191.300000
829.935486	193.300000
829.970154	190.400000
830.004883	202.700000
830.039490	192.900000
830.074219	188.300000
830.108887	191.800000
830.143494	190.300000
830.178223	187.200000
830.212891	191.000000
830.247498	191.300000
830.282166	197.900000
830.316772	196.500000
830.351501	189.100000
830.386169	190.600000
830.420776	190.400000
830.455444	192.800000
830.490112	189.900000
830.524719	185.700000
830.559387	193.500000
830.594055	192.800000
830.628662	190.900000
830.663330	193.000000
830.697998	198.200000
830.732605	190.900000
830.767273	194.100000
830.801941	191.300000
830.836487	199.400000
830.871155	193.100000
830.905762	193.200000
830.940430	186.400000
830.975098	189.600000
831.009644	191.500000
831.044312	198.600000
831.078979	193.500000
831.113525	186.400000
831.148193	192.600000
831.182861	190.400000
831.217407	194.500000
831.252075	203.600000
831.286621	189.800000
831.321289	189.500000
831.355896	191.800000
831.390564	197.900000
831.425110	192.200000
831.459778	196.800000
831.494324	202.900000
831.528931	192.500000
831.563599	197.500000
831.598145	186.800000
831.632751	190.500000
831.667419	191.000000
831.701965	192.100000
831.736572	193.200000
831.771179	187.100000
831.805786	190.800000
831.840393	195.700000
831.874939	186.600000
831.909546	194.900000
831.944153	185.400000
831.978760	191.800000
832.013306	187.300000
832.047913	195.100000
832.082458	198.000000
832.117065	190.000000
832.151672	198.000000
832.186218	193.400000
832.220825	193.300000
832.255432	184.000000
832.289978	188.900000
832.324585	192.900000
832.359192	192.200000
832.393677	190.200000
832.428284	193.700000
832.462830	189.500000
832.497437	190.300000
832.531982	193.700000
832.566589	189.300000
832.601135	191.900000
832.635681	185.500000
832.670227	191.900000
832.704773	198.300000
832.739380	194.100000
832.773926	192.200000
832.808472	189.300000
832.843079	192.300000
832.877563	194.500000
832.912170	191.100000
832.946716	186.200000
832.981201	196.100000
833.015808	195.000000
833.050293	190.400000
833.084839	189.000000
833.119446	191.300000
833.153992	196.300000
833.188477	190.400000
833.223022	188.600000
833.257568	192.300000
833.292114	196.400000
833.326660	201.000000
833.361145	190.000000
833.395691	185.900000
833.430237	192.400000
833.464783	194.000000
833.499329	189.400000
833.533875	188.600000
833.568359	194.100000
833.602905	195.300000
833.637390	195.800000
833.671875	190.400000
833.706421	191.400000
833.740906	189.400000
833.775452	184.500000
833.809998	189.500000
833.844482	198.100000
833.879028	191.900000
833.913513	190.500000
833.947998	194.400000
833.982544	189.700000
834.017090	189.600000
834.051514	183.500000
834.086060	193.500000
834.120544	191.500000
834.155029	194.100000
834.189575	190.300000
834.223999	193.600000
834.258545	193.700000
834.293030	191.600000
834.327515	191.400000
834.362000	189.400000
834.396545	193.900000
834.430969	191.100000
834.465454	195.800000
834.500000	186.600000
834.534424	193.400000
834.568970	185.300000
834.603455	185.500000
834.637878	189.000000
834.672363	191.900000
834.706909	190.700000
834.741333	191.500000
834.775818	185.800000
834.810242	187.800000
834.844727	191.700000
834.879211	190.700000
834.913635	192.400000
834.948181	191.700000
834.982666	192.600000
835.017090	190.200000
835.051575	193.300000
835.086060	189.800000
835.120483	194.400000
835.154907	193.700000
835.189331	191.500000
835.223816	192.700000
835.258301	187.000000
835.292786	189.000000
835.327209	195.200000
835.361694	188.600000
835.396057	191.000000
835.430542	193.200000
835.465027	192.000000
835.499390	188.300000
835.533875	217.900000
835.568359	189.500000
835.602722	186.900000
835.637207	191.400000
835.671692	187.600000
835.706055	207.500000
835.740540	194.400000
835.774902	194.000000
835.809387	193.400000
835.843811	187.300000
835.878235	196.500000
835.912659	186.800000
835.947083	188.500000
835.981506	191.200000
836.015930	186.900000
836.050354	194.900000
836.084778	197.400000
836.119202	195.500000
836.153625	205.300000
836.187988	189.300000
836.222473	188.400000
836.256897	193.500000
836.291260	190.800000
836.325684	192.900000
836.360046	190.000000
836.394470	191.500000
836.428894	197.200000
836.463318	190.100000
836.497681	195.400000
836.532104	196.800000
836.566467	191.700000
836.600891	190.400000
836.635315	196.800000
836.669678	193.200000
836.704102	193.600000
836.738525	193.800000
836.772888	186.100000
836.807251	188.100000
836.841675	194.200000
836.876038	186.600000
836.910461	188.600000
836.944763	193.900000
836.979187	190.200000
837.013611	196.600000
837.047974	185.800000
837.082336	201.200000
837.116699	193.800000
837.151062	191.200000
837.185486	187.100000
837.219849	190.100000
837.254211	194.700000
837.288574	190.600000
837.322937	187.300000
837.357300	184.500000
837.391663	201.700000
837.426086	194.000000
837.460388	191.600000
837.494751	193.700000
837.529114	187.600000
837.563477	197.400000
837.597839	193.200000
837.632141	191.600000
837.666565	188.500000
837.700928	193.800000
837.735229	192.300000
837.769592	193.600000
837.803955	194.900000
837.838257	189.700000
837.872620	189.500000
837.906982	198.100000
837.941284	192.200000
837.975647	193.800000
838.010010	197.200000
838.044312	190.400000
838.078674	190.900000
838.112976	193.000000
838.147339	194.600000
838.181702	192.100000
838.216003	199.300000
838.250366	192.200000
838.284668	193.800000
838.318970	187.300000
838.353333	191.300000
838.387634	190.700000
838.421936	191.700000
838.456299	193.200000
838.490601	196.400000
838.524902	195.300000
838.559265	194.900000
838.593567	195.400000
838.627869	187.300000
838.662170	193.000000
838.696472	187.300000
838.730774	188.700000
838.765137	194.100000
838.799377	182.100000
838.833740	191.300000
838.868042	195.900000
838.902283	186.500000
838.936646	197.700000
838.970947	192.500000
839.005188	196.600000
839.039551	186.800000
839.073792	197.400000
839.108093	190.400000
839.142395	199.500000
839.176697	186.500000
839.210937	193.300000
839.245300	199.600000
839.279541	185.500000
839.313843	190.800000
839.348145	194.400000
839.382385	195.100000
839.416687	196.100000
839.450989	192.800000
839.485229	189.900000
839.519531	188.300000
839.553833	196.500000
839.588013	191.600000
839.622314	193.200000
839.656555	193.300000
839.690857	191.900000
839.725159	188.100000
839.759460	191.600000
839.793640	191.000000
839.827942	192.000000
839.862183	188.500000
839.896423	193.700000
839.930725	202.800000
839.964966	199.100000
839.999207	196.400000
840.033508	197.700000
840.067688	190.000000
840.101990	198.900000
840.136230	191.200000
840.170471	197.100000
840.204712	188.600000
840.238953	189.100000
840.273193	192.200000
840.307434	195.600000
840.341736	188.400000
840.375916	187.300000
840.410217	189.300000
840.444397	195.700000
840.478638	193.500000
840.512878	196.900000
840.547119	193.100000
840.581360	196.000000
840.615601	198.200000
840.649780	201.400000
840.684021	192.100000
840.718262	199.100000
840.752441	197.900000
840.786682	192.900000
840.820862	192.700000
840.855103	199.800000
840.889343	193.200000
840.923584	196.200000
840.957764	193.800000
840.992004	193.000000
841.026184	203.800000
841.060425	192.100000
841.094666	191.200000
841.128845	196.200000
841.163025	192.100000
841.197266	193.400000
841.231445	191.200000
841.265686	193.800000
841.299866	189.100000
841.334045	198.400000
841.368286	191.300000
841.402405	197.500000
841.436646	195.100000
841.470825	191.200000
841.505005	190.800000
841.539185	188.900000
841.573425	189.100000
841.607544	191.600000
841.641785	192.000000
841.675964	188.300000
841.710144	191.100000
841.744324	189.500000
841.778503	192.200000
841.812683	188.500000
841.846863	197.800000
841.881042	197.500000
841.915222	188.700000
841.949402	202.800000
841.983521	185.800000
842.017700	191.300000
842.051880	192.500000
842.086060	194.600000
842.120239	192.000000
842.154419	188.900000
842.188538	192.000000
842.222717	189.200000
842.256897	198.900000
842.291016	191.600000
842.325195	193.800000
842.359375	199.600000
842.393494	197.800000
842.427673	191.700000
842.461853	193.300000
842.495911	199.100000
842.530090	193.400000
842.564209	191.600000
842.598389	193.200000
842.632568	191.900000
842.666626	194.900000
842.700806	190.400000
842.734985	190.800000
842.769043	194.300000
842.803223	192.000000
842.837402	190.500000
842.871460	188.100000
842.905640	200.700000
842.939697	188.800000
842.973877	192.200000
843.007996	196.900000
843.042175	199.700000
843.076233	188.200000
843.110413	194.500000
843.144470	198.700000
843.178589	195.500000
843.212769	189.600000
843.246826	195.900000
843.280945	189.600000
843.315125	191.000000
843.349182	189.500000
843.383301	197.800000
843.417419	201.700000
843.451538	192.000000
843.485657	190.400000
843.519714	192.300000
843.553833	193.500000
843.587952	189.900000
843.622070	190.400000
843.656128	194.600000
843.690247	191.300000
843.724304	192.300000
843.758423	194.000000
843.792542	190.100000
843.826599	192.400000
843.860718	190.600000
843.894836	187.400000
843.928894	192.900000
843.963013	193.200000
843.997070	188.200000
844.031128	188.100000
844.065247	196.300000
844.099304	195.000000
844.133362	194.500000
844.167480	194.600000
844.201599	196.100000
844.235596	194.800000
844.269714	194.200000
844.303711	194.100000
844.337830	187.300000
844.371948	193.600000
844.405945	191.500000
844.440063	188.900000
844.474121	202.600000
844.508118	190.500000
844.542236	193.000000
844.576294	192.900000
844.610352	187.700000
844.644409	191.100000
844.678406	185.700000
844.712524	194.400000
844.746582	197.300000
844.780640	191.500000
844.814636	192.900000
844.848755	200.200000
844.882751	191.500000
844.916809	194.800000
844.950867	194.600000
844.984863	199.900000
845.018921	190.900000
845.052979	190.100000
845.086975	192.000000
845.121033	186.900000
845.155090	188.700000
845.189087	197.400000
845.223145	191.900000
845.257141	193.000000
845.291199	196.400000
845.325256	198.400000
845.359253	194.600000
845.393250	204.300000
845.427307	191.000000
845.461304	194.100000
845.495361	192.500000
845.529358	200.900000
845.563354	191.200000
845.597412	188.600000
845.631409	200.500000
845.665405	198.100000
845.699463	196.100000
845.733459	191.300000
845.767456	201.600000
845.801453	192.400000
845.835449	196.700000
845.869446	196.300000
845.903503	195.600000
845.937439	188.400000
845.971497	198.000000
846.005493	187.300000
846.039429	196.400000
846.073486	200.800000
846.107483	190.800000
846.141418	191.100000
846.175476	192.800000
846.209473	197.900000
846.243408	189.700000
846.277405	192.000000
846.311401	190.100000
846.345337	191.700000
846.379395	197.800000
846.413330	190.500000
846.447327	201.400000
846.481323	190.000000
846.515259	191.200000
846.549255	191.800000
846.583252	194.900000
846.617187	189.800000
846.651184	194.000000
846.685120	193.000000
846.719055	200.000000
846.753052	196.700000
846.786987	196.900000
846.820984	188.100000
846.854980	198.800000
846.888916	190.100000
846.922852	193.500000
846.956848	197.900000
846.990723	191.300000
847.024719	194.500000
847.058716	190.800000
847.092590	198.100000
847.126587	193.600000
847.160522	191.400000
847.194458	195.400000
847.228455	189.500000
847.262390	188.400000
847.296265	191.800000
847.330261	198.400000
847.364136	190.700000
847.398132	190.700000
847.432068	193.700000
847.466003	191.100000
847.499939	191.700000
847.533875	193.600000
847.567749	192.200000
847.601746	189.800000
847.635681	195.700000
847.669556	185.700000
847.703491	198.100000
847.737427	203.000000
847.771301	188.800000
847.805237	195.900000
847.839233	193.400000
847.873108	192.700000
847.907043	191.800000
847.940918	198.500000
847.974854	194.400000
848.008789	196.000000
848.042664	191.800000
848.076538	194.700000
848.110474	192.300000
848.144348	194.400000
848.178284	189.300000
848.212219	195.100000
848.246094	190.400000
848.279968	193.200000
848.313904	195.600000
848.347778	192.600000
848.381653	191.600000
848.415588	189.800000
848.449463	188.900000
848.483337	194.600000
848.517212	199.800000
848.551086	192.500000
848.585022	189.200000
848.618835	201.700000
848.652771	190.600000
848.686646	189.100000
848.720520	198.900000
848.754395	192.600000
848.788330	195.400000
848.822144	195.100000
848.856018	191.500000
848.889954	200.200000
848.923767	189.600000
848.957642	190.100000
848.991577	195.000000
849.025391	192.300000
849.059265	191.500000
849.093079	189.300000
849.126953	188.000000
849.160828	197.800000
849.194641	193.600000
849.228577	190.600000
849.262451	191.600000
849.296265	191.900000
849.330139	189.900000
849.364014	192.900000
849.397827	194.800000
849.431702	193.400000
849.465515	197.500000
849.499329	186.300000
849.533203	189.000000
849.567078	185.100000
849.600891	194.600000
849.634766	191.000000
849.668518	195.700000
849.702393	194.400000
849.736267	187.900000
849.770020	199.700000
849.803894	194.700000
849.837769	194.400000
849.871521	193.200000
849.905396	196.500000
849.939270	190.700000
849.973022	192.000000
850.006897	196.200000
850.040710	195.000000
850.074524	195.900000
850.108337	191.900000
850.142151	197.700000
850.175964	197.200000
850.209778	191.800000
850.243530	184.400000
850.277405	196.300000
850.311218	191.200000
850.344971	190.600000
850.378845	199.000000
850.412659	190.100000
850.446411	193.800000
850.480225	191.500000
850.514038	196.500000
850.547791	195.000000
850.581665	191.300000
850.615417	189.600000
850.649231	193.800000
850.683044	191.900000
850.716858	192.200000
850.750610	192.700000
850.784424	195.600000
850.818176	190.100000
850.851929	191.200000
850.885742	189.600000
850.919495	192.000000
850.953308	197.600000
850.987122	198.800000
851.020874	188.600000
851.054626	186.900000
851.088440	194.700000
851.122192	195.800000
851.156006	193.100000
851.189697	192.000000
851.223511	189.000000
851.257263	195.800000
851.291077	194.700000
851.324829	191.700000
851.358582	190.400000
851.392334	190.800000
851.426086	190.800000
851.459900	199.100000
851.493591	193.300000
851.527344	192.300000
851.561157	191.900000
851.594849	194.600000
851.628662	193.100000
851.662415	198.400000
851.696106	193.500000
851.729858	195.300000
851.763611	188.600000
851.797363	194.800000
851.831116	188.300000
851.864868	194.500000
851.898560	197.800000
851.932312	190.700000
851.966064	194.000000
851.999817	193.100000
852.033569	191.700000
852.067261	198.200000
852.101013	189.600000
852.134766	193.000000
852.168457	186.600000
852.202209	197.100000
852.235901	189.700000
852.269592	194.500000
852.303345	199.000000
852.337036	195.800000
852.370789	193.800000
852.404541	196.200000
852.438171	190.500000
852.471924	193.600000
852.505676	188.600000
852.539307	193.800000
852.573059	190.100000
852.606812	192.400000
852.640442	190.800000
852.674194	197.800000
852.707886	201.200000
852.741577	199.100000
852.775269	188.900000
852.809021	193.200000
852.842651	195.000000
852.876404	198.700000
852.910034	193.800000
852.943787	196.600000
852.977478	195.600000
853.011108	190.000000
853.044861	189.000000
853.078552	197.400000
853.112183	193.400000
853.145874	193.200000
853.179626	186.000000
853.213257	193.500000
853.246948	191.000000
853.280640	199.700000
853.314270	192.500000
853.347961	197.300000
853.381653	194.900000
853.415283	197.800000
853.448975	190.000000
853.482605	193.400000
853.516296	192.600000
853.549988	188.700000
853.583618	194.100000
853.617310	194.800000
853.651001	194.900000
853.684631	189.100000
853.718323	191.000000
853.751953	198.600000
853.785583	186.500000
853.819275	197.100000
853.852966	195.200000
853.886536	186.400000
853.920227	188.800000
853.953918	196.600000
853.987488	192.300000
854.021179	195.900000
854.054749	199.000000
854.088440	195.400000
854.122131	189.500000
854.155701	194.800000
854.189331	190.200000
854.223022	194.300000
854.256592	193.500000
854.290283	189.800000
854.323914	195.200000
854.357483	194.200000
854.391174	194.600000
854.424744	199.500000
854.458374	192.600000
854.492065	203.600000
854.525696	193.000000
854.559265	197.400000
854.592896	202.300000
854.626465	193.600000
854.660095	192.000000
854.693787	195.400000
854.727356	191.700000
854.760986	196.300000
854.794617	194.800000
854.828186	192.100000
854.861816	195.800000
854.895447	194.300000
854.929016	194.300000
854.962585	193.700000
854.996155	201.800000
855.029785	194.000000
855.063416	194.500000
855.097046	195.900000
855.130615	189.800000
855.164185	197.900000
855.197754	193.000000
855.231384	194.300000
855.264954	190.700000
855.298523	195.700000
855.332153	194.600000
855.365723	198.900000
855.399292	190.000000
855.432922	193.000000
855.466492	194.500000
855.500061	189.900000
855.533630	190.100000
855.567200	195.900000
855.600769	196.700000
855.634338	198.600000
855.667969	194.200000
855.701477	189.500000
855.735046	191.000000
855.768616	186.200000
855.802185	194.600000
855.835754	203.900000
855.869324	187.300000
855.902893	191.900000
855.936401	196.400000
855.969971	192.500000
856.003540	187.000000
856.037109	195.600000
856.070618	192.600000
856.104187	187.700000
856.137695	191.300000
856.171265	186.000000
856.204834	193.200000
856.238403	196.600000
856.271912	191.000000
856.305481	194.100000
856.338989	189.300000
856.372559	195.300000
856.406128	195.600000
856.439636	197.100000
856.473145	193.600000
856.506653	199.200000
856.540222	193.800000
856.573792	197.800000
856.607300	197.200000
856.640808	189.400000
856.674377	194.300000
856.707825	227.400000
856.741394	198.000000
856.774902	190.600000
856.808472	186.800000
856.841980	196.300000
856.875488	198.400000
856.908936	187.800000
856.942505	192.900000
856.976013	192.500000
857.009521	189.000000
857.043030	194.000000
857.076477	191.100000
857.110046	197.500000
857.143555	194.400000
857.177063	194.900000
857.210571	191.300000
857.244080	188.800000
857.277527	194.700000
857.311035	193.700000
857.344543	196.600000
857.378052	192.000000
857.411499	197.300000
857.445068	199.300000
857.478516	191.100000
857.512024	189.000000
857.545532	191.200000
857.578979	194.000000
857.612427	193.100000
857.645874	190.100000
857.679382	193.100000
857.712891	197.500000
857.746399	193.100000
857.779846	196.700000
857.813354	196.900000
857.846741	193.100000
857.880249	191.100000
857.913757	194.400000
857.947266	193.200000
857.980652	195.800000
858.014160	192.700000
858.047546	191.900000
858.081055	192.100000
858.114563	202.500000
858.147949	188.600000
858.181458	195.100000
858.214844	191.500000
858.248352	186.700000
858.281799	195.700000
858.315308	202.000000
858.348694	195.900000
858.382141	200.800000
858.415588	196.900000
858.449036	197.500000
858.482483	195.400000
858.515930	190.700000
858.549377	193.600000
858.582825	197.500000
858.616211	194.900000
858.649658	194.900000
858.683105	189.400000
858.716553	191.800000
858.750000	188.600000
858.783386	191.600000
858.816833	187.000000
858.850281	194.300000
858.883728	194.500000
858.917114	194.100000
858.950562	200.600000
858.983948	199.500000
859.017395	196.500000
859.050781	192.400000
859.084167	190.100000
859.117615	188.500000
859.151062	195.500000
859.184448	189.200000
859.217834	191.500000
859.251282	192.000000
859.284668	189.800000
859.318054	187.300000
859.351440	192.000000
859.384888	199.600000
859.418274	187.000000
859.451721	187.100000
859.485046	195.700000
859.518494	195.100000
859.551819	189.500000
859.585266	195.000000
859.618652	197.400000
859.652039	187.700000
859.685425	188.200000
859.718811	187.600000
859.752197	184.300000
859.785583	198.500000
859.819031	197.800000
859.852356	196.000000
859.885742	189.800000
859.919067	193.200000
859.952454	190.500000
859.985901	197.000000
860.019287	191.500000
860.052612	0.000000
860.085999	0.000000
860.119324	0.000000
860.152710	0.000000
860.186096	0.000000
860.219421	0.000000
860.252808	0.000000
860.286133	0.000000
860.319519	0.000000
860.352905	0.000000
860.386292	0.000000
860.419617	0.000000
860.452942	0.000000
860.486267	0.000000
860.519653	0.000000
860.553040	0.000000
860.586365	0.000000
860.619690	0.000000
860.653076	0.000000
860.686340	0.000000
860.719727	0.000000
860.753113	0.000000
860.786377	0.000000
860.819763	0.000000
860.853027	0.000000
860.886414	0.000000
860.919739	0.000000
860.953125	0.000000
860.986389	0.000000
861.019714	0.000000
861.053040	0.000000
861.086365	0.000000
861.119690	0.000000
861.153076	0.000000
861.186340	0.000000
861.219666	0.000000
861.252930	0.000000
861.286316	0.000000
861.319641	0.000000
861.352905	0.000000
861.386230	0.000000
861.419495	0.000000
861.452820	0.000000
861.486145	0.000000
861.519470	0.000000
861.552734	0.000000
861.586060	0.000000
861.619324	0.000000
861.652649	0.000000
861.685974	0.000000
861.719238	0.000000
861.752563	0.000000
861.785828	0.000000
861.819092	0.000000
861.852417	0.000000
861.885742	0.000000
861.918945	0.000000
861.952271	0.000000
861.985535	0.000000
862.018799	0.000000
862.052124	0.000000
862.085449	0.000000
862.118652	0.000000
862.151978	0.000000
862.185181	0.000000
862.218506	0.000000
862.251770	0.000000
862.285034	0.000000
862.318298	0.000000
862.351562	0.000000
862.384827	0.000000
862.418091	0.000000
862.451355	0.000000
862.484619	0.000000
862.517883	0.000000
862.551086	0.000000
862.584351	0.000000
862.617676	0.000000
862.650940	0.000000
862.684143	0.000000
862.717407	0.000000
862.750610	0.000000
862.783875	0.000000
862.817139	0.000000
862.850342	0.000000
862.883606	0.000000
862.916870	0.000000
862.950073	0.000000
862.983337	0.000000
863.016602	0.000000
863.049805	0.000000
863.083069	0.000000
863.116211	0.000000
863.149475	0.000000
863.182739	0.000000
863.216003	0.000000
863.249146	0.000000
863.282410	0.000000
863.315613	0.000000
863.348816	0.000000
863.382080	0.000000
863.415222	0.000000
863.448486	0.000000
863.481689	0.000000
863.514893	0.000000
863.548157	0.000000
863.581360	0.000000
863.614502	0.000000
863.647766	0.000000
863.680908	0.000000
863.714172	0.000000
863.747375	0.000000
863.780579	0.000000
863.813721	0.000000
863.846985	0.000000
863.880127	0.000000
863.913330	0.000000
863.946533	0.000000
863.979675	0.000000
864.012939	0.000000
