Model Number: SPM-001-M   
Serial Number: 10090201
Firmware Version: 004.17.6
Exposure Time: 300000.000000us
Data Taken on: 21-01-2021 14:45:47.567
Wavelength	Amplitude
733.770752	0.000000
733.808716	0.000000
733.846619	0.000000
733.884583	0.000000
733.922546	0.000000
733.960449	0.000000
733.998413	0.000000
734.036377	0.000000
734.074219	0.000000
734.112183	0.000000
734.150085	0.000000
734.188049	0.000000
734.226013	0.000000
734.263916	0.000000
734.301819	0.000000
734.339783	0.000000
734.377686	0.000000
734.415588	0.000000
734.453552	0.000000
734.491455	0.000000
734.529419	0.000000
734.567322	0.000000
734.605225	0.000000
734.643127	0.000000
734.681091	0.000000
734.718994	0.000000
734.756897	0.000000
734.794800	0.000000
734.832703	0.000000
734.870667	0.000000
734.908508	0.000000
734.946472	0.000000
734.984375	0.000000
735.022278	0.000000
735.060181	0.000000
735.098083	0.000000
735.135986	0.000000
735.173889	0.000000
735.211792	0.000000
735.249695	0.000000
735.287598	0.000000
735.325439	0.000000
735.363403	0.000000
735.401306	0.000000
735.439148	0.000000
735.477051	0.000000
735.515015	0.000000
735.552856	0.000000
735.590759	0.000000
735.628662	0.000000
735.666504	0.000000
735.704407	0.000000
735.742310	0.000000
735.780212	0.000000
735.818115	0.000000
735.856018	0.000000
735.893860	0.000000
735.931763	0.000000
735.969604	0.000000
736.007507	0.000000
736.045410	0.000000
736.083252	0.000000
736.121094	0.000000
736.158997	0.000000
736.196838	0.000000
736.234741	0.000000
736.272644	0.000000
736.310486	0.000000
736.348389	0.000000
736.386230	0.000000
736.424072	0.000000
736.461975	0.000000
736.499878	0.000000
736.537720	0.000000
736.575562	0.000000
736.613403	0.000000
736.651306	0.000000
736.689148	0.000000
736.726990	0.000000
736.764893	0.000000
736.802734	0.000000
736.840576	0.000000
736.878418	0.000000
736.916321	0.000000
736.954102	0.000000
736.992004	0.000000
737.029846	0.000000
737.067688	0.000000
737.105530	0.000000
737.143372	0.000000
737.181213	0.000000
737.219116	0.000000
737.256897	0.000000
737.294739	0.000000
737.332642	0.000000
737.370422	0.000000
737.408325	0.000000
737.446167	0.000000
737.483948	0.000000
737.521790	0.000000
737.559692	0.000000
737.597473	0.000000
737.635315	0.000000
737.673157	0.000000
737.710999	0.000000
737.748840	0.000000
737.786621	0.000000
737.824463	0.000000
737.862305	0.000000
737.900085	0.000000
737.937927	0.000000
737.975769	0.000000
738.013550	0.000000
738.051392	0.000000
738.089233	0.000000
738.127014	0.000000
738.164856	0.000000
738.202698	0.000000
738.240479	0.000000
738.278320	0.000000
738.316162	0.000000
738.353943	0.000000
738.391785	0.000000
738.429565	0.000000
738.467407	0.000000
738.505188	0.000000
738.542969	0.000000
738.580811	0.000000
738.618652	0.000000
738.656372	0.000000
738.694214	0.000000
738.732056	0.000000
738.769836	0.000000
738.807617	0.000000
738.845459	0.000000
738.883240	0.000000
738.921021	0.000000
738.958862	0.000000
738.996582	0.000000
739.034424	0.000000
739.072205	0.000000
739.109985	0.000000
739.147827	0.000000
739.185547	0.000000
739.223389	0.000000
739.261169	0.000000
739.298889	0.000000
739.336731	0.000000
739.374512	0.000000
739.412292	0.000000
739.450073	0.000000
739.487854	0.000000
739.525635	0.000000
739.563416	0.000000
739.601135	0.000000
739.638977	0.000000
739.676758	0.000000
739.714478	0.000000
739.752258	0.000000
739.790100	0.000000
739.827820	0.000000
739.865601	0.000000
739.903381	0.000000
739.941101	0.000000
739.978882	194.200000
740.016724	191.500000
740.054443	194.300000
740.092224	189.600000
740.130005	190.200000
740.167725	190.100000
740.205505	191.500000
740.243225	197.000000
740.281006	191.300000
740.318787	187.800000
740.356506	197.800000
740.394287	195.500000
740.432068	190.100000
740.469727	186.600000
740.507507	194.300000
740.545288	192.100000
740.583008	193.300000
740.620789	193.800000
740.658569	186.500000
740.696228	191.800000
740.734009	195.000000
740.771790	184.300000
740.809509	195.500000
740.847229	190.000000
740.884949	189.800000
740.922729	188.000000
740.960449	189.500000
740.998169	189.300000
741.035950	188.400000
741.073669	193.100000
741.111389	192.300000
741.149170	200.800000
741.186890	198.900000
741.224609	195.600000
741.262329	194.400000
741.300110	198.100000
741.337769	189.300000
741.375549	187.200000
741.413208	192.900000
741.450989	189.700000
741.488708	190.800000
741.526367	189.800000
741.564148	194.900000
741.601868	193.700000
741.639526	191.700000
741.677307	193.300000
741.715027	194.600000
741.752686	189.100000
741.790466	197.700000
741.828186	193.900000
741.865845	188.400000
741.903564	187.500000
741.941345	192.200000
741.979004	189.000000
742.016724	195.400000
742.054382	191.000000
742.092102	196.300000
742.129822	186.300000
742.167480	190.100000
742.205200	190.500000
742.242920	193.400000
742.280640	195.300000
742.318359	190.500000
742.356079	191.800000
742.393738	196.400000
742.431396	189.700000
742.469116	194.500000
742.506775	184.800000
742.544495	194.400000
742.582214	194.500000
742.619873	191.500000
742.657593	195.700000
742.695251	196.200000
742.732971	190.500000
742.770630	192.400000
742.808289	192.500000
742.846008	192.400000
742.883728	193.100000
742.921326	193.000000
742.959045	190.400000
742.996765	192.000000
743.034424	191.400000
743.072083	188.900000
743.109802	191.500000
743.147400	187.500000
743.185120	192.500000
743.222839	191.500000
743.260437	198.300000
743.298157	192.500000
743.335754	186.400000
743.373474	191.200000
743.411133	187.900000
743.448792	191.500000
743.486450	190.900000
743.524170	185.200000
743.561768	192.400000
743.599487	195.300000
743.637146	200.100000
743.674744	191.600000
743.712463	190.900000
743.750122	192.500000
743.787720	193.400000
743.825439	190.100000
743.863037	190.700000
743.900696	191.100000
743.938416	218.500000
743.976013	190.900000
744.013672	198.900000
744.051331	196.600000
744.088928	200.000000
744.126587	196.900000
744.164307	193.800000
744.201904	189.300000
744.239563	194.600000
744.277222	195.100000
744.314819	192.900000
744.352478	196.800000
744.390137	194.300000
744.427734	193.600000
744.465393	190.400000
744.502991	189.100000
744.540649	195.000000
744.578308	193.100000
744.615906	188.600000
744.653564	185.300000
744.691223	192.800000
744.728821	187.800000
744.766418	190.900000
744.804077	194.100000
744.841675	190.900000
744.879333	188.100000
744.916992	190.400000
744.954529	190.500000
744.992187	195.100000
745.029785	191.700000
745.067444	189.000000
745.105042	192.500000
745.142639	193.000000
745.180298	201.800000
745.217896	190.600000
745.255493	191.500000
745.293152	194.700000
745.330750	195.900000
745.368347	197.300000
745.405945	194.800000
745.443604	192.900000
745.481140	196.100000
745.518799	192.100000
745.556396	195.400000
745.593994	194.700000
745.631592	193.300000
745.669189	189.200000
745.706787	194.500000
745.744385	189.800000
745.781982	195.400000
745.819580	189.700000
745.857178	192.600000
745.894775	192.800000
745.932373	192.700000
745.969971	194.200000
746.007568	186.200000
746.045166	197.800000
746.082764	198.900000
746.120300	195.800000
746.157898	193.100000
746.195557	193.000000
746.233093	188.300000
746.270691	194.100000
746.308228	194.100000
746.345825	196.000000
746.383423	193.700000
746.420959	189.900000
746.458557	189.500000
746.496155	190.000000
746.533691	192.700000
746.571289	189.300000
746.608887	190.400000
746.646423	194.100000
746.684021	193.100000
746.721619	191.100000
746.759155	194.900000
746.796753	187.600000
746.834351	188.600000
746.871826	190.900000
746.909424	197.500000
746.946960	192.300000
746.984558	191.700000
747.022156	189.400000
747.059631	199.400000
747.097229	193.500000
747.134827	189.800000
747.172363	197.400000
747.209900	195.200000
747.247498	189.000000
747.285034	195.300000
747.322571	197.700000
747.360168	192.700000
747.397644	187.700000
747.435242	195.200000
747.472778	196.300000
747.510315	191.100000
747.547913	191.200000
747.585388	197.700000
747.622925	191.600000
747.660522	186.800000
747.697998	190.300000
747.735596	190.700000
747.773132	190.700000
747.810669	193.200000
747.848206	194.200000
747.885742	190.000000
747.923279	188.400000
747.960815	192.300000
747.998352	192.700000
748.035889	195.000000
748.073425	194.000000
748.110901	190.900000
748.148437	187.900000
748.185974	192.900000
748.223511	199.100000
748.261047	195.000000
748.298584	193.300000
748.336060	192.600000
748.373596	192.900000
748.411133	217.900000
748.448608	190.600000
748.486145	194.800000
748.523682	196.000000
748.561218	199.800000
748.598755	192.800000
748.636292	195.300000
748.673706	191.200000
748.711243	198.300000
748.748718	192.300000
748.786255	193.000000
748.823792	192.100000
748.861267	188.200000
748.898804	194.800000
748.936340	194.500000
748.973816	190.200000
749.011292	197.300000
749.048828	193.900000
749.086304	193.300000
749.123840	200.300000
749.161316	189.600000
749.198792	200.000000
749.236328	197.100000
749.273743	191.500000
749.311279	191.700000
749.348816	194.600000
749.386230	191.500000
749.423767	182.500000
749.461304	194.400000
749.498718	192.700000
749.536255	196.100000
749.573730	201.300000
749.611206	198.100000
749.648682	192.100000
749.686218	192.700000
749.723633	194.900000
749.761169	190.600000
749.798645	190.800000
749.836060	191.300000
749.873596	189.900000
749.911011	193.700000
749.948547	197.300000
749.986023	192.300000
750.023437	192.700000
750.060913	189.800000
750.098450	187.400000
750.135864	192.000000
750.173340	194.200000
750.210815	196.700000
750.248291	189.100000
750.285767	193.000000
750.323242	196.900000
750.360657	194.700000
750.398132	189.400000
750.435608	193.700000
750.473022	190.800000
750.510498	189.300000
750.547974	188.900000
750.585449	193.200000
750.622925	185.600000
750.660339	202.100000
750.697815	194.100000
750.735291	191.500000
750.772644	191.900000
750.810120	194.900000
750.847595	195.200000
750.885010	188.000000
750.922485	198.100000
750.959961	193.900000
750.997375	197.700000
751.034851	195.800000
751.072266	194.900000
751.109680	188.300000
751.147156	198.100000
751.184570	194.900000
751.221985	192.800000
751.259460	187.200000
751.296875	192.700000
751.334290	192.800000
751.371765	195.300000
751.409180	194.900000
751.446594	198.100000
751.484070	196.000000
751.521423	192.800000
751.558899	194.300000
751.596375	200.100000
751.633728	198.200000
751.671204	199.400000
751.708618	190.600000
751.746033	194.000000
751.783447	188.500000
751.820801	189.800000
751.858276	195.600000
751.895691	192.000000
751.933105	191.600000
751.970520	188.600000
752.007935	191.400000
752.045349	197.300000
752.082764	193.000000
752.120178	191.200000
752.157532	191.300000
752.195007	189.500000
752.232422	193.600000
752.269775	196.300000
752.307190	196.300000
752.344543	188.400000
752.382019	193.600000
752.419434	190.200000
752.456787	193.500000
752.494202	196.400000
752.531616	193.300000
752.568970	195.500000
752.606384	193.800000
752.643799	194.900000
752.681152	198.700000
752.718567	195.500000
752.755981	187.800000
752.793335	195.500000
752.830750	187.500000
752.868164	197.700000
752.905518	189.200000
752.942932	196.500000
752.980225	187.900000
753.017639	196.500000
753.055054	195.800000
753.092407	194.000000
753.129822	195.700000
753.167175	199.100000
753.204529	192.200000
753.241943	190.200000
753.279358	189.400000
753.316650	195.100000
753.354065	194.200000
753.391479	195.800000
753.428772	197.700000
753.466187	195.100000
753.503479	189.700000
753.540894	191.900000
753.578308	188.400000
753.615601	188.700000
753.653015	192.400000
753.690369	191.200000
753.727722	189.200000
753.765076	187.800000
753.802490	188.700000
753.839783	187.500000
753.877136	189.300000
753.914551	202.100000
753.951843	189.200000
753.989258	194.300000
754.026611	193.000000
754.063904	194.300000
754.101257	187.500000
754.138611	186.400000
754.175964	194.200000
754.213318	200.300000
754.250610	187.400000
754.288025	190.900000
754.325378	189.400000
754.362671	195.700000
754.400024	192.100000
754.437378	199.000000
754.474670	200.800000
754.512085	190.200000
754.549438	193.600000
754.586731	190.100000
754.624084	192.400000
754.661438	189.200000
754.698730	200.300000
754.736084	191.200000
754.773376	191.300000
754.810730	193.800000
754.848083	191.500000
754.885315	196.600000
754.922668	187.300000
754.960022	188.600000
754.997314	196.900000
755.034668	192.000000
755.072021	194.000000
755.109253	191.100000
755.146606	198.600000
755.183960	191.300000
755.221252	198.700000
755.258545	194.800000
755.295898	197.200000
755.333191	196.800000
755.370544	195.100000
755.407776	193.800000
755.445129	193.000000
755.482422	196.500000
755.519714	191.200000
755.557068	188.000000
755.594360	185.200000
755.631653	197.300000
755.668945	199.400000
755.706299	194.600000
755.743530	203.000000
755.780884	198.900000
755.818176	197.200000
755.855408	197.300000
755.892761	196.100000
755.930054	193.500000
755.967346	196.400000
756.004639	194.800000
756.041870	192.800000
756.079224	197.400000
756.116516	190.000000
756.153748	196.700000
756.191040	201.100000
756.228394	196.100000
756.265625	190.600000
756.302917	195.700000
756.340210	191.100000
756.377441	198.600000
756.414795	199.800000
756.452087	193.700000
756.489319	189.400000
756.526611	198.400000
756.563843	195.000000
756.601135	201.900000
756.638428	203.000000
756.675659	195.400000
756.712952	196.300000
756.750244	196.800000
756.787476	196.600000
756.824768	198.800000
756.862061	194.500000
756.899292	241.800000
756.936584	199.100000
756.973816	204.100000
757.011047	204.800000
757.048340	195.200000
757.085632	196.400000
757.122864	208.500000
757.160156	194.200000
757.197327	196.700000
757.234619	200.900000
757.271912	195.500000
757.309082	200.500000
757.346375	192.600000
757.383667	202.300000
757.420837	196.200000
757.458130	196.600000
757.495422	195.600000
757.532593	199.800000
757.569885	191.500000
757.607117	195.400000
757.644348	197.500000
757.681580	208.200000
757.718811	187.000000
757.756042	196.900000
757.793335	195.400000
757.830505	199.400000
757.867798	195.000000
757.905029	195.600000
757.942200	197.300000
757.979492	195.100000
758.016724	197.300000
758.053894	197.000000
758.091187	210.600000
758.128418	199.200000
758.165588	196.400000
758.202820	205.900000
758.240112	198.600000
758.277283	207.100000
758.314514	198.900000
758.351685	196.400000
758.388916	204.600000
758.426147	204.000000
758.463379	205.600000
758.500610	200.400000
758.537842	199.200000
758.575012	203.800000
758.612244	196.400000
758.649475	207.700000
758.686646	193.500000
758.723877	203.300000
758.761108	206.200000
758.798279	198.800000
758.835510	201.900000
758.872742	205.000000
758.909851	201.700000
758.947083	202.200000
758.984253	203.200000
759.021484	204.100000
759.058716	204.100000
759.095886	204.100000
759.133057	202.200000
759.170288	202.000000
759.207458	200.300000
759.244690	210.500000
759.281860	208.500000
759.319031	202.800000
759.356262	200.600000
759.393433	200.600000
759.430603	202.100000
759.467773	202.300000
759.505005	206.200000
759.542175	206.600000
759.579346	203.400000
759.616516	203.000000
759.653687	206.000000
759.690918	201.700000
759.728027	203.600000
759.765259	205.700000
759.802429	206.300000
759.839539	205.400000
759.876770	209.200000
759.913940	211.900000
759.951111	206.100000
759.988281	205.900000
760.025452	201.600000
760.062561	202.200000
760.099792	214.100000
760.136963	207.100000
760.174072	203.600000
760.211243	200.700000
760.248413	201.300000
760.285583	201.800000
760.322754	213.500000
760.359863	209.900000
760.397034	212.800000
760.434204	206.500000
760.471375	206.000000
760.508545	206.000000
760.545715	207.500000
760.582825	204.200000
760.619995	210.900000
760.657166	203.200000
760.694275	211.500000
760.731445	210.000000
760.768555	208.200000
760.805664	210.700000
760.842834	208.400000
760.879944	211.200000
760.917114	208.000000
760.954285	207.600000
760.991394	202.400000
761.028564	211.400000
761.065674	210.000000
761.102783	205.200000
761.139954	212.900000
761.177124	212.000000
761.214172	212.200000
761.251343	208.500000
761.288452	208.300000
761.325562	212.000000
761.362732	207.000000
761.399841	208.800000
761.436951	211.900000
761.474121	206.700000
761.511169	210.100000
761.548340	212.800000
761.585449	212.100000
761.622559	214.900000
761.659668	211.200000
761.696838	214.200000
761.733887	213.600000
761.771057	210.100000
761.808167	211.700000
761.845276	214.300000
761.882385	222.500000
761.919434	212.200000
761.956604	227.500000
761.993713	210.000000
762.030762	216.400000
762.067871	212.000000
762.105042	213.700000
762.142090	218.600000
762.179199	215.300000
762.216309	216.400000
762.253418	225.700000
762.290527	222.700000
762.327637	219.500000
762.364685	211.800000
762.401794	218.400000
762.438904	217.500000
762.475952	215.100000
762.513062	212.800000
762.550110	213.100000
762.587219	222.600000
762.624329	222.000000
762.661377	219.400000
762.698486	217.500000
762.735596	217.200000
762.772644	213.200000
762.809753	210.900000
762.846863	216.600000
762.883911	220.700000
762.921021	219.900000
762.958069	216.700000
762.995117	224.700000
763.032227	223.600000
763.069336	216.600000
763.106323	215.800000
763.143433	214.000000
763.180481	219.300000
763.217590	219.100000
763.254639	218.400000
763.291687	218.200000
763.328735	226.300000
763.365845	219.200000
763.402893	218.100000
763.439941	220.600000
763.477051	224.400000
763.514038	222.400000
763.551147	220.900000
763.588196	222.100000
763.625244	221.000000
763.662292	227.900000
763.699402	228.900000
763.736389	224.600000
763.773499	232.600000
763.810486	227.200000
763.847534	225.400000
763.884644	225.200000
763.921631	224.200000
763.958679	230.800000
763.995728	225.300000
764.032776	231.400000
764.069824	223.000000
764.106873	229.000000
764.143860	233.800000
764.180969	227.000000
764.218018	232.900000
764.255005	227.600000
764.292053	227.700000
764.329102	235.700000
764.366089	235.400000
764.403137	232.300000
764.440125	229.200000
764.477173	231.600000
764.514221	233.200000
764.551208	232.500000
764.588257	228.500000
764.625305	234.800000
764.662292	239.000000
764.699341	242.100000
764.736389	235.900000
764.773376	248.100000
764.810425	236.700000
764.847473	244.500000
764.884399	239.700000
764.921448	245.000000
764.958435	243.800000
764.995483	237.600000
765.032532	249.200000
765.069458	238.700000
765.106506	240.700000
765.143555	238.200000
765.180481	240.800000
765.217529	249.400000
765.254578	236.200000
765.291504	243.800000
765.328552	243.200000
765.365540	239.200000
765.402527	251.700000
765.439575	242.600000
765.476501	238.600000
765.513550	238.800000
765.550537	244.200000
765.587463	248.000000
765.624512	241.100000
765.661499	237.200000
765.698486	248.900000
765.735474	242.100000
765.772461	245.500000
765.809448	250.200000
765.846436	248.600000
765.883423	252.500000
765.920410	249.700000
765.957397	244.800000
765.994385	249.100000
766.031311	254.600000
766.068359	249.600000
766.105286	250.200000
766.142273	255.300000
766.179260	251.800000
766.216187	247.600000
766.253174	243.400000
766.290161	251.000000
766.327148	253.900000
766.364136	256.000000
766.401123	266.100000
766.438049	251.500000
766.475037	258.600000
766.512024	257.800000
766.548950	269.200000
766.585937	263.700000
766.622864	258.500000
766.659790	260.100000
766.696777	251.500000
766.733704	262.700000
766.770691	255.600000
766.807678	267.400000
766.844604	260.900000
766.881531	261.400000
766.918518	264.300000
766.955444	266.400000
766.992432	259.300000
767.029358	264.100000
767.066284	266.400000
767.103271	264.800000
767.140198	296.000000
767.177124	275.400000
767.214050	266.100000
767.251038	268.100000
767.287964	263.800000
767.324890	264.200000
767.361816	266.300000
767.398743	271.600000
767.435730	267.900000
767.472595	269.800000
767.509583	274.400000
767.546509	266.300000
767.583374	270.900000
767.620361	264.400000
767.657288	269.800000
767.694214	270.100000
767.731140	270.300000
767.768066	269.900000
767.804993	274.000000
767.841919	266.100000
767.878845	270.500000
767.915710	277.300000
767.952698	272.800000
767.989563	274.200000
768.026489	273.800000
768.063416	269.800000
768.100281	269.200000
768.137207	278.600000
768.174133	276.700000
768.211060	278.000000
768.247986	278.000000
768.284912	274.300000
768.321777	276.900000
768.358704	272.400000
768.395630	276.700000
768.432495	272.700000
768.469421	279.100000
768.506348	280.900000
768.543152	285.800000
768.580078	284.200000
768.616943	284.500000
768.653870	286.400000
768.690796	283.600000
768.727661	282.500000
768.764587	283.300000
768.801453	279.600000
768.838318	287.900000
768.875244	286.100000
768.912109	290.000000
768.948975	283.600000
768.985901	285.800000
769.022766	283.400000
769.059631	287.900000
769.096558	285.200000
769.133362	285.600000
769.170288	286.900000
769.207214	288.100000
769.244019	291.500000
769.280945	289.800000
769.317810	297.900000
769.354675	293.000000
769.391541	299.300000
769.428406	297.600000
769.465271	304.500000
769.502136	293.700000
769.539062	299.200000
769.575867	296.000000
769.612732	299.100000
769.649597	302.900000
769.686462	304.600000
769.723328	301.300000
769.760193	300.700000
769.797058	301.800000
769.833923	309.500000
769.870728	305.100000
769.907593	310.000000
769.944519	308.000000
769.981323	312.500000
770.018188	310.900000
770.055054	309.100000
770.091858	309.600000
770.128723	317.500000
770.165588	323.200000
770.202393	310.900000
770.239258	319.800000
770.276062	316.900000
770.312927	317.400000
770.349792	323.900000
770.386597	321.200000
770.423462	331.900000
770.460327	334.200000
770.497131	323.500000
770.533997	320.900000
770.570862	330.200000
770.607605	333.200000
770.644470	331.500000
770.681335	331.100000
770.718140	331.000000
770.754944	323.400000
770.791809	324.500000
770.828613	327.600000
770.865479	330.100000
770.902222	340.600000
770.939087	332.600000
770.975952	327.800000
771.012695	333.000000
771.049561	342.300000
771.086365	334.500000
771.123169	332.900000
771.159973	336.500000
771.196838	336.200000
771.233582	338.400000
771.270447	338.000000
771.307251	342.900000
771.344055	339.800000
771.380859	341.300000
771.417664	338.000000
771.454468	347.400000
771.491272	345.400000
771.528076	346.800000
771.564880	345.200000
771.601685	348.900000
771.638428	346.600000
771.675293	350.100000
771.712097	343.100000
771.748840	357.100000
771.785645	350.600000
771.822449	354.000000
771.859253	354.200000
771.896057	350.400000
771.932861	360.800000
771.969604	355.000000
772.006409	349.500000
772.043213	361.200000
772.079956	358.900000
772.116760	350.600000
772.153503	352.400000
772.190308	361.900000
772.227112	357.900000
772.263855	356.300000
772.300659	360.200000
772.337463	365.300000
772.374207	357.100000
772.411011	358.000000
772.447754	358.200000
772.484497	370.600000
772.521301	363.000000
772.558105	364.800000
772.594849	363.800000
772.631592	369.300000
772.668396	366.300000
772.705139	370.400000
772.741882	366.900000
772.778625	377.600000
772.815430	377.900000
772.852173	375.600000
772.888916	378.600000
772.925720	381.400000
772.962463	387.100000
772.999207	384.100000
773.035950	385.800000
773.072754	387.100000
773.109436	383.500000
773.146240	384.900000
773.182922	381.200000
773.219727	388.100000
773.256470	385.000000
773.293152	378.400000
773.329956	382.000000
773.366699	387.900000
773.403381	379.400000
773.440186	385.200000
773.476929	387.300000
773.513611	385.500000
773.550354	383.600000
773.587158	383.000000
773.623840	379.600000
773.660583	387.300000
773.697327	398.200000
773.734009	391.000000
773.770813	387.500000
773.807495	385.400000
773.844238	389.500000
773.880981	398.700000
773.917664	399.000000
773.954407	402.900000
773.991150	396.700000
774.027832	399.900000
774.064575	395.000000
774.101318	398.900000
774.138000	402.400000
774.174744	399.000000
774.211487	401.100000
774.248108	391.600000
774.284851	394.100000
774.321594	400.300000
774.358276	402.100000
774.395020	408.300000
774.431702	406.900000
774.468384	399.500000
774.505127	399.400000
774.541809	403.500000
774.578491	411.400000
774.615234	410.900000
774.651917	403.600000
774.688599	409.600000
774.725342	416.900000
774.762024	417.700000
774.798706	421.500000
774.835449	419.700000
774.872070	424.600000
774.908813	423.000000
774.945496	423.500000
774.982178	422.100000
775.018860	421.200000
775.055542	425.800000
775.092224	427.800000
775.128967	431.400000
775.165588	431.800000
775.202271	425.900000
775.239014	434.600000
775.275635	439.200000
775.312317	436.800000
775.349060	440.300000
775.385681	439.800000
775.422363	434.900000
775.459045	440.000000
775.495667	441.900000
775.532410	444.500000
775.569092	442.100000
775.605713	445.500000
775.642395	442.000000
775.679016	443.400000
775.715698	445.700000
775.752380	451.800000
775.789001	449.200000
775.825684	450.500000
775.862366	452.900000
775.898987	458.300000
775.935669	455.900000
775.972351	473.500000
776.008972	470.400000
776.045654	469.700000
776.082336	463.500000
776.118958	463.300000
776.155640	470.700000
776.192322	474.300000
776.228882	477.100000
776.265564	477.200000
776.302185	477.400000
776.338867	481.300000
776.375488	470.400000
776.412109	476.800000
776.448792	484.600000
776.485413	489.300000
776.522034	482.200000
776.558716	480.400000
776.595337	481.900000
776.631958	485.800000
776.668579	486.400000
776.705261	495.900000
776.741882	491.700000
776.778503	490.900000
776.815186	488.700000
776.851746	495.400000
776.888367	493.800000
776.924988	503.700000
776.961609	495.600000
776.998291	500.500000
777.034851	493.000000
777.071472	507.700000
777.108154	502.900000
777.144714	510.300000
777.181335	506.300000
777.218018	504.600000
777.254578	509.800000
777.291199	509.100000
777.327759	513.000000
777.364380	518.100000
777.401062	526.900000
777.437622	530.400000
777.474243	520.800000
777.510864	526.500000
777.547424	519.200000
777.584045	524.100000
777.620667	525.300000
777.657227	528.100000
777.693848	529.400000
777.730469	539.600000
777.767029	532.400000
777.803650	537.400000
777.840271	533.200000
777.876831	535.500000
777.913452	542.100000
777.950012	526.400000
777.986633	525.900000
778.023193	523.100000
778.059753	523.200000
778.096375	529.600000
778.132996	542.000000
778.169556	533.700000
778.206116	536.900000
778.242737	532.000000
778.279297	536.700000
778.315857	528.400000
778.352478	536.800000
778.389038	544.700000
778.425598	544.000000
778.462219	543.900000
778.498718	543.500000
778.535339	547.400000
778.571838	551.000000
778.608459	555.300000
778.645020	547.600000
778.681580	550.200000
778.718140	551.600000
778.754761	549.700000
778.791260	554.700000
778.827881	554.400000
778.864441	555.200000
778.900940	566.700000
778.937561	563.800000
778.974121	561.000000
779.010620	556.600000
779.047241	558.800000
779.083801	563.900000
779.120300	564.200000
779.156860	565.300000
779.193359	561.500000
779.229980	566.500000
779.266541	568.900000
779.303040	572.600000
779.339600	569.100000
779.376160	563.700000
779.412659	564.700000
779.449219	560.800000
779.485779	563.100000
779.522278	563.400000
779.558838	567.300000
779.595398	564.500000
779.631897	559.000000
779.668457	550.800000
779.705017	560.300000
779.741516	557.100000
779.778076	552.000000
779.814575	554.100000
779.851074	558.200000
779.887634	555.600000
779.924133	556.800000
779.960693	534.300000
779.997253	539.900000
780.033691	523.500000
780.070251	488.600000
780.106812	460.700000
780.143250	416.500000
780.179810	361.500000
780.216370	316.200000
780.252808	275.900000
780.289368	254.200000
780.325867	236.200000
780.362366	227.200000
780.398865	230.500000
780.435364	218.500000
780.471863	221.100000
780.508423	208.400000
780.544861	208.800000
780.581421	212.200000
780.617920	208.200000
780.654419	207.900000
780.690918	209.900000
780.727417	214.300000
780.763916	210.300000
780.800415	215.300000
780.836914	207.100000
780.873352	217.200000
780.909912	209.500000
780.946411	211.000000
780.982849	214.700000
781.019348	218.000000
781.055786	210.200000
781.092346	208.300000
781.128845	210.700000
781.165283	206.200000
781.201782	211.700000
781.238281	206.700000
781.274719	206.400000
781.311218	201.500000
781.347717	212.100000
781.384155	201.500000
781.420654	204.000000
781.457092	209.700000
781.493591	206.700000
781.530090	202.300000
781.566528	208.100000
781.602966	210.000000
781.639465	207.700000
781.675903	201.700000
781.712402	204.400000
781.748901	206.500000
781.785278	200.000000
781.821777	204.100000
781.858276	202.900000
781.894714	211.400000
781.931152	204.300000
781.967651	210.900000
782.004089	202.400000
782.040527	209.600000
782.076965	208.900000
782.113403	205.800000
782.149902	207.700000
782.186340	203.000000
782.222778	212.900000
782.259277	205.100000
782.295654	205.400000
782.332092	206.900000
782.368591	207.400000
782.404968	208.500000
782.441467	214.700000
782.477905	222.400000
782.514282	227.000000
782.550781	250.300000
782.587219	261.200000
782.623596	280.500000
782.660095	287.000000
782.696472	295.100000
782.732910	304.200000
782.769348	325.100000
782.805786	381.800000
782.842224	449.300000
782.878662	517.500000
782.915039	587.600000
782.951477	644.900000
782.987915	675.800000
783.024292	700.800000
783.060730	712.300000
783.097168	706.800000
783.133545	702.700000
783.169983	701.600000
783.206421	704.000000
783.242798	702.500000
783.279236	695.300000
783.315613	690.800000
783.352051	695.000000
783.388489	695.100000
783.424866	690.200000
783.461304	695.100000
783.497681	697.600000
783.534058	697.500000
783.570496	696.200000
783.606934	699.100000
783.643250	702.400000
783.679687	710.600000
783.716125	706.200000
783.752441	724.800000
783.788879	734.600000
783.825317	748.100000
783.861633	742.900000
783.898071	745.300000
783.934448	760.400000
783.970825	772.900000
784.007263	769.900000
784.043579	771.300000
784.080017	775.400000
784.116394	775.200000
784.152710	773.200000
784.189148	777.700000
784.225525	777.200000
784.261902	771.800000
784.298279	764.400000
784.334656	768.200000
784.371033	758.600000
784.407410	761.700000
784.443787	748.700000
784.480164	744.100000
784.516541	730.400000
784.552856	730.800000
784.589233	721.800000
784.625610	719.300000
784.661987	739.600000
784.698364	739.100000
784.734741	733.200000
784.771057	736.000000
784.807434	740.300000
784.843811	755.000000
784.880127	751.500000
784.916504	771.400000
784.952881	777.400000
784.989197	774.400000
785.025574	779.800000
785.061951	787.800000
785.098267	800.700000
785.134644	792.700000
785.170959	788.600000
785.207275	793.400000
785.243652	791.900000
785.279968	776.500000
785.316345	776.900000
785.352722	777.000000
785.388977	777.500000
785.425354	766.200000
785.461731	751.700000
785.498047	743.000000
785.534363	739.400000
785.570679	736.300000
785.606995	737.400000
785.643372	741.600000
785.679687	738.600000
785.716003	728.200000
785.752380	726.700000
785.788635	733.000000
785.825012	744.000000
785.861328	746.300000
785.897644	744.900000
785.933960	755.500000
785.970337	761.000000
786.006592	772.900000
786.042908	784.900000
786.079285	790.400000
786.115540	798.500000
786.151855	802.300000
786.188171	804.600000
786.224487	812.000000
786.260803	806.100000
786.297119	806.800000
786.333435	805.900000
786.369751	798.000000
786.406006	801.600000
786.442322	787.500000
786.478638	780.800000
786.514954	782.200000
786.551270	775.300000
786.587585	782.900000
786.623840	771.000000
786.660156	766.600000
786.696472	760.100000
786.732727	754.400000
786.769043	761.900000
786.805298	755.800000
786.841614	762.800000
786.877930	769.200000
786.914124	755.000000
786.950439	770.900000
786.986755	782.500000
787.023010	791.000000
787.059326	803.100000
787.095642	804.700000
787.131836	818.400000
787.168152	815.300000
787.204468	826.800000
787.240723	836.200000
787.276978	835.300000
787.313293	845.800000
787.349548	843.400000
787.385803	845.700000
787.422058	841.300000
787.458313	837.400000
787.494629	832.500000
787.530823	833.400000
787.567139	818.200000
787.603455	811.000000
787.639648	809.200000
787.675903	812.000000
787.712219	801.300000
787.748413	802.400000
787.784729	806.500000
787.820984	801.000000
787.857178	797.200000
787.893494	797.100000
787.929749	799.700000
787.965942	802.900000
788.002258	813.900000
788.038452	824.500000
788.074707	820.900000
788.110962	833.500000
788.147217	829.400000
788.183472	830.200000
788.219727	844.000000
788.255920	857.200000
788.292175	863.600000
788.328430	859.300000
788.364624	854.300000
788.400879	858.000000
788.437134	865.900000
788.473328	865.200000
788.509583	858.100000
788.545837	856.600000
788.582031	857.500000
788.618286	855.700000
788.654480	853.500000
788.690735	858.300000
788.726990	880.300000
788.763184	877.100000
788.799377	889.900000
788.835632	884.800000
788.871826	894.400000
788.908081	883.200000
788.944336	879.000000
788.980469	892.000000
789.016724	879.900000
789.052979	883.800000
789.089111	871.300000
789.125366	882.100000
789.161621	870.600000
789.197754	885.800000
789.234009	881.000000
789.270142	872.500000
789.306396	868.200000
789.342590	865.800000
789.378784	850.400000
789.414978	840.100000
789.451233	844.800000
789.487366	847.400000
789.523621	862.900000
789.559814	863.700000
789.595947	860.000000
789.632202	863.800000
789.668335	872.300000
789.704529	894.500000
789.740784	910.100000
789.776917	911.100000
789.813110	909.700000
789.849304	913.400000
789.885498	910.500000
789.921692	926.100000
789.957886	933.100000
789.994019	936.100000
790.030212	939.000000
790.066406	941.500000
790.102539	934.400000
790.138733	938.000000
790.174927	933.600000
790.211060	948.900000
790.247253	947.300000
790.283386	944.500000
790.319580	925.300000
790.355774	913.400000
790.391907	910.200000
790.428101	924.700000
790.464294	924.300000
790.500427	922.400000
790.536621	912.600000
790.572754	907.000000
790.608887	890.000000
790.645081	896.500000
790.681274	911.700000
790.717346	915.500000
790.753540	900.700000
790.789734	886.900000
790.825867	867.600000
790.862000	876.700000
790.898132	879.100000
790.934265	885.100000
790.970459	889.900000
791.006592	883.800000
791.042725	878.500000
791.078918	865.500000
791.114990	866.500000
791.151184	881.900000
791.187317	902.800000
791.223389	896.500000
791.259583	885.600000
791.295715	879.400000
791.331848	886.400000
791.367981	894.000000
791.404114	894.400000
791.440247	899.600000
791.476379	909.000000
791.512451	891.600000
791.548584	887.800000
791.584778	882.200000
791.620850	898.100000
791.656982	902.500000
791.693115	898.200000
791.729187	897.700000
791.765381	895.400000
791.801514	887.800000
791.837585	889.000000
791.873718	892.300000
791.909851	902.500000
791.945923	919.800000
791.982056	898.600000
792.018188	887.700000
792.054260	895.100000
792.090393	892.100000
792.126465	881.400000
792.162598	890.600000
792.198669	884.800000
792.234741	865.100000
792.270874	860.800000
792.307007	863.600000
792.343079	867.400000
792.379150	868.200000
792.415283	866.400000
792.451355	867.000000
792.487488	846.100000
792.523560	844.600000
792.559631	828.600000
792.595764	806.900000
792.631836	770.100000
792.667908	746.600000
792.703979	728.500000
792.740051	740.200000
792.776184	766.400000
792.812256	788.400000
792.848328	806.400000
792.884399	815.700000
792.920471	816.700000
792.956543	819.000000
792.992615	815.400000
793.028748	811.300000
793.064758	814.200000
793.100830	830.100000
793.136963	843.500000
793.172974	838.900000
793.209045	832.200000
793.245178	850.500000
793.281189	834.000000
793.317261	836.300000
793.353271	843.100000
793.389404	856.200000
793.425476	844.900000
793.461487	832.400000
793.497559	825.400000
793.533630	823.300000
793.569641	820.900000
793.605713	827.200000
793.641785	827.800000
793.677795	845.500000
793.713867	843.700000
793.749878	843.200000
793.785950	846.600000
793.822021	853.800000
793.858032	850.600000
793.894104	858.900000
793.930176	852.900000
793.966187	859.800000
794.002258	853.500000
794.038269	851.300000
794.074280	855.000000
794.110352	881.000000
794.146423	866.700000
794.182373	856.200000
794.218445	847.800000
794.254517	844.900000
794.290466	831.700000
794.326538	838.100000
794.362549	836.000000
794.398560	847.000000
794.434631	845.600000
794.470581	826.300000
794.506653	816.200000
794.542664	819.200000
794.578674	830.100000
794.614685	828.600000
794.650757	824.400000
794.686707	827.500000
794.722778	819.200000
794.758789	827.800000
794.794739	831.600000
794.830811	851.800000
794.866821	876.100000
794.902771	877.900000
794.938843	871.600000
794.974792	868.900000
795.010803	872.900000
795.046814	868.400000
795.082825	861.600000
795.118835	876.100000
795.154846	861.000000
795.190796	862.000000
795.226807	843.700000
795.262817	851.300000
795.298767	849.900000
795.334778	855.800000
795.370850	852.100000
795.406799	855.300000
795.442810	837.800000
795.478821	831.800000
795.514709	832.100000
795.550720	858.600000
795.586670	840.600000
795.622681	846.600000
795.658691	850.400000
795.694641	851.400000
795.730652	836.300000
795.766663	846.000000
795.802551	854.900000
795.838562	865.600000
795.874573	853.800000
795.910522	853.800000
795.946472	843.900000
795.982483	847.600000
796.018433	843.600000
796.054382	853.200000
796.090393	848.300000
796.126282	839.200000
796.162292	829.200000
796.198242	824.100000
796.234192	828.600000
796.270203	819.000000
796.306091	830.400000
796.342041	845.500000
796.378052	830.800000
796.413940	837.300000
796.449951	836.100000
796.485901	833.700000
796.521790	834.700000
796.557800	853.300000
796.593689	851.500000
796.629639	853.300000
796.665649	849.100000
796.701599	842.500000
796.737488	845.200000
796.773437	850.900000
796.809387	848.000000
796.845337	854.200000
796.881287	847.800000
796.917175	832.300000
796.953125	829.600000
796.989075	829.800000
797.024963	828.100000
797.060913	831.500000
797.096863	833.600000
797.132751	823.500000
797.168701	808.500000
797.204590	816.800000
797.240540	816.700000
797.276489	825.800000
797.312439	825.500000
797.348328	819.900000
797.384277	821.600000
797.420166	812.100000
797.456055	811.000000
797.492004	806.200000
797.527893	812.000000
797.563843	822.200000
797.599731	820.800000
797.635620	813.100000
797.671570	819.000000
797.707520	814.400000
797.743347	811.600000
797.779297	817.400000
797.815125	818.100000
797.851074	815.200000
797.887024	806.100000
797.922913	796.100000
797.958801	797.400000
797.994690	793.200000
798.030579	795.700000
798.066467	805.000000
798.102356	795.300000
798.138245	790.900000
798.174133	786.900000
798.210083	796.100000
798.245911	804.000000
798.281799	804.600000
798.317749	805.700000
798.353577	805.400000
798.389465	792.500000
798.425293	788.200000
798.461243	792.500000
798.497131	788.300000
798.532959	791.600000
798.568848	808.600000
798.604736	793.300000
798.640564	779.700000
798.676453	777.200000
798.712402	775.000000
798.748230	783.200000
798.784119	790.700000
798.820007	791.100000
798.855835	785.700000
798.891724	779.100000
798.927551	775.000000
798.963379	778.800000
798.999268	771.200000
799.035095	771.600000
799.070984	771.900000
799.106873	758.400000
799.142700	761.300000
799.178528	749.600000
799.214417	755.400000
799.250244	766.600000
799.286133	762.700000
799.321960	761.900000
799.357788	758.500000
799.393677	750.200000
799.429504	756.800000
799.465332	752.300000
799.501221	764.300000
799.537048	766.800000
799.572876	754.800000
799.608704	753.700000
799.644531	761.100000
799.680359	764.200000
799.716248	773.300000
799.752014	778.100000
799.787903	772.400000
799.823730	765.800000
799.859558	764.400000
799.895386	761.600000
799.931213	761.300000
799.967041	759.000000
800.002869	753.600000
800.038696	758.900000
800.074463	744.600000
800.110352	746.000000
800.146179	740.600000
800.181946	750.700000
800.217773	757.700000
800.253540	757.900000
800.289429	748.400000
800.325256	742.700000
800.361023	736.700000
800.396851	744.600000
800.432678	742.000000
800.468445	750.000000
800.504272	750.400000
800.540100	737.700000
800.575867	729.400000
800.611694	737.000000
800.647461	730.000000
800.683289	738.800000
800.719116	740.300000
800.754883	736.600000
800.790649	729.300000
800.826477	720.100000
800.862244	736.200000
800.898071	720.500000
800.933838	727.900000
800.969604	730.700000
801.005432	724.500000
801.041199	724.300000
801.076965	722.500000
801.112793	713.900000
801.148560	709.200000
801.184326	713.300000
801.220154	711.200000
801.255859	707.300000
801.291687	703.500000
801.327454	699.400000
801.363281	701.200000
801.398987	692.400000
801.434814	690.600000
801.470520	702.200000
801.506287	698.600000
801.542114	686.900000
801.577820	686.800000
801.613647	685.100000
801.649414	688.700000
801.685120	693.900000
801.720886	692.200000
801.756714	681.000000
801.792419	681.600000
801.828186	672.000000
801.863892	679.800000
801.899719	671.800000
801.935486	674.100000
801.971252	680.200000
802.006958	680.800000
802.042725	672.000000
802.078430	666.200000
802.114197	662.500000
802.149963	680.700000
802.185669	670.300000
802.221436	670.800000
802.257202	671.000000
802.292908	665.000000
802.328674	674.300000
802.364441	671.300000
802.400146	670.800000
802.435913	672.500000
802.471558	667.600000
802.507324	663.400000
802.543091	661.200000
802.578796	665.500000
802.614502	671.000000
802.650269	676.900000
802.685974	663.200000
802.721741	668.600000
802.757446	671.200000
802.793152	667.300000
802.828918	670.100000
802.864624	667.900000
802.900330	668.400000
802.936035	669.000000
802.971802	669.200000
803.007446	652.700000
803.043213	645.200000
803.078857	662.400000
803.114624	649.000000
803.150330	658.800000
803.185974	646.700000
803.221741	646.100000
803.257446	650.000000
803.293152	649.700000
803.328857	652.800000
803.364563	651.100000
803.400208	641.400000
803.435974	648.200000
803.471680	644.100000
803.507324	639.700000
803.543030	646.800000
803.578735	650.300000
803.614441	643.200000
803.650146	649.100000
803.685791	636.200000
803.721497	633.900000
803.757202	624.400000
803.792847	637.200000
803.828552	630.000000
803.864258	635.200000
803.899902	628.000000
803.935608	616.300000
803.971313	617.600000
804.006958	618.700000
804.042664	622.100000
804.078308	625.900000
804.113953	614.800000
804.149658	621.600000
804.185364	613.300000
804.221008	624.100000
804.256714	610.300000
804.292297	610.400000
804.328003	610.400000
804.363708	603.600000
804.399292	604.700000
804.434998	604.000000
804.470703	589.900000
804.506287	603.400000
804.541992	596.200000
804.577637	596.200000
804.613281	582.300000
804.648926	583.200000
804.684570	585.100000
804.720215	580.700000
804.755920	577.600000
804.791565	582.400000
804.827209	592.300000
804.862854	585.300000
804.898437	582.400000
804.934143	581.300000
804.969788	582.300000
805.005371	580.200000
805.041077	578.500000
805.076721	583.900000
805.112305	571.400000
805.147949	573.800000
805.183655	568.100000
805.219238	573.300000
805.254883	569.900000
805.290466	582.900000
805.326111	572.100000
805.361755	563.300000
805.397400	563.500000
805.432983	562.100000
805.468628	560.100000
805.504211	564.800000
805.539856	568.000000
805.575500	570.900000
805.611084	563.300000
805.646729	556.000000
805.682373	556.000000
805.717957	564.800000
805.753601	569.900000
805.789246	555.300000
805.824768	561.100000
805.860413	563.700000
805.895996	550.000000
805.931641	551.300000
805.967224	559.100000
806.002869	555.800000
806.038452	568.000000
806.074036	566.900000
806.109619	551.300000
806.145264	545.800000
806.180847	551.400000
806.216431	544.800000
806.252014	550.300000
806.287659	549.500000
806.323181	554.900000
806.358826	551.000000
806.394409	539.300000
806.429993	537.500000
806.465576	543.400000
806.501160	536.000000
806.536743	532.500000
806.572327	544.400000
806.607910	540.300000
806.643494	540.300000
806.679077	533.800000
806.714661	530.100000
806.750244	532.800000
806.785828	529.000000
806.821350	531.700000
806.856934	530.600000
806.892517	525.000000
806.928101	523.800000
806.963684	526.200000
806.999268	526.600000
807.034790	513.600000
807.070374	509.800000
807.105896	505.500000
807.141479	507.500000
807.177063	513.500000
807.212585	508.100000
807.248169	507.300000
807.283752	515.000000
807.319275	509.500000
807.354858	513.300000
807.390381	505.400000
807.425903	501.500000
807.461487	498.900000
807.497070	499.400000
807.532593	499.600000
807.568115	498.400000
807.603699	492.800000
807.639221	492.200000
807.674744	491.900000
807.710266	494.300000
807.745850	492.100000
807.781372	493.400000
807.816895	489.500000
807.852417	489.700000
807.888000	488.400000
807.923523	484.700000
807.959045	489.600000
807.994629	482.500000
808.030090	481.400000
808.065613	487.500000
808.101135	485.000000
808.136658	483.700000
808.172241	482.400000
808.207764	484.500000
808.243225	479.500000
808.278809	474.800000
808.314270	481.700000
808.349792	471.200000
808.385315	471.400000
808.420837	476.100000
808.456360	477.700000
808.491882	482.100000
808.527344	479.400000
808.562866	480.400000
808.598389	470.100000
808.633850	472.800000
808.669434	463.100000
808.704895	467.300000
808.740417	478.700000
808.775940	473.400000
808.811462	466.800000
808.846924	462.300000
808.882385	461.800000
808.917847	462.500000
808.953369	464.700000
808.988892	459.400000
809.024353	463.900000
809.059875	463.900000
809.095398	458.700000
809.130798	454.800000
809.166321	454.400000
809.201843	453.200000
809.237305	454.400000
809.272766	460.600000
809.308228	454.400000
809.343750	450.700000
809.379211	452.400000
809.414734	449.900000
809.450134	457.200000
809.485657	442.300000
809.521118	447.800000
809.556580	443.600000
809.592102	444.500000
809.627502	441.400000
809.663025	443.600000
809.698486	436.900000
809.733887	434.500000
809.769409	437.500000
809.804871	429.800000
809.840271	429.500000
809.875793	434.000000
809.911194	434.400000
809.946655	429.900000
809.982178	425.000000
810.017639	427.900000
810.053040	425.600000
810.088501	421.400000
810.123901	423.500000
810.159424	422.800000
810.194885	419.100000
810.230286	421.200000
810.265747	415.600000
810.301208	413.900000
810.336609	418.600000
810.372070	413.900000
810.407532	417.100000
810.442932	415.900000
810.478394	418.300000
810.513794	410.300000
810.549255	407.900000
810.584717	403.600000
810.620117	401.700000
810.655518	406.100000
810.690979	405.000000
810.726379	401.700000
810.761841	397.900000
810.797302	396.900000
810.832642	397.100000
810.868103	404.400000
810.903564	394.200000
810.938904	400.500000
810.974365	389.400000
811.009827	391.400000
811.045166	387.700000
811.080627	381.300000
811.115967	385.100000
811.151428	388.300000
811.186829	384.900000
811.222229	383.700000
811.257629	378.300000
811.293091	383.000000
811.328430	391.200000
811.363892	381.000000
811.399292	385.700000
811.434631	380.100000
811.470093	385.600000
811.505493	377.700000
811.540833	379.000000
811.576294	380.000000
811.611694	379.200000
811.647034	373.400000
811.682434	373.500000
811.717773	377.500000
811.753235	383.700000
811.788635	372.500000
811.823975	373.800000
811.859375	380.200000
811.894775	370.300000
811.930115	371.600000
811.965515	369.400000
812.000916	372.300000
812.036255	367.800000
812.071655	369.700000
812.106995	364.500000
812.142395	368.000000
812.177795	372.800000
812.213196	370.000000
812.248474	368.500000
812.283875	359.600000
812.319214	364.900000
812.354614	365.700000
812.390015	361.300000
812.425293	360.700000
812.460693	359.700000
812.496094	357.900000
812.531433	352.900000
812.566772	353.700000
812.602173	356.300000
812.637451	355.600000
812.672852	353.000000
812.708191	354.500000
812.743530	348.600000
812.778931	345.100000
812.814270	342.200000
812.849609	348.800000
812.884949	345.200000
812.920227	340.400000
812.955627	350.400000
812.990967	343.400000
813.026306	340.600000
813.061646	333.400000
813.096985	330.400000
813.132324	327.100000
813.167664	334.300000
813.203003	337.700000
813.238281	326.900000
813.273682	326.900000
813.308960	323.300000
813.344299	321.800000
813.379639	329.900000
813.414978	324.200000
813.450256	323.000000
813.485596	325.000000
813.520874	319.200000
813.556213	319.300000
813.591614	326.000000
813.626831	315.800000
813.662170	319.100000
813.697510	325.900000
813.732788	316.300000
813.768127	318.000000
813.803467	320.000000
813.838745	314.300000
813.874084	319.400000
813.909363	315.900000
813.944641	316.600000
813.979980	307.800000
814.015320	313.100000
814.050598	309.800000
814.085876	311.100000
814.121155	308.100000
814.156494	309.000000
814.191772	309.100000
814.227051	303.800000
814.262390	306.700000
814.297668	306.800000
814.332947	306.200000
814.368225	300.100000
814.403564	301.100000
814.438782	300.200000
814.474121	301.700000
814.509338	299.600000
814.544617	303.900000
814.579956	298.100000
814.615173	306.600000
814.650513	303.800000
814.685791	298.300000
814.721008	301.600000
814.756348	301.300000
814.791626	295.500000
814.826843	295.200000
814.862122	296.100000
814.897400	293.500000
814.932678	294.300000
814.967957	296.300000
815.003235	294.900000
815.038452	288.000000
815.073730	286.100000
815.108948	298.300000
815.144226	292.900000
815.179504	296.400000
815.214722	283.400000
815.250000	284.000000
815.285278	289.200000
815.320496	286.500000
815.355774	284.200000
815.391052	289.300000
815.426270	285.100000
815.461487	284.600000
815.496765	279.600000
815.531982	277.900000
815.567261	281.800000
815.602539	287.300000
815.637695	283.300000
815.672974	283.700000
815.708191	284.800000
815.743408	285.300000
815.778687	278.500000
815.813904	284.000000
815.849121	272.600000
815.884399	274.800000
815.919556	274.100000
815.954834	276.100000
815.990051	277.100000
816.025269	278.900000
816.060486	271.900000
816.095703	270.700000
816.130920	272.300000
816.166199	270.700000
816.201416	273.900000
816.236572	273.000000
816.271851	267.700000
816.307007	270.300000
816.342224	264.000000
816.377441	266.900000
816.412659	261.000000
816.447876	268.500000
816.483093	265.500000
816.518250	264.600000
816.553467	262.700000
816.588745	267.500000
816.623901	260.500000
816.659119	255.200000
816.694275	260.500000
816.729492	254.700000
816.764709	287.900000
816.799927	255.400000
816.835083	259.000000
816.870300	252.200000
816.905457	256.600000
816.940674	256.800000
816.975830	253.800000
817.010986	250.400000
817.046204	251.600000
817.081421	248.900000
817.116577	249.200000
817.151733	254.700000
817.186951	255.100000
817.222107	251.200000
817.257324	255.100000
817.292419	251.800000
817.327637	247.100000
817.362854	248.600000
817.398010	244.900000
817.433167	244.900000
817.468323	244.300000
817.503479	247.100000
817.538635	254.200000
817.573853	247.100000
817.608948	245.700000
817.644165	243.100000
817.679321	240.900000
817.714478	241.100000
817.749634	244.100000
817.784790	252.200000
817.819946	246.900000
817.855103	236.700000
817.890198	240.700000
817.925415	235.100000
817.960571	242.800000
817.995667	242.300000
818.030823	239.800000
818.066040	235.600000
818.101135	240.000000
818.136292	238.400000
818.171448	235.300000
818.206543	236.600000
818.241699	239.300000
818.276855	238.800000
818.311951	236.000000
818.347107	232.800000
818.382263	238.000000
818.417358	240.100000
818.452515	240.700000
818.487610	240.500000
818.522766	230.900000
818.557922	239.500000
818.593018	235.900000
818.628113	235.100000
818.663269	230.000000
818.698364	233.400000
818.733521	229.800000
818.768677	233.600000
818.803711	228.200000
818.838867	227.500000
818.874023	227.900000
818.909058	226.600000
818.944214	224.500000
818.979370	229.100000
819.014404	227.600000
819.049561	224.500000
819.084595	228.900000
819.119751	221.100000
819.154846	227.500000
819.189941	222.400000
819.225037	220.700000
819.260193	216.900000
819.295227	219.800000
819.330322	214.900000
819.365479	216.900000
819.400513	249.500000
819.435608	215.100000
819.470764	213.100000
819.505798	215.300000
819.540894	217.800000
819.575989	216.200000
819.611084	220.500000
819.646179	222.100000
819.681213	218.600000
819.716309	218.500000
819.751404	215.000000
819.786438	220.800000
819.821533	210.600000
819.856628	216.200000
819.891663	217.600000
819.926758	226.100000
819.961853	218.800000
819.996887	211.700000
820.031982	215.500000
820.067017	212.500000
820.102112	245.700000
820.137207	210.300000
820.172302	222.000000
820.207275	210.400000
820.242371	209.400000
820.277405	210.400000
820.312500	211.700000
820.347534	211.600000
820.382568	214.500000
820.417664	208.400000
820.452759	208.900000
820.487732	209.300000
820.522827	208.300000
820.557861	206.300000
820.592896	208.600000
820.627930	207.700000
820.662964	206.400000
820.698059	209.900000
820.733093	208.500000
820.768127	210.800000
820.803162	209.400000
820.838196	205.700000
820.873230	208.000000
820.908264	208.900000
820.943298	205.800000
820.978333	210.100000
821.013367	209.500000
821.048401	210.700000
821.083435	211.700000
821.118469	201.200000
821.153503	209.700000
821.188477	205.900000
821.223511	202.500000
821.258484	206.400000
821.293579	206.200000
821.328613	200.400000
821.363647	204.400000
821.398621	200.400000
821.433655	204.300000
821.468628	216.100000
821.503662	204.000000
821.538696	206.500000
821.573669	200.300000
821.608704	207.200000
821.643677	203.700000
821.678650	206.400000
821.713684	208.700000
821.748718	202.900000
821.783691	202.600000
821.818726	203.300000
821.853638	204.500000
821.888672	202.000000
821.923706	202.400000
821.958618	202.600000
821.993652	200.900000
822.028687	207.700000
822.063599	210.200000
822.098633	204.900000
822.133667	198.600000
822.168579	203.800000
822.203613	203.600000
822.238586	200.100000
822.273560	204.600000
822.308533	201.700000
822.343567	199.900000
822.378479	203.800000
822.413452	200.800000
822.448425	200.600000
822.483398	205.400000
822.518372	205.900000
822.553345	198.800000
822.588318	209.200000
822.623291	201.300000
822.658203	199.500000
822.693237	200.800000
822.728210	198.300000
822.763123	201.600000
822.798096	198.400000
822.833069	200.300000
822.867981	201.000000
822.902954	202.800000
822.937927	203.900000
822.972900	207.500000
823.007874	196.400000
823.042725	203.600000
823.077698	208.300000
823.112671	198.900000
823.147583	200.200000
823.182556	203.600000
823.217529	204.200000
823.252441	198.300000
823.287415	209.600000
823.322388	203.500000
823.357239	200.000000
823.392212	206.000000
823.427185	206.000000
823.462097	198.100000
823.497009	201.800000
823.531982	199.600000
823.566895	199.900000
823.601807	197.400000
823.636719	199.700000
823.671631	203.100000
823.706604	197.600000
823.741455	203.600000
823.776428	195.200000
823.811340	203.100000
823.846252	206.300000
823.881165	205.300000
823.916138	200.400000
823.950989	209.200000
823.985901	198.200000
824.020813	201.700000
824.055725	198.700000
824.090637	196.000000
824.125610	202.200000
824.160461	203.500000
824.195374	199.400000
824.230225	203.200000
824.265198	194.600000
824.300110	196.900000
824.334961	207.400000
824.369873	193.300000
824.404785	201.500000
824.439636	203.800000
824.474548	193.700000
824.509460	192.800000
824.544312	203.400000
824.579224	201.900000
824.614075	201.700000
824.648987	197.600000
824.683899	200.100000
824.718811	195.800000
824.753662	203.900000
824.788574	201.300000
824.823364	199.800000
824.858276	195.100000
824.893188	203.100000
824.928040	201.800000
824.962952	200.200000
824.997803	201.500000
825.032654	198.900000
825.067566	199.900000
825.102417	197.900000
825.137268	196.500000
825.172119	198.100000
825.206970	195.100000
825.241882	196.800000
825.276733	194.000000
825.311646	196.100000
825.346436	193.000000
825.381348	193.800000
825.416138	197.400000
825.450989	194.800000
825.485901	188.400000
825.520691	192.100000
825.555542	191.400000
825.590454	195.900000
825.625244	189.400000
825.660095	201.600000
825.695007	198.000000
825.729797	193.800000
825.764648	191.800000
825.799438	194.800000
825.834290	196.300000
825.869202	189.800000
825.903992	195.800000
825.938843	192.300000
825.973694	190.200000
826.008484	202.900000
826.043335	191.100000
826.078186	187.500000
826.112976	198.000000
826.147827	198.100000
826.182678	200.300000
826.217468	188.900000
826.252319	197.900000
826.287109	190.700000
826.321899	198.400000
826.356750	192.500000
826.391541	189.900000
826.426392	195.400000
826.461182	194.700000
826.495972	188.500000
826.530823	187.100000
826.565613	193.000000
826.600403	189.300000
826.635254	194.600000
826.670044	188.600000
826.704834	186.400000
826.739685	189.400000
826.774475	193.700000
826.809265	193.400000
826.844055	190.600000
826.878906	197.700000
826.913635	193.100000
826.948425	195.000000
826.983215	193.600000
827.018005	196.900000
827.052856	190.700000
827.087585	195.500000
827.122375	186.400000
827.157227	192.500000
827.191956	203.600000
827.226746	189.900000
827.261536	194.700000
827.296265	187.000000
827.331116	190.300000
827.365906	193.900000
827.400635	188.700000
827.435425	185.800000
827.470215	195.900000
827.504944	192.400000
827.539734	196.500000
827.574463	191.300000
827.609253	198.400000
827.644043	192.600000
827.678772	195.600000
827.713562	190.800000
827.748352	192.500000
827.783081	188.700000
827.817871	194.000000
827.852600	187.200000
827.887329	193.600000
827.922119	184.400000
827.956848	195.000000
827.991638	201.300000
828.026367	194.200000
828.061157	190.800000
828.095886	193.700000
828.130615	204.700000
828.165344	187.100000
828.200073	191.200000
828.234863	192.600000
828.269592	190.000000
828.304321	196.600000
828.339111	192.400000
828.373779	190.100000
828.408569	195.300000
828.443298	195.300000
828.477966	190.300000
828.512756	193.400000
828.547424	188.400000
828.582214	190.700000
828.616943	191.200000
828.651672	191.900000
828.686340	195.000000
828.721130	189.700000
828.755798	190.000000
828.790527	191.600000
828.825256	191.800000
828.859924	193.100000
828.894714	197.200000
828.929443	199.300000
828.964111	189.900000
828.998840	189.900000
829.033569	190.400000
829.068237	191.700000
829.102966	190.400000
829.137634	192.300000
829.172363	193.900000
829.207092	192.000000
829.241821	189.600000
829.276489	187.300000
829.311157	193.200000
829.345825	190.400000
829.380554	195.500000
829.415283	189.500000
829.449951	188.200000
829.484619	198.900000
829.519348	198.800000
829.554016	191.800000
829.588745	194.300000
829.623413	188.100000
829.658081	201.000000
829.692749	188.300000
829.727417	196.900000
829.762146	192.500000
829.796814	189.900000
829.831482	189.400000
829.866150	193.100000
829.900879	189.400000
829.935486	194.400000
829.970154	189.100000
830.004883	202.800000
830.039490	193.600000
830.074219	189.700000
830.108887	191.500000
830.143494	191.100000
830.178223	187.600000
830.212891	190.000000
830.247498	192.700000
830.282166	197.600000
830.316772	197.100000
830.351501	188.300000
830.386169	189.800000
830.420776	190.600000
830.455444	192.500000
830.490112	189.100000
830.524719	186.800000
830.559387	194.200000
830.594055	195.400000
830.628662	191.700000
830.663330	192.800000
830.697998	198.300000
830.732605	191.900000
830.767273	192.700000
830.801941	192.000000
830.836487	198.800000
830.871155	193.800000
830.905762	193.200000
830.940430	188.000000
830.975098	187.700000
831.009644	192.700000
831.044312	198.400000
831.078979	195.000000
831.113525	184.400000
831.148193	194.800000
831.182861	191.200000
831.217407	196.400000
831.252075	203.300000
831.286621	190.800000
831.321289	188.600000
831.355896	193.100000
831.390564	198.200000
831.425110	192.800000
831.459778	196.600000
831.494324	202.500000
831.528931	192.000000
831.563599	197.100000
831.598145	186.300000
831.632751	192.900000
831.667419	190.900000
831.701965	193.700000
831.736572	194.100000
831.771179	188.600000
831.805786	189.800000
831.840393	198.000000
831.874939	186.700000
831.909546	194.900000
831.944153	186.200000
831.978760	191.800000
832.013306	187.800000
832.047913	195.700000
832.082458	199.400000
832.117065	189.700000
832.151672	200.500000
832.186218	193.900000
832.220825	194.900000
832.255432	185.500000
832.289978	191.100000
832.324585	192.700000
832.359192	193.700000
832.393677	190.800000
832.428284	194.300000
832.462830	190.300000
832.497437	191.200000
832.531982	194.500000
832.566589	191.700000
832.601135	193.100000
832.635681	186.300000
832.670227	191.800000
832.704773	198.600000
832.739380	192.500000
832.773926	193.300000
832.808472	190.000000
832.843079	192.300000
832.877563	192.600000
832.912170	189.500000
832.946716	186.800000
832.981201	197.100000
833.015808	194.800000
833.050293	192.000000
833.084839	189.200000
833.119446	192.000000
833.153992	195.200000
833.188477	190.300000
833.223022	190.300000
833.257568	193.500000
833.292114	196.600000
833.326660	201.000000
833.361145	190.100000
833.395691	185.900000
833.430237	192.600000
833.464783	193.900000
833.499329	190.900000
833.533875	189.000000
833.568359	194.200000
833.602905	194.800000
833.637390	197.800000
833.671875	189.500000
833.706421	191.800000
833.740906	189.900000
833.775452	184.900000
833.809998	188.500000
833.844482	198.900000
833.879028	191.500000
833.913513	192.500000
833.947998	195.000000
833.982544	189.200000
834.017090	188.800000
834.051514	185.000000
834.086060	194.100000
834.120544	193.500000
834.155029	194.300000
834.189575	190.500000
834.223999	192.500000
834.258545	193.200000
834.293030	192.800000
834.327515	192.500000
834.362000	190.500000
834.396545	195.800000
834.430969	191.000000
834.465454	195.900000
834.500000	185.200000
834.534424	193.700000
834.568970	185.700000
834.603455	185.400000
834.637878	189.000000
834.672363	191.900000
834.706909	191.700000
834.741333	192.600000
834.775818	186.800000
834.810242	187.800000
834.844727	192.300000
834.879211	190.500000
834.913635	193.200000
834.948181	191.600000
834.982666	193.500000
835.017090	189.500000
835.051575	194.700000
835.086060	191.400000
835.120483	194.300000
835.154907	194.200000
835.189331	191.700000
835.223816	195.000000
835.258301	189.400000
835.292786	188.600000
835.327209	196.100000
835.361694	188.800000
835.396057	191.700000
835.430542	194.300000
835.465027	192.200000
835.499390	188.700000
835.533875	218.700000
835.568359	189.400000
835.602722	187.300000
835.637207	193.100000
835.671692	187.600000
835.706055	206.600000
835.740540	195.000000
835.774902	193.200000
835.809387	194.400000
835.843811	187.800000
835.878235	196.500000
835.912659	187.900000
835.947083	188.800000
835.981506	191.800000
836.015930	186.000000
836.050354	194.800000
836.084778	196.500000
836.119202	195.000000
836.153625	204.900000
836.187988	189.300000
836.222473	190.000000
836.256897	195.400000
836.291260	190.000000
836.325684	193.600000
836.360046	189.900000
836.394470	192.400000
836.428894	197.900000
836.463318	190.100000
836.497681	193.800000
836.532104	198.800000
836.566467	192.200000
836.600891	191.900000
836.635315	196.000000
836.669678	194.800000
836.704102	195.600000
836.738525	194.600000
836.772888	185.400000
836.807251	189.800000
836.841675	194.700000
836.876038	188.400000
836.910461	187.600000
836.944763	195.800000
836.979187	188.400000
837.013611	196.600000
837.047974	187.000000
837.082336	200.900000
837.116699	193.800000
837.151062	192.800000
837.185486	188.200000
837.219849	190.700000
837.254211	195.200000
837.288574	190.300000
837.322937	187.500000
837.357300	183.200000
837.391663	201.700000
837.426086	195.500000
837.460388	191.800000
837.494751	194.300000
837.529114	191.200000
837.563477	199.700000
837.597839	192.900000
837.632141	191.000000
837.666565	190.400000
837.700928	194.000000
837.735229	194.500000
837.769592	193.600000
837.803955	195.400000
837.838257	189.800000
837.872620	189.600000
837.906982	198.200000
837.941284	193.900000
837.975647	193.200000
838.010010	197.900000
838.044312	189.300000
838.078674	190.300000
838.112976	192.600000
838.147339	194.400000
838.181702	191.200000
838.216003	198.400000
838.250366	192.600000
838.284668	194.900000
838.318970	186.100000
838.353333	191.100000
838.387634	191.300000
838.421936	193.200000
838.456299	192.700000
838.490601	197.500000
838.524902	195.500000
838.559265	195.800000
838.593567	195.900000
838.627869	189.900000
838.662170	193.300000
838.696472	187.800000
838.730774	188.500000
838.765137	193.900000
838.799377	182.900000
838.833740	192.600000
838.868042	196.700000
838.902283	186.000000
838.936646	197.400000
838.970947	192.600000
839.005188	197.200000
839.039551	186.100000
839.073792	198.200000
839.108093	191.100000
839.142395	200.400000
839.176697	185.300000
839.210937	194.100000
839.245300	199.900000
839.279541	188.600000
839.313843	191.400000
839.348145	194.600000
839.382385	195.100000
839.416687	197.200000
839.450989	193.800000
839.485229	193.000000
839.519531	188.500000
839.553833	197.300000
839.588013	192.500000
839.622314	194.400000
839.656555	193.700000
839.690857	192.700000
839.725159	187.400000
839.759460	192.800000
839.793640	189.200000
839.827942	192.600000
839.862183	187.800000
839.896423	193.500000
839.930725	202.800000
839.964966	198.900000
839.999207	196.800000
840.033508	199.000000
840.067688	190.200000
840.101990	198.100000
840.136230	192.100000
840.170471	197.500000
840.204712	188.800000
840.238953	189.700000
840.273193	192.500000
840.307434	194.800000
840.341736	189.800000
840.375916	187.000000
840.410217	189.700000
840.444397	196.900000
840.478638	193.500000
840.512878	195.300000
840.547119	193.700000
840.581360	194.600000
840.615601	199.100000
840.649780	201.900000
840.684021	192.000000
840.718262	199.100000
840.752441	199.400000
840.786682	192.000000
840.820862	193.900000
840.855103	199.500000
840.889343	193.500000
840.923584	195.400000
840.957764	194.900000
840.992004	194.100000
841.026184	203.800000
841.060425	190.800000
841.094666	190.500000
841.128845	193.700000
841.163025	193.200000
841.197266	192.500000
841.231445	192.000000
841.265686	194.200000
841.299866	189.400000
841.334045	198.800000
841.368286	192.000000
841.402405	198.500000
841.436646	195.100000
841.470825	190.000000
841.505005	191.000000
841.539185	188.800000
841.573425	191.500000
841.607544	193.000000
841.641785	191.400000
841.675964	189.500000
841.710144	192.900000
841.744324	189.400000
841.778503	190.400000
841.812683	190.000000
841.846863	195.800000
841.881042	199.900000
841.915222	189.300000
841.949402	204.100000
841.983521	186.800000
842.017700	192.200000
842.051880	192.400000
842.086060	196.800000
842.120239	192.200000
842.154419	190.600000
842.188538	193.600000
842.222717	190.600000
842.256897	199.100000
842.291016	192.400000
842.325195	192.900000
842.359375	202.100000
842.393494	199.800000
842.427673	194.400000
842.461853	193.500000
842.495911	200.500000
842.530090	193.700000
842.564209	191.400000
842.598389	192.000000
842.632568	193.800000
842.666626	194.300000
842.700806	191.000000
842.734985	190.500000
842.769043	195.100000
842.803223	190.500000
842.837402	192.100000
842.871460	189.600000
842.905640	201.300000
842.939697	189.400000
842.973877	192.100000
843.007996	197.200000
843.042175	200.800000
843.076233	190.000000
843.110413	194.500000
843.144470	199.700000
843.178589	195.200000
843.212769	191.000000
843.246826	195.700000
843.280945	191.000000
843.315125	192.600000
843.349182	189.000000
843.383301	196.400000
843.417419	204.700000
843.451538	191.900000
843.485657	191.100000
843.519714	193.000000
843.553833	193.700000
843.587952	190.400000
843.622070	190.700000
843.656128	196.100000
843.690247	192.500000
843.724304	193.100000
843.758423	196.000000
843.792542	189.900000
843.826599	192.800000
843.860718	190.800000
843.894836	188.500000
843.928894	192.100000
843.963013	194.100000
843.997070	188.500000
844.031128	187.900000
844.065247	196.500000
844.099304	195.800000
844.133362	194.200000
844.167480	195.700000
844.201599	195.900000
844.235596	193.600000
844.269714	195.000000
844.303711	193.700000
844.337830	187.500000
844.371948	194.400000
844.405945	192.200000
844.440063	188.900000
844.474121	202.700000
844.508118	189.700000
844.542236	191.900000
844.576294	191.400000
844.610352	188.700000
844.644409	192.100000
844.678406	188.600000
844.712524	196.600000
844.746582	199.000000
844.780640	191.200000
844.814636	193.000000
844.848755	202.600000
844.882751	191.700000
844.916809	194.900000
844.950867	195.700000
844.984863	199.000000
845.018921	192.100000
845.052979	189.400000
845.086975	194.000000
845.121033	187.300000
845.155090	189.900000
845.189087	196.800000
845.223145	191.100000
845.257141	192.800000
845.291199	196.700000
845.325256	197.800000
845.359253	194.200000
845.393250	204.100000
845.427307	191.600000
845.461304	194.100000
845.495361	193.200000
845.529358	199.300000
845.563354	192.000000
845.597412	188.500000
845.631409	199.500000
845.665405	199.400000
845.699463	197.000000
845.733459	191.600000
845.767456	199.900000
845.801453	191.000000
845.835449	196.600000
845.869446	196.200000
845.903503	196.200000
845.937439	190.500000
845.971497	199.600000
846.005493	188.300000
846.039429	196.200000
846.073486	201.500000
846.107483	191.200000
846.141418	192.500000
846.175476	193.400000
846.209473	198.900000
846.243408	189.100000
846.277405	194.100000
846.311401	189.700000
846.345337	193.100000
846.379395	196.600000
846.413330	191.300000
846.447327	200.500000
846.481323	190.300000
846.515259	190.000000
846.549255	192.800000
846.583252	195.100000
846.617187	189.900000
846.651184	193.500000
846.685120	192.200000
846.719055	199.300000
846.753052	196.700000
846.786987	196.500000
846.820984	188.100000
846.854980	197.700000
846.888916	189.800000
846.922852	194.100000
846.956848	198.100000
846.990723	189.400000
847.024719	195.000000
847.058716	191.400000
847.092590	199.000000
847.126587	195.100000
847.160522	191.800000
847.194458	197.100000
847.228455	189.800000
847.262390	189.100000
847.296265	191.500000
847.330261	197.500000
847.364136	190.900000
847.398132	193.000000
847.432068	193.500000
847.466003	192.200000
847.499939	192.000000
847.533875	196.300000
847.567749	190.400000
847.601746	191.700000
847.635681	195.300000
847.669556	186.800000
847.703491	196.300000
847.737427	203.900000
847.771301	188.300000
847.805237	195.400000
847.839233	193.400000
847.873108	192.600000
847.907043	191.800000
847.940918	199.300000
847.974854	194.100000
848.008789	196.600000
848.042664	193.000000
848.076538	196.400000
848.110474	191.900000
848.144348	193.300000
848.178284	186.800000
848.212219	195.500000
848.246094	191.000000
848.279968	193.200000
848.313904	194.900000
848.347778	193.700000
848.381653	191.100000
848.415588	190.600000
848.449463	189.900000
848.483337	194.200000
848.517212	198.800000
848.551086	193.000000
848.585022	189.600000
848.618835	203.500000
848.652771	190.900000
848.686646	189.900000
848.720520	200.000000
848.754395	192.600000
848.788330	197.400000
848.822144	197.200000
848.856018	191.200000
848.889954	200.300000
848.923767	191.500000
848.957642	189.200000
848.991577	195.900000
849.025391	192.200000
849.059265	193.000000
849.093079	189.200000
849.126953	189.100000
849.160828	196.800000
849.194641	193.200000
849.228577	191.000000
849.262451	192.300000
849.296265	190.500000
849.330139	190.200000
849.364014	193.200000
849.397827	196.000000
849.431702	193.600000
849.465515	196.600000
849.499329	185.500000
849.533203	189.900000
849.567078	186.200000
849.600891	195.600000
849.634766	192.400000
849.668518	195.300000
849.702393	192.700000
849.736267	187.300000
849.770020	201.200000
849.803894	194.600000
849.837769	192.900000
849.871521	193.200000
849.905396	196.300000
849.939270	189.900000
849.973022	192.200000
850.006897	196.100000
850.040710	196.100000
850.074524	197.000000
850.108337	193.000000
850.142151	197.600000
850.175964	198.900000
850.209778	193.600000
850.243530	184.900000
850.277405	196.100000
850.311218	195.000000
850.344971	191.300000
850.378845	200.200000
850.412659	189.500000
850.446411	195.700000
850.480225	191.900000
850.514038	198.000000
850.547791	195.400000
850.581665	194.200000
850.615417	190.300000
850.649231	194.600000
850.683044	191.700000
850.716858	193.900000
850.750610	194.300000
850.784424	196.500000
850.818176	189.400000
850.851929	192.300000
850.885742	190.200000
850.919495	193.000000
850.953308	199.400000
850.987122	198.300000
851.020874	189.100000
851.054626	188.100000
851.088440	195.600000
851.122192	197.200000
851.156006	194.000000
851.189697	192.100000
851.223511	188.500000
851.257263	197.300000
851.291077	195.000000
851.324829	192.300000
851.358582	191.300000
851.392334	192.100000
851.426086	191.000000
851.459900	200.500000
851.493591	193.400000
851.527344	192.200000
851.561157	193.900000
851.594849	194.700000
851.628662	194.200000
851.662415	202.600000
851.696106	194.700000
851.729858	197.300000
851.763611	190.100000
851.797363	193.700000
851.831116	190.900000
851.864868	195.000000
851.898560	198.200000
851.932312	190.600000
851.966064	197.400000
851.999817	192.300000
852.033569	193.100000
852.067261	197.000000
852.101013	190.500000
852.134766	192.700000
852.168457	186.000000
852.202209	198.300000
852.235901	189.500000
852.269592	196.200000
852.303345	200.300000
852.337036	195.700000
852.370789	192.700000
852.404541	197.600000
852.438171	190.400000
852.471924	191.700000
852.505676	188.200000
852.539307	195.100000
852.573059	190.900000
852.606812	191.600000
852.640442	192.200000
852.674194	196.500000
852.707886	201.600000
852.741577	198.700000
852.775269	190.900000
852.809021	193.400000
852.842651	195.400000
852.876404	198.600000
852.910034	193.700000
852.943787	198.200000
852.977478	194.200000
853.011108	192.100000
853.044861	190.000000
853.078552	200.400000
853.112183	194.600000
853.145874	194.700000
853.179626	187.600000
853.213257	194.100000
853.246948	190.900000
853.280640	200.400000
853.314270	192.600000
853.347961	199.000000
853.381653	197.000000
853.415283	197.800000
853.448975	189.400000
853.482605	194.700000
853.516296	192.100000
853.549988	189.900000
853.583618	196.000000
853.617310	195.800000
853.651001	193.700000
853.684631	190.900000
853.718323	191.400000
853.751953	198.900000
853.785583	186.700000
853.819275	195.500000
853.852966	194.700000
853.886536	186.600000
853.920227	188.000000
853.953918	196.100000
853.987488	193.300000
854.021179	196.500000
854.054749	199.800000
854.088440	195.500000
854.122131	188.900000
854.155701	194.800000
854.189331	191.000000
854.223022	194.500000
854.256592	195.800000
854.290283	191.400000
854.323914	195.300000
854.357483	194.000000
854.391174	196.700000
854.424744	199.500000
854.458374	196.000000
854.492065	203.900000
854.525696	193.300000
854.559265	197.800000
854.592896	204.700000
854.626465	192.900000
854.660095	194.600000
854.693787	195.500000
854.727356	191.700000
854.760986	195.400000
854.794617	196.100000
854.828186	192.400000
854.861816	196.800000
854.895447	194.300000
854.929016	195.000000
854.962585	193.700000
854.996155	202.000000
855.029785	194.900000
855.063416	195.500000
855.097046	196.200000
855.130615	189.500000
855.164185	197.500000
855.197754	194.300000
855.231384	195.800000
855.264954	192.600000
855.298523	197.800000
855.332153	195.100000
855.365723	198.800000
855.399292	190.800000
855.432922	192.400000
855.466492	195.700000
855.500061	190.700000
855.533630	189.700000
855.567200	196.500000
855.600769	196.600000
855.634338	198.700000
855.667969	194.100000
855.701477	190.400000
855.735046	190.200000
855.768616	188.400000
855.802185	195.000000
855.835754	204.600000
855.869324	186.100000
855.902893	192.800000
855.936401	197.300000
855.969971	193.800000
856.003540	188.900000
856.037109	196.300000
856.070618	190.600000
856.104187	190.100000
856.137695	191.700000
856.171265	186.500000
856.204834	193.100000
856.238403	197.000000
856.271912	190.900000
856.305481	197.300000
856.338989	187.500000
856.372559	196.400000
856.406128	195.600000
856.439636	197.200000
856.473145	191.300000
856.506653	200.000000
856.540222	193.800000
856.573792	200.400000
856.607300	196.100000
856.640808	189.900000
856.674377	193.300000
856.707825	226.500000
856.741394	197.700000
856.774902	190.400000
856.808472	187.100000
856.841980	195.400000
856.875488	197.900000
856.908936	187.800000
856.942505	191.800000
856.976013	191.600000
857.009521	189.600000
857.043030	192.500000
857.076477	192.300000
857.110046	199.500000
857.143555	194.000000
857.177063	193.600000
857.210571	192.300000
857.244080	187.500000
857.277527	196.200000
857.311035	190.700000
857.344543	198.300000
857.378052	191.500000
857.411499	198.900000
857.445068	199.300000
857.478516	193.300000
857.512024	188.300000
857.545532	193.400000
857.578979	194.600000
857.612427	195.000000
857.645874	189.900000
857.679382	194.500000
857.712891	198.300000
857.746399	193.500000
857.779846	197.700000
857.813354	197.000000
857.846741	192.400000
857.880249	190.000000
857.913757	194.000000
857.947266	193.500000
857.980652	195.900000
858.014160	192.100000
858.047546	190.900000
858.081055	192.700000
858.114563	203.600000
858.147949	189.300000
858.181458	194.000000
858.214844	192.600000
858.248352	187.200000
858.281799	195.800000
858.315308	203.200000
858.348694	194.800000
858.382141	201.400000
858.415588	196.300000
858.449036	197.300000
858.482483	193.700000
858.515930	191.900000
858.549377	192.700000
858.582825	199.400000
858.616211	196.000000
858.649658	196.200000
858.683105	188.100000
858.716553	192.600000
858.750000	187.800000
858.783386	191.900000
858.816833	186.400000
858.850281	194.900000
858.883728	194.000000
858.917114	196.100000
858.950562	199.900000
858.983948	199.700000
859.017395	196.600000
859.050781	191.900000
859.084167	188.600000
859.117615	190.200000
859.151062	195.900000
859.184448	190.900000
859.217834	191.800000
859.251282	193.000000
859.284668	189.200000
859.318054	187.800000
859.351440	191.400000
859.384888	198.700000
859.418274	187.200000
859.451721	186.000000
859.485046	195.500000
859.518494	194.700000
859.551819	189.500000
859.585266	195.700000
859.618652	197.600000
859.652039	187.900000
859.685425	189.000000
859.718811	188.700000
859.752197	186.800000
859.785583	197.100000
859.819031	199.900000
859.852356	193.100000
859.885742	191.200000
859.919067	193.500000
859.952454	191.600000
859.985901	196.800000
860.019287	193.200000
860.052612	0.000000
860.085999	0.000000
860.119324	0.000000
860.152710	0.000000
860.186096	0.000000
860.219421	0.000000
860.252808	0.000000
860.286133	0.000000
860.319519	0.000000
860.352905	0.000000
860.386292	0.000000
860.419617	0.000000
860.452942	0.000000
860.486267	0.000000
860.519653	0.000000
860.553040	0.000000
860.586365	0.000000
860.619690	0.000000
860.653076	0.000000
860.686340	0.000000
860.719727	0.000000
860.753113	0.000000
860.786377	0.000000
860.819763	0.000000
860.853027	0.000000
860.886414	0.000000
860.919739	0.000000
860.953125	0.000000
860.986389	0.000000
861.019714	0.000000
861.053040	0.000000
861.086365	0.000000
861.119690	0.000000
861.153076	0.000000
861.186340	0.000000
861.219666	0.000000
861.252930	0.000000
861.286316	0.000000
861.319641	0.000000
861.352905	0.000000
861.386230	0.000000
861.419495	0.000000
861.452820	0.000000
861.486145	0.000000
861.519470	0.000000
861.552734	0.000000
861.586060	0.000000
861.619324	0.000000
861.652649	0.000000
861.685974	0.000000
861.719238	0.000000
861.752563	0.000000
861.785828	0.000000
861.819092	0.000000
861.852417	0.000000
861.885742	0.000000
861.918945	0.000000
861.952271	0.000000
861.985535	0.000000
862.018799	0.000000
862.052124	0.000000
862.085449	0.000000
862.118652	0.000000
862.151978	0.000000
862.185181	0.000000
862.218506	0.000000
862.251770	0.000000
862.285034	0.000000
862.318298	0.000000
862.351562	0.000000
862.384827	0.000000
862.418091	0.000000
862.451355	0.000000
862.484619	0.000000
862.517883	0.000000
862.551086	0.000000
862.584351	0.000000
862.617676	0.000000
862.650940	0.000000
862.684143	0.000000
862.717407	0.000000
862.750610	0.000000
862.783875	0.000000
862.817139	0.000000
862.850342	0.000000
862.883606	0.000000
862.916870	0.000000
862.950073	0.000000
862.983337	0.000000
863.016602	0.000000
863.049805	0.000000
863.083069	0.000000
863.116211	0.000000
863.149475	0.000000
863.182739	0.000000
863.216003	0.000000
863.249146	0.000000
863.282410	0.000000
863.315613	0.000000
863.348816	0.000000
863.382080	0.000000
863.415222	0.000000
863.448486	0.000000
863.481689	0.000000
863.514893	0.000000
863.548157	0.000000
863.581360	0.000000
863.614502	0.000000
863.647766	0.000000
863.680908	0.000000
863.714172	0.000000
863.747375	0.000000
863.780579	0.000000
863.813721	0.000000
863.846985	0.000000
863.880127	0.000000
863.913330	0.000000
863.946533	0.000000
863.979675	0.000000
864.012939	0.000000
