Model Number: SPM-001-M   
Serial Number: 10090201
Firmware Version: 004.17.6
Exposure Time: 300000.000000us
Data Taken on: 21-01-2021 14:47:16.066
Wavelength	Amplitude
733.770752	0.000000
733.808716	0.000000
733.846619	0.000000
733.884583	0.000000
733.922546	0.000000
733.960449	0.000000
733.998413	0.000000
734.036377	0.000000
734.074219	0.000000
734.112183	0.000000
734.150085	0.000000
734.188049	0.000000
734.226013	0.000000
734.263916	0.000000
734.301819	0.000000
734.339783	0.000000
734.377686	0.000000
734.415588	0.000000
734.453552	0.000000
734.491455	0.000000
734.529419	0.000000
734.567322	0.000000
734.605225	0.000000
734.643127	0.000000
734.681091	0.000000
734.718994	0.000000
734.756897	0.000000
734.794800	0.000000
734.832703	0.000000
734.870667	0.000000
734.908508	0.000000
734.946472	0.000000
734.984375	0.000000
735.022278	0.000000
735.060181	0.000000
735.098083	0.000000
735.135986	0.000000
735.173889	0.000000
735.211792	0.000000
735.249695	0.000000
735.287598	0.000000
735.325439	0.000000
735.363403	0.000000
735.401306	0.000000
735.439148	0.000000
735.477051	0.000000
735.515015	0.000000
735.552856	0.000000
735.590759	0.000000
735.628662	0.000000
735.666504	0.000000
735.704407	0.000000
735.742310	0.000000
735.780212	0.000000
735.818115	0.000000
735.856018	0.000000
735.893860	0.000000
735.931763	0.000000
735.969604	0.000000
736.007507	0.000000
736.045410	0.000000
736.083252	0.000000
736.121094	0.000000
736.158997	0.000000
736.196838	0.000000
736.234741	0.000000
736.272644	0.000000
736.310486	0.000000
736.348389	0.000000
736.386230	0.000000
736.424072	0.000000
736.461975	0.000000
736.499878	0.000000
736.537720	0.000000
736.575562	0.000000
736.613403	0.000000
736.651306	0.000000
736.689148	0.000000
736.726990	0.000000
736.764893	0.000000
736.802734	0.000000
736.840576	0.000000
736.878418	0.000000
736.916321	0.000000
736.954102	0.000000
736.992004	0.000000
737.029846	0.000000
737.067688	0.000000
737.105530	0.000000
737.143372	0.000000
737.181213	0.000000
737.219116	0.000000
737.256897	0.000000
737.294739	0.000000
737.332642	0.000000
737.370422	0.000000
737.408325	0.000000
737.446167	0.000000
737.483948	0.000000
737.521790	0.000000
737.559692	0.000000
737.597473	0.000000
737.635315	0.000000
737.673157	0.000000
737.710999	0.000000
737.748840	0.000000
737.786621	0.000000
737.824463	0.000000
737.862305	0.000000
737.900085	0.000000
737.937927	0.000000
737.975769	0.000000
738.013550	0.000000
738.051392	0.000000
738.089233	0.000000
738.127014	0.000000
738.164856	0.000000
738.202698	0.000000
738.240479	0.000000
738.278320	0.000000
738.316162	0.000000
738.353943	0.000000
738.391785	0.000000
738.429565	0.000000
738.467407	0.000000
738.505188	0.000000
738.542969	0.000000
738.580811	0.000000
738.618652	0.000000
738.656372	0.000000
738.694214	0.000000
738.732056	0.000000
738.769836	0.000000
738.807617	0.000000
738.845459	0.000000
738.883240	0.000000
738.921021	0.000000
738.958862	0.000000
738.996582	0.000000
739.034424	0.000000
739.072205	0.000000
739.109985	0.000000
739.147827	0.000000
739.185547	0.000000
739.223389	0.000000
739.261169	0.000000
739.298889	0.000000
739.336731	0.000000
739.374512	0.000000
739.412292	0.000000
739.450073	0.000000
739.487854	0.000000
739.525635	0.000000
739.563416	0.000000
739.601135	0.000000
739.638977	0.000000
739.676758	0.000000
739.714478	0.000000
739.752258	0.000000
739.790100	0.000000
739.827820	0.000000
739.865601	0.000000
739.903381	0.000000
739.941101	0.000000
739.978882	195.700000
740.016724	190.400000
740.054443	194.200000
740.092224	189.900000
740.130005	188.700000
740.167725	188.400000
740.205505	189.000000
740.243225	196.400000
740.281006	192.600000
740.318787	188.200000
740.356506	196.700000
740.394287	194.900000
740.432068	189.400000
740.469727	185.900000
740.507507	194.000000
740.545288	190.900000
740.583008	194.100000
740.620789	190.600000
740.658569	185.000000
740.696228	192.500000
740.734009	195.400000
740.771790	184.500000
740.809509	194.700000
740.847229	186.700000
740.884949	188.900000
740.922729	186.500000
740.960449	190.300000
740.998169	188.700000
741.035950	188.800000
741.073669	192.000000
741.111389	192.300000
741.149170	198.300000
741.186890	198.800000
741.224609	194.600000
741.262329	192.300000
741.300110	199.200000
741.337769	188.200000
741.375549	188.100000
741.413208	191.800000
741.450989	189.600000
741.488708	191.100000
741.526367	190.100000
741.564148	193.100000
741.601868	193.600000
741.639526	190.300000
741.677307	193.500000
741.715027	193.000000
741.752686	189.100000
741.790466	196.400000
741.828186	193.100000
741.865845	187.900000
741.903564	186.000000
741.941345	192.700000
741.979004	188.600000
742.016724	195.300000
742.054382	192.000000
742.092102	193.500000
742.129822	187.400000
742.167480	190.600000
742.205200	190.800000
742.242920	193.700000
742.280640	194.700000
742.318359	188.000000
742.356079	189.900000
742.393738	196.000000
742.431396	189.400000
742.469116	194.700000
742.506775	183.800000
742.544495	192.700000
742.582214	195.500000
742.619873	191.200000
742.657593	195.700000
742.695251	195.400000
742.732971	191.400000
742.770630	193.100000
742.808289	191.400000
742.846008	191.400000
742.883728	191.100000
742.921326	192.000000
742.959045	190.000000
742.996765	190.400000
743.034424	191.200000
743.072083	191.000000
743.109802	191.500000
743.147400	187.200000
743.185120	193.800000
743.222839	192.600000
743.260437	196.400000
743.298157	193.000000
743.335754	186.100000
743.373474	191.000000
743.411133	186.300000
743.448792	190.600000
743.486450	191.700000
743.524170	186.100000
743.561768	190.400000
743.599487	195.400000
743.637146	200.000000
743.674744	190.500000
743.712463	189.200000
743.750122	191.600000
743.787720	193.400000
743.825439	189.900000
743.863037	190.300000
743.900696	190.400000
743.938416	216.700000
743.976013	190.400000
744.013672	198.600000
744.051331	194.200000
744.088928	199.600000
744.126587	195.900000
744.164307	193.100000
744.201904	188.300000
744.239563	194.300000
744.277222	194.400000
744.314819	192.200000
744.352478	195.800000
744.390137	192.700000
744.427734	192.800000
744.465393	190.600000
744.502991	188.700000
744.540649	193.000000
744.578308	190.700000
744.615906	189.100000
744.653564	183.900000
744.691223	194.800000
744.728821	187.400000
744.766418	192.600000
744.804077	192.300000
744.841675	190.300000
744.879333	187.300000
744.916992	190.500000
744.954529	189.200000
744.992187	195.700000
745.029785	189.600000
745.067444	190.200000
745.105042	190.900000
745.142639	192.400000
745.180298	199.500000
745.217896	190.600000
745.255493	190.100000
745.293152	194.600000
745.330750	195.700000
745.368347	197.600000
745.405945	193.900000
745.443604	192.000000
745.481140	193.600000
745.518799	190.900000
745.556396	193.500000
745.593994	194.300000
745.631592	193.000000
745.669189	188.600000
745.706787	191.900000
745.744385	189.600000
745.781982	194.900000
745.819580	190.000000
745.857178	192.400000
745.894775	191.400000
745.932373	192.900000
745.969971	193.900000
746.007568	186.300000
746.045166	198.300000
746.082764	196.200000
746.120300	194.000000
746.157898	193.700000
746.195557	190.900000
746.233093	189.000000
746.270691	193.500000
746.308228	194.300000
746.345825	194.300000
746.383423	193.800000
746.420959	189.000000
746.458557	190.100000
746.496155	188.800000
746.533691	191.900000
746.571289	188.000000
746.608887	192.200000
746.646423	192.400000
746.684021	192.100000
746.721619	188.800000
746.759155	193.500000
746.796753	186.200000
746.834351	186.600000
746.871826	188.000000
746.909424	197.300000
746.946960	191.300000
746.984558	191.800000
747.022156	190.200000
747.059631	197.900000
747.097229	193.300000
747.134827	190.600000
747.172363	197.200000
747.209900	194.500000
747.247498	188.700000
747.285034	196.100000
747.322571	197.500000
747.360168	190.200000
747.397644	186.600000
747.435242	194.900000
747.472778	197.000000
747.510315	189.900000
747.547913	191.300000
747.585388	196.100000
747.622925	192.600000
747.660522	185.600000
747.697998	190.500000
747.735596	191.100000
747.773132	190.500000
747.810669	191.900000
747.848206	195.600000
747.885742	187.600000
747.923279	188.200000
747.960815	191.500000
747.998352	192.700000
748.035889	194.700000
748.073425	195.500000
748.110901	189.200000
748.148437	189.000000
748.185974	190.800000
748.223511	199.800000
748.261047	193.800000
748.298584	191.700000
748.336060	190.900000
748.373596	193.200000
748.411133	216.800000
748.448608	191.100000
748.486145	194.100000
748.523682	196.100000
748.561218	198.400000
748.598755	193.000000
748.636292	192.900000
748.673706	191.800000
748.711243	196.700000
748.748718	193.000000
748.786255	192.300000
748.823792	191.600000
748.861267	188.200000
748.898804	194.100000
748.936340	193.800000
748.973816	188.500000
749.011292	198.500000
749.048828	192.400000
749.086304	194.200000
749.123840	199.100000
749.161316	190.000000
749.198792	198.300000
749.236328	197.400000
749.273743	191.700000
749.311279	192.500000
749.348816	194.700000
749.386230	193.500000
749.423767	183.100000
749.461304	195.500000
749.498718	191.600000
749.536255	196.200000
749.573730	200.700000
749.611206	198.800000
749.648682	190.000000
749.686218	191.700000
749.723633	193.300000
749.761169	191.200000
749.798645	187.500000
749.836060	191.600000
749.873596	187.600000
749.911011	193.300000
749.948547	196.200000
749.986023	190.600000
750.023437	190.700000
750.060913	187.600000
750.098450	186.600000
750.135864	191.800000
750.173340	192.700000
750.210815	196.600000
750.248291	188.200000
750.285767	191.500000
750.323242	196.000000
750.360657	195.000000
750.398132	187.700000
750.435608	193.100000
750.473022	189.300000
750.510498	187.600000
750.547974	188.100000
750.585449	190.800000
750.622925	185.200000
750.660339	201.300000
750.697815	193.500000
750.735291	191.300000
750.772644	191.900000
750.810120	194.200000
750.847595	194.000000
750.885010	187.900000
750.922485	198.500000
750.959961	191.300000
750.997375	197.800000
751.034851	195.400000
751.072266	195.600000
751.109680	186.900000
751.147156	198.100000
751.184570	194.600000
751.221985	192.300000
751.259460	187.100000
751.296875	193.900000
751.334290	191.700000
751.371765	194.700000
751.409180	195.100000
751.446594	197.100000
751.484070	192.900000
751.521423	193.600000
751.558899	192.200000
751.596375	200.900000
751.633728	197.300000
751.671204	200.400000
751.708618	190.100000
751.746033	194.100000
751.783447	188.200000
751.820801	189.800000
751.858276	195.400000
751.895691	190.200000
751.933105	191.100000
751.970520	188.200000
752.007935	190.300000
752.045349	196.500000
752.082764	192.300000
752.120178	189.400000
752.157532	190.400000
752.195007	189.600000
752.232422	194.200000
752.269775	196.000000
752.307190	194.600000
752.344543	187.900000
752.382019	192.300000
752.419434	190.700000
752.456787	195.100000
752.494202	196.000000
752.531616	192.700000
752.568970	194.500000
752.606384	193.900000
752.643799	194.000000
752.681152	197.400000
752.718567	193.900000
752.755981	187.100000
752.793335	193.600000
752.830750	187.200000
752.868164	195.200000
752.905518	189.700000
752.942932	196.900000
752.980225	189.600000
753.017639	193.200000
753.055054	195.400000
753.092407	192.500000
753.129822	197.700000
753.167175	198.000000
753.204529	191.700000
753.241943	189.600000
753.279358	189.500000
753.316650	193.500000
753.354065	192.200000
753.391479	195.300000
753.428772	197.400000
753.466187	194.300000
753.503479	187.600000
753.540894	191.700000
753.578308	187.400000
753.615601	187.900000
753.653015	191.900000
753.690369	190.100000
753.727722	189.100000
753.765076	187.400000
753.802490	187.500000
753.839783	187.700000
753.877136	189.200000
753.914551	200.800000
753.951843	188.700000
753.989258	194.900000
754.026611	192.400000
754.063904	193.600000
754.101257	189.500000
754.138611	185.800000
754.175964	191.200000
754.213318	200.400000
754.250610	186.900000
754.288025	191.600000
754.325378	189.200000
754.362671	195.500000
754.400024	192.100000
754.437378	200.200000
754.474670	199.200000
754.512085	189.500000
754.549438	192.900000
754.586731	190.200000
754.624084	191.900000
754.661438	189.000000
754.698730	199.600000
754.736084	192.400000
754.773376	189.700000
754.810730	193.400000
754.848083	193.100000
754.885315	196.400000
754.922668	186.100000
754.960022	188.200000
754.997314	196.100000
755.034668	192.000000
755.072021	194.000000
755.109253	189.400000
755.146606	198.400000
755.183960	190.100000
755.221252	198.100000
755.258545	194.500000
755.295898	198.300000
755.333191	196.900000
755.370544	194.000000
755.407776	192.300000
755.445129	194.300000
755.482422	195.000000
755.519714	191.500000
755.557068	186.500000
755.594360	187.400000
755.631653	196.700000
755.668945	198.500000
755.706299	193.500000
755.743530	201.100000
755.780884	198.900000
755.818176	196.900000
755.855408	197.000000
755.892761	194.900000
755.930054	193.300000
755.967346	196.000000
756.004639	194.400000
756.041870	192.300000
756.079224	198.000000
756.116516	190.500000
756.153748	197.700000
756.191040	201.100000
756.228394	194.900000
756.265625	190.500000
756.302917	194.200000
756.340210	191.700000
756.377441	197.300000
756.414795	199.000000
756.452087	193.200000
756.489319	188.500000
756.526611	197.800000
756.563843	194.800000
756.601135	202.200000
756.638428	200.900000
756.675659	194.600000
756.712952	197.200000
756.750244	196.500000
756.787476	194.900000
756.824768	198.700000
756.862061	193.200000
756.899292	241.400000
756.936584	196.300000
756.973816	203.900000
757.011047	204.700000
757.048340	195.000000
757.085632	195.300000
757.122864	207.900000
757.160156	192.200000
757.197327	198.000000
757.234619	199.800000
757.271912	194.000000
757.309082	199.500000
757.346375	193.400000
757.383667	199.900000
757.420837	197.200000
757.458130	196.200000
757.495422	195.500000
757.532593	198.900000
757.569885	191.900000
757.607117	192.500000
757.644348	197.500000
757.681580	207.500000
757.718811	188.600000
757.756042	197.300000
757.793335	195.900000
757.830505	198.900000
757.867798	195.000000
757.905029	195.400000
757.942200	196.700000
757.979492	196.000000
758.016724	195.900000
758.053894	195.900000
758.091187	210.700000
758.128418	198.100000
758.165588	195.100000
758.202820	207.100000
758.240112	198.100000
758.277283	207.000000
758.314514	199.300000
758.351685	197.600000
758.388916	203.900000
758.426147	204.700000
758.463379	205.300000
758.500610	201.700000
758.537842	198.900000
758.575012	205.000000
758.612244	196.000000
758.649475	209.500000
758.686646	193.800000
758.723877	203.900000
758.761108	205.200000
758.798279	200.200000
758.835510	200.400000
758.872742	204.300000
758.909851	201.400000
758.947083	202.100000
758.984253	203.200000
759.021484	204.400000
759.058716	203.900000
759.095886	204.100000
759.133057	200.400000
759.170288	203.300000
759.207458	200.100000
759.244690	209.200000
759.281860	207.800000
759.319031	201.800000
759.356262	200.000000
759.393433	199.900000
759.430603	201.800000
759.467773	201.600000
759.505005	208.000000
759.542175	207.200000
759.579346	201.800000
759.616516	203.200000
759.653687	207.100000
759.690918	200.500000
759.728027	204.400000
759.765259	204.100000
759.802429	206.700000
759.839539	205.200000
759.876770	208.300000
759.913940	211.100000
759.951111	205.900000
759.988281	206.400000
760.025452	203.000000
760.062561	201.900000
760.099792	212.400000
760.136963	206.300000
760.174072	204.000000
760.211243	200.800000
760.248413	201.900000
760.285583	201.800000
760.322754	214.500000
760.359863	209.200000
760.397034	211.400000
760.434204	204.600000
760.471375	206.800000
760.508545	203.000000
760.545715	206.500000
760.582825	202.100000
760.619995	209.900000
760.657166	202.300000
760.694275	211.800000
760.731445	208.500000
760.768555	209.100000
760.805664	210.500000
760.842834	208.300000
760.879944	209.800000
760.917114	209.000000
760.954285	207.800000
760.991394	202.600000
761.028564	213.000000
761.065674	210.100000
761.102783	207.200000
761.139954	211.600000
761.177124	210.900000
761.214172	213.200000
761.251343	208.900000
761.288452	207.200000
761.325562	212.000000
761.362732	205.700000
761.399841	209.400000
761.436951	210.900000
761.474121	208.000000
761.511169	207.600000
761.548340	214.800000
761.585449	211.500000
761.622559	211.700000
761.659668	211.400000
761.696838	215.900000
761.733887	210.000000
761.771057	209.600000
761.808167	211.100000
761.845276	212.500000
761.882385	219.700000
761.919434	212.700000
761.956604	225.600000
761.993713	210.100000
762.030762	216.000000
762.067871	212.400000
762.105042	213.100000
762.142090	219.800000
762.179199	213.100000
762.216309	216.200000
762.253418	223.200000
762.290527	220.300000
762.327637	220.400000
762.364685	211.600000
762.401794	217.000000
762.438904	218.000000
762.475952	212.200000
762.513062	213.400000
762.550110	212.400000
762.587219	224.100000
762.624329	221.800000
762.661377	219.200000
762.698486	218.200000
762.735596	216.500000
762.772644	212.900000
762.809753	209.300000
762.846863	215.700000
762.883911	220.300000
762.921021	219.900000
762.958069	216.800000
762.995117	223.600000
763.032227	223.400000
763.069336	217.000000
763.106323	215.700000
763.143433	214.200000
763.180481	217.700000
763.217590	220.300000
763.254639	217.900000
763.291687	218.700000
763.328735	224.100000
763.365845	220.300000
763.402893	218.100000
763.439941	220.500000
763.477051	221.600000
763.514038	223.600000
763.551147	218.900000
763.588196	221.500000
763.625244	221.300000
763.662292	226.300000
763.699402	228.100000
763.736389	222.900000
763.773499	231.600000
763.810486	223.800000
763.847534	224.000000
763.884644	226.400000
763.921631	223.000000
763.958679	229.800000
763.995728	225.500000
764.032776	230.200000
764.069824	221.700000
764.106873	228.600000
764.143860	232.500000
764.180969	225.500000
764.218018	233.400000
764.255005	226.900000
764.292053	228.500000
764.329102	234.900000
764.366089	233.800000
764.403137	231.500000
764.440125	229.100000
764.477173	229.600000
764.514221	234.600000
764.551208	230.200000
764.588257	228.600000
764.625305	234.600000
764.662292	239.700000
764.699341	242.100000
764.736389	235.400000
764.773376	246.100000
764.810425	237.100000
764.847473	242.400000
764.884399	241.500000
764.921448	244.900000
764.958435	244.900000
764.995483	237.300000
765.032532	248.700000
765.069458	238.900000
765.106506	242.800000
765.143555	235.100000
765.180481	241.000000
765.217529	247.700000
765.254578	237.600000
765.291504	244.300000
765.328552	240.700000
765.365540	238.200000
765.402527	251.200000
765.439575	241.200000
765.476501	238.200000
765.513550	238.700000
765.550537	242.800000
765.587463	248.100000
765.624512	240.900000
765.661499	237.000000
765.698486	248.900000
765.735474	242.200000
765.772461	244.500000
765.809448	251.300000
765.846436	247.700000
765.883423	252.600000
765.920410	247.200000
765.957397	245.800000
765.994385	250.600000
766.031311	255.500000
766.068359	248.300000
766.105286	250.800000
766.142273	255.300000
766.179260	250.900000
766.216187	245.400000
766.253174	245.100000
766.290161	250.100000
766.327148	253.500000
766.364136	253.900000
766.401123	264.900000
766.438049	248.600000
766.475037	258.600000
766.512024	256.100000
766.548950	268.600000
766.585937	262.400000
766.622864	257.500000
766.659790	256.800000
766.696777	249.700000
766.733704	262.700000
766.770691	253.800000
766.807678	264.700000
766.844604	260.300000
766.881531	260.600000
766.918518	266.400000
766.955444	265.000000
766.992432	261.900000
767.029358	263.700000
767.066284	265.800000
767.103271	263.300000
767.140198	293.800000
767.177124	275.000000
767.214050	266.300000
767.251038	267.400000
767.287964	263.800000
767.324890	264.300000
767.361816	265.400000
767.398743	271.800000
767.435730	265.000000
767.472595	270.600000
767.509583	273.000000
767.546509	266.100000
767.583374	269.200000
767.620361	264.200000
767.657288	267.100000
767.694214	268.300000
767.731140	267.700000
767.768066	268.500000
767.804993	272.200000
767.841919	267.300000
767.878845	270.100000
767.915710	277.500000
767.952698	272.300000
767.989563	274.500000
768.026489	276.400000
768.063416	268.800000
768.100281	269.600000
768.137207	279.600000
768.174133	276.500000
768.211060	277.000000
768.247986	274.200000
768.284912	272.700000
768.321777	273.000000
768.358704	272.800000
768.395630	276.700000
768.432495	272.500000
768.469421	277.300000
768.506348	280.200000
768.543152	284.100000
768.580078	282.100000
768.616943	283.000000
768.653870	283.500000
768.690796	283.800000
768.727661	281.000000
768.764587	282.600000
768.801453	279.200000
768.838318	289.400000
768.875244	286.200000
768.912109	292.100000
768.948975	282.100000
768.985901	284.100000
769.022766	284.200000
769.059631	289.100000
769.096558	285.200000
769.133362	285.200000
769.170288	286.300000
769.207214	288.000000
769.244019	292.200000
769.280945	290.200000
769.317810	298.000000
769.354675	292.500000
769.391541	298.700000
769.428406	294.400000
769.465271	302.100000
769.502136	295.600000
769.539062	298.200000
769.575867	296.900000
769.612732	296.200000
769.649597	302.900000
769.686462	304.900000
769.723328	301.000000
769.760193	300.000000
769.797058	301.200000
769.833923	309.000000
769.870728	304.500000
769.907593	309.200000
769.944519	308.000000
769.981323	311.800000
770.018188	309.200000
770.055054	308.800000
770.091858	309.100000
770.128723	315.600000
770.165588	319.800000
770.202393	309.700000
770.239258	321.000000
770.276062	317.700000
770.312927	315.700000
770.349792	323.700000
770.386597	319.200000
770.423462	330.100000
770.460327	337.400000
770.497131	324.600000
770.533997	318.700000
770.570862	329.000000
770.607605	330.000000
770.644470	331.000000
770.681335	331.800000
770.718140	333.300000
770.754944	327.100000
770.791809	325.600000
770.828613	325.900000
770.865479	330.400000
770.902222	337.400000
770.939087	335.000000
770.975952	326.800000
771.012695	330.700000
771.049561	344.200000
771.086365	335.800000
771.123169	333.600000
771.159973	336.300000
771.196838	339.100000
771.233582	340.800000
771.270447	338.500000
771.307251	344.300000
771.344055	340.100000
771.380859	342.400000
771.417664	338.800000
771.454468	345.300000
771.491272	343.700000
771.528076	347.300000
771.564880	344.200000
771.601685	349.000000
771.638428	343.700000
771.675293	350.600000
771.712097	340.100000
771.748840	358.200000
771.785645	350.500000
771.822449	351.000000
771.859253	355.700000
771.896057	354.100000
771.932861	361.700000
771.969604	355.300000
772.006409	350.100000
772.043213	358.700000
772.079956	358.800000
772.116760	350.300000
772.153503	354.500000
772.190308	364.100000
772.227112	358.400000
772.263855	354.100000
772.300659	358.700000
772.337463	362.600000
772.374207	357.000000
772.411011	353.300000
772.447754	357.400000
772.484497	370.800000
772.521301	363.200000
772.558105	360.200000
772.594849	364.800000
772.631592	367.700000
772.668396	365.500000
772.705139	367.500000
772.741882	366.700000
772.778625	375.600000
772.815430	377.400000
772.852173	376.000000
772.888916	379.800000
772.925720	382.600000
772.962463	388.800000
772.999207	382.700000
773.035950	383.600000
773.072754	387.500000
773.109436	380.800000
773.146240	381.800000
773.182922	382.200000
773.219727	387.900000
773.256470	384.100000
773.293152	375.800000
773.329956	381.800000
773.366699	385.200000
773.403381	377.400000
773.440186	385.700000
773.476929	388.900000
773.513611	385.400000
773.550354	383.300000
773.587158	384.900000
773.623840	380.000000
773.660583	385.500000
773.697327	395.000000
773.734009	390.900000
773.770813	389.300000
773.807495	387.700000
773.844238	388.000000
773.880981	399.100000
773.917664	395.300000
773.954407	401.800000
773.991150	393.500000
774.027832	401.800000
774.064575	391.000000
774.101318	397.600000
774.138000	402.300000
774.174744	400.500000
774.211487	400.200000
774.248108	389.900000
774.284851	392.100000
774.321594	401.600000
774.358276	401.900000
774.395020	409.600000
774.431702	406.400000
774.468384	398.900000
774.505127	397.000000
774.541809	403.100000
774.578491	411.100000
774.615234	415.300000
774.651917	404.300000
774.688599	408.800000
774.725342	415.500000
774.762024	415.500000
774.798706	419.200000
774.835449	420.100000
774.872070	428.400000
774.908813	423.300000
774.945496	422.600000
774.982178	421.800000
775.018860	421.300000
775.055542	423.600000
775.092224	427.700000
775.128967	432.800000
775.165588	428.300000
775.202271	424.200000
775.239014	433.200000
775.275635	433.200000
775.312317	434.700000
775.349060	438.700000
775.385681	437.600000
775.422363	433.500000
775.459045	439.100000
775.495667	440.000000
775.532410	442.000000
775.569092	440.700000
775.605713	446.400000
775.642395	441.800000
775.679016	445.100000
775.715698	445.500000
775.752380	447.100000
775.789001	445.300000
775.825684	447.700000
775.862366	450.500000
775.898987	457.600000
775.935669	452.500000
775.972351	465.500000
776.008972	465.800000
776.045654	467.400000
776.082336	464.300000
776.118958	462.100000
776.155640	465.600000
776.192322	470.800000
776.228882	478.600000
776.265564	479.000000
776.302185	475.100000
776.338867	478.900000
776.375488	473.300000
776.412109	479.500000
776.448792	484.600000
776.485413	490.700000
776.522034	484.300000
776.558716	479.600000
776.595337	481.700000
776.631958	485.600000
776.668579	489.800000
776.705261	493.900000
776.741882	488.200000
776.778503	486.900000
776.815186	486.500000
776.851746	494.800000
776.888367	492.800000
776.924988	501.700000
776.961609	497.500000
776.998291	496.600000
777.034851	495.500000
777.071472	502.300000
777.108154	501.400000
777.144714	509.700000
777.181335	509.800000
777.218018	502.800000
777.254578	508.700000
777.291199	507.600000
777.327759	511.200000
777.364380	519.100000
777.401062	523.900000
777.437622	532.600000
777.474243	522.700000
777.510864	524.700000
777.547424	518.700000
777.584045	525.100000
777.620667	522.800000
777.657227	524.400000
777.693848	525.600000
777.730469	541.600000
777.767029	528.900000
777.803650	537.200000
777.840271	532.100000
777.876831	532.600000
777.913452	538.500000
777.950012	527.800000
777.986633	526.900000
778.023193	529.600000
778.059753	527.400000
778.096375	528.000000
778.132996	540.400000
778.169556	534.800000
778.206116	536.000000
778.242737	530.600000
778.279297	539.000000
778.315857	530.600000
778.352478	536.600000
778.389038	543.300000
778.425598	544.200000
778.462219	548.200000
778.498718	544.100000
778.535339	543.400000
778.571838	543.100000
778.608459	555.200000
778.645020	547.900000
778.681580	552.300000
778.718140	553.200000
778.754761	548.900000
778.791260	551.800000
778.827881	558.800000
778.864441	555.800000
778.900940	566.200000
778.937561	560.300000
778.974121	559.300000
779.010620	549.900000
779.047241	558.100000
779.083801	566.300000
779.120300	565.500000
779.156860	565.000000
779.193359	564.600000
779.229980	568.500000
779.266541	571.000000
779.303040	573.000000
779.339600	565.600000
779.376160	562.900000
779.412659	565.300000
779.449219	564.900000
779.485779	570.000000
779.522278	566.400000
779.558838	570.900000
779.595398	570.500000
779.631897	564.900000
779.668457	558.300000
779.705017	566.000000
779.741516	556.000000
779.778076	553.000000
779.814575	557.500000
779.851074	563.300000
779.887634	560.900000
779.924133	568.100000
779.960693	554.300000
779.997253	563.800000
780.033691	568.100000
780.070251	569.000000
780.106812	572.000000
780.143250	569.000000
780.179810	561.400000
780.216370	559.300000
780.252808	559.500000
780.289368	557.700000
780.325867	541.500000
780.362366	519.600000
780.398865	505.100000
780.435364	472.000000
780.471863	456.900000
780.508423	422.900000
780.544861	401.500000
780.581421	377.100000
780.617920	345.700000
780.654419	325.000000
780.690918	306.700000
780.727417	292.000000
780.763916	275.200000
780.800415	274.400000
780.836914	258.700000
780.873352	264.600000
780.909912	254.100000
780.946411	254.800000
780.982849	257.700000
781.019348	264.200000
781.055786	259.300000
781.092346	263.100000
781.128845	272.800000
781.165283	276.600000
781.201782	285.800000
781.238281	286.000000
781.274719	287.200000
781.311218	286.000000
781.347717	296.800000
781.384155	284.100000
781.420654	282.400000
781.457092	286.200000
781.493591	279.500000
781.530090	274.200000
781.566528	274.300000
781.602966	271.000000
781.639465	268.800000
781.675903	264.000000
781.712402	267.800000
781.748901	268.000000
781.785278	262.600000
781.821777	266.600000
781.858276	259.800000
781.894714	268.300000
781.931152	260.100000
781.967651	264.900000
782.004089	253.800000
782.040527	258.500000
782.076965	260.600000
782.113403	258.600000
782.149902	262.600000
782.186340	258.900000
782.222778	267.600000
782.259277	260.100000
782.295654	257.100000
782.332092	258.200000
782.368591	259.800000
782.404968	255.900000
782.441467	261.900000
782.477905	263.500000
782.514282	263.400000
782.550781	275.400000
782.587219	273.200000
782.623596	283.600000
782.660095	290.600000
782.696472	305.300000
782.732910	320.600000
782.769348	343.600000
782.805786	383.400000
782.842224	412.500000
782.878662	446.800000
782.915039	480.500000
782.951477	516.400000
782.987915	544.700000
783.024292	581.600000
783.060730	607.500000
783.097168	627.200000
783.133545	644.000000
783.169983	666.300000
783.206421	671.000000
783.242798	679.700000
783.279236	681.300000
783.315613	691.800000
783.352051	689.600000
783.388489	688.000000
783.424866	679.100000
783.461304	684.700000
783.497681	696.300000
783.534058	695.300000
783.570496	696.700000
783.606934	690.800000
783.643250	694.100000
783.679687	702.900000
783.716125	701.400000
783.752441	710.300000
783.788879	727.500000
783.825317	736.700000
783.861633	738.800000
783.898071	737.100000
783.934448	756.500000
783.970825	761.900000
784.007263	762.300000
784.043579	767.600000
784.080017	773.400000
784.116394	762.300000
784.152710	770.700000
784.189148	775.900000
784.225525	780.300000
784.261902	773.600000
784.298279	770.100000
784.334656	768.200000
784.371033	760.500000
784.407410	757.900000
784.443787	746.700000
784.480164	736.500000
784.516541	725.100000
784.552856	727.600000
784.589233	723.100000
784.625610	717.600000
784.661987	741.900000
784.698364	738.400000
784.734741	728.600000
784.771057	730.500000
784.807434	738.500000
784.843811	753.200000
784.880127	747.600000
784.916504	775.300000
784.952881	775.900000
784.989197	770.500000
785.025574	781.600000
785.061951	785.800000
785.098267	795.400000
785.134644	796.900000
785.170959	792.500000
785.207275	791.400000
785.243652	794.600000
785.279968	784.300000
785.316345	778.000000
785.352722	778.300000
785.388977	776.400000
785.425354	763.600000
785.461731	750.900000
785.498047	744.000000
785.534363	736.400000
785.570679	734.700000
785.606995	735.400000
785.643372	737.500000
785.679687	737.400000
785.716003	724.400000
785.752380	725.600000
785.788635	730.800000
785.825012	739.100000
785.861328	747.700000
785.897644	739.700000
785.933960	749.000000
785.970337	754.200000
786.006592	772.100000
786.042908	782.300000
786.079285	794.300000
786.115540	800.100000
786.151855	797.500000
786.188171	801.100000
786.224487	807.400000
786.260803	803.200000
786.297119	807.900000
786.333435	806.400000
786.369751	798.900000
786.406006	796.200000
786.442322	786.200000
786.478638	775.000000
786.514954	780.800000
786.551270	778.700000
786.587585	783.300000
786.623840	769.700000
786.660156	761.600000
786.696472	754.000000
786.732727	758.000000
786.769043	759.600000
786.805298	755.000000
786.841614	757.800000
786.877930	762.300000
786.914124	753.900000
786.950439	769.700000
786.986755	780.600000
787.023010	793.300000
787.059326	799.600000
787.095642	800.400000
787.131836	817.000000
787.168152	810.000000
787.204468	818.600000
787.240723	829.000000
787.276978	832.100000
787.313293	843.500000
787.349548	838.100000
787.385803	834.800000
787.422058	824.500000
787.458313	826.800000
787.494629	825.700000
787.530823	833.400000
787.567139	823.600000
787.603455	812.200000
787.639648	806.600000
787.675903	812.200000
787.712219	804.300000
787.748413	797.100000
787.784729	805.400000
787.820984	795.300000
787.857178	795.000000
787.893494	797.800000
787.929749	792.200000
787.965942	800.200000
788.002258	812.000000
788.038452	823.800000
788.074707	818.400000
788.110962	824.200000
788.147217	822.400000
788.183472	830.900000
788.219727	839.400000
788.255920	855.700000
788.292175	863.600000
788.328430	866.400000
788.364624	851.900000
788.400879	850.500000
788.437134	857.200000
788.473328	855.000000
788.509583	858.100000
788.545837	855.000000
788.582031	854.800000
788.618286	858.100000
788.654480	849.000000
788.690735	861.900000
788.726990	877.200000
788.763184	873.100000
788.799377	877.900000
788.835632	867.700000
788.871826	880.100000
788.908081	876.900000
788.944336	873.300000
788.980469	891.100000
789.016724	882.100000
789.052979	888.900000
789.089111	868.500000
789.125366	877.400000
789.161621	872.300000
789.197754	882.700000
789.234009	876.700000
789.270142	872.400000
789.306396	869.400000
789.342590	855.200000
789.378784	842.400000
789.414978	839.700000
789.451233	847.000000
789.487366	853.000000
789.523621	856.400000
789.559814	853.700000
789.595947	850.800000
789.632202	856.100000
789.668335	870.100000
789.704529	887.200000
789.740784	901.100000
789.776917	902.700000
789.813110	897.300000
789.849304	903.700000
789.885498	904.300000
789.921692	918.300000
789.957886	924.300000
789.994019	929.800000
790.030212	931.200000
790.066406	934.200000
790.102539	929.500000
790.138733	939.500000
790.174927	937.100000
790.211060	952.500000
790.247253	949.800000
790.283386	938.500000
790.319580	925.100000
790.355774	918.500000
790.391907	908.200000
790.428101	918.400000
790.464294	922.100000
790.500427	917.900000
790.536621	901.900000
790.572754	891.200000
790.608887	893.400000
790.645081	897.200000
790.681274	912.800000
790.717346	912.500000
790.753540	899.300000
790.789734	888.900000
790.825867	873.700000
790.862000	873.900000
790.898132	886.700000
790.934265	876.800000
790.970459	876.900000
791.006592	879.300000
791.042725	876.800000
791.078918	869.700000
791.114990	868.500000
791.151184	873.900000
791.187317	890.900000
791.223389	891.800000
791.259583	876.500000
791.295715	872.600000
791.331848	878.600000
791.367981	891.700000
791.404114	896.300000
791.440247	905.500000
791.476379	908.100000
791.512451	890.100000
791.548584	885.600000
791.584778	875.300000
791.620850	893.200000
791.656982	897.900000
791.693115	895.100000
791.729187	890.700000
791.765381	882.800000
791.801514	887.900000
791.837585	884.500000
791.873718	894.900000
791.909851	905.800000
791.945923	912.000000
791.982056	888.500000
792.018188	886.300000
792.054260	879.500000
792.090393	881.900000
792.126465	878.100000
792.162598	882.300000
792.198669	879.400000
792.234741	877.300000
792.270874	863.900000
792.307007	849.600000
792.343079	862.400000
792.379150	868.100000
792.415283	864.700000
792.451355	868.500000
792.487488	847.000000
792.523560	842.500000
792.559631	828.800000
792.595764	797.100000
792.631836	768.300000
792.667908	745.500000
792.703979	724.800000
792.740051	732.400000
792.776184	768.800000
792.812256	788.700000
792.848328	803.100000
792.884399	809.800000
792.920471	814.100000
792.956543	813.000000
792.992615	810.100000
793.028748	809.900000
793.064758	811.100000
793.100830	832.000000
793.136963	844.700000
793.172974	842.500000
793.209045	839.800000
793.245178	843.100000
793.281189	828.100000
793.317261	835.700000
793.353271	835.700000
793.389404	847.500000
793.425476	847.100000
793.461487	832.500000
793.497559	822.900000
793.533630	821.300000
793.569641	814.000000
793.605713	820.100000
793.641785	828.300000
793.677795	838.300000
793.713867	832.900000
793.749878	831.600000
793.785950	841.900000
793.822021	856.800000
793.858032	843.900000
793.894104	857.200000
793.930176	857.100000
793.966187	857.800000
794.002258	844.600000
794.038269	856.200000
794.074280	850.600000
794.110352	874.600000
794.146423	861.700000
794.182373	861.400000
794.218445	847.900000
794.254517	845.600000
794.290466	830.500000
794.326538	838.400000
794.362549	845.800000
794.398560	849.100000
794.434631	841.100000
794.470581	824.300000
794.506653	816.900000
794.542664	821.300000
794.578674	823.700000
794.614685	823.300000
794.650757	826.100000
794.686707	827.300000
794.722778	815.500000
794.758789	817.400000
794.794739	825.000000
794.830811	853.600000
794.866821	873.900000
794.902771	877.300000
794.938843	867.900000
794.974792	867.700000
795.010803	868.000000
795.046814	865.800000
795.082825	858.900000
795.118835	871.400000
795.154846	853.600000
795.190796	858.400000
795.226807	848.100000
795.262817	847.100000
795.298767	851.200000
795.334778	857.700000
795.370850	850.100000
795.406799	857.300000
795.442810	841.900000
795.478821	833.200000
795.514709	831.000000
795.550720	863.200000
795.586670	844.400000
795.622681	839.800000
795.658691	845.200000
795.694641	852.600000
795.730652	843.100000
795.766663	841.400000
795.802551	843.300000
795.838562	862.500000
795.874573	854.900000
795.910522	850.400000
795.946472	842.100000
795.982483	851.100000
796.018433	845.500000
796.054382	857.000000
796.090393	853.300000
796.126282	842.900000
796.162292	826.600000
796.198242	820.200000
796.234192	820.500000
796.270203	814.600000
796.306091	823.100000
796.342041	832.400000
796.378052	827.200000
796.413940	828.400000
796.449951	827.300000
796.485901	831.100000
796.521790	838.500000
796.557800	853.000000
796.593689	849.700000
796.629639	841.300000
796.665649	834.300000
796.701599	838.900000
796.737488	840.000000
796.773437	848.500000
796.809387	856.400000
796.845337	860.300000
796.881287	842.200000
796.917175	827.100000
796.953125	822.000000
796.989075	829.200000
797.024963	831.800000
797.060913	831.000000
797.096863	829.800000
797.132751	823.600000
797.168701	811.300000
797.204590	815.700000
797.240540	812.600000
797.276489	815.200000
797.312439	818.800000
797.348328	819.700000
797.384277	821.700000
797.420166	814.200000
797.456055	818.400000
797.492004	813.600000
797.527893	818.000000
797.563843	826.500000
797.599731	816.700000
797.635620	806.200000
797.671570	811.000000
797.707520	811.100000
797.743347	817.200000
797.779297	824.900000
797.815125	824.500000
797.851074	826.700000
797.887024	806.400000
797.922913	793.100000
797.958801	793.100000
797.994690	789.600000
798.030579	797.400000
798.066467	805.200000
798.102356	796.500000
798.138245	784.900000
798.174133	777.400000
798.210083	783.800000
798.245911	795.700000
798.281799	802.500000
798.317749	799.600000
798.353577	798.900000
798.389465	785.500000
798.425293	781.200000
798.461243	785.400000
798.497131	786.200000
798.532959	787.700000
798.568848	800.100000
798.604736	791.100000
798.640564	778.000000
798.676453	776.000000
798.712402	778.700000
798.748230	780.400000
798.784119	781.600000
798.820007	783.100000
798.855835	775.000000
798.891724	775.900000
798.927551	765.800000
798.963379	770.600000
798.999268	775.600000
799.035095	766.800000
799.070984	760.900000
799.106873	752.200000
799.142700	759.000000
799.178528	750.900000
799.214417	756.300000
799.250244	762.000000
799.286133	761.500000
799.321960	758.800000
799.357788	752.500000
799.393677	750.300000
799.429504	748.600000
799.465332	749.500000
799.501221	757.700000
799.537048	758.800000
799.572876	760.900000
799.608704	751.800000
799.644531	755.600000
799.680359	759.900000
799.716248	771.200000
799.752014	773.700000
799.787903	763.900000
799.823730	764.100000
799.859558	754.400000
799.895386	754.500000
799.931213	757.200000
799.967041	755.000000
800.002869	753.600000
800.038696	760.500000
800.074463	741.000000
800.110352	744.300000
800.146179	738.300000
800.181946	748.100000
800.217773	759.200000
800.253540	753.800000
800.289429	749.600000
800.325256	736.900000
800.361023	730.600000
800.396851	733.600000
800.432678	742.500000
800.468445	743.400000
800.504272	744.300000
800.540100	733.100000
800.575867	731.900000
800.611694	732.600000
800.647461	730.800000
800.683289	733.800000
800.719116	738.500000
800.754883	731.900000
800.790649	715.900000
800.826477	717.000000
800.862244	730.700000
800.898071	719.000000
800.933838	720.900000
800.969604	730.600000
801.005432	723.400000
801.041199	725.900000
801.076965	720.100000
801.112793	711.000000
801.148560	703.200000
801.184326	707.600000
801.220154	713.500000
801.255859	707.500000
801.291687	701.800000
801.327454	695.600000
801.363281	696.100000
801.398987	691.400000
801.434814	691.000000
801.470520	701.800000
801.506287	687.900000
801.542114	687.000000
801.577820	685.600000
801.613647	684.100000
801.649414	684.100000
801.685120	687.700000
801.720886	690.000000
801.756714	681.000000
801.792419	675.500000
801.828186	669.300000
801.863892	674.300000
801.899719	669.800000
801.935486	672.100000
801.971252	678.300000
802.006958	670.800000
802.042725	663.400000
802.078430	660.600000
802.114197	664.800000
802.149963	682.600000
802.185669	670.100000
802.221436	665.700000
802.257202	662.200000
802.292908	662.600000
802.328674	667.800000
802.364441	670.700000
802.400146	666.600000
802.435913	668.600000
802.471558	666.000000
802.507324	660.200000
802.543091	656.600000
802.578796	668.400000
802.614502	666.600000
802.650269	677.100000
802.685974	657.400000
802.721741	663.300000
802.757446	665.300000
802.793152	660.700000
802.828918	670.800000
802.864624	669.500000
802.900330	668.200000
802.936035	667.000000
802.971802	659.700000
803.007446	653.100000
803.043213	642.500000
803.078857	656.400000
803.114624	643.100000
803.150330	648.600000
803.185974	644.700000
803.221741	644.400000
803.257446	648.800000
803.293152	654.800000
803.328857	648.300000
803.364563	647.100000
803.400208	641.200000
803.435974	648.800000
803.471680	638.300000
803.507324	637.700000
803.543030	643.700000
803.578735	640.300000
803.614441	639.800000
803.650146	650.300000
803.685791	636.000000
803.721497	638.200000
803.757202	629.800000
803.792847	634.000000
803.828552	628.100000
803.864258	623.300000
803.899902	619.000000
803.935608	613.900000
803.971313	614.900000
804.006958	615.300000
804.042664	612.800000
804.078308	622.500000
804.113953	618.200000
804.149658	625.500000
804.185364	613.300000
804.221008	623.400000
804.256714	606.600000
804.292297	605.800000
804.328003	607.500000
804.363708	603.800000
804.399292	599.100000
804.434998	594.000000
804.470703	590.900000
804.506287	600.500000
804.541992	595.600000
804.577637	600.100000
804.613281	588.500000
804.648926	582.200000
804.684570	585.100000
804.720215	580.200000
804.755920	580.300000
804.791565	584.800000
804.827209	587.500000
804.862854	582.300000
804.898437	581.500000
804.934143	582.900000
804.969788	581.100000
805.005371	580.400000
805.041077	581.000000
805.076721	582.900000
805.112305	576.100000
805.147949	573.100000
805.183655	563.600000
805.219238	568.900000
805.254883	569.300000
805.290466	571.100000
805.326111	568.100000
805.361755	559.400000
805.397400	561.400000
805.432983	563.200000
805.468628	558.700000
805.504211	563.200000
805.539856	563.900000
805.575500	565.100000
805.611084	556.700000
805.646729	548.100000
805.682373	554.200000
805.717957	561.700000
805.753601	562.600000
805.789246	554.800000
805.824768	561.200000
805.860413	565.900000
805.895996	550.800000
805.931641	551.900000
805.967224	556.300000
806.002869	555.300000
806.038452	560.100000
806.074036	560.200000
806.109619	546.000000
806.145264	544.500000
806.180847	547.700000
806.216431	545.700000
806.252014	546.000000
806.287659	543.300000
806.323181	554.100000
806.358826	549.200000
806.394409	537.500000
806.429993	537.500000
806.465576	543.800000
806.501160	533.700000
806.536743	527.700000
806.572327	536.500000
806.607910	535.700000
806.643494	535.900000
806.679077	527.900000
806.714661	528.000000
806.750244	527.200000
806.785828	526.300000
806.821350	527.400000
806.856934	529.600000
806.892517	522.600000
806.928101	517.700000
806.963684	519.700000
806.999268	525.300000
807.034790	509.000000
807.070374	515.300000
807.105896	509.700000
807.141479	505.000000
807.177063	514.900000
807.212585	506.700000
807.248169	505.100000
807.283752	509.400000
807.319275	507.900000
807.354858	513.000000
807.390381	503.100000
807.425903	499.700000
807.461487	501.600000
807.497070	496.700000
807.532593	497.000000
807.568115	493.400000
807.603699	491.100000
807.639221	486.900000
807.674744	492.600000
807.710266	492.200000
807.745850	493.200000
807.781372	490.500000
807.816895	486.800000
807.852417	490.200000
807.888000	486.600000
807.923523	485.500000
807.959045	490.400000
807.994629	484.300000
808.030090	481.300000
808.065613	482.200000
808.101135	486.800000
808.136658	483.800000
808.172241	480.300000
808.207764	480.200000
808.243225	478.800000
808.278809	471.500000
808.314270	480.900000
808.349792	468.400000
808.385315	464.600000
808.420837	475.000000
808.456360	479.400000
808.491882	477.600000
808.527344	475.800000
808.562866	479.700000
808.598389	472.400000
808.633850	469.900000
808.669434	461.500000
808.704895	468.600000
808.740417	474.800000
808.775940	473.700000
808.811462	465.900000
808.846924	460.600000
808.882385	460.000000
808.917847	461.500000
808.953369	463.900000
808.988892	459.700000
809.024353	464.900000
809.059875	463.300000
809.095398	457.600000
809.130798	452.700000
809.166321	450.500000
809.201843	451.800000
809.237305	454.000000
809.272766	459.000000
809.308228	448.300000
809.343750	450.900000
809.379211	452.500000
809.414734	452.300000
809.450134	455.000000
809.485657	440.200000
809.521118	449.700000
809.556580	444.600000
809.592102	445.300000
809.627502	443.200000
809.663025	437.800000
809.698486	436.900000
809.733887	430.800000
809.769409	435.700000
809.804871	425.400000
809.840271	432.500000
809.875793	433.600000
809.911194	435.800000
809.946655	426.500000
809.982178	422.900000
810.017639	428.800000
810.053040	428.300000
810.088501	426.500000
810.123901	424.100000
810.159424	421.600000
810.194885	416.100000
810.230286	423.700000
810.265747	417.600000
810.301208	413.800000
810.336609	414.700000
810.372070	406.600000
810.407532	408.500000
810.442932	412.000000
810.478394	416.300000
810.513794	409.100000
810.549255	406.900000
810.584717	406.200000
810.620117	398.900000
810.655518	405.500000
810.690979	401.900000
810.726379	403.100000
810.761841	394.000000
810.797302	393.400000
810.832642	391.000000
810.868103	399.700000
810.903564	386.600000
810.938904	395.700000
810.974365	386.400000
811.009827	390.400000
811.045166	385.600000
811.080627	383.000000
811.115967	382.500000
811.151428	387.000000
811.186829	383.400000
811.222229	383.400000
811.257629	375.100000
811.293091	381.500000
811.328430	387.100000
811.363892	381.600000
811.399292	382.500000
811.434631	379.100000
811.470093	380.800000
811.505493	372.800000
811.540833	375.100000
811.576294	377.100000
811.611694	374.300000
811.647034	369.800000
811.682434	375.300000
811.717773	376.000000
811.753235	380.400000
811.788635	371.600000
811.823975	373.000000
811.859375	377.600000
811.894775	364.900000
811.930115	367.300000
811.965515	365.100000
812.000916	369.100000
812.036255	365.000000
812.071655	369.800000
812.106995	364.000000
812.142395	365.600000
812.177795	371.700000
812.213196	365.700000
812.248474	368.600000
812.283875	360.600000
812.319214	362.200000
812.354614	361.200000
812.390015	360.100000
812.425293	358.900000
812.460693	359.100000
812.496094	355.800000
812.531433	349.800000
812.566772	353.400000
812.602173	352.700000
812.637451	353.500000
812.672852	351.300000
812.708191	352.900000
812.743530	346.000000
812.778931	341.600000
812.814270	341.800000
812.849609	349.000000
812.884949	345.800000
812.920227	337.100000
812.955627	350.000000
812.990967	343.500000
813.026306	338.100000
813.061646	329.000000
813.096985	327.700000
813.132324	326.200000
813.167664	329.300000
813.203003	334.900000
813.238281	323.100000
813.273682	324.200000
813.308960	320.600000
813.344299	323.100000
813.379639	327.500000
813.414978	323.300000
813.450256	322.200000
813.485596	324.200000
813.520874	317.300000
813.556213	320.200000
813.591614	325.700000
813.626831	315.500000
813.662170	319.800000
813.697510	326.600000
813.732788	313.500000
813.768127	315.500000
813.803467	315.000000
813.838745	313.700000
813.874084	318.000000
813.909363	313.400000
813.944641	316.700000
813.979980	308.200000
814.015320	311.600000
814.050598	310.200000
814.085876	311.100000
814.121155	307.700000
814.156494	307.200000
814.191772	307.200000
814.227051	303.300000
814.262390	304.800000
814.297668	306.200000
814.332947	306.200000
814.368225	298.900000
814.403564	302.100000
814.438782	299.900000
814.474121	301.700000
814.509338	298.700000
814.544617	303.100000
814.579956	294.800000
814.615173	303.200000
814.650513	300.200000
814.685791	297.300000
814.721008	300.300000
814.756348	298.200000
814.791626	293.200000
814.826843	294.300000
814.862122	293.900000
814.897400	292.400000
814.932678	294.800000
814.967957	292.400000
815.003235	292.300000
815.038452	288.300000
815.073730	288.000000
815.108948	293.500000
815.144226	291.600000
815.179504	296.600000
815.214722	285.300000
815.250000	283.700000
815.285278	289.300000
815.320496	285.400000
815.355774	285.600000
815.391052	287.500000
815.426270	284.800000
815.461487	283.300000
815.496765	280.400000
815.531982	277.000000
815.567261	281.300000
815.602539	287.600000
815.637695	281.500000
815.672974	283.200000
815.708191	284.400000
815.743408	286.000000
815.778687	277.600000
815.813904	285.500000
815.849121	270.600000
815.884399	273.900000
815.919556	271.300000
815.954834	274.400000
815.990051	276.500000
816.025269	278.400000
816.060486	270.700000
816.095703	270.100000
816.130920	271.300000
816.166199	268.900000
816.201416	271.100000
816.236572	273.400000
816.271851	265.800000
816.307007	270.400000
816.342224	262.300000
816.377441	265.600000
816.412659	259.700000
816.447876	267.700000
816.483093	263.300000
816.518250	265.000000
816.553467	262.500000
816.588745	266.000000
816.623901	257.900000
816.659119	255.200000
816.694275	258.500000
816.729492	256.900000
816.764709	286.500000
816.799927	253.900000
816.835083	258.200000
816.870300	249.400000
816.905457	255.200000
816.940674	254.400000
816.975830	252.800000
817.010986	249.200000
817.046204	249.900000
817.081421	248.500000
817.116577	248.300000
817.151733	253.400000
817.186951	252.300000
817.222107	249.200000
817.257324	253.800000
817.292419	250.500000
817.327637	244.400000
817.362854	247.900000
817.398010	242.500000
817.433167	244.800000
817.468323	244.600000
817.503479	245.300000
817.538635	252.600000
817.573853	246.500000
817.608948	245.400000
817.644165	240.700000
817.679321	240.100000
817.714478	239.000000
817.749634	242.000000
817.784790	251.000000
817.819946	246.900000
817.855103	232.400000
817.890198	239.100000
817.925415	233.700000
817.960571	242.300000
817.995667	239.300000
818.030823	239.500000
818.066040	236.200000
818.101135	241.000000
818.136292	237.100000
818.171448	234.000000
818.206543	234.900000
818.241699	238.600000
818.276855	237.100000
818.311951	235.900000
818.347107	232.000000
818.382263	237.600000
818.417358	239.000000
818.452515	237.900000
818.487610	240.000000
818.522766	229.700000
818.557922	239.700000
818.593018	235.600000
818.628113	233.500000
818.663269	228.100000
818.698364	232.600000
818.733521	228.900000
818.768677	232.500000
818.803711	227.100000
818.838867	228.300000
818.874023	228.300000
818.909058	226.800000
818.944214	224.300000
818.979370	228.200000
819.014404	226.600000
819.049561	223.300000
819.084595	226.300000
819.119751	222.300000
819.154846	226.800000
819.189941	223.300000
819.225037	221.000000
819.260193	217.700000
819.295227	217.400000
819.330322	216.100000
819.365479	215.400000
819.400513	248.900000
819.435608	213.600000
819.470764	212.500000
819.505798	214.500000
819.540894	217.200000
819.575989	214.400000
819.611084	220.500000
819.646179	222.700000
819.681213	218.400000
819.716309	214.700000
819.751404	214.000000
819.786438	220.500000
819.821533	210.600000
819.856628	216.400000
819.891663	216.300000
819.926758	225.100000
819.961853	218.600000
819.996887	212.500000
820.031982	213.400000
820.067017	213.000000
820.102112	244.900000
820.137207	210.500000
820.172302	222.700000
820.207275	210.600000
820.242371	207.700000
820.277405	210.900000
820.312500	210.400000
820.347534	212.800000
820.382568	215.200000
820.417664	209.700000
820.452759	207.300000
820.487732	207.900000
820.522827	208.700000
820.557861	206.000000
820.592896	207.500000
820.627930	209.200000
820.662964	205.800000
820.698059	210.300000
820.733093	207.000000
820.768127	210.800000
820.803162	208.000000
820.838196	205.500000
820.873230	206.500000
820.908264	209.100000
820.943298	204.400000
820.978333	209.700000
821.013367	206.000000
821.048401	209.900000
821.083435	208.700000
821.118469	201.000000
821.153503	208.900000
821.188477	205.300000
821.223511	202.200000
821.258484	204.600000
821.293579	205.800000
821.328613	201.500000
821.363647	205.100000
821.398621	200.300000
821.433655	204.400000
821.468628	214.200000
821.503662	204.200000
821.538696	206.000000
821.573669	201.600000
821.608704	206.200000
821.643677	203.700000
821.678650	206.400000
821.713684	210.700000
821.748718	203.600000
821.783691	204.000000
821.818726	203.600000
821.853638	205.900000
821.888672	202.000000
821.923706	202.200000
821.958618	200.700000
821.993652	201.300000
822.028687	205.300000
822.063599	210.000000
822.098633	203.400000
822.133667	198.700000
822.168579	202.400000
822.203613	204.200000
822.238586	197.600000
822.273560	203.200000
822.308533	199.700000
822.343567	199.700000
822.378479	201.900000
822.413452	199.900000
822.448425	198.900000
822.483398	205.500000
822.518372	205.500000
822.553345	199.200000
822.588318	208.400000
822.623291	199.900000
822.658203	198.900000
822.693237	200.500000
822.728210	199.000000
822.763123	200.500000
822.798096	198.000000
822.833069	199.900000
822.867981	200.500000
822.902954	201.200000
822.937927	204.400000
822.972900	206.700000
823.007874	195.000000
823.042725	204.900000
823.077698	209.900000
823.112671	197.200000
823.147583	199.200000
823.182556	200.800000
823.217529	204.000000
823.252441	198.600000
823.287415	209.500000
823.322388	202.200000
823.357239	200.500000
823.392212	204.600000
823.427185	204.900000
823.462097	197.700000
823.497009	201.300000
823.531982	198.500000
823.566895	199.500000
823.601807	197.600000
823.636719	199.500000
823.671631	201.100000
823.706604	197.600000
823.741455	201.700000
823.776428	195.200000
823.811340	203.500000
823.846252	206.600000
823.881165	205.700000
823.916138	200.600000
823.950989	207.100000
823.985901	196.600000
824.020813	200.300000
824.055725	198.900000
824.090637	196.100000
824.125610	201.200000
824.160461	201.700000
824.195374	200.600000
824.230225	202.200000
824.265198	193.400000
824.300110	197.900000
824.334961	205.800000
824.369873	192.500000
824.404785	200.800000
824.439636	203.100000
824.474548	193.000000
824.509460	192.200000
824.544312	202.900000
824.579224	201.500000
824.614075	201.800000
824.648987	197.800000
824.683899	197.900000
824.718811	197.800000
824.753662	203.000000
824.788574	202.400000
824.823364	200.000000
824.858276	194.600000
824.893188	201.900000
824.928040	202.400000
824.962952	199.100000
824.997803	200.600000
825.032654	198.400000
825.067566	199.400000
825.102417	194.400000
825.137268	195.700000
825.172119	197.300000
825.206970	195.100000
825.241882	196.200000
825.276733	193.600000
825.311646	195.900000
825.346436	193.100000
825.381348	193.600000
825.416138	197.300000
825.450989	193.400000
825.485901	189.200000
825.520691	191.400000
825.555542	190.300000
825.590454	195.600000
825.625244	190.000000
825.660095	199.900000
825.695007	197.100000
825.729797	194.900000
825.764648	191.700000
825.799438	195.200000
825.834290	196.700000
825.869202	190.000000
825.903992	195.400000
825.938843	191.800000
825.973694	189.400000
826.008484	203.400000
826.043335	190.200000
826.078186	188.000000
826.112976	198.200000
826.147827	198.200000
826.182678	201.600000
826.217468	188.300000
826.252319	198.700000
826.287109	189.800000
826.321899	197.100000
826.356750	191.900000
826.391541	188.000000
826.426392	196.600000
826.461182	192.700000
826.495972	188.300000
826.530823	186.400000
826.565613	193.000000
826.600403	187.900000
826.635254	194.600000
826.670044	187.500000
826.704834	186.900000
826.739685	188.300000
826.774475	192.400000
826.809265	192.100000
826.844055	190.000000
826.878906	197.500000
826.913635	193.000000
826.948425	193.800000
826.983215	193.800000
827.018005	196.900000
827.052856	191.200000
827.087585	196.700000
827.122375	186.900000
827.157227	191.200000
827.191956	201.900000
827.226746	189.000000
827.261536	195.400000
827.296265	188.400000
827.331116	189.900000
827.365906	193.100000
827.400635	189.400000
827.435425	186.200000
827.470215	193.800000
827.504944	191.300000
827.539734	196.600000
827.574463	191.100000
827.609253	197.900000
827.644043	193.300000
827.678772	195.100000
827.713562	190.200000
827.748352	190.500000
827.783081	188.300000
827.817871	193.700000
827.852600	188.100000
827.887329	191.900000
827.922119	185.200000
827.956848	194.200000
827.991638	201.800000
828.026367	193.700000
828.061157	191.300000
828.095886	192.900000
828.130615	205.400000
828.165344	185.200000
828.200073	192.200000
828.234863	191.600000
828.269592	190.800000
828.304321	195.100000
828.339111	192.800000
828.373779	189.300000
828.408569	194.800000
828.443298	195.900000
828.477966	189.200000
828.512756	192.400000
828.547424	189.000000
828.582214	191.000000
828.616943	189.500000
828.651672	190.700000
828.686340	194.600000
828.721130	188.100000
828.755798	191.300000
828.790527	191.700000
828.825256	191.700000
828.859924	192.600000
828.894714	196.800000
828.929443	198.300000
828.964111	188.700000
828.998840	194.800000
829.033569	189.700000
829.068237	192.000000
829.102966	189.300000
829.137634	193.000000
829.172363	194.500000
829.207092	193.000000
829.241821	189.800000
829.276489	186.400000
829.311157	192.500000
829.345825	191.400000
829.380554	196.000000
829.415283	188.400000
829.449951	187.100000
829.484619	197.700000
829.519348	197.100000
829.554016	191.700000
829.588745	192.400000
829.623413	188.200000
829.658081	200.100000
829.692749	188.600000
829.727417	196.200000
829.762146	192.000000
829.796814	189.600000
829.831482	191.300000
829.866150	192.600000
829.900879	189.800000
829.935486	193.400000
829.970154	189.200000
830.004883	201.500000
830.039490	192.500000
830.074219	190.000000
830.108887	191.000000
830.143494	189.700000
830.178223	186.900000
830.212891	190.200000
830.247498	191.400000
830.282166	197.200000
830.316772	194.800000
830.351501	189.400000
830.386169	191.800000
830.420776	190.700000
830.455444	191.600000
830.490112	189.700000
830.524719	186.600000
830.559387	193.300000
830.594055	194.000000
830.628662	192.400000
830.663330	191.900000
830.697998	197.500000
830.732605	191.100000
830.767273	193.500000
830.801941	191.500000
830.836487	199.400000
830.871155	192.800000
830.905762	192.300000
830.940430	187.400000
830.975098	188.600000
831.009644	192.100000
831.044312	198.200000
831.078979	193.900000
831.113525	185.000000
831.148193	192.400000
831.182861	189.700000
831.217407	195.000000
831.252075	202.900000
831.286621	190.000000
831.321289	187.600000
831.355896	192.700000
831.390564	197.300000
831.425110	193.500000
831.459778	196.100000
831.494324	203.400000
831.528931	193.500000
831.563599	196.500000
831.598145	187.200000
831.632751	190.700000
831.667419	190.500000
831.701965	192.700000
831.736572	193.500000
831.771179	187.700000
831.805786	188.800000
831.840393	196.900000
831.874939	185.500000
831.909546	195.100000
831.944153	184.500000
831.978760	191.600000
832.013306	188.100000
832.047913	195.900000
832.082458	200.000000
832.117065	189.300000
832.151672	199.200000
832.186218	192.700000
832.220825	194.800000
832.255432	185.500000
832.289978	189.500000
832.324585	192.200000
832.359192	193.200000
832.393677	191.900000
832.428284	192.100000
832.462830	189.900000
832.497437	191.200000
832.531982	193.800000
832.566589	191.100000
832.601135	191.700000
832.635681	184.700000
832.670227	190.800000
832.704773	198.300000
832.739380	192.900000
832.773926	192.200000
832.808472	188.600000
832.843079	192.500000
832.877563	193.400000
832.912170	189.700000
832.946716	185.500000
832.981201	195.900000
833.015808	193.700000
833.050293	190.200000
833.084839	187.100000
833.119446	189.300000
833.153992	195.000000
833.188477	192.200000
833.223022	190.400000
833.257568	192.900000
833.292114	196.400000
833.326660	201.000000
833.361145	189.400000
833.395691	186.600000
833.430237	191.200000
833.464783	194.900000
833.499329	188.700000
833.533875	189.500000
833.568359	194.400000
833.602905	194.800000
833.637390	195.700000
833.671875	189.800000
833.706421	189.700000
833.740906	190.000000
833.775452	183.800000
833.809998	189.200000
833.844482	198.200000
833.879028	191.000000
833.913513	190.100000
833.947998	193.500000
833.982544	188.400000
834.017090	188.500000
834.051514	185.000000
834.086060	193.800000
834.120544	190.600000
834.155029	192.600000
834.189575	191.400000
834.223999	192.400000
834.258545	192.500000
834.293030	191.900000
834.327515	189.900000
834.362000	190.000000
834.396545	195.000000
834.430969	188.700000
834.465454	195.300000
834.500000	186.600000
834.534424	193.200000
834.568970	183.900000
834.603455	184.400000
834.637878	189.000000
834.672363	191.500000
834.706909	190.700000
834.741333	190.800000
834.775818	186.800000
834.810242	187.900000
834.844727	190.300000
834.879211	190.500000
834.913635	191.700000
834.948181	191.800000
834.982666	192.100000
835.017090	190.000000
835.051575	192.900000
835.086060	189.300000
835.120483	193.900000
835.154907	192.300000
835.189331	191.100000
835.223816	194.900000
835.258301	187.100000
835.292786	189.400000
835.327209	194.700000
835.361694	188.400000
835.396057	190.500000
835.430542	193.100000
835.465027	190.300000
835.499390	188.000000
835.533875	216.900000
835.568359	188.700000
835.602722	187.700000
835.637207	193.300000
835.671692	187.400000
835.706055	206.000000
835.740540	194.000000
835.774902	193.100000
835.809387	193.600000
835.843811	187.400000
835.878235	197.100000
835.912659	186.900000
835.947083	190.000000
835.981506	189.600000
836.015930	185.800000
836.050354	194.400000
836.084778	198.800000
836.119202	194.500000
836.153625	203.900000
836.187988	187.700000
836.222473	190.000000
836.256897	193.300000
836.291260	190.100000
836.325684	194.500000
836.360046	190.600000
836.394470	191.200000
836.428894	196.400000
836.463318	188.600000
836.497681	194.400000
836.532104	198.500000
836.566467	192.500000
836.600891	190.300000
836.635315	197.800000
836.669678	194.300000
836.704102	194.500000
836.738525	194.700000
836.772888	185.200000
836.807251	189.900000
836.841675	194.100000
836.876038	188.300000
836.910461	188.300000
836.944763	193.900000
836.979187	187.900000
837.013611	196.200000
837.047974	185.600000
837.082336	201.500000
837.116699	193.600000
837.151062	191.400000
837.185486	186.900000
837.219849	190.600000
837.254211	195.300000
837.288574	191.200000
837.322937	187.000000
837.357300	184.400000
837.391663	201.300000
837.426086	195.400000
837.460388	192.400000
837.494751	195.700000
837.529114	188.900000
837.563477	196.900000
837.597839	192.100000
837.632141	190.500000
837.666565	189.000000
837.700928	194.000000
837.735229	193.300000
837.769592	194.600000
837.803955	193.600000
837.838257	187.900000
837.872620	189.500000
837.906982	198.300000
837.941284	191.300000
837.975647	194.200000
838.010010	196.800000
838.044312	189.900000
838.078674	189.200000
838.112976	191.600000
838.147339	195.000000
838.181702	190.900000
838.216003	199.100000
838.250366	192.800000
838.284668	194.100000
838.318970	185.700000
838.353333	192.100000
838.387634	189.900000
838.421936	192.900000
838.456299	190.600000
838.490601	197.000000
838.524902	194.800000
838.559265	195.300000
838.593567	196.000000
838.627869	187.000000
838.662170	192.800000
838.696472	186.700000
838.730774	188.200000
838.765137	194.700000
838.799377	181.700000
838.833740	192.800000
838.868042	195.500000
838.902283	185.200000
838.936646	196.900000
838.970947	191.600000
839.005188	196.800000
839.039551	186.600000
839.073792	197.000000
839.108093	188.500000
839.142395	198.800000
839.176697	185.000000
839.210937	191.900000
839.245300	200.100000
839.279541	186.800000
839.313843	191.200000
839.348145	193.300000
839.382385	195.700000
839.416687	196.200000
839.450989	193.300000
839.485229	191.500000
839.519531	188.700000
839.553833	195.900000
839.588013	190.200000
839.622314	193.500000
839.656555	193.500000
839.690857	191.000000
839.725159	187.300000
839.759460	190.900000
839.793640	188.800000
839.827942	192.300000
839.862183	188.600000
839.896423	193.100000
839.930725	202.400000
839.964966	199.400000
839.999207	197.000000
840.033508	199.300000
840.067688	189.100000
840.101990	199.200000
840.136230	191.200000
840.170471	198.400000
840.204712	187.700000
840.238953	189.000000
840.273193	192.400000
840.307434	194.300000
840.341736	189.300000
840.375916	187.100000
840.410217	189.500000
840.444397	197.100000
840.478638	193.600000
840.512878	195.900000
840.547119	191.500000
840.581360	194.400000
840.615601	198.100000
840.649780	201.300000
840.684021	191.100000
840.718262	197.600000
840.752441	198.700000
840.786682	192.400000
840.820862	192.600000
840.855103	198.600000
840.889343	191.400000
840.923584	195.300000
840.957764	195.000000
840.992004	193.600000
841.026184	203.700000
841.060425	191.600000
841.094666	190.200000
841.128845	194.100000
841.163025	193.100000
841.197266	193.500000
841.231445	193.300000
841.265686	194.300000
841.299866	188.900000
841.334045	197.200000
841.368286	190.700000
841.402405	199.100000
841.436646	195.100000
841.470825	190.400000
841.505005	191.300000
841.539185	188.500000
841.573425	189.600000
841.607544	192.400000
841.641785	191.000000
841.675964	189.700000
841.710144	193.000000
841.744324	190.000000
841.778503	192.000000
841.812683	188.200000
841.846863	197.800000
841.881042	198.700000
841.915222	189.300000
841.949402	202.400000
841.983521	186.300000
842.017700	191.200000
842.051880	192.800000
842.086060	194.200000
842.120239	192.500000
842.154419	189.100000
842.188538	193.700000
842.222717	189.100000
842.256897	198.100000
842.291016	192.300000
842.325195	193.000000
842.359375	201.400000
842.393494	198.000000
842.427673	192.600000
842.461853	193.600000
842.495911	200.100000
842.530090	191.500000
842.564209	193.200000
842.598389	191.900000
842.632568	192.400000
842.666626	194.000000
842.700806	190.600000
842.734985	190.100000
842.769043	195.000000
842.803223	190.800000
842.837402	190.700000
842.871460	189.700000
842.905640	200.000000
842.939697	188.500000
842.973877	193.300000
843.007996	197.400000
843.042175	200.500000
843.076233	188.700000
843.110413	194.600000
843.144470	197.300000
843.178589	195.200000
843.212769	191.800000
843.246826	195.400000
843.280945	190.700000
843.315125	191.300000
843.349182	189.600000
843.383301	196.800000
843.417419	202.200000
843.451538	192.700000
843.485657	190.100000
843.519714	191.800000
843.553833	192.400000
843.587952	189.200000
843.622070	190.100000
843.656128	193.900000
843.690247	190.800000
843.724304	191.800000
843.758423	193.900000
843.792542	189.900000
843.826599	192.200000
843.860718	190.200000
843.894836	185.400000
843.928894	192.800000
843.963013	194.500000
843.997070	188.700000
844.031128	189.700000
844.065247	195.300000
844.099304	196.500000
844.133362	193.200000
844.167480	195.000000
844.201599	196.500000
844.235596	194.200000
844.269714	194.000000
844.303711	193.700000
844.337830	186.400000
844.371948	193.200000
844.405945	193.100000
844.440063	188.200000
844.474121	201.400000
844.508118	191.300000
844.542236	192.500000
844.576294	193.200000
844.610352	187.200000
844.644409	191.400000
844.678406	187.000000
844.712524	195.900000
844.746582	196.800000
844.780640	191.900000
844.814636	191.900000
844.848755	200.900000
844.882751	191.500000
844.916809	195.600000
844.950867	194.200000
844.984863	199.000000
845.018921	191.300000
845.052979	190.400000
845.086975	193.000000
845.121033	186.700000
845.155090	190.300000
845.189087	198.300000
845.223145	190.800000
845.257141	194.200000
845.291199	195.300000
845.325256	195.600000
845.359253	194.600000
845.393250	203.700000
845.427307	190.600000
845.461304	192.900000
845.495361	193.500000
845.529358	199.200000
845.563354	190.600000
845.597412	188.300000
845.631409	200.300000
845.665405	198.800000
845.699463	194.900000
845.733459	191.400000
845.767456	200.200000
845.801453	192.500000
845.835449	197.200000
845.869446	195.900000
845.903503	195.400000
845.937439	189.800000
845.971497	197.200000
846.005493	187.000000
846.039429	195.800000
846.073486	201.000000
846.107483	191.200000
846.141418	192.500000
846.175476	192.500000
846.209473	197.500000
846.243408	189.300000
846.277405	193.000000
846.311401	189.900000
846.345337	192.900000
846.379395	196.900000
846.413330	189.400000
846.447327	200.600000
846.481323	189.600000
846.515259	189.300000
846.549255	192.100000
846.583252	195.400000
846.617187	189.800000
846.651184	193.100000
846.685120	191.700000
846.719055	199.300000
846.753052	195.200000
846.786987	193.800000
846.820984	188.200000
846.854980	198.100000
846.888916	189.100000
846.922852	193.900000
846.956848	198.200000
846.990723	189.900000
847.024719	194.200000
847.058716	190.100000
847.092590	197.100000
847.126587	195.800000
847.160522	190.900000
847.194458	195.900000
847.228455	189.200000
847.262390	188.900000
847.296265	191.400000
847.330261	196.700000
847.364136	190.100000
847.398132	190.900000
847.432068	193.500000
847.466003	190.600000
847.499939	191.200000
847.533875	195.100000
847.567749	190.800000
847.601746	191.400000
847.635681	195.000000
847.669556	185.300000
847.703491	198.200000
847.737427	203.600000
847.771301	188.100000
847.805237	195.100000
847.839233	193.800000
847.873108	192.000000
847.907043	191.300000
847.940918	198.400000
847.974854	192.900000
848.008789	196.100000
848.042664	192.600000
848.076538	195.000000
848.110474	192.300000
848.144348	194.100000
848.178284	186.100000
848.212219	193.500000
848.246094	191.800000
848.279968	193.600000
848.313904	195.300000
848.347778	193.200000
848.381653	190.500000
848.415588	189.200000
848.449463	189.000000
848.483337	194.400000
848.517212	198.500000
848.551086	192.200000
848.585022	188.800000
848.618835	201.900000
848.652771	191.500000
848.686646	189.400000
848.720520	198.200000
848.754395	190.100000
848.788330	195.800000
848.822144	197.000000
848.856018	191.300000
848.889954	200.200000
848.923767	190.000000
848.957642	189.400000
848.991577	194.900000
849.025391	193.300000
849.059265	191.500000
849.093079	188.500000
849.126953	187.800000
849.160828	197.100000
849.194641	194.300000
849.228577	190.400000
849.262451	191.800000
849.296265	190.400000
849.330139	190.900000
849.364014	194.200000
849.397827	194.500000
849.431702	193.900000
849.465515	197.400000
849.499329	185.800000
849.533203	189.500000
849.567078	184.700000
849.600891	194.900000
849.634766	191.300000
849.668518	195.600000
849.702393	192.300000
849.736267	187.900000
849.770020	200.100000
849.803894	195.700000
849.837769	193.900000
849.871521	192.300000
849.905396	196.600000
849.939270	189.400000
849.973022	192.100000
850.006897	195.600000
850.040710	195.600000
850.074524	195.200000
850.108337	192.100000
850.142151	197.100000
850.175964	198.100000
850.209778	192.300000
850.243530	182.100000
850.277405	195.300000
850.311218	193.200000
850.344971	190.700000
850.378845	199.000000
850.412659	188.800000
850.446411	195.400000
850.480225	190.300000
850.514038	196.500000
850.547791	196.200000
850.581665	192.500000
850.615417	188.600000
850.649231	195.100000
850.683044	190.900000
850.716858	192.400000
850.750610	193.000000
850.784424	196.700000
850.818176	187.600000
850.851929	191.400000
850.885742	189.500000
850.919495	191.500000
850.953308	197.800000
850.987122	197.300000
851.020874	187.700000
851.054626	187.100000
851.088440	195.500000
851.122192	196.500000
851.156006	192.400000
851.189697	192.500000
851.223511	187.900000
851.257263	197.800000
851.291077	194.700000
851.324829	191.600000
851.358582	190.000000
851.392334	190.700000
851.426086	190.200000
851.459900	198.400000
851.493591	192.900000
851.527344	193.300000
851.561157	193.300000
851.594849	194.900000
851.628662	192.400000
851.662415	200.700000
851.696106	194.800000
851.729858	196.700000
851.763611	189.100000
851.797363	193.500000
851.831116	190.200000
851.864868	194.400000
851.898560	197.100000
851.932312	190.800000
851.966064	195.900000
851.999817	193.300000
852.033569	191.400000
852.067261	196.800000
852.101013	189.600000
852.134766	190.900000
852.168457	186.200000
852.202209	196.600000
852.235901	189.800000
852.269592	194.200000
852.303345	201.200000
852.337036	194.400000
852.370789	194.000000
852.404541	195.700000
852.438171	188.800000
852.471924	192.700000
852.505676	188.800000
852.539307	193.900000
852.573059	190.600000
852.606812	191.000000
852.640442	191.800000
852.674194	197.400000
852.707886	202.600000
852.741577	197.900000
852.775269	189.600000
852.809021	193.700000
852.842651	194.400000
852.876404	196.900000
852.910034	194.100000
852.943787	197.700000
852.977478	194.200000
853.011108	189.600000
853.044861	189.900000
853.078552	197.500000
853.112183	193.900000
853.145874	193.900000
853.179626	185.900000
853.213257	194.900000
853.246948	190.500000
853.280640	200.500000
853.314270	190.900000
853.347961	198.200000
853.381653	194.300000
853.415283	196.900000
853.448975	189.800000
853.482605	193.700000
853.516296	193.500000
853.549988	188.800000
853.583618	194.300000
853.617310	195.100000
853.651001	192.200000
853.684631	190.100000
853.718323	190.300000
853.751953	196.900000
853.785583	185.300000
853.819275	194.800000
853.852966	193.800000
853.886536	187.200000
853.920227	188.500000
853.953918	196.200000
853.987488	191.700000
854.021179	194.900000
854.054749	199.400000
854.088440	194.600000
854.122131	188.400000
854.155701	194.300000
854.189331	189.700000
854.223022	195.700000
854.256592	195.200000
854.290283	190.600000
854.323914	194.700000
854.357483	194.500000
854.391174	195.100000
854.424744	198.700000
854.458374	194.200000
854.492065	203.200000
854.525696	191.200000
854.559265	198.000000
854.592896	204.400000
854.626465	193.300000
854.660095	193.200000
854.693787	194.900000
854.727356	192.600000
854.760986	195.800000
854.794617	196.600000
854.828186	192.000000
854.861816	196.100000
854.895447	194.500000
854.929016	194.600000
854.962585	193.700000
854.996155	201.300000
855.029785	193.100000
855.063416	194.500000
855.097046	195.100000
855.130615	188.100000
855.164185	197.700000
855.197754	192.900000
855.231384	195.700000
855.264954	191.800000
855.298523	195.700000
855.332153	193.800000
855.365723	198.000000
855.399292	191.500000
855.432922	192.200000
855.466492	193.800000
855.500061	189.200000
855.533630	190.000000
855.567200	194.900000
855.600769	195.800000
855.634338	195.700000
855.667969	194.800000
855.701477	190.300000
855.735046	190.800000
855.768616	186.300000
855.802185	194.200000
855.835754	204.700000
855.869324	186.800000
855.902893	192.400000
855.936401	196.600000
855.969971	193.200000
856.003540	187.800000
856.037109	195.200000
856.070618	191.500000
856.104187	189.100000
856.137695	189.900000
856.171265	185.100000
856.204834	193.200000
856.238403	197.200000
856.271912	190.200000
856.305481	196.200000
856.338989	187.700000
856.372559	195.800000
856.406128	194.200000
856.439636	196.500000
856.473145	191.700000
856.506653	199.100000
856.540222	192.300000
856.573792	197.600000
856.607300	195.800000
856.640808	189.300000
856.674377	192.600000
856.707825	226.300000
856.741394	197.800000
856.774902	190.300000
856.808472	185.600000
856.841980	196.400000
856.875488	198.100000
856.908936	187.200000
856.942505	191.100000
856.976013	190.100000
857.009521	190.400000
857.043030	193.400000
857.076477	191.900000
857.110046	198.800000
857.143555	193.000000
857.177063	195.400000
857.210571	191.700000
857.244080	187.800000
857.277527	194.800000
857.311035	192.100000
857.344543	197.300000
857.378052	192.200000
857.411499	198.300000
857.445068	199.800000
857.478516	192.700000
857.512024	187.900000
857.545532	192.500000
857.578979	193.500000
857.612427	194.700000
857.645874	190.500000
857.679382	193.900000
857.712891	197.000000
857.746399	192.700000
857.779846	195.700000
857.813354	197.600000
857.846741	192.800000
857.880249	190.300000
857.913757	192.400000
857.947266	193.100000
857.980652	194.600000
858.014160	191.500000
858.047546	190.500000
858.081055	191.400000
858.114563	202.800000
858.147949	188.200000
858.181458	193.500000
858.214844	192.700000
858.248352	185.800000
858.281799	195.600000
858.315308	202.100000
858.348694	196.400000
858.382141	200.600000
858.415588	194.500000
858.449036	195.600000
858.482483	193.700000
858.515930	191.700000
858.549377	192.600000
858.582825	198.500000
858.616211	195.600000
858.649658	194.800000
858.683105	188.900000
858.716553	192.000000
858.750000	188.900000
858.783386	192.100000
858.816833	188.200000
858.850281	194.000000
858.883728	193.100000
858.917114	194.700000
858.950562	200.400000
858.983948	198.000000
859.017395	197.000000
859.050781	192.200000
859.084167	188.800000
859.117615	188.400000
859.151062	195.200000
859.184448	190.200000
859.217834	191.700000
859.251282	191.200000
859.284668	187.600000
859.318054	186.600000
859.351440	191.100000
859.384888	198.700000
859.418274	186.700000
859.451721	187.400000
859.485046	194.100000
859.518494	194.200000
859.551819	189.500000
859.585266	196.200000
859.618652	197.500000
859.652039	189.300000
859.685425	187.800000
859.718811	187.600000
859.752197	183.300000
859.785583	197.400000
859.819031	198.300000
859.852356	193.900000
859.885742	189.900000
859.919067	191.400000
859.952454	190.500000
859.985901	195.300000
860.019287	192.300000
860.052612	0.000000
860.085999	0.000000
860.119324	0.000000
860.152710	0.000000
860.186096	0.000000
860.219421	0.000000
860.252808	0.000000
860.286133	0.000000
860.319519	0.000000
860.352905	0.000000
860.386292	0.000000
860.419617	0.000000
860.452942	0.000000
860.486267	0.000000
860.519653	0.000000
860.553040	0.000000
860.586365	0.000000
860.619690	0.000000
860.653076	0.000000
860.686340	0.000000
860.719727	0.000000
860.753113	0.000000
860.786377	0.000000
860.819763	0.000000
860.853027	0.000000
860.886414	0.000000
860.919739	0.000000
860.953125	0.000000
860.986389	0.000000
861.019714	0.000000
861.053040	0.000000
861.086365	0.000000
861.119690	0.000000
861.153076	0.000000
861.186340	0.000000
861.219666	0.000000
861.252930	0.000000
861.286316	0.000000
861.319641	0.000000
861.352905	0.000000
861.386230	0.000000
861.419495	0.000000
861.452820	0.000000
861.486145	0.000000
861.519470	0.000000
861.552734	0.000000
861.586060	0.000000
861.619324	0.000000
861.652649	0.000000
861.685974	0.000000
861.719238	0.000000
861.752563	0.000000
861.785828	0.000000
861.819092	0.000000
861.852417	0.000000
861.885742	0.000000
861.918945	0.000000
861.952271	0.000000
861.985535	0.000000
862.018799	0.000000
862.052124	0.000000
862.085449	0.000000
862.118652	0.000000
862.151978	0.000000
862.185181	0.000000
862.218506	0.000000
862.251770	0.000000
862.285034	0.000000
862.318298	0.000000
862.351562	0.000000
862.384827	0.000000
862.418091	0.000000
862.451355	0.000000
862.484619	0.000000
862.517883	0.000000
862.551086	0.000000
862.584351	0.000000
862.617676	0.000000
862.650940	0.000000
862.684143	0.000000
862.717407	0.000000
862.750610	0.000000
862.783875	0.000000
862.817139	0.000000
862.850342	0.000000
862.883606	0.000000
862.916870	0.000000
862.950073	0.000000
862.983337	0.000000
863.016602	0.000000
863.049805	0.000000
863.083069	0.000000
863.116211	0.000000
863.149475	0.000000
863.182739	0.000000
863.216003	0.000000
863.249146	0.000000
863.282410	0.000000
863.315613	0.000000
863.348816	0.000000
863.382080	0.000000
863.415222	0.000000
863.448486	0.000000
863.481689	0.000000
863.514893	0.000000
863.548157	0.000000
863.581360	0.000000
863.614502	0.000000
863.647766	0.000000
863.680908	0.000000
863.714172	0.000000
863.747375	0.000000
863.780579	0.000000
863.813721	0.000000
863.846985	0.000000
863.880127	0.000000
863.913330	0.000000
863.946533	0.000000
863.979675	0.000000
864.012939	0.000000
