Model Number: SPM-001-M   
Serial Number: 10090201
Firmware Version: 004.17.6
Exposure Time: 300000.000000us
Data Taken on: 21-01-2021 15:01:16.959
Wavelength	Amplitude
733.770752	0.000000
733.808716	0.000000
733.846619	0.000000
733.884583	0.000000
733.922546	0.000000
733.960449	0.000000
733.998413	0.000000
734.036377	0.000000
734.074219	0.000000
734.112183	0.000000
734.150085	0.000000
734.188049	0.000000
734.226013	0.000000
734.263916	0.000000
734.301819	0.000000
734.339783	0.000000
734.377686	0.000000
734.415588	0.000000
734.453552	0.000000
734.491455	0.000000
734.529419	0.000000
734.567322	0.000000
734.605225	0.000000
734.643127	0.000000
734.681091	0.000000
734.718994	0.000000
734.756897	0.000000
734.794800	0.000000
734.832703	0.000000
734.870667	0.000000
734.908508	0.000000
734.946472	0.000000
734.984375	0.000000
735.022278	0.000000
735.060181	0.000000
735.098083	0.000000
735.135986	0.000000
735.173889	0.000000
735.211792	0.000000
735.249695	0.000000
735.287598	0.000000
735.325439	0.000000
735.363403	0.000000
735.401306	0.000000
735.439148	0.000000
735.477051	0.000000
735.515015	0.000000
735.552856	0.000000
735.590759	0.000000
735.628662	0.000000
735.666504	0.000000
735.704407	0.000000
735.742310	0.000000
735.780212	0.000000
735.818115	0.000000
735.856018	0.000000
735.893860	0.000000
735.931763	0.000000
735.969604	0.000000
736.007507	0.000000
736.045410	0.000000
736.083252	0.000000
736.121094	0.000000
736.158997	0.000000
736.196838	0.000000
736.234741	0.000000
736.272644	0.000000
736.310486	0.000000
736.348389	0.000000
736.386230	0.000000
736.424072	0.000000
736.461975	0.000000
736.499878	0.000000
736.537720	0.000000
736.575562	0.000000
736.613403	0.000000
736.651306	0.000000
736.689148	0.000000
736.726990	0.000000
736.764893	0.000000
736.802734	0.000000
736.840576	0.000000
736.878418	0.000000
736.916321	0.000000
736.954102	0.000000
736.992004	0.000000
737.029846	0.000000
737.067688	0.000000
737.105530	0.000000
737.143372	0.000000
737.181213	0.000000
737.219116	0.000000
737.256897	0.000000
737.294739	0.000000
737.332642	0.000000
737.370422	0.000000
737.408325	0.000000
737.446167	0.000000
737.483948	0.000000
737.521790	0.000000
737.559692	0.000000
737.597473	0.000000
737.635315	0.000000
737.673157	0.000000
737.710999	0.000000
737.748840	0.000000
737.786621	0.000000
737.824463	0.000000
737.862305	0.000000
737.900085	0.000000
737.937927	0.000000
737.975769	0.000000
738.013550	0.000000
738.051392	0.000000
738.089233	0.000000
738.127014	0.000000
738.164856	0.000000
738.202698	0.000000
738.240479	0.000000
738.278320	0.000000
738.316162	0.000000
738.353943	0.000000
738.391785	0.000000
738.429565	0.000000
738.467407	0.000000
738.505188	0.000000
738.542969	0.000000
738.580811	0.000000
738.618652	0.000000
738.656372	0.000000
738.694214	0.000000
738.732056	0.000000
738.769836	0.000000
738.807617	0.000000
738.845459	0.000000
738.883240	0.000000
738.921021	0.000000
738.958862	0.000000
738.996582	0.000000
739.034424	0.000000
739.072205	0.000000
739.109985	0.000000
739.147827	0.000000
739.185547	0.000000
739.223389	0.000000
739.261169	0.000000
739.298889	0.000000
739.336731	0.000000
739.374512	0.000000
739.412292	0.000000
739.450073	0.000000
739.487854	0.000000
739.525635	0.000000
739.563416	0.000000
739.601135	0.000000
739.638977	0.000000
739.676758	0.000000
739.714478	0.000000
739.752258	0.000000
739.790100	0.000000
739.827820	0.000000
739.865601	0.000000
739.903381	0.000000
739.941101	0.000000
739.978882	195.300000
740.016724	190.500000
740.054443	193.500000
740.092224	190.500000
740.130005	189.400000
740.167725	189.500000
740.205505	188.900000
740.243225	197.100000
740.281006	191.700000
740.318787	188.200000
740.356506	196.400000
740.394287	195.900000
740.432068	187.800000
740.469727	187.800000
740.507507	193.300000
740.545288	192.800000
740.583008	193.500000
740.620789	191.700000
740.658569	186.500000
740.696228	192.200000
740.734009	194.600000
740.771790	184.600000
740.809509	193.600000
740.847229	190.000000
740.884949	189.500000
740.922729	187.300000
740.960449	189.800000
740.998169	189.200000
741.035950	189.200000
741.073669	193.100000
741.111389	192.300000
741.149170	200.300000
741.186890	199.600000
741.224609	196.000000
741.262329	193.500000
741.300110	200.200000
741.337769	188.700000
741.375549	189.100000
741.413208	193.000000
741.450989	189.100000
741.488708	189.500000
741.526367	190.100000
741.564148	195.800000
741.601868	193.500000
741.639526	191.400000
741.677307	191.500000
741.715027	194.200000
741.752686	187.000000
741.790466	197.400000
741.828186	192.900000
741.865845	189.200000
741.903564	187.500000
741.941345	193.400000
741.979004	187.400000
742.016724	195.200000
742.054382	192.100000
742.092102	195.800000
742.129822	187.100000
742.167480	191.900000
742.205200	190.500000
742.242920	195.300000
742.280640	194.200000
742.318359	188.900000
742.356079	189.800000
742.393738	196.400000
742.431396	191.200000
742.469116	196.100000
742.506775	184.900000
742.544495	193.600000
742.582214	195.300000
742.619873	192.600000
742.657593	196.800000
742.695251	196.300000
742.732971	191.300000
742.770630	192.900000
742.808289	191.900000
742.846008	191.700000
742.883728	193.100000
742.921326	192.500000
742.959045	190.300000
742.996765	190.800000
743.034424	190.700000
743.072083	189.200000
743.109802	191.400000
743.147400	187.400000
743.185120	192.900000
743.222839	191.200000
743.260437	195.700000
743.298157	191.900000
743.335754	186.100000
743.373474	189.700000
743.411133	186.800000
743.448792	191.800000
743.486450	192.400000
743.524170	186.500000
743.561768	191.100000
743.599487	198.100000
743.637146	199.500000
743.674744	190.700000
743.712463	191.400000
743.750122	191.400000
743.787720	194.200000
743.825439	190.000000
743.863037	192.700000
743.900696	191.500000
743.938416	216.800000
743.976013	190.700000
744.013672	199.200000
744.051331	194.500000
744.088928	201.200000
744.126587	196.400000
744.164307	193.600000
744.201904	189.900000
744.239563	194.600000
744.277222	194.100000
744.314819	192.900000
744.352478	197.700000
744.390137	193.600000
744.427734	193.500000
744.465393	190.900000
744.502991	188.200000
744.540649	195.000000
744.578308	193.100000
744.615906	189.200000
744.653564	183.600000
744.691223	194.300000
744.728821	186.600000
744.766418	191.700000
744.804077	194.300000
744.841675	189.800000
744.879333	187.700000
744.916992	191.200000
744.954529	189.400000
744.992187	195.500000
745.029785	191.100000
745.067444	189.200000
745.105042	192.400000
745.142639	191.700000
745.180298	201.400000
745.217896	191.300000
745.255493	191.000000
745.293152	193.800000
745.330750	197.200000
745.368347	196.600000
745.405945	194.700000
745.443604	190.200000
745.481140	194.800000
745.518799	190.600000
745.556396	196.000000
745.593994	195.300000
745.631592	193.000000
745.669189	187.900000
745.706787	194.300000
745.744385	188.400000
745.781982	196.600000
745.819580	189.400000
745.857178	192.600000
745.894775	191.100000
745.932373	194.400000
745.969971	194.000000
746.007568	185.300000
746.045166	198.700000
746.082764	197.300000
746.120300	193.700000
746.157898	194.000000
746.195557	192.000000
746.233093	187.400000
746.270691	194.000000
746.308228	193.100000
746.345825	196.200000
746.383423	194.200000
746.420959	188.000000
746.458557	188.500000
746.496155	190.000000
746.533691	191.000000
746.571289	188.900000
746.608887	191.500000
746.646423	194.100000
746.684021	192.300000
746.721619	189.800000
746.759155	193.600000
746.796753	188.000000
746.834351	188.100000
746.871826	189.700000
746.909424	196.600000
746.946960	193.200000
746.984558	191.800000
747.022156	191.300000
747.059631	198.800000
747.097229	195.800000
747.134827	189.800000
747.172363	197.000000
747.209900	194.600000
747.247498	188.600000
747.285034	197.100000
747.322571	196.700000
747.360168	191.400000
747.397644	187.100000
747.435242	194.500000
747.472778	196.400000
747.510315	190.800000
747.547913	191.400000
747.585388	196.400000
747.622925	191.100000
747.660522	187.100000
747.697998	189.500000
747.735596	191.000000
747.773132	190.200000
747.810669	191.900000
747.848206	194.100000
747.885742	189.900000
747.923279	187.800000
747.960815	193.700000
747.998352	193.200000
748.035889	196.400000
748.073425	194.900000
748.110901	190.200000
748.148437	188.900000
748.185974	192.000000
748.223511	197.800000
748.261047	195.000000
748.298584	191.900000
748.336060	192.900000
748.373596	193.400000
748.411133	217.000000
748.448608	189.300000
748.486145	194.700000
748.523682	195.900000
748.561218	199.900000
748.598755	191.500000
748.636292	194.600000
748.673706	190.000000
748.711243	197.300000
748.748718	191.500000
748.786255	193.600000
748.823792	191.900000
748.861267	189.200000
748.898804	194.300000
748.936340	193.500000
748.973816	189.400000
749.011292	197.000000
749.048828	192.900000
749.086304	194.200000
749.123840	198.500000
749.161316	189.100000
749.198792	199.800000
749.236328	196.600000
749.273743	192.300000
749.311279	191.400000
749.348816	196.800000
749.386230	192.000000
749.423767	183.600000
749.461304	194.500000
749.498718	192.700000
749.536255	196.500000
749.573730	200.800000
749.611206	197.100000
749.648682	192.400000
749.686218	192.100000
749.723633	195.900000
749.761169	191.800000
749.798645	190.100000
749.836060	190.100000
749.873596	190.700000
749.911011	193.600000
749.948547	197.900000
749.986023	190.900000
750.023437	193.500000
750.060913	186.800000
750.098450	188.800000
750.135864	191.100000
750.173340	192.400000
750.210815	196.700000
750.248291	190.400000
750.285767	190.900000
750.323242	197.200000
750.360657	195.200000
750.398132	190.100000
750.435608	194.300000
750.473022	190.500000
750.510498	188.700000
750.547974	189.500000
750.585449	190.700000
750.622925	185.800000
750.660339	202.500000
750.697815	193.400000
750.735291	192.400000
750.772644	192.100000
750.810120	192.400000
750.847595	193.800000
750.885010	188.800000
750.922485	198.600000
750.959961	192.000000
750.997375	196.900000
751.034851	195.300000
751.072266	195.800000
751.109680	187.000000
751.147156	197.000000
751.184570	194.900000
751.221985	192.500000
751.259460	187.100000
751.296875	191.800000
751.334290	192.300000
751.371765	193.600000
751.409180	196.400000
751.446594	194.900000
751.484070	194.600000
751.521423	192.100000
751.558899	193.300000
751.596375	199.900000
751.633728	198.600000
751.671204	200.600000
751.708618	190.400000
751.746033	192.800000
751.783447	189.100000
751.820801	188.600000
751.858276	195.100000
751.895691	191.100000
751.933105	190.100000
751.970520	187.500000
752.007935	190.700000
752.045349	195.400000
752.082764	193.400000
752.120178	190.100000
752.157532	190.100000
752.195007	190.200000
752.232422	192.900000
752.269775	195.800000
752.307190	195.500000
752.344543	188.600000
752.382019	191.400000
752.419434	191.000000
752.456787	193.900000
752.494202	196.900000
752.531616	193.200000
752.568970	195.000000
752.606384	193.800000
752.643799	193.800000
752.681152	197.600000
752.718567	195.000000
752.755981	186.400000
752.793335	194.500000
752.830750	186.000000
752.868164	196.300000
752.905518	188.200000
752.942932	197.300000
752.980225	187.700000
753.017639	194.900000
753.055054	195.000000
753.092407	194.800000
753.129822	195.600000
753.167175	200.300000
753.204529	191.600000
753.241943	190.900000
753.279358	188.100000
753.316650	194.900000
753.354065	194.200000
753.391479	198.800000
753.428772	198.800000
753.466187	195.100000
753.503479	188.300000
753.540894	192.600000
753.578308	188.400000
753.615601	189.200000
753.653015	193.000000
753.690369	191.600000
753.727722	189.300000
753.765076	187.000000
753.802490	188.300000
753.839783	185.800000
753.877136	189.700000
753.914551	201.900000
753.951843	190.700000
753.989258	194.700000
754.026611	191.900000
754.063904	194.100000
754.101257	189.200000
754.138611	184.700000
754.175964	192.900000
754.213318	199.100000
754.250610	187.600000
754.288025	190.100000
754.325378	188.400000
754.362671	194.600000
754.400024	192.700000
754.437378	198.200000
754.474670	199.300000
754.512085	190.800000
754.549438	194.700000
754.586731	190.600000
754.624084	191.300000
754.661438	188.100000
754.698730	198.900000
754.736084	190.700000
754.773376	191.900000
754.810730	193.100000
754.848083	190.600000
754.885315	193.500000
754.922668	185.000000
754.960022	184.500000
754.997314	193.800000
755.034668	189.500000
755.072021	191.100000
755.109253	186.700000
755.146606	194.900000
755.183960	188.600000
755.221252	194.500000
755.258545	191.900000
755.295898	193.900000
755.333191	192.800000
755.370544	188.000000
755.407776	188.600000
755.445129	189.100000
755.482422	193.200000
755.519714	187.200000
755.557068	184.500000
755.594360	181.800000
755.631653	192.000000
755.668945	193.800000
755.706299	190.500000
755.743530	197.900000
755.780884	195.400000
755.818176	192.600000
755.855408	193.300000
755.892761	190.000000
755.930054	188.600000
755.967346	190.300000
756.004639	190.500000
756.041870	187.600000
756.079224	194.400000
756.116516	184.700000
756.153748	191.900000
756.191040	194.800000
756.228394	192.600000
756.265625	185.500000
756.302917	190.700000
756.340210	185.400000
756.377441	193.600000
756.414795	194.500000
756.452087	189.000000
756.489319	183.200000
756.526611	193.000000
756.563843	190.000000
756.601135	196.500000
756.638428	196.200000
756.675659	189.400000
756.712952	192.100000
756.750244	191.500000
756.787476	189.500000
756.824768	193.800000
756.862061	189.100000
756.899292	235.600000
756.936584	191.900000
756.973816	196.400000
757.011047	197.100000
757.048340	188.900000
757.085632	189.600000
757.122864	203.000000
757.160156	187.800000
757.197327	190.200000
757.234619	193.100000
757.271912	187.400000
757.309082	194.400000
757.346375	187.000000
757.383667	195.100000
757.420837	190.300000
757.458130	191.100000
757.495422	187.200000
757.532593	192.700000
757.569885	183.400000
757.607117	188.100000
757.644348	190.100000
757.681580	201.200000
757.718811	180.800000
757.756042	190.100000
757.793335	187.400000
757.830505	192.700000
757.867798	185.900000
757.905029	188.300000
757.942200	190.200000
757.979492	188.200000
758.016724	187.700000
758.053894	188.300000
758.091187	202.300000
758.128418	190.800000
758.165588	188.200000
758.202820	197.900000
758.240112	188.500000
758.277283	197.200000
758.314514	190.800000
758.351685	186.200000
758.388916	195.200000
758.426147	195.700000
758.463379	197.100000
758.500610	190.200000
758.537842	190.600000
758.575012	192.800000
758.612244	185.400000
758.649475	198.700000
758.686646	185.200000
758.723877	194.200000
758.761108	194.800000
758.798279	188.900000
758.835510	191.000000
758.872742	193.200000
758.909851	191.300000
758.947083	189.800000
758.984253	191.600000
759.021484	191.900000
759.058716	193.500000
759.095886	193.100000
759.133057	189.600000
759.170288	192.900000
759.207458	186.800000
759.244690	196.700000
759.281860	195.100000
759.319031	187.500000
759.356262	189.100000
759.393433	187.300000
759.430603	188.800000
759.467773	188.800000
759.505005	193.800000
759.542175	194.600000
759.579346	189.800000
759.616516	189.600000
759.653687	194.000000
759.690918	187.200000
759.728027	189.700000
759.765259	190.200000
759.802429	193.300000
759.839539	191.000000
759.876770	194.600000
759.913940	197.800000
759.951111	190.300000
759.988281	191.300000
760.025452	188.800000
760.062561	188.900000
760.099792	197.400000
760.136963	193.500000
760.174072	187.600000
760.211243	185.900000
760.248413	187.200000
760.285583	186.400000
760.322754	197.300000
760.359863	194.700000
760.397034	195.200000
760.434204	191.300000
760.471375	190.200000
760.508545	188.700000
760.545715	189.200000
760.582825	187.000000
760.619995	192.900000
760.657166	187.300000
760.694275	195.000000
760.731445	193.300000
760.768555	192.400000
760.805664	195.000000
760.842834	192.300000
760.879944	194.700000
760.917114	190.800000
760.954285	190.400000
760.991394	185.600000
761.028564	194.300000
761.065674	192.600000
761.102783	187.600000
761.139954	192.600000
761.177124	193.800000
761.214172	193.800000
761.251343	189.400000
761.288452	190.300000
761.325562	192.600000
761.362732	185.900000
761.399841	188.600000
761.436951	190.000000
761.474121	185.200000
761.511169	189.300000
761.548340	192.700000
761.585449	191.600000
761.622559	191.700000
761.659668	189.600000
761.696838	193.600000
761.733887	189.500000
761.771057	186.400000
761.808167	189.100000
761.845276	191.600000
761.882385	197.600000
761.919434	188.500000
761.956604	203.000000
761.993713	186.300000
762.030762	194.900000
762.067871	188.300000
762.105042	189.400000
762.142090	194.400000
762.179199	189.800000
762.216309	192.400000
762.253418	202.300000
762.290527	196.500000
762.327637	196.900000
762.364685	186.400000
762.401794	194.600000
762.438904	191.800000
762.475952	190.100000
762.513062	187.300000
762.550110	188.300000
762.587219	198.900000
762.624329	196.400000
762.661377	192.600000
762.698486	191.100000
762.735596	191.200000
762.772644	188.400000
762.809753	185.200000
762.846863	190.100000
762.883911	194.200000
762.921021	191.600000
762.958069	191.500000
762.995117	195.400000
763.032227	195.700000
763.069336	187.100000
763.106323	186.400000
763.143433	186.200000
763.180481	192.500000
763.217590	193.000000
763.254639	191.200000
763.291687	190.300000
763.328735	196.300000
763.365845	189.000000
763.402893	189.300000
763.439941	189.600000
763.477051	194.200000
763.514038	191.800000
763.551147	190.300000
763.588196	191.100000
763.625244	191.400000
763.662292	195.600000
763.699402	198.700000
763.736389	193.700000
763.773499	199.200000
763.810486	190.600000
763.847534	190.900000
763.884644	190.900000
763.921631	189.400000
763.958679	196.500000
763.995728	190.900000
764.032776	196.500000
764.069824	188.500000
764.106873	193.600000
764.143860	197.200000
764.180969	187.500000
764.218018	193.500000
764.255005	187.000000
764.292053	188.500000
764.329102	193.700000
764.366089	193.400000
764.403137	192.900000
764.440125	186.500000
764.477173	188.600000
764.514221	192.700000
764.551208	190.000000
764.588257	186.300000
764.625305	191.200000
764.662292	193.600000
764.699341	196.000000
764.736389	188.800000
764.773376	199.200000
764.810425	189.500000
764.847473	194.500000
764.884399	191.500000
764.921448	199.900000
764.958435	196.400000
764.995483	192.000000
765.032532	201.300000
765.069458	191.300000
765.106506	190.600000
765.143555	189.300000
765.180481	191.200000
765.217529	197.700000
765.254578	184.800000
765.291504	193.300000
765.328552	188.300000
765.365540	189.300000
765.402527	200.600000
765.439575	190.700000
765.476501	186.300000
765.513550	188.500000
765.550537	191.800000
765.587463	197.300000
765.624512	188.300000
765.661499	182.600000
765.698486	194.000000
765.735474	188.200000
765.772461	190.300000
765.809448	195.700000
765.846436	191.900000
765.883423	195.900000
765.920410	191.700000
765.957397	187.800000
765.994385	193.100000
766.031311	199.100000
766.068359	194.000000
766.105286	192.200000
766.142273	198.400000
766.179260	192.200000
766.216187	188.900000
766.253174	184.700000
766.290161	192.100000
766.327148	193.300000
766.364136	192.000000
766.401123	202.100000
766.438049	187.100000
766.475037	195.300000
766.512024	193.400000
766.548950	204.100000
766.585937	200.000000
766.622864	193.200000
766.659790	195.000000
766.696777	184.400000
766.733704	196.300000
766.770691	187.000000
766.807678	198.600000
766.844604	192.100000
766.881531	192.400000
766.918518	194.800000
766.955444	196.900000
766.992432	189.800000
767.029358	194.500000
767.066284	194.500000
767.103271	192.700000
767.140198	223.500000
767.177124	203.600000
767.214050	194.900000
767.251038	195.300000
767.287964	190.500000
767.324890	188.700000
767.361816	190.000000
767.398743	195.100000
767.435730	188.700000
767.472595	192.800000
767.509583	195.900000
767.546509	186.800000
767.583374	191.800000
767.620361	186.000000
767.657288	190.200000
767.694214	188.900000
767.731140	190.200000
767.768066	190.000000
767.804993	193.800000
767.841919	185.300000
767.878845	191.800000
767.915710	195.100000
767.952698	190.000000
767.989563	192.700000
768.026489	195.000000
768.063416	187.700000
768.100281	187.200000
768.137207	195.400000
768.174133	194.800000
768.211060	193.400000
768.247986	192.500000
768.284912	191.800000
768.321777	192.400000
768.358704	185.600000
768.395630	191.500000
768.432495	186.700000
768.469421	192.300000
768.506348	195.000000
768.543152	197.600000
768.580078	193.100000
768.616943	195.100000
768.653870	194.600000
768.690796	195.700000
768.727661	193.800000
768.764587	192.200000
768.801453	187.500000
768.838318	194.300000
768.875244	192.600000
768.912109	195.100000
768.948975	189.500000
768.985901	191.100000
769.022766	188.700000
769.059631	192.000000
769.096558	188.200000
769.133362	187.900000
769.170288	189.600000
769.207214	187.800000
769.244019	191.300000
769.280945	187.200000
769.317810	195.600000
769.354675	188.700000
769.391541	196.700000
769.428406	192.200000
769.465271	199.000000
769.502136	186.200000
769.539062	191.800000
769.575867	188.200000
769.612732	193.100000
769.649597	193.900000
769.686462	195.200000
769.723328	189.200000
769.760193	188.800000
769.797058	187.200000
769.833923	195.200000
769.870728	189.600000
769.907593	193.800000
769.944519	189.200000
769.981323	192.300000
770.018188	190.900000
770.055054	189.900000
770.091858	188.100000
770.128723	194.700000
770.165588	196.400000
770.202393	185.600000
770.239258	191.700000
770.276062	190.400000
770.312927	187.600000
770.349792	194.200000
770.386597	190.100000
770.423462	197.000000
770.460327	200.300000
770.497131	188.200000
770.533997	183.100000
770.570862	194.500000
770.607605	192.500000
770.644470	190.800000
770.681335	192.800000
770.718140	191.900000
770.754944	187.300000
770.791809	187.400000
770.828613	187.900000
770.865479	189.200000
770.902222	196.700000
770.939087	192.300000
770.975952	186.300000
771.012695	188.300000
771.049561	199.100000
771.086365	190.900000
771.123169	189.500000
771.159973	189.300000
771.196838	190.700000
771.233582	192.500000
771.270447	192.600000
771.307251	194.900000
771.344055	190.800000
771.380859	191.500000
771.417664	188.900000
771.454468	193.900000
771.491272	193.100000
771.528076	193.100000
771.564880	191.200000
771.601685	194.700000
771.638428	188.800000
771.675293	193.500000
771.712097	186.000000
771.748840	198.100000
771.785645	189.200000
771.822449	190.700000
771.859253	192.400000
771.896057	189.700000
771.932861	197.700000
771.969604	191.900000
772.006409	187.000000
772.043213	195.100000
772.079956	190.600000
772.116760	187.100000
772.153503	189.700000
772.190308	200.100000
772.227112	190.100000
772.263855	188.000000
772.300659	188.400000
772.337463	195.600000
772.374207	188.200000
772.411011	187.100000
772.447754	187.800000
772.484497	199.100000
772.521301	188.600000
772.558105	187.900000
772.594849	189.100000
772.631592	192.900000
772.668396	189.300000
772.705139	192.200000
772.741882	185.300000
772.778625	192.900000
772.815430	192.600000
772.852173	191.800000
772.888916	192.300000
772.925720	195.500000
772.962463	196.000000
772.999207	192.300000
773.035950	193.400000
773.072754	195.100000
773.109436	189.100000
773.146240	194.600000
773.182922	192.200000
773.219727	196.700000
773.256470	191.100000
773.293152	185.900000
773.329956	191.700000
773.366699	197.400000
773.403381	186.900000
773.440186	191.700000
773.476929	191.600000
773.513611	188.700000
773.550354	189.000000
773.587158	189.100000
773.623840	186.400000
773.660583	187.500000
773.697327	195.300000
773.734009	190.400000
773.770813	191.400000
773.807495	188.400000
773.844238	190.200000
773.880981	199.200000
773.917664	192.600000
773.954407	196.100000
773.991150	192.200000
774.027832	196.400000
774.064575	190.900000
774.101318	191.300000
774.138000	194.600000
774.174744	190.500000
774.211487	193.600000
774.248108	185.100000
774.284851	187.300000
774.321594	190.100000
774.358276	188.900000
774.395020	194.300000
774.431702	191.400000
774.468384	185.900000
774.505127	185.200000
774.541809	188.800000
774.578491	191.400000
774.615234	192.000000
774.651917	185.200000
774.688599	188.500000
774.725342	196.400000
774.762024	192.500000
774.798706	192.200000
774.835449	189.000000
774.872070	192.500000
774.908813	193.100000
774.945496	193.400000
774.982178	191.500000
775.018860	190.000000
775.055542	188.900000
775.092224	187.300000
775.128967	193.800000
775.165588	194.300000
775.202271	191.700000
775.239014	195.100000
775.275635	193.600000
775.312317	187.100000
775.349060	193.600000
775.385681	193.800000
775.422363	190.000000
775.459045	189.300000
775.495667	189.600000
775.532410	189.400000
775.569092	189.400000
775.605713	189.700000
775.642395	192.900000
775.679016	193.400000
775.715698	191.800000
775.752380	188.400000
775.789001	185.400000
775.825684	185.600000
775.862366	190.200000
775.898987	197.300000
775.935669	187.000000
775.972351	196.600000
776.008972	190.400000
776.045654	189.900000
776.082336	186.700000
776.118958	188.100000
776.155640	189.200000
776.192322	187.400000
776.228882	188.300000
776.265564	189.400000
776.302185	186.000000
776.338867	193.100000
776.375488	184.900000
776.412109	190.800000
776.448792	190.200000
776.485413	196.200000
776.522034	188.700000
776.558716	187.200000
776.595337	189.100000
776.631958	190.600000
776.668579	188.100000
776.705261	193.900000
776.741882	188.900000
776.778503	191.400000
776.815186	191.600000
776.851746	195.700000
776.888367	190.800000
776.924988	195.300000
776.961609	187.000000
776.998291	188.600000
777.034851	185.500000
777.071472	192.900000
777.108154	186.400000
777.144714	197.000000
777.181335	192.100000
777.218018	185.700000
777.254578	191.600000
777.291199	191.700000
777.327759	190.400000
777.364380	193.800000
777.401062	197.300000
777.437622	204.400000
777.474243	191.200000
777.510864	195.700000
777.547424	188.400000
777.584045	191.800000
777.620667	189.300000
777.657227	187.300000
777.693848	188.700000
777.730469	198.100000
777.767029	190.000000
777.803650	194.000000
777.840271	188.600000
777.876831	191.300000
777.913452	197.400000
777.950012	187.300000
777.986633	189.600000
778.023193	188.800000
778.059753	187.500000
778.096375	187.900000
778.132996	198.300000
778.169556	188.500000
778.206116	190.500000
778.242737	186.000000
778.279297	191.700000
778.315857	184.500000
778.352478	190.300000
778.389038	193.200000
778.425598	195.600000
778.462219	198.900000
778.498718	194.300000
778.535339	194.200000
778.571838	196.600000
778.608459	196.800000
778.645020	186.300000
778.681580	190.600000
778.718140	192.400000
778.754761	187.200000
778.791260	191.600000
778.827881	192.300000
778.864441	188.500000
778.900940	193.000000
778.937561	191.400000
778.974121	190.000000
779.010620	184.600000
779.047241	185.700000
779.083801	191.300000
779.120300	188.600000
779.156860	191.800000
779.193359	190.000000
779.229980	191.900000
779.266541	192.500000
779.303040	193.600000
779.339600	188.400000
779.376160	185.100000
779.412659	187.400000
779.449219	186.800000
779.485779	194.000000
779.522278	192.300000
779.558838	194.300000
779.595398	195.000000
779.631897	192.100000
779.668457	188.300000
779.705017	198.300000
779.741516	189.600000
779.778076	185.600000
779.814575	185.800000
779.851074	189.900000
779.887634	188.800000
779.924133	199.800000
779.960693	186.700000
779.997253	191.900000
780.033691	189.200000
780.070251	189.400000
780.106812	196.000000
780.143250	195.100000
780.179810	192.900000
780.216370	191.700000
780.252808	188.700000
780.289368	192.500000
780.325867	189.400000
780.362366	190.000000
780.398865	199.100000
780.435364	189.900000
780.471863	195.600000
780.508423	191.100000
780.544861	192.100000
780.581421	194.700000
780.617920	191.500000
780.654419	191.100000
780.690918	191.500000
780.727417	195.400000
780.763916	191.300000
780.800415	198.200000
780.836914	187.600000
780.873352	198.800000
780.909912	189.800000
780.946411	192.000000
780.982849	194.100000
781.019348	196.600000
781.055786	189.800000
781.092346	188.900000
781.128845	191.900000
781.165283	186.900000
781.201782	194.400000
781.238281	189.600000
781.274719	191.600000
781.311218	186.600000
781.347717	199.800000
781.384155	188.100000
781.420654	188.400000
781.457092	192.000000
781.493591	191.300000
781.530090	187.900000
781.566528	193.500000
781.602966	193.800000
781.639465	191.200000
781.675903	186.800000
781.712402	192.800000
781.748901	194.200000
781.785278	189.000000
781.821777	192.900000
781.858276	190.600000
781.894714	197.000000
781.931152	190.600000
781.967651	195.200000
782.004089	186.800000
782.040527	193.000000
782.076965	192.200000
782.113403	192.000000
782.149902	194.300000
782.186340	187.100000
782.222778	200.100000
782.259277	190.800000
782.295654	188.300000
782.332092	190.600000
782.368591	189.000000
782.404968	186.600000
782.441467	191.900000
782.477905	191.000000
782.514282	188.300000
782.550781	197.100000
782.587219	190.000000
782.623596	194.900000
782.660095	193.200000
782.696472	196.000000
782.732910	192.600000
782.769348	188.400000
782.805786	198.800000
782.842224	198.300000
782.878662	194.700000
782.915039	195.500000
782.951477	197.300000
782.987915	193.800000
783.024292	196.400000
783.060730	199.300000
783.097168	193.400000
783.133545	189.300000
783.169983	191.600000
783.206421	188.000000
783.242798	190.300000
783.279236	189.700000
783.315613	190.700000
783.352051	190.900000
783.388489	189.400000
783.424866	186.500000
783.461304	193.000000
783.497681	198.800000
783.534058	193.900000
783.570496	194.400000
783.606934	191.800000
783.643250	193.600000
783.679687	196.400000
783.716125	185.800000
783.752441	185.000000
783.788879	193.900000
783.825317	199.700000
783.861633	195.100000
783.898071	191.000000
783.934448	190.600000
783.970825	191.400000
784.007263	190.100000
784.043579	196.100000
784.080017	193.500000
784.116394	185.000000
784.152710	187.100000
784.189148	189.300000
784.225525	189.300000
784.261902	189.300000
784.298279	193.700000
784.334656	196.700000
784.371033	190.100000
784.407410	197.000000
784.443787	188.900000
784.480164	191.100000
784.516541	184.900000
784.552856	195.900000
784.589233	191.400000
784.625610	187.900000
784.661987	202.300000
784.698364	198.700000
784.734741	193.700000
784.771057	195.300000
784.807434	192.800000
784.843811	195.400000
784.880127	183.300000
784.916504	195.400000
784.952881	189.800000
784.989197	192.100000
785.025574	193.400000
785.061951	194.600000
785.098267	199.400000
785.134644	191.100000
785.170959	187.000000
785.207275	195.500000
785.243652	200.500000
785.279968	191.100000
785.316345	195.200000
785.352722	193.800000
785.388977	189.400000
785.425354	187.700000
785.461731	188.900000
785.498047	192.500000
785.534363	188.200000
785.570679	190.200000
785.606995	186.400000
785.643372	190.300000
785.679687	195.700000
785.716003	192.600000
785.752380	190.200000
785.788635	190.300000
785.825012	191.800000
785.861328	190.400000
785.897644	183.900000
785.933960	189.700000
785.970337	191.700000
786.006592	196.800000
786.042908	193.900000
786.079285	190.200000
786.115540	190.500000
786.151855	190.200000
786.188171	192.800000
786.224487	195.400000
786.260803	191.300000
786.297119	192.600000
786.333435	191.600000
786.369751	188.600000
786.406006	193.800000
786.442322	188.800000
786.478638	188.300000
786.514954	195.600000
786.551270	188.300000
786.587585	196.300000
786.623840	193.200000
786.660156	194.900000
786.696472	191.000000
786.732727	191.300000
786.769043	195.800000
786.805298	184.700000
786.841614	186.600000
786.877930	196.000000
786.914124	186.700000
786.950439	199.400000
786.986755	196.400000
787.023010	197.800000
787.059326	193.100000
787.095642	192.300000
787.131836	196.700000
787.168152	191.700000
787.204468	193.700000
787.240723	196.400000
787.276978	189.800000
787.313293	194.800000
787.349548	189.900000
787.385803	197.500000
787.422058	192.700000
787.458313	194.300000
787.494629	189.200000
787.530823	195.900000
787.567139	188.000000
787.603455	188.800000
787.639648	188.400000
787.675903	198.400000
787.712219	193.900000
787.748413	191.400000
787.784729	199.300000
787.820984	195.100000
787.857178	193.200000
787.893494	192.700000
787.929749	192.600000
787.965942	195.200000
788.002258	195.100000
788.038452	197.600000
788.074707	190.300000
788.110962	195.400000
788.147217	188.700000
788.183472	193.400000
788.219727	189.400000
788.255920	194.100000
788.292175	194.400000
788.328430	194.800000
788.364624	192.000000
788.400879	194.200000
788.437134	194.000000
788.473328	189.100000
788.509583	191.900000
788.545837	189.100000
788.582031	192.600000
788.618286	192.800000
788.654480	189.600000
788.690735	192.600000
788.726990	200.000000
788.763184	191.800000
788.799377	200.200000
788.835632	191.900000
788.871826	202.800000
788.908081	195.800000
788.944336	191.600000
788.980469	200.500000
789.016724	195.300000
789.052979	197.400000
789.089111	190.600000
789.125366	198.300000
789.161621	187.300000
789.197754	195.100000
789.234009	194.400000
789.270142	194.000000
789.306396	192.200000
789.342590	197.400000
789.378784	191.100000
789.414978	188.000000
789.451233	194.900000
789.487366	192.100000
789.523621	197.300000
789.559814	194.800000
789.595947	191.700000
789.632202	193.500000
789.668335	195.200000
789.704529	195.000000
789.740784	197.800000
789.776917	196.700000
789.813110	188.300000
789.849304	198.200000
789.885498	189.900000
789.921692	192.800000
789.957886	188.100000
789.994019	187.900000
790.030212	186.900000
790.066406	197.400000
790.102539	193.400000
790.138733	200.500000
790.174927	189.200000
790.211060	198.200000
790.247253	191.900000
790.283386	193.800000
790.319580	192.300000
790.355774	189.200000
790.391907	190.500000
790.428101	200.700000
790.464294	194.900000
790.500427	197.000000
790.536621	190.400000
790.572754	189.800000
790.608887	186.600000
790.645081	192.600000
790.681274	202.900000
790.717346	201.000000
790.753540	194.100000
790.789734	191.400000
790.825867	186.800000
790.862000	192.500000
790.898132	196.600000
790.934265	189.900000
790.970459	189.800000
791.006592	195.500000
791.042725	199.500000
791.078918	198.000000
791.114990	196.200000
791.151184	192.200000
791.187317	198.900000
791.223389	200.000000
791.259583	191.300000
791.295715	196.800000
791.331848	199.900000
791.367981	199.500000
791.404114	197.000000
791.440247	192.400000
791.476379	200.300000
791.512451	188.700000
791.548584	198.800000
791.584778	190.700000
791.620850	196.000000
791.656982	192.400000
791.693115	190.000000
791.729187	189.200000
791.765381	194.300000
791.801514	192.700000
791.837585	193.200000
791.873718	191.400000
791.909851	192.500000
791.945923	198.100000
791.982056	189.400000
792.018188	188.800000
792.054260	196.600000
792.090393	194.600000
792.126465	190.700000
792.162598	193.900000
792.198669	192.800000
792.234741	192.200000
792.270874	194.100000
792.307007	187.000000
792.343079	192.600000
792.379150	193.400000
792.415283	187.000000
792.451355	194.700000
792.487488	186.400000
792.523560	194.100000
792.559631	196.200000
792.595764	188.800000
792.631836	190.300000
792.667908	195.600000
792.703979	188.600000
792.740051	193.200000
792.776184	200.000000
792.812256	193.700000
792.848328	194.800000
792.884399	196.300000
792.920471	192.200000
792.956543	189.800000
792.992615	193.200000
793.028748	192.800000
793.064758	192.400000
793.100830	196.500000
793.136963	199.400000
793.172974	198.000000
793.209045	193.900000
793.245178	202.400000
793.281189	192.600000
793.317261	194.500000
793.353271	189.500000
793.389404	197.200000
793.425476	196.000000
793.461487	189.500000
793.497559	190.600000
793.533630	195.600000
793.569641	191.500000
793.605713	193.600000
793.641785	189.900000
793.677795	195.600000
793.713867	190.400000
793.749878	193.700000
793.785950	199.900000
793.822021	200.400000
793.858032	185.700000
793.894104	196.700000
793.930176	189.500000
793.966187	193.500000
794.002258	189.400000
794.038269	197.100000
794.074280	190.400000
794.110352	206.200000
794.146423	191.300000
794.182373	189.300000
794.218445	188.800000
794.254517	190.600000
794.290466	184.500000
794.326538	191.700000
794.362549	191.700000
794.398560	193.800000
794.434631	196.400000
794.470581	189.400000
794.506653	189.500000
794.542664	190.100000
794.578674	190.900000
794.614685	189.800000
794.650757	189.100000
794.686707	190.800000
794.722778	186.900000
794.758789	192.100000
794.794739	193.300000
794.830811	193.300000
794.866821	200.200000
794.902771	193.000000
794.938843	187.100000
794.974792	189.700000
795.010803	197.300000
795.046814	196.300000
795.082825	187.000000
795.118835	195.400000
795.154846	185.800000
795.190796	194.800000
795.226807	189.000000
795.262817	195.100000
795.298767	198.000000
795.334778	201.100000
795.370850	191.600000
795.406799	195.400000
795.442810	191.800000
795.478821	197.300000
795.514709	196.100000
795.550720	215.200000
795.586670	190.300000
795.622681	194.900000
795.658691	194.200000
795.694641	195.900000
795.730652	189.700000
795.766663	196.100000
795.802551	194.000000
795.838562	200.900000
795.874573	190.700000
795.910522	193.800000
795.946472	191.500000
795.982483	197.400000
796.018433	193.500000
796.054382	198.700000
796.090393	190.900000
796.126282	190.700000
796.162292	188.300000
796.198242	192.500000
796.234192	194.400000
796.270203	190.900000
796.306091	191.700000
796.342041	198.400000
796.378052	185.800000
796.413940	190.800000
796.449951	195.400000
796.485901	195.700000
796.521790	190.800000
796.557800	195.400000
796.593689	190.700000
796.629639	190.300000
796.665649	190.500000
796.701599	195.300000
796.737488	192.000000
796.773437	197.500000
796.809387	191.400000
796.845337	193.800000
796.881287	193.200000
796.917175	188.200000
796.953125	190.700000
796.989075	195.800000
797.024963	195.500000
797.060913	194.100000
797.096863	192.900000
797.132751	191.400000
797.168701	189.900000
797.204590	196.000000
797.240540	192.800000
797.276489	195.800000
797.312439	195.100000
797.348328	193.300000
797.384277	194.400000
797.420166	194.400000
797.456055	197.400000
797.492004	194.800000
797.527893	194.900000
797.563843	191.700000
797.599731	189.000000
797.635620	186.100000
797.671570	200.400000
797.707520	197.200000
797.743347	192.800000
797.779297	193.000000
797.815125	191.000000
797.851074	186.200000
797.887024	194.100000
797.922913	191.400000
797.958801	199.200000
797.994690	190.600000
798.030579	193.500000
798.066467	194.100000
798.102356	191.100000
798.138245	189.700000
798.174133	191.600000
798.210083	195.900000
798.245911	198.900000
798.281799	192.300000
798.317749	190.800000
798.353577	191.900000
798.389465	193.700000
798.425293	190.600000
798.461243	190.200000
798.497131	188.200000
798.532959	187.000000
798.568848	195.200000
798.604736	190.100000
798.640564	189.000000
798.676453	194.000000
798.712402	192.800000
798.748230	196.800000
798.784119	193.200000
798.820007	192.800000
798.855835	191.200000
798.891724	191.000000
798.927551	189.500000
798.963379	195.300000
798.999268	192.200000
799.035095	189.400000
799.070984	193.600000
799.106873	191.500000
799.142700	199.700000
799.178528	191.200000
799.214417	192.400000
799.250244	196.900000
799.286133	190.900000
799.321960	194.400000
799.357788	193.600000
799.393677	191.800000
799.429504	190.200000
799.465332	186.500000
799.501221	193.500000
799.537048	193.800000
799.572876	190.200000
799.608704	190.000000
799.644531	198.200000
799.680359	191.900000
799.716248	194.800000
799.752014	196.500000
799.787903	195.200000
799.823730	197.200000
799.859558	192.900000
799.895386	192.900000
799.931213	195.800000
799.967041	187.900000
800.002869	189.300000
800.038696	200.200000
800.074463	191.300000
800.110352	198.100000
800.146179	186.500000
800.181946	190.900000
800.217773	197.200000
800.253540	195.400000
800.289429	196.100000
800.325256	197.500000
800.361023	189.600000
800.396851	196.000000
800.432678	194.000000
800.468445	192.600000
800.504272	197.200000
800.540100	191.500000
800.575867	191.500000
800.611694	197.200000
800.647461	189.600000
800.683289	193.400000
800.719116	197.500000
800.754883	196.200000
800.790649	191.200000
800.826477	191.600000
800.862244	206.300000
800.898071	191.400000
800.933838	193.900000
800.969604	193.800000
801.005432	194.100000
801.041199	200.600000
801.076965	201.000000
801.112793	195.600000
801.148560	186.400000
801.184326	190.400000
801.220154	193.200000
801.255859	190.100000
801.291687	192.800000
801.327454	189.500000
801.363281	195.100000
801.398987	193.400000
801.434814	191.500000
801.470520	200.000000
801.506287	194.400000
801.542114	194.300000
801.577820	197.000000
801.613647	192.800000
801.649414	191.900000
801.685120	194.100000
801.720886	200.600000
801.756714	193.000000
801.792419	193.200000
801.828186	188.300000
801.863892	194.700000
801.899719	187.100000
801.935486	190.700000
801.971252	197.600000
802.006958	194.200000
802.042725	190.600000
802.078430	190.800000
802.114197	186.200000
802.149963	200.200000
802.185669	189.900000
802.221436	193.300000
802.257202	195.700000
802.292908	191.200000
802.328674	196.900000
802.364441	198.200000
802.400146	193.400000
802.435913	195.000000
802.471558	192.400000
802.507324	193.100000
802.543091	187.700000
802.578796	195.800000
802.614502	193.300000
802.650269	198.300000
802.685974	186.600000
802.721741	193.600000
802.757446	197.200000
802.793152	197.500000
802.828918	203.400000
802.864624	197.800000
802.900330	195.300000
802.936035	200.900000
802.971802	202.200000
803.007446	197.500000
803.043213	191.200000
803.078857	201.000000
803.114624	187.200000
803.150330	190.700000
803.185974	189.100000
803.221741	192.200000
803.257446	200.600000
803.293152	199.200000
803.328857	192.700000
803.364563	189.500000
803.400208	188.900000
803.435974	197.300000
803.471680	190.700000
803.507324	190.700000
803.543030	197.700000
803.578735	192.900000
803.614441	189.000000
803.650146	198.300000
803.685791	191.500000
803.721497	193.300000
803.757202	188.300000
803.792847	196.800000
803.828552	193.100000
803.864258	193.900000
803.899902	195.700000
803.935608	188.400000
803.971313	196.600000
804.006958	192.600000
804.042664	190.600000
804.078308	195.000000
804.113953	191.300000
804.149658	196.500000
804.185364	193.700000
804.221008	209.000000
804.256714	194.700000
804.292297	192.200000
804.328003	191.400000
804.363708	190.800000
804.399292	194.400000
804.434998	194.200000
804.470703	188.500000
804.506287	199.700000
804.541992	192.500000
804.577637	198.000000
804.613281	190.500000
804.648926	190.600000
804.684570	197.200000
804.720215	193.000000
804.755920	193.000000
804.791565	193.500000
804.827209	199.900000
804.862854	193.500000
804.898437	191.800000
804.934143	195.800000
804.969788	194.600000
805.005371	197.000000
805.041077	194.200000
805.076721	195.800000
805.112305	188.700000
805.147949	194.300000
805.183655	188.500000
805.219238	196.700000
805.254883	190.700000
805.290466	196.300000
805.326111	191.900000
805.361755	188.900000
805.397400	193.100000
805.432983	196.300000
805.468628	194.000000
805.504211	200.500000
805.539856	197.300000
805.575500	198.900000
805.611084	193.200000
805.646729	187.800000
805.682373	189.900000
805.717957	197.200000
805.753601	196.400000
805.789246	186.300000
805.824768	193.000000
805.860413	196.100000
805.895996	189.400000
805.931641	190.500000
805.967224	196.000000
806.002869	187.900000
806.038452	195.200000
806.074036	196.800000
806.109619	187.000000
806.145264	186.800000
806.180847	190.700000
806.216431	189.200000
806.252014	192.400000
806.287659	189.700000
806.323181	198.500000
806.358826	194.600000
806.394409	186.300000
806.429993	189.000000
806.465576	201.400000
806.501160	190.400000
806.536743	187.000000
806.572327	193.100000
806.607910	193.000000
806.643494	193.100000
806.679077	193.500000
806.714661	193.100000
806.750244	194.500000
806.785828	190.900000
806.821350	193.000000
806.856934	195.400000
806.892517	193.600000
806.928101	191.500000
806.963684	194.200000
806.999268	198.800000
807.034790	186.700000
807.070374	194.200000
807.105896	192.200000
807.141479	190.300000
807.177063	196.200000
807.212585	189.800000
807.248169	191.100000
807.283752	194.500000
807.319275	191.800000
807.354858	197.100000
807.390381	192.700000
807.425903	193.400000
807.461487	190.400000
807.497070	188.800000
807.532593	190.400000
807.568115	189.800000
807.603699	187.900000
807.639221	187.900000
807.674744	191.400000
807.710266	193.900000
807.745850	193.400000
807.781372	193.400000
807.816895	191.300000
807.852417	193.300000
807.888000	191.400000
807.923523	190.400000
807.959045	192.500000
807.994629	187.100000
808.030090	184.000000
808.065613	193.400000
808.101135	194.000000
808.136658	194.400000
808.172241	189.400000
808.207764	192.100000
808.243225	186.100000
808.278809	188.400000
808.314270	192.900000
808.349792	187.200000
808.385315	186.900000
808.420837	190.700000
808.456360	193.800000
808.491882	194.500000
808.527344	191.500000
808.562866	199.700000
808.598389	193.600000
808.633850	193.000000
808.669434	190.200000
808.704895	194.800000
808.740417	198.200000
808.775940	194.800000
808.811462	191.900000
808.846924	189.400000
808.882385	186.600000
808.917847	187.500000
808.953369	191.200000
808.988892	186.600000
809.024353	191.500000
809.059875	196.600000
809.095398	193.900000
809.130798	189.400000
809.166321	190.300000
809.201843	191.100000
809.237305	195.000000
809.272766	198.100000
809.308228	188.600000
809.343750	189.500000
809.379211	193.400000
809.414734	192.300000
809.450134	197.900000
809.485657	188.400000
809.521118	195.800000
809.556580	191.600000
809.592102	192.500000
809.627502	191.200000
809.663025	191.200000
809.698486	189.400000
809.733887	189.700000
809.769409	190.900000
809.804871	184.900000
809.840271	186.800000
809.875793	190.600000
809.911194	194.100000
809.946655	190.100000
809.982178	187.300000
810.017639	191.200000
810.053040	190.400000
810.088501	190.200000
810.123901	190.600000
810.159424	187.700000
810.194885	186.400000
810.230286	191.500000
810.265747	186.800000
810.301208	185.600000
810.336609	191.100000
810.372070	184.200000
810.407532	187.900000
810.442932	189.400000
810.478394	196.000000
810.513794	191.500000
810.549255	191.800000
810.584717	188.000000
810.620117	185.800000
810.655518	192.600000
810.690979	193.200000
810.726379	191.000000
810.761841	187.900000
810.797302	189.400000
810.832642	188.400000
810.868103	197.100000
810.903564	191.500000
810.938904	196.300000
810.974365	188.700000
811.009827	190.200000
811.045166	190.000000
811.080627	184.700000
811.115967	192.800000
811.151428	195.000000
811.186829	191.000000
811.222229	191.200000
811.257629	186.800000
811.293091	191.600000
811.328430	200.200000
811.363892	194.900000
811.399292	196.100000
811.434631	189.400000
811.470093	195.600000
811.505493	189.800000
811.540833	191.400000
811.576294	194.400000
811.611694	193.100000
811.647034	188.300000
811.682434	190.100000
811.717773	192.700000
811.753235	197.400000
811.788635	190.700000
811.823975	193.100000
811.859375	198.000000
811.894775	188.300000
811.930115	192.400000
811.965515	191.400000
812.000916	194.000000
812.036255	191.000000
812.071655	195.500000
812.106995	189.000000
812.142395	190.400000
812.177795	197.100000
812.213196	195.900000
812.248474	195.900000
812.283875	189.100000
812.319214	191.600000
812.354614	195.300000
812.390015	190.600000
812.425293	192.000000
812.460693	194.100000
812.496094	194.400000
812.531433	189.500000
812.566772	192.800000
812.602173	193.600000
812.637451	196.700000
812.672852	191.900000
812.708191	195.200000
812.743530	192.500000
812.778931	190.500000
812.814270	190.800000
812.849609	197.900000
812.884949	193.800000
812.920227	189.200000
812.955627	200.300000
812.990967	196.700000
813.026306	192.700000
813.061646	186.900000
813.096985	187.400000
813.132324	184.200000
813.167664	189.000000
813.203003	194.000000
813.238281	185.100000
813.273682	184.800000
813.308960	184.700000
813.344299	187.500000
813.379639	193.500000
813.414978	189.300000
813.450256	189.700000
813.485596	192.400000
813.520874	189.900000
813.556213	191.000000
813.591614	195.700000
813.626831	188.300000
813.662170	192.800000
813.697510	199.300000
813.732788	188.200000
813.768127	190.700000
813.803467	194.500000
813.838745	190.100000
813.874084	195.100000
813.909363	190.800000
813.944641	195.900000
813.979980	186.200000
814.015320	192.600000
814.050598	189.600000
814.085876	194.200000
814.121155	189.900000
814.156494	191.700000
814.191772	191.100000
814.227051	188.300000
814.262390	189.100000
814.297668	191.500000
814.332947	193.200000
814.368225	188.300000
814.403564	189.000000
814.438782	188.500000
814.474121	191.000000
814.509338	188.800000
814.544617	193.600000
814.579956	188.300000
814.615173	196.800000
814.650513	193.400000
814.685791	189.800000
814.721008	190.900000
814.756348	191.600000
814.791626	189.300000
814.826843	190.300000
814.862122	190.000000
814.897400	189.800000
814.932678	190.800000
814.967957	190.500000
815.003235	191.100000
815.038452	187.900000
815.073730	185.500000
815.108948	195.700000
815.144226	191.000000
815.179504	197.300000
815.214722	184.700000
815.250000	186.000000
815.285278	191.300000
815.320496	189.000000
815.355774	187.700000
815.391052	191.900000
815.426270	189.600000
815.461487	189.800000
815.496765	186.500000
815.531982	185.100000
815.567261	187.900000
815.602539	195.900000
815.637695	191.700000
815.672974	192.600000
815.708191	193.700000
815.743408	196.700000
815.778687	188.400000
815.813904	197.200000
815.849121	185.400000
815.884399	188.100000
815.919556	187.500000
815.954834	188.400000
815.990051	191.700000
816.025269	194.800000
816.060486	188.600000
816.095703	189.300000
816.130920	192.200000
816.166199	189.000000
816.201416	193.700000
816.236572	196.200000
816.271851	192.100000
816.307007	195.900000
816.342224	188.300000
816.377441	192.800000
816.412659	186.200000
816.447876	192.700000
816.483093	192.600000
816.518250	192.200000
816.553467	191.800000
816.588745	195.400000
816.623901	190.200000
816.659119	186.200000
816.694275	192.000000
816.729492	187.300000
816.764709	220.000000
816.799927	187.500000
816.835083	193.400000
816.870300	186.700000
816.905457	192.600000
816.940674	192.500000
816.975830	190.200000
817.010986	187.600000
817.046204	192.000000
817.081421	186.800000
817.116577	190.000000
817.151733	194.500000
817.186951	195.600000
817.222107	191.100000
817.257324	194.900000
817.292419	193.100000
817.327637	186.700000
817.362854	190.300000
817.398010	187.900000
817.433167	190.300000
817.468323	188.100000
817.503479	190.600000
817.538635	198.700000
817.573853	193.500000
817.608948	191.000000
817.644165	190.200000
817.679321	189.700000
817.714478	188.700000
817.749634	191.800000
817.784790	200.900000
817.819946	196.700000
817.855103	185.600000
817.890198	189.900000
817.925415	184.700000
817.960571	192.700000
817.995667	191.900000
818.030823	191.600000
818.066040	189.500000
818.101135	190.300000
818.136292	190.700000
818.171448	186.800000
818.206543	191.900000
818.241699	192.600000
818.276855	192.100000
818.311951	190.700000
818.347107	187.300000
818.382263	194.000000
818.417358	197.700000
818.452515	196.700000
818.487610	197.500000
818.522766	189.000000
818.557922	198.000000
818.593018	193.000000
818.628113	192.700000
818.663269	189.200000
818.698364	192.200000
818.733521	189.900000
818.768677	194.300000
818.803711	189.000000
818.838867	188.300000
818.874023	191.700000
818.909058	189.300000
818.944214	187.400000
818.979370	194.500000
819.014404	192.900000
819.049561	189.300000
819.084595	193.700000
819.119751	187.900000
819.154846	194.600000
819.189941	189.500000
819.225037	188.400000
819.260193	184.500000
819.295227	187.100000
819.330322	184.400000
819.365479	186.500000
819.400513	219.200000
819.435608	185.500000
819.470764	183.000000
819.505798	186.400000
819.540894	188.000000
819.575989	187.300000
819.611084	192.700000
819.646179	196.500000
819.681213	190.000000
819.716309	189.400000
819.751404	189.800000
819.786438	195.100000
819.821533	186.600000
819.856628	191.300000
819.891663	192.500000
819.926758	200.700000
819.961853	196.400000
819.996887	189.100000
820.031982	192.700000
820.067017	190.800000
820.102112	222.500000
820.137207	188.900000
820.172302	200.600000
820.207275	187.800000
820.242371	187.100000
820.277405	188.200000
820.312500	189.400000
820.347534	192.000000
820.382568	195.100000
820.417664	189.400000
820.452759	188.100000
820.487732	188.200000
820.522827	188.700000
820.557861	185.700000
820.592896	189.200000
820.627930	190.800000
820.662964	186.900000
820.698059	191.500000
820.733093	189.200000
820.768127	191.500000
820.803162	189.900000
820.838196	187.200000
820.873230	190.400000
820.908264	190.800000
820.943298	188.300000
820.978333	191.900000
821.013367	190.700000
821.048401	191.800000
821.083435	194.500000
821.118469	184.800000
821.153503	194.400000
821.188477	190.800000
821.223511	185.600000
821.258484	188.300000
821.293579	190.600000
821.328613	185.300000
821.363647	189.600000
821.398621	185.700000
821.433655	188.300000
821.468628	199.800000
821.503662	188.900000
821.538696	191.100000
821.573669	186.100000
821.608704	193.100000
821.643677	188.800000
821.678650	192.200000
821.713684	195.000000
821.748718	188.500000
821.783691	188.900000
821.818726	189.900000
821.853638	191.700000
821.888672	189.700000
821.923706	189.000000
821.958618	189.100000
821.993652	188.100000
822.028687	194.200000
822.063599	196.300000
822.098633	192.200000
822.133667	186.800000
822.168579	190.100000
822.203613	191.900000
822.238586	187.300000
822.273560	190.900000
822.308533	189.000000
822.343567	188.100000
822.378479	190.800000
822.413452	188.800000
822.448425	188.000000
822.483398	192.300000
822.518372	194.200000
822.553345	187.300000
822.588318	197.500000
822.623291	188.700000
822.658203	189.300000
822.693237	189.300000
822.728210	188.800000
822.763123	191.900000
822.798096	186.800000
822.833069	189.900000
822.867981	189.800000
822.902954	191.200000
822.937927	193.700000
822.972900	198.200000
823.007874	185.600000
823.042725	193.600000
823.077698	198.600000
823.112671	187.400000
823.147583	189.900000
823.182556	193.200000
823.217529	194.400000
823.252441	189.600000
823.287415	199.500000
823.322388	193.400000
823.357239	190.300000
823.392212	195.000000
823.427185	196.000000
823.462097	188.600000
823.497009	192.800000
823.531982	189.400000
823.566895	191.500000
823.601807	188.200000
823.636719	189.600000
823.671631	193.400000
823.706604	189.000000
823.741455	194.600000
823.776428	185.200000
823.811340	194.900000
823.846252	198.200000
823.881165	197.100000
823.916138	191.300000
823.950989	198.800000
823.985901	188.400000
824.020813	192.500000
824.055725	188.800000
824.090637	187.300000
824.125610	193.300000
824.160461	194.200000
824.195374	190.700000
824.230225	194.500000
824.265198	185.300000
824.300110	188.600000
824.334961	199.200000
824.369873	184.200000
824.404785	193.600000
824.439636	194.600000
824.474548	185.800000
824.509460	184.900000
824.544312	196.000000
824.579224	193.500000
824.614075	188.500000
824.648987	189.600000
824.683899	191.600000
824.718811	188.200000
824.753662	196.300000
824.788574	194.300000
824.823364	193.600000
824.858276	188.400000
824.893188	196.200000
824.928040	193.800000
824.962952	192.700000
824.997803	193.500000
825.032654	193.100000
825.067566	193.900000
825.102417	190.500000
825.137268	189.800000
825.172119	192.700000
825.206970	189.600000
825.241882	192.600000
825.276733	188.400000
825.311646	191.500000
825.346436	187.100000
825.381348	188.700000
825.416138	191.300000
825.450989	189.900000
825.485901	185.200000
825.520691	188.900000
825.555542	186.500000
825.590454	193.000000
825.625244	186.100000
825.660095	199.000000
825.695007	194.900000
825.729797	192.500000
825.764648	187.600000
825.799438	191.600000
825.834290	192.900000
825.869202	186.900000
825.903992	192.800000
825.938843	190.800000
825.973694	188.200000
826.008484	199.900000
826.043335	188.500000
826.078186	185.800000
826.112976	196.700000
826.147827	195.300000
826.182678	200.800000
826.217468	186.100000
826.252319	198.200000
826.287109	187.900000
826.321899	196.800000
826.356750	189.400000
826.391541	188.000000
826.426392	195.000000
826.461182	191.900000
826.495972	187.400000
826.530823	186.200000
826.565613	191.200000
826.600403	188.100000
826.635254	193.400000
826.670044	186.300000
826.704834	185.000000
826.739685	187.700000
826.774475	193.700000
826.809265	192.400000
826.844055	189.500000
826.878906	199.100000
826.913635	191.000000
826.948425	194.900000
826.983215	193.200000
827.018005	196.100000
827.052856	189.800000
827.087585	195.600000
827.122375	185.600000
827.157227	190.700000
827.191956	201.900000
827.226746	188.400000
827.261536	193.000000
827.296265	187.700000
827.331116	189.900000
827.365906	193.600000
827.400635	189.000000
827.435425	184.900000
827.470215	195.600000
827.504944	191.800000
827.539734	195.200000
827.574463	189.300000
827.609253	198.200000
827.644043	191.300000
827.678772	196.700000
827.713562	189.600000
827.748352	191.800000
827.783081	189.300000
827.817871	195.400000
827.852600	187.800000
827.887329	193.600000
827.922119	184.500000
827.956848	195.600000
827.991638	201.300000
828.026367	194.000000
828.061157	191.000000
828.095886	191.400000
828.130615	203.100000
828.165344	185.900000
828.200073	190.600000
828.234863	191.400000
828.269592	190.400000
828.304321	194.700000
828.339111	192.000000
828.373779	190.700000
828.408569	193.600000
828.443298	195.800000
828.477966	190.600000
828.512756	192.400000
828.547424	188.000000
828.582214	191.400000
828.616943	189.600000
828.651672	191.500000
828.686340	195.300000
828.721130	188.400000
828.755798	191.700000
828.790527	193.100000
828.825256	193.800000
828.859924	192.500000
828.894714	195.800000
828.929443	199.000000
828.964111	189.400000
828.998840	193.800000
829.033569	189.500000
829.068237	191.400000
829.102966	190.000000
829.137634	192.400000
829.172363	193.800000
829.207092	191.500000
829.241821	188.200000
829.276489	186.600000
829.311157	192.800000
829.345825	189.700000
829.380554	196.600000
829.415283	188.000000
829.449951	187.600000
829.484619	196.500000
829.519348	197.200000
829.554016	191.300000
829.588745	193.100000
829.623413	185.400000
829.658081	200.400000
829.692749	187.300000
829.727417	196.600000
829.762146	191.900000
829.796814	188.700000
829.831482	190.800000
829.866150	193.300000
829.900879	189.300000
829.935486	193.300000
829.970154	188.900000
830.004883	201.100000
830.039490	192.600000
830.074219	189.600000
830.108887	192.300000
830.143494	189.600000
830.178223	188.100000
830.212891	190.700000
830.247498	190.300000
830.282166	197.900000
830.316772	196.300000
830.351501	189.200000
830.386169	190.200000
830.420776	189.800000
830.455444	193.200000
830.490112	189.100000
830.524719	184.500000
830.559387	192.800000
830.594055	194.100000
830.628662	190.700000
830.663330	192.000000
830.697998	195.700000
830.732605	190.800000
830.767273	192.000000
830.801941	191.000000
830.836487	198.300000
830.871155	193.000000
830.905762	192.400000
830.940430	187.300000
830.975098	187.600000
831.009644	192.500000
831.044312	196.900000
831.078979	195.100000
831.113525	184.900000
831.148193	193.200000
831.182861	189.600000
831.217407	196.500000
831.252075	203.300000
831.286621	190.600000
831.321289	188.600000
831.355896	191.300000
831.390564	197.100000
831.425110	192.300000
831.459778	197.000000
831.494324	201.600000
831.528931	192.900000
831.563599	196.400000
831.598145	186.600000
831.632751	189.900000
831.667419	190.300000
831.701965	193.100000
831.736572	192.500000
831.771179	187.400000
831.805786	190.000000
831.840393	196.500000
831.874939	185.500000
831.909546	194.200000
831.944153	185.400000
831.978760	190.400000
832.013306	189.000000
832.047913	195.500000
832.082458	199.700000
832.117065	188.100000
832.151672	200.300000
832.186218	191.800000
832.220825	195.200000
832.255432	185.300000
832.289978	191.900000
832.324585	192.000000
832.359192	193.400000
832.393677	190.300000
832.428284	193.700000
832.462830	189.500000
832.497437	191.900000
832.531982	193.500000
832.566589	190.900000
832.601135	192.100000
832.635681	186.700000
832.670227	191.500000
832.704773	198.300000
832.739380	192.500000
832.773926	192.700000
832.808472	188.700000
832.843079	192.700000
832.877563	194.300000
832.912170	190.200000
832.946716	187.100000
832.981201	196.000000
833.015808	194.400000
833.050293	190.500000
833.084839	188.900000
833.119446	189.800000
833.153992	194.200000
833.188477	190.900000
833.223022	189.200000
833.257568	193.600000
833.292114	197.300000
833.326660	200.600000
833.361145	189.900000
833.395691	185.600000
833.430237	192.200000
833.464783	193.900000
833.499329	188.800000
833.533875	187.800000
833.568359	195.700000
833.602905	194.700000
833.637390	196.800000
833.671875	188.400000
833.706421	189.600000
833.740906	188.300000
833.775452	184.500000
833.809998	188.900000
833.844482	198.100000
833.879028	190.200000
833.913513	189.800000
833.947998	192.900000
833.982544	189.900000
834.017090	188.900000
834.051514	184.200000
834.086060	193.900000
834.120544	190.300000
834.155029	191.900000
834.189575	190.100000
834.223999	194.400000
834.258545	193.000000
834.293030	191.800000
834.327515	191.000000
834.362000	188.600000
834.396545	194.600000
834.430969	190.500000
834.465454	193.500000
834.500000	186.800000
834.534424	192.000000
834.568970	183.300000
834.603455	184.200000
834.637878	189.400000
834.672363	191.600000
834.706909	191.600000
834.741333	190.800000
834.775818	186.700000
834.810242	188.100000
834.844727	191.200000
834.879211	190.800000
834.913635	192.400000
834.948181	190.500000
834.982666	192.800000
835.017090	188.700000
835.051575	194.000000
835.086060	189.000000
835.120483	194.900000
835.154907	193.000000
835.189331	191.800000
835.223816	193.600000
835.258301	188.000000
835.292786	188.100000
835.327209	195.500000
835.361694	188.100000
835.396057	190.400000
835.430542	193.100000
835.465027	192.800000
835.499390	187.200000
835.533875	218.400000
835.568359	189.300000
835.602722	187.300000
835.637207	192.500000
835.671692	188.300000
835.706055	206.200000
835.740540	192.800000
835.774902	194.200000
835.809387	192.200000
835.843811	186.300000
835.878235	195.700000
835.912659	187.600000
835.947083	189.300000
835.981506	191.400000
836.015930	185.400000
836.050354	196.000000
836.084778	197.300000
836.119202	194.800000
836.153625	205.100000
836.187988	188.100000
836.222473	189.600000
836.256897	193.300000
836.291260	191.100000
836.325684	196.000000
836.360046	190.200000
836.394470	191.800000
836.428894	196.500000
836.463318	189.800000
836.497681	194.200000
836.532104	197.200000
836.566467	192.100000
836.600891	191.500000
836.635315	195.200000
836.669678	194.700000
836.704102	193.600000
836.738525	194.300000
836.772888	184.900000
836.807251	189.700000
836.841675	193.500000
836.876038	188.000000
836.910461	187.900000
836.944763	195.000000
836.979187	187.600000
837.013611	196.400000
837.047974	185.900000
837.082336	201.000000
837.116699	193.500000
837.151062	190.800000
837.185486	186.700000
837.219849	189.500000
837.254211	194.500000
837.288574	190.600000
837.322937	186.600000
837.357300	182.400000
837.391663	200.600000
837.426086	195.200000
837.460388	192.100000
837.494751	194.500000
837.529114	188.700000
837.563477	196.600000
837.597839	193.700000
837.632141	190.200000
837.666565	189.600000
837.700928	194.400000
837.735229	193.800000
837.769592	194.200000
837.803955	195.200000
837.838257	188.700000
837.872620	190.200000
837.906982	196.300000
837.941284	191.300000
837.975647	193.300000
838.010010	197.400000
838.044312	189.600000
838.078674	190.700000
838.112976	191.400000
838.147339	195.200000
838.181702	191.200000
838.216003	198.300000
838.250366	192.700000
838.284668	194.900000
838.318970	186.200000
838.353333	191.800000
838.387634	190.600000
838.421936	193.400000
838.456299	192.600000
838.490601	197.300000
838.524902	193.700000
838.559265	195.900000
838.593567	194.900000
838.627869	188.200000
838.662170	194.000000
838.696472	186.400000
838.730774	189.800000
838.765137	193.100000
838.799377	180.900000
838.833740	192.700000
838.868042	196.300000
838.902283	185.300000
838.936646	197.200000
838.970947	191.300000
839.005188	197.300000
839.039551	186.100000
839.073792	197.000000
839.108093	190.600000
839.142395	199.400000
839.176697	185.200000
839.210937	193.600000
839.245300	200.200000
839.279541	187.500000
839.313843	189.800000
839.348145	195.300000
839.382385	194.600000
839.416687	197.100000
839.450989	194.200000
839.485229	192.000000
839.519531	187.800000
839.553833	198.000000
839.588013	191.600000
839.622314	194.600000
839.656555	193.300000
839.690857	192.100000
839.725159	187.300000
839.759460	192.100000
839.793640	189.500000
839.827942	191.200000
839.862183	188.800000
839.896423	192.900000
839.930725	201.700000
839.964966	198.300000
839.999207	196.600000
840.033508	197.100000
840.067688	189.800000
840.101990	198.100000
840.136230	190.700000
840.170471	198.000000
840.204712	188.200000
840.238953	189.600000
840.273193	191.700000
840.307434	194.700000
840.341736	190.000000
840.375916	185.900000
840.410217	188.600000
840.444397	196.000000
840.478638	193.100000
840.512878	195.800000
840.547119	192.200000
840.581360	194.500000
840.615601	199.000000
840.649780	200.900000
840.684021	192.100000
840.718262	197.800000
840.752441	199.300000
840.786682	190.700000
840.820862	193.600000
840.855103	198.200000
840.889343	193.500000
840.923584	196.300000
840.957764	194.600000
840.992004	192.300000
841.026184	205.000000
841.060425	191.000000
841.094666	190.200000
841.128845	195.000000
841.163025	192.000000
841.197266	194.200000
841.231445	192.200000
841.265686	194.300000
841.299866	189.400000
841.334045	198.100000
841.368286	190.900000
841.402405	197.900000
841.436646	194.000000
841.470825	190.200000
841.505005	191.100000
841.539185	188.600000
841.573425	190.100000
841.607544	193.200000
841.641785	190.100000
841.675964	189.300000
841.710144	192.600000
841.744324	190.700000
841.778503	190.400000
841.812683	189.700000
841.846863	196.800000
841.881042	197.900000
841.915222	189.600000
841.949402	204.800000
841.983521	185.900000
842.017700	191.600000
842.051880	193.000000
842.086060	194.800000
842.120239	191.600000
842.154419	190.700000
842.188538	192.000000
842.222717	191.700000
842.256897	198.700000
842.291016	192.500000
842.325195	193.300000
842.359375	203.200000
842.393494	197.700000
842.427673	193.300000
842.461853	194.300000
842.495911	198.900000
842.530090	192.300000
842.564209	191.800000
842.598389	192.500000
842.632568	193.300000
842.666626	195.800000
842.700806	192.100000
842.734985	189.200000
842.769043	194.600000
842.803223	190.700000
842.837402	192.700000
842.871460	189.400000
842.905640	200.900000
842.939697	189.800000
842.973877	193.100000
843.007996	196.700000
843.042175	200.000000
843.076233	189.300000
843.110413	194.200000
843.144470	199.600000
843.178589	195.500000
843.212769	190.500000
843.246826	194.600000
843.280945	190.400000
843.315125	191.000000
843.349182	191.000000
843.383301	195.700000
843.417419	202.800000
843.451538	192.200000
843.485657	191.900000
843.519714	192.100000
843.553833	194.900000
843.587952	191.100000
843.622070	190.900000
843.656128	194.300000
843.690247	191.400000
843.724304	192.200000
843.758423	194.600000
843.792542	190.600000
843.826599	193.300000
843.860718	190.200000
843.894836	187.900000
843.928894	193.600000
843.963013	193.700000
843.997070	190.500000
844.031128	188.200000
844.065247	196.400000
844.099304	196.500000
844.133362	195.000000
844.167480	195.300000
844.201599	196.800000
844.235596	193.700000
844.269714	194.500000
844.303711	193.200000
844.337830	186.200000
844.371948	194.700000
844.405945	192.600000
844.440063	189.500000
844.474121	204.300000
844.508118	190.600000
844.542236	193.200000
844.576294	191.100000
844.610352	188.300000
844.644409	191.500000
844.678406	185.500000
844.712524	195.000000
844.746582	197.700000
844.780640	190.800000
844.814636	191.700000
844.848755	201.400000
844.882751	190.900000
844.916809	195.600000
844.950867	195.300000
844.984863	199.200000
845.018921	191.500000
845.052979	189.400000
845.086975	194.600000
845.121033	187.600000
845.155090	189.400000
845.189087	197.000000
845.223145	191.500000
845.257141	192.600000
845.291199	196.200000
845.325256	198.000000
845.359253	194.300000
845.393250	203.300000
845.427307	192.000000
845.461304	193.200000
845.495361	192.000000
845.529358	200.000000
845.563354	192.700000
845.597412	188.700000
845.631409	199.400000
845.665405	199.800000
845.699463	195.600000
845.733459	191.100000
845.767456	201.700000
845.801453	191.600000
845.835449	196.600000
845.869446	196.000000
845.903503	194.300000
845.937439	189.400000
845.971497	198.200000
846.005493	187.500000
846.039429	195.700000
846.073486	201.200000
846.107483	190.000000
846.141418	192.000000
846.175476	192.300000
846.209473	198.600000
846.243408	189.500000
846.277405	193.900000
846.311401	189.400000
846.345337	193.400000
846.379395	195.900000
846.413330	192.000000
846.447327	201.600000
846.481323	191.100000
846.515259	189.700000
846.549255	192.900000
846.583252	195.000000
846.617187	190.900000
846.651184	193.600000
846.685120	191.900000
846.719055	199.500000
846.753052	196.600000
846.786987	195.300000
846.820984	188.000000
846.854980	198.500000
846.888916	190.200000
846.922852	193.200000
846.956848	198.500000
846.990723	190.000000
847.024719	194.100000
847.058716	191.900000
847.092590	198.500000
847.126587	194.700000
847.160522	189.900000
847.194458	196.700000
847.228455	188.800000
847.262390	189.700000
847.296265	191.600000
847.330261	196.900000
847.364136	190.000000
847.398132	192.000000
847.432068	192.700000
847.466003	191.900000
847.499939	191.900000
847.533875	195.800000
847.567749	190.900000
847.601746	191.000000
847.635681	194.000000
847.669556	185.800000
847.703491	197.200000
847.737427	204.000000
847.771301	189.000000
847.805237	195.700000
847.839233	192.800000
847.873108	192.800000
847.907043	192.500000
847.940918	201.000000
847.974854	194.100000
848.008789	198.300000
848.042664	192.200000
848.076538	196.100000
848.110474	191.300000
848.144348	194.500000
848.178284	186.800000
848.212219	194.400000
848.246094	191.300000
848.279968	194.000000
848.313904	195.400000
848.347778	194.800000
848.381653	191.400000
848.415588	190.800000
848.449463	190.300000
848.483337	195.200000
848.517212	198.700000
848.551086	192.500000
848.585022	188.700000
848.618835	201.400000
848.652771	191.400000
848.686646	189.400000
848.720520	200.200000
848.754395	191.300000
848.788330	197.100000
848.822144	196.200000
848.856018	191.100000
848.889954	199.900000
848.923767	191.200000
848.957642	190.400000
848.991577	194.800000
849.025391	191.600000
849.059265	192.700000
849.093079	189.000000
849.126953	189.000000
849.160828	196.600000
849.194641	193.600000
849.228577	189.600000
849.262451	191.600000
849.296265	189.700000
849.330139	190.700000
849.364014	192.000000
849.397827	194.700000
849.431702	191.200000
849.465515	198.200000
849.499329	186.100000
849.533203	190.400000
849.567078	185.700000
849.600891	194.800000
849.634766	191.700000
849.668518	195.900000
849.702393	192.400000
849.736267	187.500000
849.770020	199.300000
849.803894	195.900000
849.837769	194.200000
849.871521	193.100000
849.905396	197.000000
849.939270	189.800000
849.973022	192.100000
850.006897	195.300000
850.040710	196.400000
850.074524	196.200000
850.108337	192.600000
850.142151	197.000000
850.175964	197.700000
850.209778	191.600000
850.243530	185.700000
850.277405	196.200000
850.311218	193.500000
850.344971	190.000000
850.378845	199.100000
850.412659	190.000000
850.446411	195.100000
850.480225	192.600000
850.514038	197.400000
850.547791	195.500000
850.581665	194.100000
850.615417	189.300000
850.649231	194.800000
850.683044	189.400000
850.716858	193.300000
850.750610	192.600000
850.784424	196.900000
850.818176	189.900000
850.851929	192.900000
850.885742	189.500000
850.919495	192.600000
850.953308	198.600000
850.987122	199.800000
851.020874	188.500000
851.054626	188.500000
851.088440	195.400000
851.122192	196.700000
851.156006	194.000000
851.189697	192.200000
851.223511	188.200000
851.257263	196.900000
851.291077	195.500000
851.324829	191.800000
851.358582	191.500000
851.392334	193.100000
851.426086	191.500000
851.459900	199.500000
851.493591	194.300000
851.527344	192.000000
851.561157	191.400000
851.594849	193.900000
851.628662	193.600000
851.662415	199.000000
851.696106	195.100000
851.729858	197.300000
851.763611	189.800000
851.797363	193.100000
851.831116	190.300000
851.864868	194.600000
851.898560	198.500000
851.932312	191.200000
851.966064	195.800000
851.999817	191.400000
852.033569	192.800000
852.067261	197.100000
852.101013	190.100000
852.134766	191.800000
852.168457	185.800000
852.202209	197.900000
852.235901	189.800000
852.269592	194.100000
852.303345	200.000000
852.337036	195.500000
852.370789	192.800000
852.404541	194.900000
852.438171	190.000000
852.471924	191.900000
852.505676	188.000000
852.539307	194.600000
852.573059	191.100000
852.606812	191.400000
852.640442	190.900000
852.674194	196.300000
852.707886	200.400000
852.741577	198.700000
852.775269	188.100000
852.809021	193.200000
852.842651	194.500000
852.876404	198.600000
852.910034	194.000000
852.943787	197.700000
852.977478	196.000000
853.011108	191.100000
853.044861	188.900000
853.078552	200.000000
853.112183	192.800000
853.145874	194.500000
853.179626	186.100000
853.213257	194.700000
853.246948	189.700000
853.280640	200.900000
853.314270	191.900000
853.347961	199.600000
853.381653	195.000000
853.415283	198.600000
853.448975	190.500000
853.482605	194.400000
853.516296	192.200000
853.549988	189.100000
853.583618	193.900000
853.617310	194.700000
853.651001	194.000000
853.684631	188.700000
853.718323	191.200000
853.751953	198.800000
853.785583	186.700000
853.819275	196.100000
853.852966	195.700000
853.886536	187.900000
853.920227	188.700000
853.953918	196.600000
853.987488	191.500000
854.021179	196.400000
854.054749	198.800000
854.088440	195.700000
854.122131	190.400000
854.155701	194.100000
854.189331	191.000000
854.223022	194.900000
854.256592	195.500000
854.290283	190.100000
854.323914	196.800000
854.357483	193.200000
854.391174	195.200000
854.424744	198.300000
854.458374	194.900000
854.492065	201.400000
854.525696	193.000000
854.559265	196.900000
854.592896	204.300000
854.626465	192.000000
854.660095	193.100000
854.693787	194.800000
854.727356	193.600000
854.760986	196.000000
854.794617	197.000000
854.828186	191.600000
854.861816	196.500000
854.895447	193.300000
854.929016	194.400000
854.962585	193.700000
854.996155	201.000000
855.029785	193.900000
855.063416	193.500000
855.097046	197.000000
855.130615	190.300000
855.164185	198.400000
855.197754	193.900000
855.231384	195.100000
855.264954	192.300000
855.298523	196.700000
855.332153	193.200000
855.365723	198.200000
855.399292	190.200000
855.432922	191.400000
855.466492	194.400000
855.500061	189.700000
855.533630	189.500000
855.567200	196.100000
855.600769	196.300000
855.634338	197.300000
855.667969	193.300000
855.701477	190.000000
855.735046	189.500000
855.768616	187.100000
855.802185	193.700000
855.835754	205.600000
855.869324	185.200000
855.902893	193.800000
855.936401	197.100000
855.969971	194.600000
856.003540	187.400000
856.037109	196.500000
856.070618	191.700000
856.104187	190.400000
856.137695	189.200000
856.171265	186.600000
856.204834	194.000000
856.238403	197.300000
856.271912	189.600000
856.305481	195.800000
856.338989	187.600000
856.372559	195.100000
856.406128	195.900000
856.439636	197.200000
856.473145	190.200000
856.506653	199.400000
856.540222	193.400000
856.573792	198.800000
856.607300	195.800000
856.640808	188.700000
856.674377	193.100000
856.707825	226.100000
856.741394	198.200000
856.774902	189.300000
856.808472	188.100000
856.841980	195.800000
856.875488	198.900000
856.908936	187.300000
856.942505	192.700000
856.976013	191.600000
857.009521	189.300000
857.043030	192.000000
857.076477	192.300000
857.110046	196.400000
857.143555	194.700000
857.177063	194.900000
857.210571	193.100000
857.244080	187.600000
857.277527	196.100000
857.311035	190.900000
857.344543	198.900000
857.378052	191.600000
857.411499	200.600000
857.445068	199.000000
857.478516	193.000000
857.512024	188.400000
857.545532	192.600000
857.578979	192.800000
857.612427	194.300000
857.645874	190.100000
857.679382	194.500000
857.712891	196.000000
857.746399	193.000000
857.779846	197.000000
857.813354	197.700000
857.846741	192.300000
857.880249	189.000000
857.913757	192.900000
857.947266	194.200000
857.980652	196.300000
858.014160	192.500000
858.047546	192.200000
858.081055	192.200000
858.114563	203.400000
858.147949	188.600000
858.181458	195.200000
858.214844	191.700000
858.248352	187.200000
858.281799	196.200000
858.315308	203.700000
858.348694	195.600000
858.382141	199.800000
858.415588	196.400000
858.449036	197.100000
858.482483	193.400000
858.515930	191.900000
858.549377	191.800000
858.582825	198.900000
858.616211	194.200000
858.649658	195.200000
858.683105	189.700000
858.716553	191.600000
858.750000	186.900000
858.783386	191.900000
858.816833	186.900000
858.850281	194.500000
858.883728	192.900000
858.917114	195.500000
858.950562	198.700000
858.983948	200.100000
859.017395	197.200000
859.050781	192.900000
859.084167	189.200000
859.117615	189.700000
859.151062	195.000000
859.184448	191.200000
859.217834	191.700000
859.251282	191.000000
859.284668	188.800000
859.318054	186.100000
859.351440	191.600000
859.384888	198.600000
859.418274	186.700000
859.451721	186.600000
859.485046	194.200000
859.518494	195.100000
859.551819	190.600000
859.585266	193.900000
859.618652	198.500000
859.652039	188.400000
859.685425	188.500000
859.718811	188.000000
859.752197	185.000000
859.785583	197.300000
859.819031	199.100000
859.852356	195.400000
859.885742	189.400000
859.919067	191.500000
859.952454	191.700000
859.985901	197.400000
860.019287	192.800000
860.052612	0.000000
860.085999	0.000000
860.119324	0.000000
860.152710	0.000000
860.186096	0.000000
860.219421	0.000000
860.252808	0.000000
860.286133	0.000000
860.319519	0.000000
860.352905	0.000000
860.386292	0.000000
860.419617	0.000000
860.452942	0.000000
860.486267	0.000000
860.519653	0.000000
860.553040	0.000000
860.586365	0.000000
860.619690	0.000000
860.653076	0.000000
860.686340	0.000000
860.719727	0.000000
860.753113	0.000000
860.786377	0.000000
860.819763	0.000000
860.853027	0.000000
860.886414	0.000000
860.919739	0.000000
860.953125	0.000000
860.986389	0.000000
861.019714	0.000000
861.053040	0.000000
861.086365	0.000000
861.119690	0.000000
861.153076	0.000000
861.186340	0.000000
861.219666	0.000000
861.252930	0.000000
861.286316	0.000000
861.319641	0.000000
861.352905	0.000000
861.386230	0.000000
861.419495	0.000000
861.452820	0.000000
861.486145	0.000000
861.519470	0.000000
861.552734	0.000000
861.586060	0.000000
861.619324	0.000000
861.652649	0.000000
861.685974	0.000000
861.719238	0.000000
861.752563	0.000000
861.785828	0.000000
861.819092	0.000000
861.852417	0.000000
861.885742	0.000000
861.918945	0.000000
861.952271	0.000000
861.985535	0.000000
862.018799	0.000000
862.052124	0.000000
862.085449	0.000000
862.118652	0.000000
862.151978	0.000000
862.185181	0.000000
862.218506	0.000000
862.251770	0.000000
862.285034	0.000000
862.318298	0.000000
862.351562	0.000000
862.384827	0.000000
862.418091	0.000000
862.451355	0.000000
862.484619	0.000000
862.517883	0.000000
862.551086	0.000000
862.584351	0.000000
862.617676	0.000000
862.650940	0.000000
862.684143	0.000000
862.717407	0.000000
862.750610	0.000000
862.783875	0.000000
862.817139	0.000000
862.850342	0.000000
862.883606	0.000000
862.916870	0.000000
862.950073	0.000000
862.983337	0.000000
863.016602	0.000000
863.049805	0.000000
863.083069	0.000000
863.116211	0.000000
863.149475	0.000000
863.182739	0.000000
863.216003	0.000000
863.249146	0.000000
863.282410	0.000000
863.315613	0.000000
863.348816	0.000000
863.382080	0.000000
863.415222	0.000000
863.448486	0.000000
863.481689	0.000000
863.514893	0.000000
863.548157	0.000000
863.581360	0.000000
863.614502	0.000000
863.647766	0.000000
863.680908	0.000000
863.714172	0.000000
863.747375	0.000000
863.780579	0.000000
863.813721	0.000000
863.846985	0.000000
863.880127	0.000000
863.913330	0.000000
863.946533	0.000000
863.979675	0.000000
864.012939	0.000000
