Model Number: SPM-001-M   
Serial Number: 10090201
Firmware Version: 004.17.6
Exposure Time: 300000.000000us
Data Taken on: 21-01-2021 14:00:36.795
Wavelength	Amplitude
733.770752	0.000000
733.808716	0.000000
733.846619	0.000000
733.884583	0.000000
733.922546	0.000000
733.960449	0.000000
733.998413	0.000000
734.036377	0.000000
734.074219	0.000000
734.112183	0.000000
734.150085	0.000000
734.188049	0.000000
734.226013	0.000000
734.263916	0.000000
734.301819	0.000000
734.339783	0.000000
734.377686	0.000000
734.415588	0.000000
734.453552	0.000000
734.491455	0.000000
734.529419	0.000000
734.567322	0.000000
734.605225	0.000000
734.643127	0.000000
734.681091	0.000000
734.718994	0.000000
734.756897	0.000000
734.794800	0.000000
734.832703	0.000000
734.870667	0.000000
734.908508	0.000000
734.946472	0.000000
734.984375	0.000000
735.022278	0.000000
735.060181	0.000000
735.098083	0.000000
735.135986	0.000000
735.173889	0.000000
735.211792	0.000000
735.249695	0.000000
735.287598	0.000000
735.325439	0.000000
735.363403	0.000000
735.401306	0.000000
735.439148	0.000000
735.477051	0.000000
735.515015	0.000000
735.552856	0.000000
735.590759	0.000000
735.628662	0.000000
735.666504	0.000000
735.704407	0.000000
735.742310	0.000000
735.780212	0.000000
735.818115	0.000000
735.856018	0.000000
735.893860	0.000000
735.931763	0.000000
735.969604	0.000000
736.007507	0.000000
736.045410	0.000000
736.083252	0.000000
736.121094	0.000000
736.158997	0.000000
736.196838	0.000000
736.234741	0.000000
736.272644	0.000000
736.310486	0.000000
736.348389	0.000000
736.386230	0.000000
736.424072	0.000000
736.461975	0.000000
736.499878	0.000000
736.537720	0.000000
736.575562	0.000000
736.613403	0.000000
736.651306	0.000000
736.689148	0.000000
736.726990	0.000000
736.764893	0.000000
736.802734	0.000000
736.840576	0.000000
736.878418	0.000000
736.916321	0.000000
736.954102	0.000000
736.992004	0.000000
737.029846	0.000000
737.067688	0.000000
737.105530	0.000000
737.143372	0.000000
737.181213	0.000000
737.219116	0.000000
737.256897	0.000000
737.294739	0.000000
737.332642	0.000000
737.370422	0.000000
737.408325	0.000000
737.446167	0.000000
737.483948	0.000000
737.521790	0.000000
737.559692	0.000000
737.597473	0.000000
737.635315	0.000000
737.673157	0.000000
737.710999	0.000000
737.748840	0.000000
737.786621	0.000000
737.824463	0.000000
737.862305	0.000000
737.900085	0.000000
737.937927	0.000000
737.975769	0.000000
738.013550	0.000000
738.051392	0.000000
738.089233	0.000000
738.127014	0.000000
738.164856	0.000000
738.202698	0.000000
738.240479	0.000000
738.278320	0.000000
738.316162	0.000000
738.353943	0.000000
738.391785	0.000000
738.429565	0.000000
738.467407	0.000000
738.505188	0.000000
738.542969	0.000000
738.580811	0.000000
738.618652	0.000000
738.656372	0.000000
738.694214	0.000000
738.732056	0.000000
738.769836	0.000000
738.807617	0.000000
738.845459	0.000000
738.883240	0.000000
738.921021	0.000000
738.958862	0.000000
738.996582	0.000000
739.034424	0.000000
739.072205	0.000000
739.109985	0.000000
739.147827	0.000000
739.185547	0.000000
739.223389	0.000000
739.261169	0.000000
739.298889	0.000000
739.336731	0.000000
739.374512	0.000000
739.412292	0.000000
739.450073	0.000000
739.487854	0.000000
739.525635	0.000000
739.563416	0.000000
739.601135	0.000000
739.638977	0.000000
739.676758	0.000000
739.714478	0.000000
739.752258	0.000000
739.790100	0.000000
739.827820	0.000000
739.865601	0.000000
739.903381	0.000000
739.941101	0.000000
739.978882	193.600000
740.016724	190.400000
740.054443	194.600000
740.092224	189.200000
740.130005	189.300000
740.167725	187.400000
740.205505	188.700000
740.243225	195.700000
740.281006	190.500000
740.318787	187.300000
740.356506	195.000000
740.394287	195.000000
740.432068	187.200000
740.469727	185.300000
740.507507	192.900000
740.545288	191.200000
740.583008	192.400000
740.620789	190.500000
740.658569	185.000000
740.696228	190.800000
740.734009	193.900000
740.771790	181.800000
740.809509	193.200000
740.847229	187.700000
740.884949	187.200000
740.922729	185.900000
740.960449	187.600000
740.998169	188.300000
741.035950	188.000000
741.073669	191.900000
741.111389	191.000000
741.149170	198.600000
741.186890	197.400000
741.224609	194.600000
741.262329	192.200000
741.300110	198.300000
741.337769	188.200000
741.375549	186.100000
741.413208	192.000000
741.450989	188.900000
741.488708	189.800000
741.526367	189.100000
741.564148	193.700000
741.601868	193.400000
741.639526	191.200000
741.677307	192.900000
741.715027	192.400000
741.752686	187.900000
741.790466	195.200000
741.828186	193.300000
741.865845	187.400000
741.903564	184.800000
741.941345	190.200000
741.979004	187.900000
742.016724	194.700000
742.054382	189.900000
742.092102	193.400000
742.129822	185.000000
742.167480	187.700000
742.205200	188.200000
742.242920	192.400000
742.280640	192.400000
742.318359	186.700000
742.356079	188.900000
742.393738	193.800000
742.431396	188.900000
742.469116	194.100000
742.506775	182.600000
742.544495	191.900000
742.582214	193.800000
742.619873	189.400000
742.657593	195.600000
742.695251	195.800000
742.732971	189.600000
742.770630	191.300000
742.808289	190.400000
742.846008	190.200000
742.883728	192.900000
742.921326	192.800000
742.959045	189.200000
742.996765	189.700000
743.034424	190.900000
743.072083	188.600000
743.109802	191.800000
743.147400	187.300000
743.185120	191.900000
743.222839	191.400000
743.260437	196.200000
743.298157	192.000000
743.335754	185.600000
743.373474	190.500000
743.411133	186.100000
743.448792	191.500000
743.486450	191.800000
743.524170	185.300000
743.561768	191.800000
743.599487	194.900000
743.637146	198.900000
743.674744	190.000000
743.712463	188.500000
743.750122	190.400000
743.787720	190.100000
743.825439	187.800000
743.863037	189.900000
743.900696	189.100000
743.938416	216.400000
743.976013	190.900000
744.013672	197.500000
744.051331	194.700000
744.088928	196.800000
744.126587	194.500000
744.164307	193.200000
744.201904	187.100000
744.239563	192.000000
744.277222	193.300000
744.314819	189.800000
744.352478	195.200000
744.390137	193.900000
744.427734	192.800000
744.465393	189.500000
744.502991	187.900000
744.540649	193.200000
744.578308	191.400000
744.615906	187.300000
744.653564	184.600000
744.691223	193.200000
744.728821	185.400000
744.766418	191.400000
744.804077	192.300000
744.841675	189.900000
744.879333	186.500000
744.916992	190.600000
744.954529	189.800000
744.992187	194.300000
745.029785	190.500000
745.067444	187.900000
745.105042	191.800000
745.142639	191.300000
745.180298	200.200000
745.217896	190.000000
745.255493	190.300000
745.293152	192.900000
745.330750	195.200000
745.368347	194.900000
745.405945	194.200000
745.443604	191.800000
745.481140	193.600000
745.518799	189.700000
745.556396	193.800000
745.593994	192.600000
745.631592	191.100000
745.669189	185.900000
745.706787	190.900000
745.744385	187.800000
745.781982	193.700000
745.819580	188.600000
745.857178	190.200000
745.894775	190.500000
745.932373	191.900000
745.969971	192.400000
746.007568	185.500000
746.045166	196.900000
746.082764	197.300000
746.120300	192.200000
746.157898	193.100000
746.195557	191.900000
746.233093	188.000000
746.270691	193.700000
746.308228	193.700000
746.345825	195.800000
746.383423	193.900000
746.420959	188.600000
746.458557	189.300000
746.496155	189.600000
746.533691	192.300000
746.571289	186.700000
746.608887	191.500000
746.646423	192.500000
746.684021	192.200000
746.721619	188.800000
746.759155	193.400000
746.796753	184.500000
746.834351	185.800000
746.871826	189.400000
746.909424	194.700000
746.946960	190.400000
746.984558	189.100000
747.022156	187.400000
747.059631	196.200000
747.097229	193.900000
747.134827	188.300000
747.172363	195.100000
747.209900	192.300000
747.247498	186.000000
747.285034	195.300000
747.322571	197.800000
747.360168	188.500000
747.397644	185.200000
747.435242	193.000000
747.472778	195.200000
747.510315	188.400000
747.547913	189.800000
747.585388	193.800000
747.622925	190.100000
747.660522	185.100000
747.697998	189.100000
747.735596	191.100000
747.773132	190.100000
747.810669	191.800000
747.848206	194.100000
747.885742	188.000000
747.923279	187.700000
747.960815	192.200000
747.998352	192.300000
748.035889	196.200000
748.073425	193.200000
748.110901	189.900000
748.148437	187.600000
748.185974	192.400000
748.223511	197.700000
748.261047	193.600000
748.298584	192.200000
748.336060	191.600000
748.373596	192.000000
748.411133	216.500000
748.448608	188.500000
748.486145	192.600000
748.523682	194.200000
748.561218	197.100000
748.598755	190.400000
748.636292	193.100000
748.673706	188.600000
748.711243	196.100000
748.748718	191.800000
748.786255	191.000000
748.823792	190.300000
748.861267	188.000000
748.898804	192.700000
748.936340	192.700000
748.973816	187.400000
749.011292	196.600000
749.048828	191.300000
749.086304	191.700000
749.123840	198.500000
749.161316	189.000000
749.198792	197.800000
749.236328	194.300000
749.273743	190.000000
749.311279	190.800000
749.348816	193.100000
749.386230	190.300000
749.423767	183.100000
749.461304	195.000000
749.498718	192.000000
749.536255	196.300000
749.573730	200.300000
749.611206	197.400000
749.648682	190.300000
749.686218	190.200000
749.723633	193.500000
749.761169	189.700000
749.798645	189.200000
749.836060	188.700000
749.873596	188.100000
749.911011	191.800000
749.948547	195.000000
749.986023	191.000000
750.023437	190.300000
750.060913	186.800000
750.098450	186.100000
750.135864	189.700000
750.173340	190.800000
750.210815	195.400000
750.248291	187.400000
750.285767	190.300000
750.323242	195.000000
750.360657	192.300000
750.398132	187.300000
750.435608	192.800000
750.473022	188.100000
750.510498	187.300000
750.547974	186.700000
750.585449	188.900000
750.622925	183.400000
750.660339	200.200000
750.697815	191.800000
750.735291	190.500000
750.772644	190.200000
750.810120	192.200000
750.847595	194.100000
750.885010	187.200000
750.922485	197.300000
750.959961	190.600000
750.997375	196.600000
751.034851	195.100000
751.072266	195.300000
751.109680	186.600000
751.147156	197.400000
751.184570	193.000000
751.221985	190.700000
751.259460	186.600000
751.296875	192.300000
751.334290	189.900000
751.371765	193.400000
751.409180	193.100000
751.446594	194.500000
751.484070	192.600000
751.521423	190.700000
751.558899	191.000000
751.596375	198.400000
751.633728	195.700000
751.671204	198.100000
751.708618	188.600000
751.746033	191.600000
751.783447	186.300000
751.820801	189.100000
751.858276	192.800000
751.895691	188.500000
751.933105	190.500000
751.970520	186.000000
752.007935	189.800000
752.045349	194.000000
752.082764	190.900000
752.120178	189.100000
752.157532	188.500000
752.195007	189.800000
752.232422	192.200000
752.269775	194.200000
752.307190	194.500000
752.344543	187.400000
752.382019	191.200000
752.419434	189.500000
752.456787	192.700000
752.494202	194.900000
752.531616	192.800000
752.568970	193.700000
752.606384	193.400000
752.643799	192.800000
752.681152	197.100000
752.718567	193.800000
752.755981	185.700000
752.793335	193.300000
752.830750	185.200000
752.868164	194.500000
752.905518	187.000000
752.942932	195.000000
752.980225	186.700000
753.017639	193.700000
753.055054	194.600000
753.092407	192.700000
753.129822	194.900000
753.167175	198.300000
753.204529	190.300000
753.241943	189.400000
753.279358	186.600000
753.316650	191.800000
753.354065	193.100000
753.391479	195.700000
753.428772	196.500000
753.466187	192.000000
753.503479	187.200000
753.540894	190.500000
753.578308	185.600000
753.615601	186.700000
753.653015	190.700000
753.690369	190.000000
753.727722	187.400000
753.765076	185.700000
753.802490	187.600000
753.839783	186.300000
753.877136	188.900000
753.914551	200.500000
753.951843	189.100000
753.989258	194.300000
754.026611	191.100000
754.063904	193.400000
754.101257	189.200000
754.138611	186.500000
754.175964	192.500000
754.213318	199.900000
754.250610	185.900000
754.288025	189.900000
754.325378	186.600000
754.362671	193.700000
754.400024	192.000000
754.437378	198.700000
754.474670	197.600000
754.512085	188.600000
754.549438	191.400000
754.586731	187.600000
754.624084	190.600000
754.661438	186.000000
754.698730	196.200000
754.736084	189.400000
754.773376	189.500000
754.810730	191.400000
754.848083	190.400000
754.885315	194.300000
754.922668	186.000000
754.960022	188.200000
754.997314	194.400000
755.034668	191.100000
755.072021	192.300000
755.109253	188.900000
755.146606	194.900000
755.183960	189.600000
755.221252	197.500000
755.258545	193.900000
755.295898	196.100000
755.333191	194.900000
755.370544	193.500000
755.407776	191.900000
755.445129	193.400000
755.482422	194.700000
755.519714	190.300000
755.557068	186.600000
755.594360	185.200000
755.631653	194.800000
755.668945	196.900000
755.706299	193.700000
755.743530	201.300000
755.780884	199.100000
755.818176	195.500000
755.855408	195.600000
755.892761	194.700000
755.930054	192.700000
755.967346	193.800000
756.004639	193.500000
756.041870	191.700000
756.079224	195.600000
756.116516	189.600000
756.153748	195.300000
756.191040	199.700000
756.228394	193.900000
756.265625	188.800000
756.302917	194.000000
756.340210	188.400000
756.377441	196.800000
756.414795	196.000000
756.452087	192.500000
756.489319	187.500000
756.526611	195.900000
756.563843	192.500000
756.601135	199.800000
756.638428	200.500000
756.675659	191.700000
756.712952	195.500000
756.750244	196.600000
756.787476	194.800000
756.824768	198.500000
756.862061	192.900000
756.899292	240.100000
756.936584	196.000000
756.973816	203.300000
757.011047	204.000000
757.048340	194.600000
757.085632	194.800000
757.122864	208.300000
757.160156	193.000000
757.197327	196.800000
757.234619	199.300000
757.271912	194.500000
757.309082	198.200000
757.346375	192.100000
757.383667	198.900000
757.420837	195.900000
757.458130	195.800000
757.495422	193.700000
757.532593	197.100000
757.569885	190.800000
757.607117	191.900000
757.644348	196.400000
757.681580	206.600000
757.718811	187.200000
757.756042	196.100000
757.793335	192.700000
757.830505	200.300000
757.867798	193.500000
757.905029	193.000000
757.942200	195.400000
757.979492	193.900000
758.016724	194.600000
758.053894	195.100000
758.091187	209.500000
758.128418	195.900000
758.165588	193.900000
758.202820	205.700000
758.240112	196.900000
758.277283	204.100000
758.314514	197.500000
758.351685	194.900000
758.388916	202.600000
758.426147	202.600000
758.463379	204.300000
758.500610	200.400000
758.537842	197.500000
758.575012	202.900000
758.612244	194.800000
758.649475	209.600000
758.686646	193.400000
758.723877	203.600000
758.761108	205.000000
758.798279	197.400000
758.835510	199.800000
758.872742	203.800000
758.909851	199.900000
758.947083	201.900000
758.984253	200.900000
759.021484	202.300000
759.058716	201.200000
759.095886	202.400000
759.133057	198.300000
759.170288	202.000000
759.207458	198.500000
759.244690	208.600000
759.281860	205.100000
759.319031	200.500000
759.356262	198.000000
759.393433	197.600000
759.430603	200.500000
759.467773	198.600000
759.505005	204.600000
759.542175	205.700000
759.579346	200.500000
759.616516	200.200000
759.653687	204.300000
759.690918	200.000000
759.728027	200.900000
759.765259	202.600000
759.802429	204.600000
759.839539	203.300000
759.876770	207.200000
759.913940	210.500000
759.951111	202.500000
759.988281	203.800000
760.025452	201.300000
760.062561	200.200000
760.099792	212.000000
760.136963	205.000000
760.174072	202.800000
760.211243	199.700000
760.248413	201.000000
760.285583	200.500000
760.322754	213.400000
760.359863	208.400000
760.397034	211.000000
760.434204	205.600000
760.471375	205.300000
760.508545	202.800000
760.545715	204.400000
760.582825	200.900000
760.619995	207.700000
760.657166	201.000000
760.694275	210.000000
760.731445	205.800000
760.768555	206.800000
760.805664	208.600000
760.842834	207.100000
760.879944	208.300000
760.917114	207.100000
760.954285	204.900000
760.991394	201.500000
761.028564	210.100000
761.065674	206.600000
761.102783	203.800000
761.139954	211.000000
761.177124	209.800000
761.214172	210.600000
761.251343	205.100000
761.288452	206.400000
761.325562	211.500000
761.362732	203.800000
761.399841	207.500000
761.436951	207.900000
761.474121	203.900000
761.511169	206.900000
761.548340	212.300000
761.585449	210.900000
761.622559	212.600000
761.659668	210.600000
761.696838	214.300000
761.733887	211.800000
761.771057	209.400000
761.808167	209.200000
761.845276	214.500000
761.882385	219.600000
761.919434	211.500000
761.956604	225.300000
761.993713	208.500000
762.030762	216.500000
762.067871	209.600000
762.105042	211.100000
762.142090	217.400000
762.179199	212.100000
762.216309	214.900000
762.253418	222.000000
762.290527	219.000000
762.327637	217.500000
762.364685	209.000000
762.401794	216.400000
762.438904	214.700000
762.475952	209.500000
762.513062	210.600000
762.550110	210.100000
762.587219	220.700000
762.624329	219.500000
762.661377	216.400000
762.698486	214.900000
762.735596	213.900000
762.772644	211.200000
762.809753	209.200000
762.846863	213.700000
762.883911	217.600000
762.921021	217.300000
762.958069	214.400000
762.995117	221.100000
763.032227	218.600000
763.069336	215.400000
763.106323	213.200000
763.143433	214.000000
763.180481	218.300000
763.217590	218.600000
763.254639	215.000000
763.291687	215.800000
763.328735	225.000000
763.365845	218.800000
763.402893	216.800000
763.439941	218.700000
763.477051	222.000000
763.514038	222.900000
763.551147	218.600000
763.588196	219.800000
763.625244	219.400000
763.662292	226.500000
763.699402	227.700000
763.736389	222.100000
763.773499	229.500000
763.810486	224.600000
763.847534	221.700000
763.884644	223.100000
763.921631	222.100000
763.958679	229.500000
763.995728	223.800000
764.032776	228.300000
764.069824	219.700000
764.106873	227.500000
764.143860	232.400000
764.180969	222.800000
764.218018	231.600000
764.255005	223.400000
764.292053	226.400000
764.329102	233.400000
764.366089	233.200000
764.403137	230.400000
764.440125	227.000000
764.477173	228.400000
764.514221	230.700000
764.551208	229.800000
764.588257	225.200000
764.625305	232.500000
764.662292	237.400000
764.699341	238.100000
764.736389	232.500000
764.773376	243.100000
764.810425	235.600000
764.847473	239.700000
764.884399	237.500000
764.921448	243.900000
764.958435	242.900000
764.995483	234.100000
765.032532	245.800000
765.069458	234.800000
765.106506	238.000000
765.143555	235.800000
765.180481	238.100000
765.217529	246.500000
765.254578	235.400000
765.291504	242.200000
765.328552	240.100000
765.365540	237.200000
765.402527	247.400000
765.439575	238.500000
765.476501	235.800000
765.513550	237.100000
765.550537	240.400000
765.587463	246.600000
765.624512	238.000000
765.661499	234.300000
765.698486	245.900000
765.735474	239.100000
765.772461	242.200000
765.809448	247.600000
765.846436	245.700000
765.883423	250.100000
765.920410	244.700000
765.957397	240.600000
765.994385	245.700000
766.031311	252.800000
766.068359	247.100000
766.105286	247.700000
766.142273	253.400000
766.179260	249.900000
766.216187	246.300000
766.253174	242.600000
766.290161	247.000000
766.327148	253.100000
766.364136	251.800000
766.401123	263.500000
766.438049	247.500000
766.475037	257.600000
766.512024	255.600000
766.548950	266.500000
766.585937	260.700000
766.622864	256.400000
766.659790	256.200000
766.696777	248.200000
766.733704	260.300000
766.770691	253.500000
766.807678	263.300000
766.844604	258.800000
766.881531	259.000000
766.918518	261.700000
766.955444	262.900000
766.992432	258.900000
767.029358	262.600000
767.066284	263.800000
767.103271	262.400000
767.140198	293.500000
767.177124	272.400000
767.214050	264.800000
767.251038	265.600000
767.287964	261.300000
767.324890	260.800000
767.361816	265.600000
767.398743	268.200000
767.435730	263.600000
767.472595	266.600000
767.509583	269.500000
767.546509	263.900000
767.583374	265.500000
767.620361	261.600000
767.657288	266.400000
767.694214	266.800000
767.731140	265.200000
767.768066	268.300000
767.804993	270.300000
767.841919	262.400000
767.878845	268.100000
767.915710	273.800000
767.952698	268.600000
767.989563	270.800000
768.026489	273.000000
768.063416	268.000000
768.100281	267.300000
768.137207	276.800000
768.174133	274.600000
768.211060	275.100000
768.247986	273.200000
768.284912	271.200000
768.321777	271.400000
768.358704	269.500000
768.395630	271.500000
768.432495	269.700000
768.469421	274.700000
768.506348	275.100000
768.543152	282.700000
768.580078	278.700000
768.616943	279.600000
768.653870	281.800000
768.690796	282.200000
768.727661	278.600000
768.764587	282.000000
768.801453	275.800000
768.838318	283.900000
768.875244	282.400000
768.912109	286.900000
768.948975	280.900000
768.985901	283.700000
769.022766	282.400000
769.059631	288.700000
769.096558	282.500000
769.133362	283.200000
769.170288	284.900000
769.207214	286.100000
769.244019	289.100000
769.280945	289.200000
769.317810	296.500000
769.354675	291.000000
769.391541	297.100000
769.428406	294.700000
769.465271	302.100000
769.502136	293.400000
769.539062	296.600000
769.575867	294.100000
769.612732	295.500000
769.649597	298.600000
769.686462	301.700000
769.723328	298.300000
769.760193	298.000000
769.797058	298.400000
769.833923	305.500000
769.870728	302.400000
769.907593	304.400000
769.944519	305.600000
769.981323	307.900000
770.018188	306.500000
770.055054	305.300000
770.091858	306.700000
770.128723	316.700000
770.165588	318.100000
770.202393	308.400000
770.239258	315.800000
770.276062	314.400000
770.312927	314.000000
770.349792	319.900000
770.386597	316.800000
770.423462	326.600000
770.460327	330.300000
770.497131	319.800000
770.533997	315.000000
770.570862	325.600000
770.607605	326.200000
770.644470	329.300000
770.681335	328.400000
770.718140	328.100000
770.754944	324.300000
770.791809	325.300000
770.828613	325.200000
770.865479	327.600000
770.902222	332.800000
770.939087	330.800000
770.975952	323.700000
771.012695	326.900000
771.049561	338.200000
771.086365	331.700000
771.123169	329.300000
771.159973	330.900000
771.196838	334.700000
771.233582	336.700000
771.270447	334.700000
771.307251	339.100000
771.344055	337.800000
771.380859	340.200000
771.417664	336.100000
771.454468	342.400000
771.491272	339.800000
771.528076	341.800000
771.564880	338.400000
771.601685	345.800000
771.638428	340.100000
771.675293	345.100000
771.712097	338.800000
771.748840	354.900000
771.785645	345.200000
771.822449	349.600000
771.859253	350.700000
771.896057	347.800000
771.932861	357.600000
771.969604	352.000000
772.006409	347.800000
772.043213	355.000000
772.079956	355.100000
772.116760	349.000000
772.153503	350.700000
772.190308	361.800000
772.227112	354.400000
772.263855	351.000000
772.300659	355.100000
772.337463	362.000000
772.374207	355.600000
772.411011	352.400000
772.447754	357.400000
772.484497	366.500000
772.521301	362.400000
772.558105	362.100000
772.594849	363.800000
772.631592	366.800000
772.668396	362.000000
772.705139	368.100000
772.741882	366.700000
772.778625	371.900000
772.815430	374.900000
772.852173	373.400000
772.888916	377.200000
772.925720	377.900000
772.962463	383.600000
772.999207	379.500000
773.035950	381.300000
773.072754	377.700000
773.109436	375.300000
773.146240	378.000000
773.182922	375.800000
773.219727	382.300000
773.256470	376.900000
773.293152	371.800000
773.329956	377.100000
773.366699	383.900000
773.403381	376.000000
773.440186	382.100000
773.476929	384.000000
773.513611	382.100000
773.550354	378.300000
773.587158	381.300000
773.623840	379.700000
773.660583	381.900000
773.697327	390.400000
773.734009	386.000000
773.770813	384.300000
773.807495	381.900000
773.844238	382.600000
773.880981	395.100000
773.917664	388.900000
773.954407	397.800000
773.991150	390.100000
774.027832	394.300000
774.064575	387.300000
774.101318	392.900000
774.138000	396.100000
774.174744	394.000000
774.211487	395.000000
774.248108	385.100000
774.284851	389.200000
774.321594	395.500000
774.358276	397.600000
774.395020	406.800000
774.431702	402.700000
774.468384	395.700000
774.505127	393.900000
774.541809	399.100000
774.578491	404.600000
774.615234	408.500000
774.651917	403.600000
774.688599	406.800000
774.725342	413.000000
774.762024	409.000000
774.798706	413.200000
774.835449	415.600000
774.872070	421.000000
774.908813	413.900000
774.945496	418.700000
774.982178	416.200000
775.018860	417.800000
775.055542	417.900000
775.092224	420.800000
775.128967	428.000000
775.165588	428.000000
775.202271	422.100000
775.239014	431.500000
775.275635	426.800000
775.312317	428.200000
775.349060	435.000000
775.385681	433.300000
775.422363	429.000000
775.459045	432.900000
775.495667	432.700000
775.532410	439.900000
775.569092	439.700000
775.605713	439.900000
775.642395	438.500000
775.679016	442.100000
775.715698	441.300000
775.752380	445.800000
775.789001	442.800000
775.825684	446.300000
775.862366	446.800000
775.898987	455.800000
775.935669	445.800000
775.972351	463.000000
776.008972	458.500000
776.045654	458.900000
776.082336	456.100000
776.118958	457.200000
776.155640	461.800000
776.192322	467.400000
776.228882	470.900000
776.265564	475.400000
776.302185	470.000000
776.338867	474.400000
776.375488	469.100000
776.412109	474.600000
776.448792	478.800000
776.485413	486.900000
776.522034	483.800000
776.558716	476.200000
776.595337	478.300000
776.631958	479.200000
776.668579	479.000000
776.705261	487.800000
776.741882	486.100000
776.778503	485.300000
776.815186	485.800000
776.851746	486.600000
776.888367	489.000000
776.924988	500.900000
776.961609	493.100000
776.998291	493.300000
777.034851	488.100000
777.071472	498.200000
777.108154	493.900000
777.144714	505.800000
777.181335	505.700000
777.218018	498.300000
777.254578	506.000000
777.291199	504.600000
777.327759	510.600000
777.364380	519.400000
777.401062	519.700000
777.437622	528.600000
777.474243	518.300000
777.510864	522.100000
777.547424	516.400000
777.584045	524.600000
777.620667	523.900000
777.657227	522.900000
777.693848	524.000000
777.730469	538.100000
777.767029	527.900000
777.803650	531.600000
777.840271	526.000000
777.876831	528.100000
777.913452	536.200000
777.950012	523.500000
777.986633	525.700000
778.023193	524.200000
778.059753	525.300000
778.096375	527.300000
778.132996	539.000000
778.169556	524.800000
778.206116	529.800000
778.242737	526.300000
778.279297	530.400000
778.315857	521.000000
778.352478	534.900000
778.389038	538.400000
778.425598	539.200000
778.462219	542.800000
778.498718	538.300000
778.535339	542.000000
778.571838	549.200000
778.608459	550.300000
778.645020	546.400000
778.681580	551.300000
778.718140	547.500000
778.754761	546.300000
778.791260	549.900000
778.827881	556.300000
778.864441	554.200000
778.900940	564.100000
778.937561	558.900000
778.974121	561.900000
779.010620	553.500000
779.047241	553.400000
779.083801	559.100000
779.120300	563.900000
779.156860	567.900000
779.193359	564.700000
779.229980	565.300000
779.266541	571.200000
779.303040	575.700000
779.339600	569.800000
779.376160	565.000000
779.412659	562.600000
779.449219	559.700000
779.485779	562.000000
779.522278	561.600000
779.558838	569.300000
779.595398	568.100000
779.631897	565.700000
779.668457	562.700000
779.705017	565.200000
779.741516	554.500000
779.778076	554.200000
779.814575	560.000000
779.851074	564.600000
779.887634	567.000000
779.924133	570.800000
779.960693	561.500000
779.997253	573.800000
780.033691	577.100000
780.070251	579.000000
780.106812	587.400000
780.143250	582.500000
780.179810	572.900000
780.216370	575.200000
780.252808	581.600000
780.289368	590.500000
780.325867	595.600000
780.362366	595.300000
780.398865	595.500000
780.435364	594.000000
780.471863	602.800000
780.508423	596.900000
780.544861	601.200000
780.581421	597.700000
780.617920	589.300000
780.654419	589.500000
780.690918	592.900000
780.727417	604.500000
780.763916	606.400000
780.800415	611.400000
780.836914	599.600000
780.873352	606.300000
780.909912	597.400000
780.946411	603.700000
780.982849	612.000000
781.019348	621.300000
781.055786	615.200000
781.092346	612.800000
781.128845	616.300000
781.165283	621.400000
781.201782	630.600000
781.238281	633.200000
781.274719	635.400000
781.311218	635.800000
781.347717	644.000000
781.384155	635.600000
781.420654	642.000000
781.457092	647.500000
781.493591	646.800000
781.530090	641.800000
781.566528	642.300000
781.602966	641.200000
781.639465	639.700000
781.675903	639.500000
781.712402	646.600000
781.748901	652.700000
781.785278	639.600000
781.821777	645.700000
781.858276	648.800000
781.894714	663.700000
781.931152	662.100000
781.967651	668.100000
782.004089	661.200000
782.040527	664.400000
782.076965	662.900000
782.113403	663.000000
782.149902	670.000000
782.186340	667.300000
782.222778	683.700000
782.259277	675.200000
782.295654	675.700000
782.332092	685.100000
782.368591	682.500000
782.404968	686.400000
782.441467	690.800000
782.477905	685.800000
782.514282	682.900000
782.550781	696.200000
782.587219	694.100000
782.623596	701.000000
782.660095	699.700000
782.696472	706.400000
782.732910	711.000000
782.769348	713.100000
782.805786	726.300000
782.842224	725.600000
782.878662	728.800000
782.915039	726.100000
782.951477	726.300000
782.987915	720.300000
783.024292	731.400000
783.060730	732.000000
783.097168	723.700000
783.133545	721.400000
783.169983	714.300000
783.206421	706.600000
783.242798	709.800000
783.279236	703.400000
783.315613	705.200000
783.352051	704.500000
783.388489	702.400000
783.424866	694.200000
783.461304	699.800000
783.497681	708.200000
783.534058	705.300000
783.570496	700.800000
783.606934	703.600000
783.643250	701.700000
783.679687	707.200000
783.716125	701.700000
783.752441	710.300000
783.788879	724.400000
783.825317	738.400000
783.861633	744.100000
783.898071	748.400000
783.934448	767.300000
783.970825	775.800000
784.007263	774.700000
784.043579	775.100000
784.080017	774.700000
784.116394	772.300000
784.152710	777.900000
784.189148	773.300000
784.225525	777.600000
784.261902	772.800000
784.298279	766.800000
784.334656	763.000000
784.371033	756.700000
784.407410	756.500000
784.443787	746.800000
784.480164	736.200000
784.516541	723.300000
784.552856	726.400000
784.589233	728.700000
784.625610	721.800000
784.661987	746.200000
784.698364	738.000000
784.734741	734.400000
784.771057	734.900000
784.807434	742.000000
784.843811	744.200000
784.880127	747.100000
784.916504	771.800000
784.952881	773.600000
784.989197	772.300000
785.025574	776.000000
785.061951	782.900000
785.098267	799.300000
785.134644	793.000000
785.170959	792.200000
785.207275	792.800000
785.243652	790.700000
785.279968	782.200000
785.316345	780.200000
785.352722	778.400000
785.388977	778.200000
785.425354	763.700000
785.461731	745.900000
785.498047	740.100000
785.534363	737.100000
785.570679	732.400000
785.606995	733.100000
785.643372	739.500000
785.679687	735.800000
785.716003	721.200000
785.752380	718.900000
785.788635	730.200000
785.825012	740.500000
785.861328	749.100000
785.897644	737.300000
785.933960	750.900000
785.970337	761.100000
786.006592	777.700000
786.042908	778.700000
786.079285	784.100000
786.115540	804.400000
786.151855	801.600000
786.188171	795.300000
786.224487	799.800000
786.260803	794.200000
786.297119	804.400000
786.333435	800.500000
786.369751	797.800000
786.406006	797.600000
786.442322	791.900000
786.478638	779.700000
786.514954	782.400000
786.551270	776.300000
786.587585	776.200000
786.623840	768.900000
786.660156	763.800000
786.696472	753.600000
786.732727	756.800000
786.769043	757.200000
786.805298	751.400000
786.841614	756.100000
786.877930	762.800000
786.914124	750.300000
786.950439	771.200000
786.986755	780.800000
787.023010	791.100000
787.059326	803.700000
787.095642	803.000000
787.131836	817.400000
787.168152	808.600000
787.204468	821.800000
787.240723	832.100000
787.276978	837.200000
787.313293	844.700000
787.349548	842.800000
787.385803	844.900000
787.422058	838.000000
787.458313	835.800000
787.494629	838.700000
787.530823	827.900000
787.567139	817.400000
787.603455	810.400000
787.639648	801.700000
787.675903	805.900000
787.712219	802.300000
787.748413	799.400000
787.784729	808.500000
787.820984	798.200000
787.857178	787.800000
787.893494	784.300000
787.929749	785.600000
787.965942	797.800000
788.002258	815.500000
788.038452	824.200000
788.074707	819.000000
788.110962	828.200000
788.147217	823.500000
788.183472	836.000000
788.219727	844.500000
788.255920	863.300000
788.292175	862.900000
788.328430	867.300000
788.364624	857.300000
788.400879	860.200000
788.437134	856.000000
788.473328	854.200000
788.509583	860.200000
788.545837	856.900000
788.582031	860.100000
788.618286	857.600000
788.654480	855.900000
788.690735	859.400000
788.726990	873.200000
788.763184	873.000000
788.799377	885.100000
788.835632	883.700000
788.871826	885.800000
788.908081	878.800000
788.944336	876.300000
788.980469	890.500000
789.016724	885.500000
789.052979	891.100000
789.089111	868.400000
789.125366	879.300000
789.161621	870.100000
789.197754	881.800000
789.234009	874.900000
789.270142	876.100000
789.306396	871.400000
789.342590	862.800000
789.378784	837.500000
789.414978	832.600000
789.451233	840.900000
789.487366	850.900000
789.523621	865.700000
789.559814	860.600000
789.595947	856.400000
789.632202	853.500000
789.668335	867.800000
789.704529	889.000000
789.740784	911.800000
789.776917	914.400000
789.813110	904.000000
789.849304	913.300000
789.885498	916.700000
789.921692	927.300000
789.957886	933.700000
789.994019	941.800000
790.030212	943.400000
790.066406	935.800000
790.102539	934.100000
790.138733	946.000000
790.174927	939.500000
790.211060	949.000000
790.247253	943.900000
790.283386	941.100000
790.319580	928.200000
790.355774	911.000000
790.391907	916.000000
790.428101	928.000000
790.464294	923.800000
790.500427	930.800000
790.536621	916.200000
790.572754	899.700000
790.608887	898.200000
790.645081	904.300000
790.681274	917.200000
790.717346	919.300000
790.753540	908.000000
790.789734	886.700000
790.825867	874.900000
790.862000	881.600000
790.898132	893.200000
790.934265	888.600000
790.970459	888.100000
791.006592	883.700000
791.042725	882.200000
791.078918	881.400000
791.114990	872.900000
791.151184	870.000000
791.187317	889.000000
791.223389	900.900000
791.259583	887.600000
791.295715	884.300000
791.331848	893.200000
791.367981	895.100000
791.404114	909.000000
791.440247	910.700000
791.476379	908.900000
791.512451	883.700000
791.548584	886.300000
791.584778	886.200000
791.620850	895.300000
791.656982	904.400000
791.693115	904.200000
791.729187	896.300000
791.765381	892.400000
791.801514	894.500000
791.837585	891.800000
791.873718	900.900000
791.909851	911.400000
791.945923	919.200000
791.982056	904.400000
792.018188	901.100000
792.054260	889.000000
792.090393	885.500000
792.126465	884.600000
792.162598	896.900000
792.198669	887.400000
792.234741	880.000000
792.270874	880.900000
792.307007	864.900000
792.343079	871.300000
792.379150	881.900000
792.415283	866.900000
792.451355	873.300000
792.487488	854.100000
792.523560	847.700000
792.559631	842.300000
792.595764	815.900000
792.631836	779.700000
792.667908	766.600000
792.703979	747.600000
792.740051	760.400000
792.776184	786.800000
792.812256	799.200000
792.848328	809.800000
792.884399	819.200000
792.920471	816.400000
792.956543	822.500000
792.992615	818.100000
793.028748	811.500000
793.064758	824.300000
793.100830	836.200000
793.136963	850.800000
793.172974	858.300000
793.209045	851.100000
793.245178	859.400000
793.281189	841.600000
793.317261	844.600000
793.353271	851.800000
793.389404	866.400000
793.425476	860.500000
793.461487	839.900000
793.497559	836.200000
793.533630	844.200000
793.569641	838.700000
793.605713	838.200000
793.641785	842.000000
793.677795	853.100000
793.713867	846.100000
793.749878	848.500000
793.785950	861.300000
793.822021	870.000000
793.858032	855.000000
793.894104	874.400000
793.930176	872.600000
793.966187	867.100000
794.002258	857.400000
794.038269	866.200000
794.074280	869.000000
794.110352	886.200000
794.146423	869.000000
794.182373	867.700000
794.218445	860.200000
794.254517	851.200000
794.290466	838.800000
794.326538	848.600000
794.362549	856.700000
794.398560	861.300000
794.434631	863.300000
794.470581	835.900000
794.506653	822.300000
794.542664	830.600000
794.578674	836.700000
794.614685	838.300000
794.650757	837.000000
794.686707	833.300000
794.722778	824.100000
794.758789	834.200000
794.794739	849.400000
794.830811	866.300000
794.866821	880.200000
794.902771	886.800000
794.938843	885.000000
794.974792	885.000000
795.010803	878.200000
795.046814	880.500000
795.082825	880.200000
795.118835	887.700000
795.154846	869.700000
795.190796	876.800000
795.226807	848.900000
795.262817	860.800000
795.298767	862.100000
795.334778	871.200000
795.370850	858.700000
795.406799	865.100000
795.442810	853.000000
795.478821	841.200000
795.514709	841.000000
795.550720	875.400000
795.586670	856.000000
795.622681	862.500000
795.658691	857.900000
795.694641	855.300000
795.730652	848.100000
795.766663	859.700000
795.802551	869.000000
795.838562	883.700000
795.874573	876.100000
795.910522	874.400000
795.946472	858.800000
795.982483	855.300000
796.018433	859.300000
796.054382	866.700000
796.090393	868.100000
796.126282	858.800000
796.162292	843.000000
796.198242	832.200000
796.234192	834.100000
796.270203	832.700000
796.306091	843.400000
796.342041	852.000000
796.378052	849.300000
796.413940	843.900000
796.449951	841.400000
796.485901	841.700000
796.521790	849.700000
796.557800	860.300000
796.593689	862.700000
796.629639	862.000000
796.665649	857.400000
796.701599	852.900000
796.737488	849.000000
796.773437	854.500000
796.809387	861.700000
796.845337	866.300000
796.881287	859.100000
796.917175	845.200000
796.953125	836.100000
796.989075	837.800000
797.024963	838.000000
797.060913	844.300000
797.096863	848.200000
797.132751	844.700000
797.168701	827.300000
797.204590	822.400000
797.240540	826.100000
797.276489	835.000000
797.312439	852.200000
797.348328	843.200000
797.384277	834.700000
797.420166	830.500000
797.456055	830.100000
797.492004	823.400000
797.527893	825.000000
797.563843	832.800000
797.599731	830.400000
797.635620	828.600000
797.671570	830.900000
797.707520	830.200000
797.743347	828.000000
797.779297	841.200000
797.815125	833.500000
797.851074	826.900000
797.887024	813.700000
797.922913	803.700000
797.958801	807.000000
797.994690	810.200000
798.030579	817.800000
798.066467	822.100000
798.102356	809.400000
798.138245	803.800000
798.174133	795.500000
798.210083	804.200000
798.245911	815.800000
798.281799	816.200000
798.317749	813.600000
798.353577	812.600000
798.389465	802.700000
798.425293	797.400000
798.461243	805.600000
798.497131	812.500000
798.532959	814.800000
798.568848	825.600000
798.604736	806.600000
798.640564	789.900000
798.676453	789.800000
798.712402	790.000000
798.748230	805.200000
798.784119	801.700000
798.820007	805.400000
798.855835	805.700000
798.891724	796.300000
798.927551	785.100000
798.963379	792.200000
798.999268	797.300000
799.035095	790.900000
799.070984	783.900000
799.106873	774.200000
799.142700	772.200000
799.178528	763.600000
799.214417	765.700000
799.250244	781.700000
799.286133	783.500000
799.321960	777.500000
799.357788	767.100000
799.393677	758.600000
799.429504	769.200000
799.465332	767.000000
799.501221	765.900000
799.537048	773.500000
799.572876	767.600000
799.608704	765.400000
799.644531	771.500000
799.680359	774.600000
799.716248	781.400000
799.752014	792.700000
799.787903	790.600000
799.823730	787.000000
799.859558	772.400000
799.895386	763.400000
799.931213	771.000000
799.967041	773.800000
800.002869	776.200000
800.038696	787.700000
800.074463	763.600000
800.110352	762.100000
800.146179	756.400000
800.181946	771.100000
800.217773	768.500000
800.253540	766.800000
800.289429	755.800000
800.325256	752.400000
800.361023	744.300000
800.396851	749.100000
800.432678	754.800000
800.468445	764.500000
800.504272	765.400000
800.540100	747.900000
800.575867	743.100000
800.611694	750.300000
800.647461	747.400000
800.683289	750.800000
800.719116	753.000000
800.754883	753.300000
800.790649	737.400000
800.826477	732.200000
800.862244	747.700000
800.898071	736.400000
800.933838	739.100000
800.969604	739.000000
801.005432	738.400000
801.041199	736.100000
801.076965	730.500000
801.112793	724.800000
801.148560	719.600000
801.184326	721.900000
801.220154	724.500000
801.255859	718.100000
801.291687	713.900000
801.327454	707.900000
801.363281	708.300000
801.398987	707.600000
801.434814	708.700000
801.470520	712.900000
801.506287	709.000000
801.542114	705.200000
801.577820	699.700000
801.613647	697.800000
801.649414	699.200000
801.685120	701.800000
801.720886	704.400000
801.756714	697.000000
801.792419	688.500000
801.828186	682.100000
801.863892	684.600000
801.899719	689.800000
801.935486	692.400000
801.971252	694.000000
802.006958	690.700000
802.042725	679.400000
802.078430	678.300000
802.114197	678.900000
802.149963	691.200000
802.185669	684.400000
802.221436	682.000000
802.257202	682.000000
802.292908	678.200000
802.328674	683.800000
802.364441	685.400000
802.400146	683.300000
802.435913	684.800000
802.471558	679.600000
802.507324	674.600000
802.543091	668.500000
802.578796	677.100000
802.614502	689.400000
802.650269	687.700000
802.685974	676.000000
802.721741	679.100000
802.757446	682.600000
802.793152	679.400000
802.828918	686.000000
802.864624	689.300000
802.900330	684.400000
802.936035	678.500000
802.971802	674.300000
803.007446	665.100000
803.043213	660.600000
803.078857	671.500000
803.114624	660.500000
803.150330	670.700000
803.185974	659.700000
803.221741	658.100000
803.257446	664.400000
803.293152	667.500000
803.328857	665.300000
803.364563	662.100000
803.400208	657.000000
803.435974	660.000000
803.471680	651.500000
803.507324	650.300000
803.543030	659.300000
803.578735	660.800000
803.614441	655.300000
803.650146	666.000000
803.685791	648.500000
803.721497	649.000000
803.757202	639.700000
803.792847	647.700000
803.828552	641.600000
803.864258	641.500000
803.899902	640.000000
803.935608	628.500000
803.971313	631.600000
804.006958	627.300000
804.042664	630.100000
804.078308	635.900000
804.113953	628.100000
804.149658	637.100000
804.185364	621.300000
804.221008	635.900000
804.256714	619.200000
804.292297	617.100000
804.328003	613.600000
804.363708	613.600000
804.399292	615.200000
804.434998	614.400000
804.470703	608.600000
804.506287	617.700000
804.541992	606.000000
804.577637	610.900000
804.613281	605.500000
804.648926	598.600000
804.684570	603.100000
804.720215	595.700000
804.755920	597.700000
804.791565	601.100000
804.827209	605.500000
804.862854	597.600000
804.898437	594.200000
804.934143	598.700000
804.969788	587.500000
805.005371	588.600000
805.041077	591.800000
805.076721	589.900000
805.112305	585.100000
805.147949	579.700000
805.183655	576.400000
805.219238	584.100000
805.254883	580.700000
805.290466	584.200000
805.326111	577.900000
805.361755	568.800000
805.397400	571.700000
805.432983	574.500000
805.468628	571.200000
805.504211	576.900000
805.539856	581.600000
805.575500	578.500000
805.611084	571.700000
805.646729	560.300000
805.682373	562.800000
805.717957	569.800000
805.753601	571.700000
805.789246	564.000000
805.824768	575.800000
805.860413	576.000000
805.895996	566.300000
805.931641	563.400000
805.967224	572.200000
806.002869	564.600000
806.038452	572.600000
806.074036	570.500000
806.109619	558.900000
806.145264	558.300000
806.180847	556.600000
806.216431	557.300000
806.252014	561.200000
806.287659	559.300000
806.323181	564.600000
806.358826	559.600000
806.394409	545.000000
806.429993	544.900000
806.465576	551.000000
806.501160	546.900000
806.536743	542.300000
806.572327	554.100000
806.607910	549.900000
806.643494	547.100000
806.679077	537.800000
806.714661	539.600000
806.750244	540.700000
806.785828	534.800000
806.821350	539.200000
806.856934	538.000000
806.892517	531.400000
806.928101	531.300000
806.963684	532.700000
806.999268	538.600000
807.034790	520.900000
807.070374	528.700000
807.105896	521.000000
807.141479	517.500000
807.177063	523.500000
807.212585	517.400000
807.248169	516.700000
807.283752	521.700000
807.319275	519.500000
807.354858	523.100000
807.390381	514.600000
807.425903	513.600000
807.461487	507.700000
807.497070	504.400000
807.532593	509.700000
807.568115	505.800000
807.603699	499.600000
807.639221	497.800000
807.674744	502.000000
807.710266	503.600000
807.745850	506.100000
807.781372	503.800000
807.816895	497.300000
807.852417	497.800000
807.888000	496.100000
807.923523	489.500000
807.959045	495.600000
807.994629	489.600000
808.030090	494.200000
808.065613	495.400000
808.101135	495.900000
808.136658	489.200000
808.172241	488.800000
808.207764	492.100000
808.243225	488.400000
808.278809	485.300000
808.314270	489.800000
808.349792	479.000000
808.385315	478.200000
808.420837	480.200000
808.456360	487.700000
808.491882	488.500000
808.527344	483.200000
808.562866	489.600000
808.598389	480.600000
808.633850	478.900000
808.669434	471.900000
808.704895	480.000000
808.740417	484.400000
808.775940	478.100000
808.811462	474.800000
808.846924	474.500000
808.882385	471.700000
808.917847	470.200000
808.953369	475.200000
808.988892	469.000000
809.024353	476.200000
809.059875	475.400000
809.095398	469.600000
809.130798	459.100000
809.166321	458.300000
809.201843	463.700000
809.237305	464.000000
809.272766	468.700000
809.308228	457.200000
809.343750	458.800000
809.379211	458.300000
809.414734	457.400000
809.450134	460.500000
809.485657	451.200000
809.521118	460.200000
809.556580	451.300000
809.592102	448.500000
809.627502	447.700000
809.663025	445.000000
809.698486	444.200000
809.733887	439.400000
809.769409	443.300000
809.804871	436.500000
809.840271	437.100000
809.875793	440.000000
809.911194	442.700000
809.946655	434.100000
809.982178	431.300000
810.017639	435.700000
810.053040	435.400000
810.088501	432.000000
810.123901	431.800000
810.159424	427.700000
810.194885	424.000000
810.230286	428.800000
810.265747	424.000000
810.301208	419.900000
810.336609	424.500000
810.372070	416.800000
810.407532	419.000000
810.442932	420.500000
810.478394	424.700000
810.513794	416.400000
810.549255	416.200000
810.584717	412.400000
810.620117	408.200000
810.655518	416.300000
810.690979	411.300000
810.726379	410.800000
810.761841	403.400000
810.797302	402.300000
810.832642	400.400000
810.868103	407.000000
810.903564	397.400000
810.938904	406.200000
810.974365	395.300000
811.009827	397.100000
811.045166	390.600000
811.080627	387.700000
811.115967	388.500000
811.151428	393.000000
811.186829	389.900000
811.222229	386.900000
811.257629	382.600000
811.293091	387.200000
811.328430	394.500000
811.363892	385.900000
811.399292	386.000000
811.434631	383.500000
811.470093	390.300000
811.505493	384.100000
811.540833	382.500000
811.576294	387.900000
811.611694	380.900000
811.647034	377.600000
811.682434	381.600000
811.717773	384.100000
811.753235	386.800000
811.788635	379.600000
811.823975	379.300000
811.859375	384.100000
811.894775	373.900000
811.930115	377.900000
811.965515	376.200000
812.000916	377.200000
812.036255	372.400000
812.071655	375.600000
812.106995	371.800000
812.142395	372.700000
812.177795	381.200000
812.213196	372.100000
812.248474	372.200000
812.283875	363.400000
812.319214	366.800000
812.354614	365.300000
812.390015	364.400000
812.425293	365.300000
812.460693	368.300000
812.496094	360.900000
812.531433	356.500000
812.566772	357.000000
812.602173	360.300000
812.637451	356.300000
812.672852	355.600000
812.708191	353.400000
812.743530	352.600000
812.778931	345.600000
812.814270	345.800000
812.849609	352.100000
812.884949	348.000000
812.920227	344.100000
812.955627	354.500000
812.990967	344.700000
813.026306	343.400000
813.061646	334.800000
813.096985	333.200000
813.132324	330.600000
813.167664	333.300000
813.203003	336.000000
813.238281	326.900000
813.273682	328.300000
813.308960	326.600000
813.344299	325.300000
813.379639	331.800000
813.414978	326.300000
813.450256	327.600000
813.485596	328.500000
813.520874	321.600000
813.556213	322.800000
813.591614	328.200000
813.626831	321.500000
813.662170	324.000000
813.697510	329.200000
813.732788	318.200000
813.768127	322.400000
813.803467	320.000000
813.838745	317.000000
813.874084	318.100000
813.909363	317.600000
813.944641	316.700000
813.979980	309.400000
814.015320	312.400000
814.050598	311.500000
814.085876	312.200000
814.121155	310.100000
814.156494	308.000000
814.191772	310.500000
814.227051	305.400000
814.262390	308.300000
814.297668	307.600000
814.332947	307.200000
814.368225	301.300000
814.403564	305.100000
814.438782	299.300000
814.474121	305.100000
814.509338	300.900000
814.544617	306.700000
814.579956	299.300000
814.615173	307.200000
814.650513	301.300000
814.685791	298.600000
814.721008	301.700000
814.756348	300.200000
814.791626	296.300000
814.826843	296.300000
814.862122	295.600000
814.897400	292.300000
814.932678	295.600000
814.967957	296.400000
815.003235	294.700000
815.038452	289.600000
815.073730	289.200000
815.108948	298.500000
815.144226	293.700000
815.179504	296.600000
815.214722	288.300000
815.250000	286.500000
815.285278	290.100000
815.320496	285.000000
815.355774	288.000000
815.391052	287.900000
815.426270	284.900000
815.461487	283.200000
815.496765	280.800000
815.531982	276.600000
815.567261	281.400000
815.602539	285.500000
815.637695	283.100000
815.672974	283.400000
815.708191	283.800000
815.743408	284.600000
815.778687	279.000000
815.813904	285.900000
815.849121	272.400000
815.884399	273.900000
815.919556	274.000000
815.954834	274.800000
815.990051	276.900000
816.025269	278.800000
816.060486	271.900000
816.095703	271.900000
816.130920	276.000000
816.166199	269.800000
816.201416	273.200000
816.236572	276.200000
816.271851	269.000000
816.307007	271.800000
816.342224	263.900000
816.377441	268.000000
816.412659	261.000000
816.447876	269.100000
816.483093	263.900000
816.518250	265.200000
816.553467	264.100000
816.588745	265.800000
816.623901	257.300000
816.659119	253.900000
816.694275	260.900000
816.729492	256.200000
816.764709	283.900000
816.799927	253.300000
816.835083	256.200000
816.870300	249.400000
816.905457	255.000000
816.940674	254.700000
816.975830	250.500000
817.010986	250.200000
817.046204	249.100000
817.081421	246.900000
817.116577	246.100000
817.151733	253.400000
817.186951	253.300000
817.222107	252.300000
817.257324	253.000000
817.292419	250.400000
817.327637	243.400000
817.362854	246.100000
817.398010	241.800000
817.433167	245.100000
817.468323	243.400000
817.503479	246.800000
817.538635	254.600000
817.573853	246.500000
817.608948	244.200000
817.644165	241.400000
817.679321	242.000000
817.714478	240.100000
817.749634	240.300000
817.784790	248.500000
817.819946	244.800000
817.855103	232.900000
817.890198	237.500000
817.925415	233.900000
817.960571	241.500000
817.995667	238.800000
818.030823	239.400000
818.066040	233.800000
818.101135	237.800000
818.136292	234.400000
818.171448	232.700000
818.206543	234.000000
818.241699	237.300000
818.276855	234.500000
818.311951	233.700000
818.347107	230.700000
818.382263	235.900000
818.417358	237.600000
818.452515	237.100000
818.487610	237.800000
818.522766	229.400000
818.557922	237.200000
818.593018	233.200000
818.628113	231.700000
818.663269	229.300000
818.698364	230.600000
818.733521	226.800000
818.768677	229.200000
818.803711	227.400000
818.838867	225.400000
818.874023	226.400000
818.909058	223.700000
818.944214	222.800000
818.979370	227.100000
819.014404	226.900000
819.049561	221.900000
819.084595	228.400000
819.119751	220.700000
819.154846	226.400000
819.189941	223.000000
819.225037	221.100000
819.260193	217.100000
819.295227	217.900000
819.330322	214.300000
819.365479	214.800000
819.400513	249.500000
819.435608	213.300000
819.470764	211.800000
819.505798	212.600000
819.540894	215.900000
819.575989	211.800000
819.611084	219.400000
819.646179	221.100000
819.681213	216.700000
819.716309	212.000000
819.751404	214.000000
819.786438	218.000000
819.821533	209.900000
819.856628	213.400000
819.891663	216.000000
819.926758	220.900000
819.961853	220.200000
819.996887	210.000000
820.031982	214.000000
820.067017	210.600000
820.102112	244.300000
820.137207	209.200000
820.172302	222.200000
820.207275	209.200000
820.242371	208.600000
820.277405	208.000000
820.312500	208.400000
820.347534	211.300000
820.382568	212.500000
820.417664	207.200000
820.452759	208.100000
820.487732	207.400000
820.522827	206.900000
820.557861	203.900000
820.592896	207.000000
820.627930	207.900000
820.662964	205.400000
820.698059	209.100000
820.733093	206.400000
820.768127	209.000000
820.803162	207.200000
820.838196	204.500000
820.873230	205.400000
820.908264	208.000000
820.943298	203.100000
820.978333	209.100000
821.013367	205.500000
821.048401	208.800000
821.083435	209.000000
821.118469	200.900000
821.153503	207.400000
821.188477	205.500000
821.223511	200.400000
821.258484	204.500000
821.293579	204.300000
821.328613	201.100000
821.363647	202.400000
821.398621	200.700000
821.433655	201.900000
821.468628	214.100000
821.503662	201.900000
821.538696	205.400000
821.573669	199.800000
821.608704	206.500000
821.643677	203.000000
821.678650	205.000000
821.713684	208.400000
821.748718	202.500000
821.783691	202.700000
821.818726	203.300000
821.853638	204.200000
821.888672	201.800000
821.923706	201.300000
821.958618	200.800000
821.993652	201.400000
822.028687	206.100000
822.063599	208.000000
822.098633	201.600000
822.133667	198.400000
822.168579	201.700000
822.203613	203.500000
822.238586	198.600000
822.273560	203.600000
822.308533	199.300000
822.343567	199.500000
822.378479	200.900000
822.413452	199.500000
822.448425	196.600000
822.483398	205.000000
822.518372	203.000000
822.553345	197.800000
822.588318	205.800000
822.623291	198.700000
822.658203	197.300000
822.693237	200.400000
822.728210	196.400000
822.763123	201.400000
822.798096	196.700000
822.833069	200.100000
822.867981	197.500000
822.902954	202.500000
822.937927	202.000000
822.972900	207.100000
823.007874	193.700000
823.042725	202.400000
823.077698	207.800000
823.112671	197.200000
823.147583	197.600000
823.182556	202.700000
823.217529	202.000000
823.252441	198.500000
823.287415	208.400000
823.322388	204.400000
823.357239	198.500000
823.392212	205.500000
823.427185	205.300000
823.462097	196.500000
823.497009	201.400000
823.531982	198.900000
823.566895	199.800000
823.601807	196.400000
823.636719	198.600000
823.671631	201.700000
823.706604	197.600000
823.741455	200.800000
823.776428	194.000000
823.811340	202.600000
823.846252	205.500000
823.881165	204.400000
823.916138	199.200000
823.950989	205.700000
823.985901	197.600000
824.020813	199.200000
824.055725	198.500000
824.090637	194.300000
824.125610	201.500000
824.160461	199.100000
824.195374	199.400000
824.230225	201.800000
824.265198	193.900000
824.300110	195.800000
824.334961	205.500000
824.369873	190.400000
824.404785	198.700000
824.439636	201.600000
824.474548	193.100000
824.509460	190.200000
824.544312	202.600000
824.579224	200.300000
824.614075	200.900000
824.648987	196.200000
824.683899	198.200000
824.718811	196.300000
824.753662	202.600000
824.788574	200.400000
824.823364	199.300000
824.858276	194.900000
824.893188	202.800000
824.928040	201.400000
824.962952	200.200000
824.997803	201.100000
825.032654	197.500000
825.067566	200.200000
825.102417	196.000000
825.137268	196.600000
825.172119	196.900000
825.206970	195.300000
825.241882	197.000000
825.276733	194.100000
825.311646	193.200000
825.346436	191.700000
825.381348	191.800000
825.416138	196.200000
825.450989	191.200000
825.485901	187.500000
825.520691	188.500000
825.555542	190.200000
825.590454	192.600000
825.625244	189.200000
825.660095	199.600000
825.695007	196.700000
825.729797	194.100000
825.764648	191.300000
825.799438	192.400000
825.834290	195.700000
825.869202	187.500000
825.903992	194.400000
825.938843	190.300000
825.973694	189.400000
826.008484	202.700000
826.043335	189.800000
826.078186	186.900000
826.112976	197.600000
826.147827	196.300000
826.182678	200.000000
826.217468	187.000000
826.252319	199.400000
826.287109	187.300000
826.321899	196.200000
826.356750	189.700000
826.391541	189.700000
826.426392	194.900000
826.461182	191.800000
826.495972	187.400000
826.530823	183.900000
826.565613	193.000000
826.600403	186.800000
826.635254	193.600000
826.670044	185.500000
826.704834	185.400000
826.739685	188.300000
826.774475	193.600000
826.809265	191.000000
826.844055	188.800000
826.878906	195.700000
826.913635	192.100000
826.948425	191.800000
826.983215	193.800000
827.018005	193.900000
827.052856	189.200000
827.087585	191.600000
827.122375	184.300000
827.157227	189.200000
827.191956	201.900000
827.226746	186.600000
827.261536	194.000000
827.296265	185.800000
827.331116	189.300000
827.365906	191.700000
827.400635	188.400000
827.435425	185.200000
827.470215	194.800000
827.504944	190.000000
827.539734	193.400000
827.574463	189.700000
827.609253	196.900000
827.644043	190.500000
827.678772	194.700000
827.713562	189.700000
827.748352	187.700000
827.783081	187.200000
827.817871	191.100000
827.852600	187.400000
827.887329	191.100000
827.922119	184.800000
827.956848	193.600000
827.991638	201.300000
828.026367	193.100000
828.061157	191.200000
828.095886	191.700000
828.130615	203.900000
828.165344	185.400000
828.200073	190.500000
828.234863	190.000000
828.269592	189.700000
828.304321	194.400000
828.339111	191.900000
828.373779	189.000000
828.408569	194.900000
828.443298	193.600000
828.477966	187.500000
828.512756	191.400000
828.547424	187.000000
828.582214	188.400000
828.616943	189.500000
828.651672	189.400000
828.686340	193.500000
828.721130	186.200000
828.755798	190.300000
828.790527	189.300000
828.825256	191.300000
828.859924	189.900000
828.894714	195.000000
828.929443	196.300000
828.964111	188.200000
828.998840	192.000000
829.033569	187.500000
829.068237	189.500000
829.102966	188.200000
829.137634	190.900000
829.172363	192.200000
829.207092	192.500000
829.241821	188.200000
829.276489	185.600000
829.311157	190.500000
829.345825	189.800000
829.380554	195.200000
829.415283	188.600000
829.449951	185.000000
829.484619	196.200000
829.519348	196.000000
829.554016	190.400000
829.588745	191.400000
829.623413	186.800000
829.658081	198.900000
829.692749	187.000000
829.727417	194.200000
829.762146	191.700000
829.796814	187.100000
829.831482	190.100000
829.866150	189.700000
829.900879	189.200000
829.935486	190.600000
829.970154	189.600000
830.004883	198.400000
830.039490	190.900000
830.074219	187.600000
830.108887	192.400000
830.143494	187.400000
830.178223	185.900000
830.212891	189.500000
830.247498	190.500000
830.282166	195.500000
830.316772	194.600000
830.351501	187.600000
830.386169	189.800000
830.420776	189.500000
830.455444	190.700000
830.490112	187.200000
830.524719	185.300000
830.559387	192.100000
830.594055	192.900000
830.628662	189.600000
830.663330	191.000000
830.697998	196.500000
830.732605	190.200000
830.767273	189.900000
830.801941	190.200000
830.836487	197.800000
830.871155	191.000000
830.905762	191.800000
830.940430	185.700000
830.975098	188.900000
831.009644	190.900000
831.044312	196.400000
831.078979	190.700000
831.113525	184.200000
831.148193	191.000000
831.182861	189.300000
831.217407	192.100000
831.252075	201.700000
831.286621	187.400000
831.321289	186.300000
831.355896	190.100000
831.390564	196.300000
831.425110	189.300000
831.459778	195.300000
831.494324	199.800000
831.528931	192.600000
831.563599	194.500000
831.598145	185.100000
831.632751	189.700000
831.667419	190.700000
831.701965	192.000000
831.736572	192.100000
831.771179	187.000000
831.805786	188.100000
831.840393	195.600000
831.874939	186.200000
831.909546	193.000000
831.944153	183.900000
831.978760	189.500000
832.013306	185.700000
832.047913	194.800000
832.082458	197.300000
832.117065	189.100000
832.151672	198.400000
832.186218	191.600000
832.220825	192.700000
832.255432	184.500000
832.289978	189.000000
832.324585	191.700000
832.359192	192.600000
832.393677	189.700000
832.428284	190.900000
832.462830	189.500000
832.497437	189.800000
832.531982	192.400000
832.566589	187.800000
832.601135	193.100000
832.635681	184.400000
832.670227	191.000000
832.704773	195.700000
832.739380	191.800000
832.773926	191.500000
832.808472	188.500000
832.843079	190.100000
832.877563	191.100000
832.912170	187.500000
832.946716	185.000000
832.981201	193.900000
833.015808	194.500000
833.050293	189.600000
833.084839	186.700000
833.119446	188.600000
833.153992	193.400000
833.188477	188.900000
833.223022	187.800000
833.257568	191.000000
833.292114	195.200000
833.326660	199.500000
833.361145	188.200000
833.395691	183.700000
833.430237	190.300000
833.464783	192.500000
833.499329	188.000000
833.533875	188.000000
833.568359	192.700000
833.602905	193.200000
833.637390	194.800000
833.671875	188.200000
833.706421	188.800000
833.740906	188.500000
833.775452	183.100000
833.809998	188.800000
833.844482	196.700000
833.879028	190.300000
833.913513	188.700000
833.947998	192.800000
833.982544	186.200000
834.017090	188.200000
834.051514	183.900000
834.086060	193.200000
834.120544	189.400000
834.155029	191.100000
834.189575	188.500000
834.223999	191.800000
834.258545	189.400000
834.293030	190.300000
834.327515	190.000000
834.362000	188.600000
834.396545	191.800000
834.430969	189.900000
834.465454	194.100000
834.500000	184.700000
834.534424	192.000000
834.568970	184.700000
834.603455	184.500000
834.637878	187.200000
834.672363	191.700000
834.706909	190.400000
834.741333	190.600000
834.775818	185.300000
834.810242	188.100000
834.844727	190.000000
834.879211	190.200000
834.913635	191.600000
834.948181	190.800000
834.982666	192.000000
835.017090	189.500000
835.051575	192.400000
835.086060	188.200000
835.120483	193.300000
835.154907	193.100000
835.189331	191.300000
835.223816	193.200000
835.258301	185.800000
835.292786	187.400000
835.327209	192.900000
835.361694	187.000000
835.396057	188.100000
835.430542	192.000000
835.465027	192.300000
835.499390	188.600000
835.533875	214.900000
835.568359	188.300000
835.602722	183.600000
835.637207	191.500000
835.671692	185.300000
835.706055	205.400000
835.740540	191.100000
835.774902	192.700000
835.809387	191.000000
835.843811	186.200000
835.878235	195.500000
835.912659	186.200000
835.947083	186.900000
835.981506	191.400000
836.015930	184.900000
836.050354	194.900000
836.084778	196.400000
836.119202	193.200000
836.153625	203.500000
836.187988	188.000000
836.222473	185.700000
836.256897	191.900000
836.291260	190.000000
836.325684	192.200000
836.360046	187.500000
836.394470	190.000000
836.428894	195.100000
836.463318	187.700000
836.497681	193.400000
836.532104	195.800000
836.566467	191.800000
836.600891	188.700000
836.635315	194.700000
836.669678	192.100000
836.704102	193.800000
836.738525	191.400000
836.772888	184.800000
836.807251	188.300000
836.841675	193.200000
836.876038	185.100000
836.910461	188.100000
836.944763	193.400000
836.979187	187.500000
837.013611	194.200000
837.047974	187.400000
837.082336	200.100000
837.116699	192.100000
837.151062	188.900000
837.185486	186.600000
837.219849	188.000000
837.254211	194.400000
837.288574	189.100000
837.322937	186.800000
837.357300	180.800000
837.391663	199.200000
837.426086	193.400000
837.460388	192.700000
837.494751	192.500000
837.529114	188.000000
837.563477	194.600000
837.597839	191.000000
837.632141	189.000000
837.666565	189.500000
837.700928	193.300000
837.735229	192.600000
837.769592	192.600000
837.803955	195.000000
837.838257	187.800000
837.872620	189.600000
837.906982	196.700000
837.941284	191.700000
837.975647	191.700000
838.010010	195.200000
838.044312	188.500000
838.078674	190.600000
838.112976	191.600000
838.147339	192.700000
838.181702	191.400000
838.216003	197.000000
838.250366	192.500000
838.284668	192.900000
838.318970	185.800000
838.353333	189.800000
838.387634	189.400000
838.421936	190.800000
838.456299	190.600000
838.490601	194.400000
838.524902	193.700000
838.559265	193.100000
838.593567	194.500000
838.627869	185.600000
838.662170	191.600000
838.696472	185.000000
838.730774	187.700000
838.765137	191.900000
838.799377	181.300000
838.833740	189.800000
838.868042	194.900000
838.902283	183.200000
838.936646	195.400000
838.970947	190.900000
839.005188	196.600000
839.039551	183.800000
839.073792	196.400000
839.108093	188.100000
839.142395	197.400000
839.176697	184.700000
839.210937	191.400000
839.245300	198.300000
839.279541	186.200000
839.313843	189.000000
839.348145	191.400000
839.382385	194.100000
839.416687	194.300000
839.450989	191.900000
839.485229	189.900000
839.519531	187.600000
839.553833	195.000000
839.588013	189.000000
839.622314	191.500000
839.656555	192.000000
839.690857	190.000000
839.725159	187.800000
839.759460	190.000000
839.793640	188.300000
839.827942	189.600000
839.862183	186.800000
839.896423	191.200000
839.930725	200.900000
839.964966	195.900000
839.999207	194.100000
840.033508	195.800000
840.067688	187.500000
840.101990	195.400000
840.136230	192.300000
840.170471	195.700000
840.204712	186.700000
840.238953	186.600000
840.273193	190.000000
840.307434	191.300000
840.341736	188.500000
840.375916	184.600000
840.410217	188.100000
840.444397	193.300000
840.478638	191.800000
840.512878	194.900000
840.547119	190.500000
840.581360	193.600000
840.615601	198.500000
840.649780	198.900000
840.684021	190.900000
840.718262	197.200000
840.752441	197.500000
840.786682	192.300000
840.820862	192.800000
840.855103	197.100000
840.889343	191.100000
840.923584	195.400000
840.957764	193.100000
840.992004	192.700000
841.026184	201.800000
841.060425	188.800000
841.094666	187.900000
841.128845	193.900000
841.163025	191.900000
841.197266	192.200000
841.231445	190.700000
841.265686	192.200000
841.299866	186.800000
841.334045	196.400000
841.368286	190.500000
841.402405	196.800000
841.436646	192.400000
841.470825	188.700000
841.505005	189.200000
841.539185	187.400000
841.573425	187.400000
841.607544	190.400000
841.641785	188.800000
841.675964	189.100000
841.710144	191.300000
841.744324	188.300000
841.778503	190.100000
841.812683	187.800000
841.846863	196.200000
841.881042	196.000000
841.915222	188.500000
841.949402	202.100000
841.983521	185.600000
842.017700	189.000000
842.051880	189.700000
842.086060	193.600000
842.120239	192.100000
842.154419	189.800000
842.188538	191.200000
842.222717	189.500000
842.256897	197.000000
842.291016	190.300000
842.325195	190.300000
842.359375	199.000000
842.393494	196.900000
842.427673	191.500000
842.461853	193.200000
842.495911	198.300000
842.530090	193.200000
842.564209	189.100000
842.598389	192.400000
842.632568	191.900000
842.666626	193.200000
842.700806	190.600000
842.734985	189.800000
842.769043	193.400000
842.803223	189.600000
842.837402	189.700000
842.871460	189.000000
842.905640	200.100000
842.939697	186.800000
842.973877	189.800000
843.007996	196.800000
843.042175	197.500000
843.076233	190.700000
843.110413	192.000000
843.144470	195.900000
843.178589	194.000000
843.212769	189.900000
843.246826	193.700000
843.280945	189.600000
843.315125	190.000000
843.349182	189.200000
843.383301	194.700000
843.417419	200.700000
843.451538	189.500000
843.485657	190.200000
843.519714	190.200000
843.553833	192.500000
843.587952	187.500000
843.622070	187.900000
843.656128	192.900000
843.690247	188.600000
843.724304	190.700000
843.758423	192.900000
843.792542	189.400000
843.826599	191.300000
843.860718	189.600000
843.894836	186.700000
843.928894	192.400000
843.963013	191.200000
843.997070	186.800000
844.031128	186.000000
844.065247	194.400000
844.099304	194.800000
844.133362	193.000000
844.167480	191.400000
844.201599	196.600000
844.235596	191.000000
844.269714	192.000000
844.303711	190.200000
844.337830	186.300000
844.371948	192.300000
844.405945	191.400000
844.440063	185.400000
844.474121	200.900000
844.508118	190.200000
844.542236	191.500000
844.576294	190.800000
844.610352	187.600000
844.644409	190.200000
844.678406	184.300000
844.712524	195.100000
844.746582	196.300000
844.780640	188.900000
844.814636	190.700000
844.848755	200.800000
844.882751	188.900000
844.916809	194.000000
844.950867	193.800000
844.984863	198.000000
845.018921	191.300000
845.052979	186.800000
845.086975	191.400000
845.121033	186.900000
845.155090	189.500000
845.189087	195.700000
845.223145	190.300000
845.257141	193.200000
845.291199	194.200000
845.325256	196.400000
845.359253	194.100000
845.393250	204.100000
845.427307	189.500000
845.461304	191.000000
845.495361	190.900000
845.529358	198.400000
845.563354	190.200000
845.597412	186.900000
845.631409	197.200000
845.665405	197.300000
845.699463	193.900000
845.733459	189.600000
845.767456	198.800000
845.801453	191.900000
845.835449	194.300000
845.869446	193.800000
845.903503	194.100000
845.937439	188.000000
845.971497	197.100000
846.005493	187.300000
846.039429	193.900000
846.073486	200.500000
846.107483	189.300000
846.141418	189.600000
846.175476	192.000000
846.209473	196.900000
846.243408	188.200000
846.277405	191.600000
846.311401	189.400000
846.345337	191.800000
846.379395	196.000000
846.413330	187.700000
846.447327	199.400000
846.481323	189.300000
846.515259	189.600000
846.549255	190.500000
846.583252	193.600000
846.617187	188.800000
846.651184	192.500000
846.685120	190.200000
846.719055	198.500000
846.753052	194.400000
846.786987	195.300000
846.820984	187.700000
846.854980	197.400000
846.888916	188.400000
846.922852	192.400000
846.956848	196.200000
846.990723	189.800000
847.024719	191.100000
847.058716	190.500000
847.092590	196.300000
847.126587	192.500000
847.160522	187.300000
847.194458	196.100000
847.228455	187.400000
847.262390	186.900000
847.296265	190.400000
847.330261	195.300000
847.364136	187.300000
847.398132	188.600000
847.432068	191.200000
847.466003	190.500000
847.499939	190.600000
847.533875	194.100000
847.567749	189.100000
847.601746	189.900000
847.635681	192.900000
847.669556	184.300000
847.703491	195.000000
847.737427	201.200000
847.771301	188.400000
847.805237	194.400000
847.839233	192.000000
847.873108	191.200000
847.907043	190.800000
847.940918	197.100000
847.974854	191.300000
848.008789	196.400000
848.042664	191.900000
848.076538	192.600000
848.110474	191.700000
848.144348	192.000000
848.178284	186.300000
848.212219	193.900000
848.246094	189.500000
848.279968	192.000000
848.313904	194.900000
848.347778	190.600000
848.381653	190.800000
848.415588	189.200000
848.449463	187.800000
848.483337	193.100000
848.517212	197.700000
848.551086	191.000000
848.585022	187.900000
848.618835	199.800000
848.652771	188.100000
848.686646	185.600000
848.720520	199.900000
848.754395	190.400000
848.788330	194.000000
848.822144	195.000000
848.856018	190.000000
848.889954	198.400000
848.923767	189.400000
848.957642	188.600000
848.991577	193.400000
849.025391	190.500000
849.059265	190.200000
849.093079	189.200000
849.126953	186.800000
849.160828	194.600000
849.194641	192.700000
849.228577	189.000000
849.262451	190.800000
849.296265	190.200000
849.330139	189.800000
849.364014	192.700000
849.397827	192.500000
849.431702	192.400000
849.465515	195.300000
849.499329	186.000000
849.533203	189.600000
849.567078	184.100000
849.600891	193.900000
849.634766	191.100000
849.668518	194.600000
849.702393	191.700000
849.736267	185.800000
849.770020	199.100000
849.803894	192.600000
849.837769	192.900000
849.871521	189.800000
849.905396	195.300000
849.939270	188.700000
849.973022	190.800000
850.006897	193.800000
850.040710	194.700000
850.074524	194.600000
850.108337	191.300000
850.142151	195.000000
850.175964	197.100000
850.209778	189.900000
850.243530	183.700000
850.277405	194.200000
850.311218	191.700000
850.344971	188.700000
850.378845	195.900000
850.412659	189.100000
850.446411	194.400000
850.480225	190.900000
850.514038	196.800000
850.547791	193.900000
850.581665	191.000000
850.615417	189.500000
850.649231	194.000000
850.683044	189.800000
850.716858	190.500000
850.750610	191.800000
850.784424	194.200000
850.818176	187.600000
850.851929	190.400000
850.885742	187.300000
850.919495	191.800000
850.953308	196.400000
850.987122	198.300000
851.020874	186.600000
851.054626	187.700000
851.088440	195.300000
851.122192	194.400000
851.156006	193.800000
851.189697	190.800000
851.223511	187.700000
851.257263	195.400000
851.291077	193.900000
851.324829	189.600000
851.358582	190.600000
851.392334	190.100000
851.426086	189.800000
851.459900	197.700000
851.493591	192.700000
851.527344	189.000000
851.561157	191.300000
851.594849	191.900000
851.628662	192.000000
851.662415	198.300000
851.696106	192.200000
851.729858	195.000000
851.763611	187.000000
851.797363	191.800000
851.831116	188.700000
851.864868	194.000000
851.898560	195.200000
851.932312	189.700000
851.966064	195.100000
851.999817	190.700000
852.033569	190.900000
852.067261	195.700000
852.101013	188.600000
852.134766	190.400000
852.168457	183.900000
852.202209	195.800000
852.235901	188.800000
852.269592	193.800000
852.303345	197.500000
852.337036	194.000000
852.370789	192.200000
852.404541	195.100000
852.438171	188.800000
852.471924	192.000000
852.505676	187.100000
852.539307	192.200000
852.573059	188.700000
852.606812	190.400000
852.640442	190.800000
852.674194	196.900000
852.707886	200.700000
852.741577	195.500000
852.775269	189.500000
852.809021	191.400000
852.842651	193.400000
852.876404	197.300000
852.910034	191.900000
852.943787	196.400000
852.977478	192.300000
853.011108	187.800000
853.044861	187.900000
853.078552	198.400000
853.112183	192.100000
853.145874	191.400000
853.179626	184.800000
853.213257	192.000000
853.246948	188.900000
853.280640	198.700000
853.314270	189.700000
853.347961	197.700000
853.381653	193.200000
853.415283	194.900000
853.448975	188.800000
853.482605	193.200000
853.516296	192.000000
853.549988	187.300000
853.583618	192.300000
853.617310	193.300000
853.651001	192.800000
853.684631	188.900000
853.718323	189.700000
853.751953	198.000000
853.785583	186.200000
853.819275	195.300000
853.852966	194.400000
853.886536	186.600000
853.920227	188.000000
853.953918	195.100000
853.987488	191.600000
854.021179	194.500000
854.054749	197.700000
854.088440	193.100000
854.122131	188.300000
854.155701	192.900000
854.189331	189.000000
854.223022	193.200000
854.256592	192.700000
854.290283	189.300000
854.323914	195.200000
854.357483	192.700000
854.391174	194.700000
854.424744	197.100000
854.458374	191.300000
854.492065	200.300000
854.525696	189.600000
854.559265	195.600000
854.592896	201.900000
854.626465	191.200000
854.660095	191.900000
854.693787	192.400000
854.727356	190.400000
854.760986	194.300000
854.794617	194.900000
854.828186	190.800000
854.861816	193.800000
854.895447	192.900000
854.929016	192.900000
854.962585	192.400000
854.996155	200.700000
855.029785	192.100000
855.063416	193.500000
855.097046	194.300000
855.130615	187.000000
855.164185	196.800000
855.197754	192.300000
855.231384	193.200000
855.264954	191.000000
855.298523	195.900000
855.332153	192.300000
855.365723	196.300000
855.399292	189.400000
855.432922	191.400000
855.466492	193.500000
855.500061	189.800000
855.533630	188.500000
855.567200	193.200000
855.600769	195.500000
855.634338	196.400000
855.667969	190.700000
855.701477	188.700000
855.735046	187.800000
855.768616	185.600000
855.802185	193.000000
855.835754	202.500000
855.869324	184.600000
855.902893	191.100000
855.936401	196.300000
855.969971	191.600000
856.003540	187.200000
856.037109	194.600000
856.070618	190.300000
856.104187	187.400000
856.137695	190.000000
856.171265	184.100000
856.204834	191.100000
856.238403	194.700000
856.271912	188.900000
856.305481	194.100000
856.338989	186.900000
856.372559	194.100000
856.406128	194.900000
856.439636	194.700000
856.473145	191.600000
856.506653	198.400000
856.540222	193.100000
856.573792	196.500000
856.607300	194.700000
856.640808	187.200000
856.674377	192.000000
856.707825	224.600000
856.741394	196.600000
856.774902	187.200000
856.808472	186.900000
856.841980	194.400000
856.875488	196.200000
856.908936	186.000000
856.942505	190.400000
856.976013	189.400000
857.009521	189.300000
857.043030	191.600000
857.076477	190.500000
857.110046	196.700000
857.143555	192.500000
857.177063	193.500000
857.210571	191.400000
857.244080	186.300000
857.277527	194.100000
857.311035	191.900000
857.344543	196.300000
857.378052	190.300000
857.411499	196.800000
857.445068	197.900000
857.478516	190.500000
857.512024	189.000000
857.545532	190.900000
857.578979	192.900000
857.612427	192.500000
857.645874	189.100000
857.679382	193.500000
857.712891	196.800000
857.746399	190.700000
857.779846	194.900000
857.813354	197.100000
857.846741	192.600000
857.880249	188.000000
857.913757	192.700000
857.947266	193.400000
857.980652	194.500000
858.014160	190.700000
858.047546	190.700000
858.081055	189.800000
858.114563	202.200000
858.147949	186.300000
858.181458	195.500000
858.214844	190.200000
858.248352	184.600000
858.281799	194.900000
858.315308	201.600000
858.348694	193.200000
858.382141	198.300000
858.415588	193.100000
858.449036	196.100000
858.482483	193.600000
858.515930	189.900000
858.549377	192.200000
858.582825	196.500000
858.616211	192.700000
858.649658	194.400000
858.683105	186.300000
858.716553	190.800000
858.750000	186.700000
858.783386	191.200000
858.816833	186.400000
858.850281	191.700000
858.883728	191.900000
858.917114	193.200000
858.950562	198.000000
858.983948	198.400000
859.017395	195.500000
859.050781	189.700000
859.084167	188.500000
859.117615	188.200000
859.151062	193.400000
859.184448	189.600000
859.217834	190.700000
859.251282	189.300000
859.284668	187.000000
859.318054	185.200000
859.351440	189.900000
859.384888	197.700000
859.418274	185.500000
859.451721	185.200000
859.485046	193.700000
859.518494	193.300000
859.551819	188.300000
859.585266	193.800000
859.618652	195.700000
859.652039	187.200000
859.685425	187.300000
859.718811	186.300000
859.752197	182.800000
859.785583	196.300000
859.819031	198.000000
859.852356	193.600000
859.885742	188.800000
859.919067	190.400000
859.952454	190.300000
859.985901	194.400000
860.019287	191.200000
860.052612	0.000000
860.085999	0.000000
860.119324	0.000000
860.152710	0.000000
860.186096	0.000000
860.219421	0.000000
860.252808	0.000000
860.286133	0.000000
860.319519	0.000000
860.352905	0.000000
860.386292	0.000000
860.419617	0.000000
860.452942	0.000000
860.486267	0.000000
860.519653	0.000000
860.553040	0.000000
860.586365	0.000000
860.619690	0.000000
860.653076	0.000000
860.686340	0.000000
860.719727	0.000000
860.753113	0.000000
860.786377	0.000000
860.819763	0.000000
860.853027	0.000000
860.886414	0.000000
860.919739	0.000000
860.953125	0.000000
860.986389	0.000000
861.019714	0.000000
861.053040	0.000000
861.086365	0.000000
861.119690	0.000000
861.153076	0.000000
861.186340	0.000000
861.219666	0.000000
861.252930	0.000000
861.286316	0.000000
861.319641	0.000000
861.352905	0.000000
861.386230	0.000000
861.419495	0.000000
861.452820	0.000000
861.486145	0.000000
861.519470	0.000000
861.552734	0.000000
861.586060	0.000000
861.619324	0.000000
861.652649	0.000000
861.685974	0.000000
861.719238	0.000000
861.752563	0.000000
861.785828	0.000000
861.819092	0.000000
861.852417	0.000000
861.885742	0.000000
861.918945	0.000000
861.952271	0.000000
861.985535	0.000000
862.018799	0.000000
862.052124	0.000000
862.085449	0.000000
862.118652	0.000000
862.151978	0.000000
862.185181	0.000000
862.218506	0.000000
862.251770	0.000000
862.285034	0.000000
862.318298	0.000000
862.351562	0.000000
862.384827	0.000000
862.418091	0.000000
862.451355	0.000000
862.484619	0.000000
862.517883	0.000000
862.551086	0.000000
862.584351	0.000000
862.617676	0.000000
862.650940	0.000000
862.684143	0.000000
862.717407	0.000000
862.750610	0.000000
862.783875	0.000000
862.817139	0.000000
862.850342	0.000000
862.883606	0.000000
862.916870	0.000000
862.950073	0.000000
862.983337	0.000000
863.016602	0.000000
863.049805	0.000000
863.083069	0.000000
863.116211	0.000000
863.149475	0.000000
863.182739	0.000000
863.216003	0.000000
863.249146	0.000000
863.282410	0.000000
863.315613	0.000000
863.348816	0.000000
863.382080	0.000000
863.415222	0.000000
863.448486	0.000000
863.481689	0.000000
863.514893	0.000000
863.548157	0.000000
863.581360	0.000000
863.614502	0.000000
863.647766	0.000000
863.680908	0.000000
863.714172	0.000000
863.747375	0.000000
863.780579	0.000000
863.813721	0.000000
863.846985	0.000000
863.880127	0.000000
863.913330	0.000000
863.946533	0.000000
863.979675	0.000000
864.012939	0.000000
