Model Number: SPM-002-B   
Serial Number: 70087108
Firmware Version: 004.15.4
Exposure Time: 100000.000000us
Data Taken on: 11-12-2020 19:36:29.752
Wavelength	Amplitude
221.570786	0.000000
221.663406	0.000000
221.756027	0.000000
221.848648	0.000000
221.941269	0.000000
222.033905	0.000000
222.126526	0.000000
222.219162	0.000000
222.311798	0.000000
222.404419	0.000000
222.497055	0.000000
222.589676	0.000000
222.682312	0.000000
222.774933	0.000000
222.867569	0.000000
222.960205	0.000000
223.052841	0.000000
223.145462	0.000000
223.238098	0.000000
223.330734	0.000000
223.423386	0.000000
223.516022	0.000000
223.608658	0.000000
223.701309	0.000000
223.793945	0.000000
223.886581	0.000000
223.979218	0.000000
224.071869	0.000000
224.164505	0.000000
224.257156	0.000000
224.349792	0.000000
224.442444	0.000000
224.535095	0.000000
224.627747	0.000000
224.720398	0.000000
224.813034	0.000000
224.905685	0.000000
224.998337	145.640000
225.090988	145.460000
225.183640	145.420000
225.276291	145.380000
225.368942	145.740000
225.461594	146.180000
225.554245	146.180000
225.646912	146.160000
225.739578	146.760000
225.832230	147.420000
225.924896	146.340000
226.017548	146.980000
226.110199	147.460000
226.202866	146.620000
226.295532	146.140000
226.388184	146.440000
226.480850	145.660000
226.573517	145.180000
226.666168	145.840000
226.758835	146.420000
226.851501	147.060000
226.944183	147.340000
227.036850	146.940000
227.129517	146.520000
227.222183	146.100000
227.314850	145.720000
227.407516	146.020000
227.500198	146.980000
227.592865	146.780000
227.685532	146.540000
227.778214	146.520000
227.870880	146.720000
227.963562	146.660000
228.056229	147.100000
228.148926	146.840000
228.241592	147.480000
228.334274	146.980000
228.426956	146.800000
228.519638	146.480000
228.612305	146.600000
228.704987	146.080000
228.797668	146.400000
228.890350	146.000000
228.983032	145.920000
229.075714	146.700000
229.168396	146.640000
229.261108	146.160000
229.353790	146.580000
229.446472	146.700000
229.539169	146.100000
229.631851	145.760000
229.724533	145.980000
229.817230	146.000000
229.909912	146.800000
230.002609	146.880000
230.095306	147.100000
230.187988	147.280000
230.280685	147.160000
230.373383	146.040000
230.466095	146.060000
230.558792	146.480000
230.651474	146.480000
230.744171	146.520000
230.836868	146.880000
230.929581	147.140000
231.022278	147.180000
231.114975	147.320000
231.207672	146.780000
231.300369	146.800000
231.393082	146.840000
231.485779	146.620000
231.578506	146.340000
231.671204	146.700000
231.763916	146.680000
231.856613	146.540000
231.949326	146.420000
232.042023	146.360000
232.134735	146.300000
232.227448	146.060000
232.320160	145.840000
232.412872	145.840000
232.505585	146.680000
232.598297	146.820000
232.691010	146.980000
232.783722	146.800000
232.876450	147.480000
232.969162	146.600000
233.061874	146.260000
233.154587	145.960000
233.247314	146.440000
233.340027	145.700000
233.432739	146.340000
233.525467	146.740000
233.618179	147.200000
233.710907	146.800000
233.803635	147.320000
233.896347	146.840000
233.989090	147.260000
234.081818	147.080000
234.174545	147.480000
234.267258	146.980000
234.359985	146.980000
234.452713	146.700000
234.545441	146.800000
234.638168	146.420000
234.730896	146.940000
234.823639	147.160000
234.916367	147.200000
235.009094	147.280000
235.101822	147.620000
235.194580	147.560000
235.287308	147.300000
235.380051	146.800000
235.472778	146.960000
235.565521	147.100000
235.658249	146.360000
235.750992	146.660000
235.843719	146.760000
235.936462	146.620000
236.029205	145.940000
236.121948	146.160000
236.214691	146.300000
236.307449	147.060000
236.400192	146.480000
236.492935	146.580000
236.585678	146.720000
236.678421	146.620000
236.771164	146.200000
236.863907	147.240000
236.956665	147.720000
237.049408	149.180000
237.142151	148.420000
237.234909	148.960000
237.327652	148.460000
237.420410	148.140000
237.513153	147.000000
237.605927	147.440000
237.698669	146.760000
237.791428	146.260000
237.884186	146.680000
237.976944	146.060000
238.069702	146.540000
238.162445	146.480000
238.255203	146.760000
238.347961	146.820000
238.440720	146.920000
238.533478	146.500000
238.626266	146.160000
238.719025	146.380000
238.811783	146.360000
238.904541	146.480000
238.997314	146.380000
239.090073	146.360000
239.182831	146.360000
239.275604	147.140000
239.368362	146.820000
239.461136	146.700000
239.553909	146.540000
239.646667	145.980000
239.739441	145.040000
239.832214	145.800000
239.925003	146.140000
240.017761	147.140000
240.110535	148.140000
240.203308	147.860000
240.296082	147.940000
240.388855	148.140000
240.481628	148.100000
240.574417	147.880000
240.667191	148.000000
240.759964	147.120000
240.852737	146.780000
240.945526	145.980000
241.038315	145.780000
241.131088	145.800000
241.223877	146.320000
241.316650	145.920000
241.409439	146.440000
241.502228	145.980000
241.595001	146.360000
241.687790	146.200000
241.780579	146.300000
241.873367	146.460000
241.966141	146.920000
242.058929	146.300000
242.151718	146.420000
242.244507	146.980000
242.337311	146.300000
242.430099	146.740000
242.522903	146.940000
242.615692	146.640000
242.708481	146.440000
242.801270	147.080000
242.894073	146.720000
242.986862	147.160000
243.079651	147.680000
243.172455	147.560000
243.265244	147.460000
243.358063	146.840000
243.450867	146.740000
243.543655	146.620000
243.636459	146.720000
243.729263	146.940000
243.822067	147.840000
243.914856	147.900000
244.007660	147.820000
244.100464	147.740000
244.193268	147.060000
244.286072	146.580000
244.378876	146.140000
244.471680	145.860000
244.564499	146.180000
244.657318	147.080000
244.750122	146.980000
244.842926	146.560000
244.935745	146.940000
245.028549	146.660000
245.121368	146.260000
245.214172	146.560000
245.306992	147.080000
245.399796	146.940000
245.492615	147.000000
245.585434	146.880000
245.678253	146.860000
245.771072	146.660000
245.863892	147.120000
245.956711	147.360000
246.049530	147.040000
246.142349	146.960000
246.235168	147.280000
246.327988	147.480000
246.420807	147.120000
246.513626	147.320000
246.606445	147.140000
246.699280	147.100000
246.792099	146.740000
246.884918	146.500000
246.977753	146.380000
247.070587	146.600000
247.163422	146.540000
247.256241	146.600000
247.349075	147.160000
247.441895	147.360000
247.534729	147.200000
247.627563	147.180000
247.720383	147.660000
247.813217	147.220000
247.906052	147.160000
247.998886	147.140000
248.091736	147.140000
248.184570	146.360000
248.277405	146.380000
248.370239	146.960000
248.463074	147.860000
248.555908	147.700000
248.648743	147.560000
248.741592	147.760000
248.834427	147.240000
248.927261	145.840000
249.020111	146.260000
249.112946	147.020000
249.205795	146.700000
249.298630	146.760000
249.391495	147.080000
249.484344	146.800000
249.577179	146.320000
249.670029	146.740000
249.762878	147.400000
249.855728	147.640000
249.948563	147.560000
250.041412	147.100000
250.134262	147.180000
250.227112	146.880000
250.319962	146.940000
250.412827	147.000000
250.505692	147.180000
250.598541	147.040000
250.691391	146.680000
250.784241	146.880000
250.877106	146.860000
250.969955	146.680000
251.062805	147.320000
251.155670	147.600000
251.248520	147.260000
251.341385	147.520000
251.434235	147.500000
251.527100	146.820000
251.619965	146.540000
251.712814	147.220000
251.805695	147.160000
251.898560	147.420000
251.991425	147.720000
252.084290	147.640000
252.177155	146.580000
252.270020	146.300000
252.362885	146.400000
252.455750	146.160000
252.548615	145.980000
252.641479	146.240000
252.734360	146.280000
252.827240	145.860000
252.920105	145.980000
253.012970	145.840000
253.105850	145.940000
253.198715	145.800000
253.291595	146.220000
253.384460	145.700000
253.477341	145.800000
253.570221	146.140000
253.663086	146.140000
253.755966	146.560000
253.848846	146.620000
253.941727	146.900000
254.034592	146.620000
254.127472	146.200000
254.220367	146.160000
254.313248	146.420000
254.406128	146.300000
254.499008	146.400000
254.591904	147.400000
254.684784	147.640000
254.777664	147.700000
254.870544	147.060000
254.963440	147.160000
255.056335	146.900000
255.149216	146.020000
255.242111	146.420000
255.334991	147.260000
255.427887	147.180000
255.520767	147.220000
255.613663	147.620000
255.706558	147.000000
255.799438	146.560000
255.892334	146.280000
255.985229	146.120000
256.078125	146.180000
256.171021	146.280000
256.263916	146.660000
256.356812	147.240000
256.449707	147.480000
256.542603	146.760000
256.635498	147.240000
256.728394	147.160000
256.821289	146.460000
256.914215	146.560000
257.007080	147.000000
257.100006	146.780000
257.192932	147.000000
257.285828	147.360000
257.378723	146.860000
257.471619	146.840000
257.564545	146.340000
257.657440	146.280000
257.750336	146.680000
257.843262	146.780000
257.936157	147.860000
258.029053	148.180000
258.121979	147.980000
258.214874	147.400000
258.307800	147.280000
258.400696	145.980000
258.493622	146.180000
258.586517	145.740000
258.679443	146.300000
258.772339	145.960000
258.865265	146.180000
258.958160	145.540000
259.051086	146.400000
259.144012	146.120000
259.236938	147.060000
259.329834	147.500000
259.422791	147.300000
259.515717	146.540000
259.608612	146.320000
259.701538	146.120000
259.794464	145.420000
259.887390	145.540000
259.980316	145.600000
260.073212	145.360000
260.166138	144.500000
260.259064	144.980000
260.351990	145.900000
260.444916	146.200000
260.537842	146.700000
260.630768	147.540000
260.723694	147.360000
260.816620	146.920000
260.909546	146.680000
261.002472	146.080000
261.095398	145.600000
261.188354	145.560000
261.281281	145.140000
261.374207	145.220000
261.467133	146.100000
261.560089	146.400000
261.653015	146.280000
261.745972	147.440000
261.838867	147.940000
261.931824	147.900000
262.024780	147.420000
262.117706	147.580000
262.210663	147.180000
262.303589	146.940000
262.396515	146.780000
262.489471	147.940000
262.582397	147.840000
262.675354	147.200000
262.768280	147.080000
262.861237	146.720000
262.954163	146.220000
263.047119	146.500000
263.140045	146.500000
263.233002	146.620000
263.325958	146.880000
263.418884	146.360000
263.511841	146.140000
263.604797	146.320000
263.697723	146.240000
263.790680	145.940000
263.883636	146.600000
263.976593	146.380000
264.069550	146.440000
264.162476	145.940000
264.255463	146.080000
264.348419	145.540000
264.441376	146.180000
264.534332	145.800000
264.627289	146.180000
264.720245	146.820000
264.813202	146.480000
264.906158	146.360000
264.999115	147.160000
265.092072	146.920000
265.185028	146.980000
265.277985	147.420000
265.370941	147.240000
265.463898	146.600000
265.556854	146.340000
265.649811	144.940000
265.742798	145.020000
265.835754	145.000000
265.928711	145.640000
266.021667	146.240000
266.114655	147.080000
266.207611	147.280000
266.300568	146.620000
266.393585	145.880000
266.486511	145.900000
266.579498	145.320000
266.672485	144.840000
266.765442	145.060000
266.858429	145.960000
266.951385	145.560000
267.044342	145.940000
267.137329	146.320000
267.230316	146.700000
267.323273	145.740000
267.416260	146.540000
267.509216	146.460000
267.602203	146.220000
267.695160	146.780000
267.788147	147.160000
267.881134	146.280000
267.974091	146.540000
268.067078	146.420000
268.160065	145.880000
268.253052	145.640000
268.346008	146.140000
268.438995	145.840000
268.531982	145.960000
268.624969	146.080000
268.717987	146.480000
268.810944	146.460000
268.903961	146.520000
268.996948	146.360000
269.089905	146.840000
269.182892	146.800000
269.275879	146.920000
269.368866	146.740000
269.461853	147.080000
269.554871	146.460000
269.647858	146.280000
269.740845	146.380000
269.833832	146.820000
269.926819	146.600000
270.019806	146.840000
270.112793	146.420000
270.205811	146.500000
270.298798	146.200000
270.391785	146.680000
270.484772	146.300000
270.577789	146.640000
270.670776	146.060000
270.763763	146.060000
270.856750	145.800000
270.949768	145.580000
271.042786	145.520000
271.135773	145.840000
271.228790	146.200000
271.321808	145.780000
271.414795	145.740000
271.507782	145.500000
271.600800	145.000000
271.693817	144.860000
271.786804	145.440000
271.879822	145.800000
271.972809	146.080000
272.065826	146.720000
272.158844	146.440000
272.251831	146.740000
272.344849	146.640000
272.437866	146.420000
272.530853	146.280000
272.623871	146.480000
272.716888	145.580000
272.809906	145.900000
272.902893	146.100000
272.995911	145.640000
273.088928	145.720000
273.181946	146.240000
273.274963	145.840000
273.367981	145.880000
273.460999	146.120000
273.554047	146.540000
273.647003	146.860000
273.740051	146.960000
273.833069	147.300000
273.926086	147.620000
274.019135	147.200000
274.112152	146.660000
274.205170	146.760000
274.298187	146.620000
274.391205	145.920000
274.484222	146.080000
274.577240	146.180000
274.670258	146.120000
274.763306	145.960000
274.856323	146.780000
274.949341	146.820000
275.042358	147.060000
275.135406	146.860000
275.228424	147.140000
275.321442	146.920000
275.414490	146.620000
275.507507	146.860000
275.600525	147.380000
275.693573	146.960000
275.786591	146.520000
275.879669	146.660000
275.972656	146.040000
276.065735	145.940000
276.158752	146.540000
276.251801	147.380000
276.344818	147.220000
276.437866	147.480000
276.530884	147.180000
276.623932	146.260000
276.716980	146.340000
276.809998	146.400000
276.903046	146.360000
276.996094	147.080000
277.089111	147.840000
277.182159	147.900000
277.275208	147.400000
277.368256	147.320000
277.461304	146.580000
277.554321	145.980000
277.647369	145.920000
277.740417	146.420000
277.833466	146.480000
277.926514	146.720000
278.019562	147.540000
278.112610	146.740000
278.205688	146.860000
278.298706	146.860000
278.391785	146.780000
278.484833	146.080000
278.577881	146.400000
278.670929	146.320000
278.763977	146.360000
278.857025	146.920000
278.950073	147.140000
279.043121	146.760000
279.136169	146.640000
279.229248	146.560000
279.322296	146.320000
279.415344	146.260000
279.508392	146.340000
279.601440	146.460000
279.694519	146.100000
279.787567	145.760000
279.880615	145.620000
279.973694	145.320000
280.066742	145.200000
280.159790	145.580000
280.252869	145.220000
280.345917	145.640000
280.438995	146.100000
280.532074	146.200000
280.625122	146.440000
280.718201	147.400000
280.811279	147.120000
280.904327	147.160000
280.997406	147.340000
281.090454	147.100000
281.183533	146.620000
281.276581	146.480000
281.369659	146.160000
281.462738	146.180000
281.555786	146.420000
281.648865	146.480000
281.741943	146.380000
281.835022	147.080000
281.928070	146.620000
282.021149	146.280000
282.114227	145.980000
282.207306	146.120000
282.300385	146.280000
282.393433	146.560000
282.486511	146.580000
282.579590	147.160000
282.672668	147.620000
282.765747	146.900000
282.858856	146.640000
282.951904	146.780000
283.045013	146.520000
283.138062	146.740000
283.231171	147.060000
283.324249	147.620000
283.417328	147.600000
283.510406	147.380000
283.603485	146.960000
283.696564	147.020000
283.789642	147.020000
283.882751	147.000000
283.975830	147.520000
284.068909	147.020000
284.161987	147.040000
284.255066	146.400000
284.348175	146.600000
284.441254	146.420000
284.534332	147.240000
284.627441	146.960000
284.720520	146.760000
284.813599	146.880000
284.906708	146.920000
284.999786	146.020000
285.092896	145.820000
285.185974	147.240000
285.279053	146.420000
285.372192	146.440000
285.465240	147.540000
285.558380	147.780000
285.651459	146.820000
285.744568	147.880000
285.837677	147.380000
285.930756	147.100000
286.023865	147.100000
286.116943	146.900000
286.210052	146.800000
286.303162	146.980000
286.396240	146.660000
286.489349	146.400000
286.582458	146.820000
286.675568	146.380000
286.768646	146.280000
286.861755	146.540000
286.954865	147.220000
287.047974	146.640000
287.141083	146.480000
287.234161	146.280000
287.327271	145.880000
287.420380	146.000000
287.513519	146.240000
287.606598	146.420000
287.699738	147.120000
287.792816	147.180000
287.885956	146.980000
287.979034	146.920000
288.072174	146.980000
288.165283	146.860000
288.258392	147.380000
288.351501	146.840000
288.444611	147.360000
288.537720	147.580000
288.630859	147.360000
288.723969	147.060000
288.817078	147.380000
288.910187	147.160000
289.003296	146.720000
289.096436	146.360000
289.189545	146.280000
289.282654	146.180000
289.375763	146.240000
289.468903	146.580000
289.562012	146.820000
289.655121	146.640000
289.748260	146.680000
289.841400	147.160000
289.934509	147.100000
290.027649	147.180000
290.120728	147.300000
290.213898	147.240000
290.306976	146.680000
290.400146	146.760000
290.493256	146.240000
290.586395	146.460000
290.679535	146.880000
290.772644	146.600000
290.865784	145.820000
290.958893	146.200000
291.052032	145.940000
291.145172	145.560000
291.238281	145.620000
291.331421	146.160000
291.424561	146.580000
291.517670	146.420000
291.610809	146.500000
291.703949	146.320000
291.797089	146.320000
291.890228	145.840000
291.983337	145.940000
292.076477	145.800000
292.169617	146.160000
292.262756	146.240000
292.355927	146.240000
292.449036	145.980000
292.542206	146.180000
292.635315	146.400000
292.728485	146.440000
292.821625	146.240000
292.914764	147.660000
293.007904	147.580000
293.101044	147.300000
293.194183	147.140000
293.287323	147.340000
293.380463	146.360000
293.473602	146.400000
293.566742	146.760000
293.659882	147.100000
293.753021	147.400000
293.846191	147.180000
293.939331	146.640000
294.032471	146.200000
294.125610	145.980000
294.218781	146.300000
294.311920	146.920000
294.405060	147.300000
294.498230	147.340000
294.591370	147.420000
294.684540	146.400000
294.777679	145.880000
294.870850	146.140000
294.963959	146.060000
295.057159	145.420000
295.150299	146.120000
295.243469	146.040000
295.336609	145.340000
295.429779	145.780000
295.522919	146.540000
295.616089	146.380000
295.709229	147.020000
295.802399	147.300000
295.895569	146.760000
295.988708	146.480000
296.081879	146.500000
296.175018	145.800000
296.268188	145.720000
296.361359	146.140000
296.454529	146.260000
296.547668	146.160000
296.640839	146.480000
296.734009	146.340000
296.827179	146.480000
296.920319	146.900000
297.013519	146.580000
297.106659	146.700000
297.199860	147.020000
297.292999	146.680000
297.386200	146.260000
297.479309	146.360000
297.572510	146.320000
297.665680	146.160000
297.758850	146.200000
297.852020	146.160000
297.945190	146.240000
298.038361	145.640000
298.131531	146.660000
298.224701	146.680000
298.317871	146.460000
298.411072	146.140000
298.504242	146.220000
298.597412	145.580000
298.690582	145.920000
298.783752	146.120000
298.876923	147.100000
298.970093	147.300000
299.063293	147.720000
299.156464	147.520000
299.249634	147.640000
299.342834	147.300000
299.436005	147.720000
299.529205	147.200000
299.622345	147.280000
299.715576	146.760000
299.808716	146.580000
299.901917	146.480000
299.995117	146.880000
300.088287	147.020000
300.181488	147.080000
300.274658	147.200000
300.367828	147.040000
300.461029	146.840000
300.554199	146.880000
300.647400	147.040000
300.740601	147.280000
300.833771	146.960000
300.926971	146.940000
301.020142	146.500000
301.113342	146.160000
301.206512	145.760000
301.299713	146.340000
301.392914	146.380000
301.486084	146.440000
301.579285	146.600000
301.672516	147.300000
301.765686	146.980000
301.858887	146.840000
301.952057	146.900000
302.045288	146.900000
302.138458	146.400000
302.231659	146.160000
302.324860	146.060000
302.418060	146.000000
302.511261	146.020000
302.604462	146.320000
302.697662	146.400000
302.790863	146.460000
302.884064	146.240000
302.977264	146.420000
303.070465	146.520000
303.163666	147.120000
303.256866	147.100000
303.350067	147.420000
303.443268	147.280000
303.536469	147.360000
303.629669	146.960000
303.722870	147.060000
303.816071	146.800000
303.909271	147.120000
304.002472	146.300000
304.095673	146.100000
304.188934	145.480000
304.282104	146.220000
304.375336	146.140000
304.468506	146.340000
304.561768	146.240000
304.654968	147.160000
304.748169	146.720000
304.841370	146.360000
304.934601	146.460000
305.027802	146.420000
305.121002	146.020000
305.214233	146.020000
305.307434	146.360000
305.400665	147.080000
305.493866	147.060000
305.587097	147.260000
305.680298	146.940000
305.773499	147.400000
305.866730	146.720000
305.959930	147.480000
306.053162	147.600000
306.146393	147.660000
306.239594	146.720000
306.332825	146.780000
306.426025	146.660000
306.519287	146.060000
306.612488	146.100000
306.705719	146.260000
306.798920	146.220000
306.892181	145.320000
306.985352	145.360000
307.078613	144.880000
307.171844	145.360000
307.265045	145.200000
307.358276	145.260000
307.451508	145.540000
307.544739	146.420000
307.637970	145.780000
307.731201	145.700000
307.824402	146.480000
307.917633	146.740000
308.010864	146.860000
308.104095	147.500000
308.197327	147.740000
308.290558	147.840000
308.383789	147.440000
308.477020	146.880000
308.570251	146.180000
308.663483	145.920000
308.756714	145.400000
308.849976	145.360000
308.943176	146.120000
309.036438	146.260000
309.129639	146.200000
309.222900	146.240000
309.316101	146.080000
309.409393	145.040000
309.502625	144.980000
309.595856	145.040000
309.689087	145.240000
309.782318	145.500000
309.875580	146.180000
309.968811	146.680000
310.062042	146.520000
310.155273	146.460000
310.248535	146.840000
310.341766	146.500000
310.434998	145.840000
310.528259	145.940000
310.621490	146.260000
310.714722	145.700000
310.807983	145.760000
310.901215	146.040000
310.994476	146.380000
311.087708	146.000000
311.181000	146.300000
311.274200	145.860000
311.367462	145.800000
311.460693	145.580000
311.553986	146.180000
311.647186	146.520000
311.740479	147.460000
311.833710	147.300000
311.926971	147.300000
312.020203	146.160000
312.113464	145.820000
312.206726	144.880000
312.299957	145.480000
312.393219	145.660000
312.486481	146.240000
312.579712	145.920000
312.672974	145.880000
312.766235	145.620000
312.859497	145.620000
312.952759	145.460000
313.045990	146.280000
313.139252	146.260000
313.232513	146.460000
313.325775	146.460000
313.419037	146.500000
313.512299	145.380000
313.605530	146.180000
313.698822	146.180000
313.792053	146.120000
313.885345	145.800000
313.978577	146.320000
314.071869	145.360000
314.165131	145.560000
314.258392	145.700000
314.351654	146.140000
314.444916	145.640000
314.538177	146.700000
314.631439	146.780000
314.724701	146.300000
314.817993	145.940000
314.911255	146.360000
315.004517	145.560000
315.097778	145.260000
315.191040	146.000000
315.284302	146.440000
315.377594	146.160000
315.470856	146.500000
315.564117	145.920000
315.657379	145.280000
315.750671	144.760000
315.843933	144.960000
315.937195	144.580000
316.030518	144.560000
316.123749	144.800000
316.217041	145.700000
316.310303	145.920000
316.403595	146.260000
316.496857	146.760000
316.590149	146.660000
316.683411	146.060000
316.776703	145.760000
316.869965	145.880000
316.963257	145.640000
317.056519	145.220000
317.149811	145.100000
317.243073	145.220000
317.336365	144.960000
317.429626	145.380000
317.522919	146.160000
317.616180	146.100000
317.709473	145.800000
317.802765	146.080000
317.896027	145.900000
317.989319	146.120000
318.082611	146.320000
318.175873	146.180000
318.269165	146.000000
318.362488	145.680000
318.455750	145.160000
318.549042	145.480000
318.642303	146.220000
318.735626	145.720000
318.828888	145.880000
318.922211	145.440000
319.015472	145.760000
319.108765	144.960000
319.202057	145.060000
319.295349	145.020000
319.388641	145.360000
319.481934	144.980000
319.575226	145.380000
319.668518	145.760000
319.761810	146.280000
319.855103	146.340000
319.948395	146.240000
320.041687	146.280000
320.134979	145.920000
320.228271	145.240000
320.321564	145.320000
320.414856	145.420000
320.508148	145.300000
320.601440	145.480000
320.694763	145.640000
320.788025	146.240000
320.881348	146.000000
320.974640	145.940000
321.067963	145.820000
321.161224	145.920000
321.254547	145.080000
321.347839	145.700000
321.441162	145.620000
321.534454	145.800000
321.627747	145.700000
321.721069	146.180000
321.814362	145.960000
321.907654	146.040000
322.000946	146.200000
322.094269	147.000000
322.187561	146.580000
322.280884	146.780000
322.374176	147.020000
322.467468	147.080000
322.560791	146.520000
322.654083	147.060000
322.747406	147.260000
322.840698	147.580000
322.934021	147.940000
323.027344	148.220000
323.120636	147.780000
323.213959	147.360000
323.307251	146.380000
323.400574	145.720000
323.493866	145.080000
323.587219	145.260000
323.680511	145.560000
323.773834	146.180000
323.867157	146.440000
323.960449	146.900000
324.053772	147.240000
324.147095	147.020000
324.240387	147.560000
324.333710	147.380000
324.427032	147.320000
324.520355	146.880000
324.613647	146.440000
324.706970	146.000000
324.800293	146.060000
324.893616	146.380000
324.986938	146.580000
325.080231	146.520000
325.173553	146.600000
325.266876	147.220000
325.360199	146.800000
325.453522	146.180000
325.546875	146.020000
325.640167	146.060000
325.733521	145.820000
325.826813	146.020000
325.920166	145.860000
326.013489	145.800000
326.106812	144.920000
326.200134	144.640000
326.293457	144.140000
326.386780	144.780000
326.480103	145.160000
326.573425	145.640000
326.666748	145.680000
326.760071	146.120000
326.853424	146.080000
326.946747	145.900000
327.040070	146.600000
327.133392	146.240000
327.226715	145.720000
327.320068	145.200000
327.413391	145.700000
327.506714	144.860000
327.600037	144.980000
327.693390	145.260000
327.786713	145.440000
327.880066	145.280000
327.973358	145.840000
328.066742	146.260000
328.160034	146.560000
328.253418	147.140000
328.346710	146.920000
328.440063	146.380000
328.533417	145.980000
328.626740	146.400000
328.720093	146.060000
328.813416	145.980000
328.906769	146.060000
329.000092	146.460000
329.093445	145.920000
329.186768	145.700000
329.280121	146.260000
329.373444	146.580000
329.466797	146.400000
329.560120	146.640000
329.653473	146.900000
329.746796	146.400000
329.840149	146.260000
329.933502	146.080000
330.026825	145.840000
330.120178	145.680000
330.213562	145.380000
330.306854	145.300000
330.400238	145.540000
330.493561	145.240000
330.586945	145.900000
330.680237	146.600000
330.773621	146.760000
330.866974	146.840000
330.960327	147.440000
331.053680	146.800000
331.147003	146.860000
331.240356	146.980000
331.333710	146.800000
331.427063	146.200000
331.520416	146.200000
331.613770	145.880000
331.707123	145.840000
331.800476	146.200000
331.893829	147.540000
331.987152	147.820000
332.080505	147.580000
332.173859	147.560000
332.267212	146.980000
332.360565	146.060000
332.453918	145.680000
332.547333	145.820000
332.640656	145.740000
332.734039	146.200000
332.827362	146.020000
332.920746	146.300000
333.014069	146.460000
333.107452	146.780000
333.200806	146.620000
333.294159	146.500000
333.387543	146.000000
333.480896	145.720000
333.574249	145.300000
333.667603	145.000000
333.760956	145.200000
333.854340	145.580000
333.947693	145.400000
334.041046	145.620000
334.134430	145.860000
334.227783	145.400000
334.321136	145.460000
334.414520	145.240000
334.507874	145.200000
334.601227	145.040000
334.694611	145.380000
334.787964	145.240000
334.881348	145.860000
334.974701	145.900000
335.068085	145.560000
335.161438	145.780000
335.254822	145.600000
335.348175	145.540000
335.441559	145.060000
335.534943	146.140000
335.628296	145.860000
335.721680	146.160000
335.815033	146.360000
335.908417	146.740000
336.001770	146.260000
336.095154	146.320000
336.188538	145.860000
336.281891	145.180000
336.375275	144.600000
336.468658	144.540000
336.562012	144.680000
336.655396	145.280000
336.748779	145.780000
336.842133	146.240000
336.935516	146.220000
337.028900	145.940000
337.122284	146.000000
337.215637	146.120000
337.309021	145.880000
337.402435	145.580000
337.495789	145.300000
337.589203	144.840000
337.682526	144.420000
337.775940	144.980000
337.869324	145.320000
337.962708	145.320000
338.056091	145.840000
338.149475	145.760000
338.242859	145.780000
338.336243	145.460000
338.429626	145.820000
338.523010	145.580000
338.616394	145.500000
338.709778	145.500000
338.803162	146.060000
338.896545	146.180000
338.989929	145.820000
339.083313	146.280000
339.176697	145.760000
339.270081	145.560000
339.363464	145.740000
339.456848	146.060000
339.550232	145.440000
339.643616	145.480000
339.737030	145.300000
339.830383	145.080000
339.923828	145.180000
340.017181	145.500000
340.110596	145.940000
340.203949	145.780000
340.297363	145.540000
340.390778	145.660000
340.484161	145.820000
340.577545	145.520000
340.670959	145.700000
340.764343	145.860000
340.857727	145.580000
340.951111	145.020000
341.044525	145.620000
341.137909	145.280000
341.231293	144.920000
341.324707	144.760000
341.418091	145.800000
341.511505	145.300000
341.604889	145.660000
341.698303	146.360000
341.791687	146.860000
341.885071	146.160000
341.978485	145.800000
342.071899	146.180000
342.165283	146.400000
342.258698	146.420000
342.352081	147.060000
342.445496	147.920000
342.538879	147.900000
342.632324	147.320000
342.725708	147.200000
342.819122	146.520000
342.912506	146.120000
343.005920	145.500000
343.099335	146.280000
343.192719	145.960000
343.286133	146.340000
343.379547	146.400000
343.472931	146.500000
343.566345	145.500000
343.659760	145.940000
343.753143	145.660000
343.846558	145.440000
343.939972	145.880000
344.033386	146.640000
344.126770	146.180000
344.220184	146.400000
344.313599	147.000000
344.407043	147.000000
344.500427	146.540000
344.593872	147.340000
344.687225	147.000000
344.780670	146.300000
344.874054	145.840000
344.967499	146.220000
345.060913	145.720000
345.154327	145.960000
345.247742	145.860000
345.341156	145.980000
345.434570	145.760000
345.527985	145.760000
345.621399	145.820000
345.714813	145.660000
345.808228	145.740000
345.901642	145.300000
345.995056	145.020000
346.088470	145.220000
346.181885	145.560000
346.275299	145.080000
346.368713	145.300000
346.462128	145.140000
346.555573	144.900000
346.648987	145.260000
346.742401	145.320000
346.835815	145.620000
346.929260	145.660000
347.022644	145.680000
347.116119	145.560000
347.209503	146.120000
347.302948	146.760000
347.396362	147.260000
347.489807	147.280000
347.583221	147.740000
347.676636	147.460000
347.770050	146.280000
347.863495	145.920000
347.956909	145.760000
348.050323	145.000000
348.143768	144.780000
348.237183	144.840000
348.330597	145.380000
348.424042	145.700000
348.517456	146.220000
348.610901	146.720000
348.704315	146.920000
348.797760	146.060000
348.891174	145.620000
348.984619	145.040000
349.078033	145.100000
349.171448	145.460000
349.264923	145.600000
349.358337	145.400000
349.451782	145.620000
349.545197	145.260000
349.638641	144.680000
349.732086	144.320000
349.825500	145.060000
349.918945	144.880000
350.012390	145.360000
350.105804	146.220000
350.199249	146.780000
350.292664	146.980000
350.386108	147.040000
350.479553	147.240000
350.572968	146.840000
350.666412	146.860000
350.759857	146.440000
350.853302	146.680000
350.946716	145.940000
351.040161	145.880000
351.133606	145.680000
351.227081	145.520000
351.320465	146.100000
351.413940	146.420000
351.507355	146.600000
351.600830	146.860000
351.694244	146.760000
351.787720	146.380000
351.881104	146.240000
351.974579	145.880000
352.067993	146.460000
352.161469	146.480000
352.254883	145.820000
352.348358	145.820000
352.441803	145.780000
352.535248	145.380000
352.628693	145.920000
352.722137	146.220000
352.815582	146.420000
352.909027	146.940000
353.002472	146.640000
353.095917	146.440000
353.189362	146.740000
353.282806	146.520000
353.376251	146.300000
353.469696	146.040000
353.563141	146.360000
353.656586	145.940000
353.750061	145.580000
353.843475	145.200000
353.936981	145.600000
354.030396	144.960000
354.123871	145.140000
354.217285	146.140000
354.310760	146.760000
354.404175	146.620000
354.497681	146.440000
354.591095	146.480000
354.684570	145.520000
354.777985	145.040000
354.871490	144.800000
354.964935	145.520000
355.058380	145.540000
355.151855	145.580000
355.245300	146.000000
355.338745	146.480000
355.432220	146.460000
355.525665	145.880000
355.619110	146.580000
355.712585	146.220000
355.806030	145.980000
355.899475	145.660000
355.992950	146.400000
356.086426	146.360000
356.179871	146.360000
356.273346	146.400000
356.366791	146.620000
356.460266	146.560000
356.553711	146.080000
356.647186	146.240000
356.740631	146.220000
356.834106	145.880000
356.927551	145.920000
357.021027	145.820000
357.114471	145.740000
357.207947	145.820000
357.301422	146.120000
357.394867	146.080000
357.488342	146.500000
357.581818	146.520000
357.675262	146.840000
357.768738	146.420000
357.862213	145.820000
357.955658	145.420000
358.049133	145.120000
358.142609	145.040000
358.236053	144.740000
358.329529	144.980000
358.423035	145.640000
358.516449	145.340000
358.609955	145.440000
358.703400	146.500000
358.796906	146.520000
358.890350	145.980000
358.983826	146.560000
359.077271	146.140000
359.170776	145.700000
359.264221	145.760000
359.357727	145.760000
359.451172	146.140000
359.544647	146.000000
359.638123	145.700000
359.731598	146.080000
359.825073	146.500000
359.918549	146.060000
360.012024	146.340000
360.105499	146.140000
360.198975	146.140000
360.292450	146.060000
360.385925	146.300000
360.479401	145.740000
360.572876	146.380000
360.666351	146.300000
360.759857	146.240000
360.853302	145.980000
360.946808	146.020000
361.040253	145.760000
361.133759	145.700000
361.227203	145.720000
361.320709	145.660000
361.414154	146.500000
361.507660	146.780000
361.601105	147.160000
361.694641	147.540000
361.788086	147.260000
361.881592	147.400000
361.975067	147.060000
362.068542	147.200000
362.162018	146.820000
362.255524	146.780000
362.348999	146.420000
362.442474	146.860000
362.535950	146.120000
362.629456	146.280000
362.722931	146.260000
362.816406	146.600000
362.909882	146.700000
363.003387	146.420000
363.096863	146.540000
363.190338	146.740000
363.283875	146.420000
363.377319	145.800000
363.470825	146.620000
363.564301	145.900000
363.657806	146.160000
363.751282	145.860000
363.844788	147.100000
363.938232	146.460000
364.031769	147.480000
364.125214	147.560000
364.218750	148.220000
364.312225	146.880000
364.405731	147.140000
364.499207	146.260000
364.592712	145.740000
364.686188	145.280000
364.779694	145.620000
364.873169	145.520000
364.966675	145.660000
365.060150	145.920000
365.153656	146.300000
365.247131	146.000000
365.340637	146.320000
365.434143	146.800000
365.527618	146.900000
365.621155	146.060000
365.714600	146.280000
365.808136	146.160000
365.901611	145.180000
365.995117	144.560000
366.088593	144.680000
366.182129	144.340000
366.275604	144.380000
366.369110	144.640000
366.462585	144.900000
366.556122	145.560000
366.649567	145.800000
366.743103	145.780000
366.836609	145.760000
366.930115	146.160000
367.023590	145.960000
367.117096	146.040000
367.210602	145.740000
367.304108	146.460000
367.397614	146.860000
367.491119	147.140000
367.584595	147.340000
367.678101	147.760000
367.771606	147.180000
367.865112	146.740000
367.958649	145.820000
368.052124	145.720000
368.145660	145.500000
368.239136	146.080000
368.332672	146.140000
368.426147	146.700000
368.519684	146.460000
368.613159	146.580000
368.706696	145.860000
368.800171	145.780000
368.893707	145.720000
368.987183	145.740000
369.080719	145.580000
369.174225	145.600000
369.267731	145.800000
369.361237	145.720000
369.454742	145.600000
369.548248	146.060000
369.641754	145.960000
369.735260	145.640000
369.828766	145.180000
369.922272	146.020000
370.015808	145.380000
370.109314	145.280000
370.202820	145.180000
370.296356	146.060000
370.389832	145.340000
370.483368	145.100000
370.576874	145.200000
370.670410	145.460000
370.763885	144.860000
370.857422	144.800000
370.950928	145.120000
371.044464	145.840000
371.137939	145.860000
371.231476	146.080000
371.324982	146.840000
371.418518	147.120000
371.512024	146.700000
371.605560	146.520000
371.699066	146.620000
371.792572	145.760000
371.886108	146.020000
371.979614	145.820000
372.073120	146.500000
372.166656	146.300000
372.260162	146.780000
372.353668	146.140000
372.447205	146.020000
372.540710	145.460000
372.634277	145.480000
372.727753	145.480000
372.821320	145.740000
372.914795	145.820000
373.008362	145.940000
373.101837	146.100000
373.195404	145.880000
373.288879	145.860000
373.382446	146.860000
373.475922	146.760000
373.569489	147.380000
373.662964	147.740000
373.756531	147.840000
373.850037	147.600000
373.943573	147.160000
374.037109	146.000000
374.130615	146.240000
374.224152	146.040000
374.317657	145.500000
374.411194	146.580000
374.504730	146.700000
374.598236	146.020000
374.691772	145.720000
374.785309	145.800000
374.878815	144.560000
374.972351	145.040000
375.065887	145.260000
375.159454	146.360000
375.252930	146.220000
375.346497	146.820000
375.440002	147.080000
375.533569	146.880000
375.627045	145.920000
375.720612	146.020000
375.814117	146.120000
375.907684	145.460000
376.001160	145.280000
376.094727	145.240000
376.188232	145.900000
376.281799	146.100000
376.375336	146.460000
376.468872	147.440000
376.562408	147.920000
376.655914	147.260000
376.749451	147.140000
376.842987	147.260000
376.936523	146.660000
377.030060	146.440000
377.123596	146.620000
377.217133	145.980000
377.310669	146.060000
377.404205	146.500000
377.497772	146.880000
377.591278	146.420000
377.684845	147.440000
377.778351	147.220000
377.871918	146.620000
377.965424	145.940000
378.058990	146.060000
378.152496	145.360000
378.246063	145.660000
378.339569	146.160000
378.433136	146.240000
378.526642	146.500000
378.620209	146.920000
378.713745	146.400000
378.807312	146.400000
378.900848	146.460000
378.994385	146.580000
379.087921	145.780000
379.181458	146.160000
379.274994	145.400000
379.368530	145.340000
379.462097	145.480000
379.555634	146.140000
379.649170	145.420000
379.742706	145.480000
379.836273	145.540000
379.929810	145.060000
380.023376	144.700000
380.116882	144.860000
380.210449	145.020000
380.303986	144.760000
380.397552	144.700000
380.491058	145.080000
380.584656	145.020000
380.678162	145.120000
380.771729	144.920000
380.865265	145.740000
380.958832	145.720000
381.052368	146.140000
381.145935	146.360000
381.239471	147.220000
381.333008	146.740000
381.426575	146.680000
381.520111	146.900000
381.613647	146.880000
381.707214	146.420000
381.800751	145.860000
381.894318	146.020000
381.987854	145.480000
382.081421	145.420000
382.174988	145.400000
382.268524	145.500000
382.362091	145.500000
382.455627	146.260000
382.549194	146.260000
382.642731	145.920000
382.736298	146.060000
382.829834	145.660000
382.923401	146.100000
383.016937	146.160000
383.110504	146.920000
383.204041	147.120000
383.297607	147.560000
383.391174	146.380000
383.484741	147.240000
383.578278	146.760000
383.671844	146.340000
383.765411	145.700000
383.858948	146.280000
383.952515	145.640000
384.046051	146.060000
384.139618	146.720000
384.233185	147.240000
384.326721	147.080000
384.420288	147.380000
384.513855	147.040000
384.607422	147.060000
384.700989	147.020000
384.794525	146.800000
384.888123	146.320000
384.981659	146.660000
385.075226	146.300000
385.168762	145.960000
385.262360	146.040000
385.355896	145.420000
385.449463	145.300000
385.542999	145.280000
385.636597	146.040000
385.730164	146.020000
385.823730	145.920000
385.917267	145.580000
386.010834	145.820000
386.104401	145.520000
386.197968	145.900000
386.291534	146.600000
386.385101	146.860000
386.478668	147.240000
386.572235	147.000000
386.665802	146.400000
386.759338	146.080000
386.852905	145.940000
386.946472	145.200000
387.040070	145.040000
387.133606	145.280000
387.227203	145.240000
387.320740	145.320000
387.414337	145.200000
387.507874	145.260000
387.601471	145.120000
387.695007	144.980000
387.788605	144.780000
387.882141	145.080000
387.975739	145.200000
388.069275	145.040000
388.162872	145.360000
388.256439	145.380000
388.350037	145.180000
388.443604	145.140000
388.537170	145.280000
388.630737	145.740000
388.724304	146.260000
388.817871	146.160000
388.911438	146.160000
389.005005	146.680000
389.098602	146.460000
389.192169	145.660000
389.285736	146.320000
389.379333	146.100000
389.472870	145.320000
389.566467	145.300000
389.660034	145.580000
389.753632	145.040000
389.847168	145.800000
389.940765	146.400000
390.034332	146.500000
390.127930	146.300000
390.221466	146.120000
390.315063	145.420000
390.408630	144.900000
390.502228	144.120000
390.595795	144.440000
390.689362	144.660000
390.782959	145.000000
390.876526	145.540000
390.970093	145.860000
391.063690	146.160000
391.157257	146.460000
391.250824	146.700000
391.344421	146.220000
391.437988	146.540000
391.531555	146.700000
391.625153	146.720000
391.718750	146.600000
391.812317	146.900000
391.905914	146.700000
391.999481	146.600000
392.093079	146.160000
392.186615	146.460000
392.280243	146.280000
392.373779	146.200000
392.467407	146.520000
392.560944	146.720000
392.654572	146.100000
392.748108	146.440000
392.841736	146.480000
392.935303	145.760000
393.028900	145.680000
393.122467	145.860000
393.216064	145.380000
393.309631	144.720000
393.403229	144.940000
393.496796	144.860000
393.590393	144.100000
393.683990	144.640000
393.777557	145.820000
393.871155	145.840000
393.964722	146.380000
394.058350	147.080000
394.151917	146.860000
394.245514	146.180000
394.339081	146.240000
394.432678	146.360000
394.526245	146.120000
394.619873	145.700000
394.713409	146.040000
394.807037	145.800000
394.900604	145.540000
394.994202	145.620000
395.087769	145.880000
395.181396	145.100000
395.274994	145.820000
395.368561	145.440000
395.462158	145.700000
395.555756	145.560000
395.649353	146.460000
395.742920	145.760000
395.836517	146.340000
395.930115	145.860000
396.023712	146.500000
396.117279	146.600000
396.210876	146.340000
396.304474	146.220000
396.398071	146.720000
396.491669	146.360000
396.585266	145.960000
396.678833	146.080000
396.772461	146.060000
396.866028	145.980000
396.959656	146.480000
397.053223	147.160000
397.146851	147.720000
397.240417	148.880000
397.334015	150.360000
397.427582	151.560000
397.521210	153.680000
397.614807	157.260000
397.708405	161.160000
397.802002	165.680000
397.895599	172.240000
397.989197	179.700000
398.082794	188.040000
398.176392	198.480000
398.269989	211.500000
398.363586	227.120000
398.457184	245.500000
398.550781	267.600000
398.644379	291.280000
398.737976	317.320000
398.831573	344.360000
398.925201	371.580000
399.018768	398.540000
399.112396	423.660000
399.205963	447.800000
399.299591	469.840000
399.393158	491.140000
399.486786	510.240000
399.580353	529.700000
399.673981	546.380000
399.767578	562.480000
399.861206	575.460000
399.954773	585.300000
400.048401	588.340000
400.141998	585.480000
400.235596	576.620000
400.329193	562.480000
400.422791	543.960000
400.516418	524.240000
400.610016	504.160000
400.703613	481.880000
400.797211	456.020000
400.890808	428.780000
400.984436	399.960000
401.078033	369.880000
401.171631	340.480000
401.265259	314.240000
401.358826	290.720000
401.452484	268.760000
401.546051	249.820000
401.639679	231.780000
401.733246	216.360000
401.826904	201.900000
401.920471	189.960000
402.014099	179.540000
402.107697	172.060000
402.201324	165.880000
402.294891	161.060000
402.388550	157.580000
402.482147	154.980000
402.575745	152.380000
402.669373	150.240000
402.762970	149.040000
402.856567	148.260000
402.950195	147.860000
403.043793	147.720000
403.137390	148.520000
403.231018	147.720000
403.324615	148.220000
403.418243	147.660000
403.511841	148.000000
403.605469	147.460000
403.699066	147.920000
403.792694	147.360000
403.886292	147.460000
403.979919	147.340000
404.073517	147.060000
404.167145	147.000000
404.260712	147.060000
404.354370	146.760000
404.447937	146.680000
404.541595	146.800000
404.635162	147.120000
404.728821	147.540000
404.822418	147.460000
404.916046	147.020000
405.009644	147.100000
405.103271	147.240000
405.196899	146.840000
405.290497	146.980000
405.384125	147.360000
405.477722	146.940000
405.571350	146.320000
405.664948	146.360000
405.758575	146.120000
405.852203	145.620000
405.945801	145.500000
406.039429	146.040000
406.133057	145.640000
406.226654	145.760000
406.320312	145.500000
406.413879	145.940000
406.507538	145.980000
406.601135	145.840000
406.694763	146.320000
406.788361	146.140000
406.882019	145.560000
406.975586	145.480000
407.069244	145.860000
407.162872	145.640000
407.256470	146.020000
407.350098	146.020000
407.443726	145.380000
407.537323	144.860000
407.630951	144.960000
407.724579	144.440000
407.818207	144.960000
407.911804	145.000000
408.005432	145.260000
408.099060	145.560000
408.192688	146.460000
408.286285	146.260000
408.379913	146.040000
408.473572	146.160000
408.567169	145.560000
408.660828	145.480000
408.754395	145.240000
408.848053	145.520000
408.941650	145.680000
409.035309	145.380000
409.128906	145.300000
409.222565	145.600000
409.316132	145.720000
409.409790	145.280000
409.503387	145.340000
409.597046	145.280000
409.690674	145.300000
409.784302	145.540000
409.877930	145.560000
409.971558	145.920000
410.065186	146.120000
410.158783	145.860000
410.252411	145.440000
410.346039	145.940000
410.439667	145.760000
410.533295	145.840000
410.626923	146.020000
410.720551	145.940000
410.814209	146.100000
410.907806	146.220000
411.001465	145.540000
411.095062	145.880000
411.188721	146.320000
411.282318	145.680000
411.375977	145.520000
411.469574	145.780000
411.563232	145.500000
411.656830	145.440000
411.750488	145.820000
411.844086	145.580000
411.937744	145.840000
412.031372	145.840000
412.125000	145.680000
412.218628	145.500000
412.312256	146.340000
412.405884	146.720000
412.499512	146.440000
412.593170	146.600000
412.686798	146.780000
412.780426	146.080000
412.874054	145.900000
412.967682	146.180000
413.061310	146.740000
413.154968	146.660000
413.248566	146.680000
413.342224	146.480000
413.435852	146.480000
413.529510	145.800000
413.623108	145.200000
413.716766	145.420000
413.810364	145.740000
413.904022	145.400000
413.997650	145.260000
414.091309	146.300000
414.184906	146.260000
414.278564	145.800000
414.372192	146.420000
414.465851	146.760000
414.559479	146.240000
414.653107	146.940000
414.746735	146.760000
414.840393	146.380000
414.934021	146.240000
415.027649	145.900000
415.121277	145.540000
415.214935	145.940000
415.308563	146.360000
415.402191	145.860000
415.495850	146.160000
415.589478	145.780000
415.683136	145.520000
415.776733	145.480000
415.870422	146.340000
415.964020	145.620000
416.057678	145.840000
416.151306	145.860000
416.244965	145.640000
416.338562	145.140000
416.432251	146.240000
416.525848	146.900000
416.619507	147.140000
416.713165	147.460000
416.806793	147.440000
416.900421	147.300000
416.994080	146.340000
417.087708	146.380000
417.181366	145.840000
417.274994	146.040000
417.368622	146.120000
417.462280	146.760000
417.555908	146.340000
417.649567	146.460000
417.743195	146.720000
417.836853	146.400000
417.930481	146.460000
418.024170	146.940000
418.117767	147.360000
418.211426	147.240000
418.305054	147.580000
418.398712	147.040000
418.492340	146.800000
418.585999	146.920000
418.679626	147.000000
418.773285	147.120000
418.866913	147.640000
418.960571	148.000000
419.054230	148.020000
419.147858	148.200000
419.241516	148.000000
419.335144	147.300000
419.428802	147.220000
419.522461	146.700000
419.616089	146.060000
419.709747	146.200000
419.803375	146.400000
419.897034	145.800000
419.990662	145.820000
420.084320	146.280000
420.177979	146.320000
420.271606	146.560000
420.365295	147.380000
420.458893	147.300000
420.552582	147.380000
420.646210	147.060000
420.739868	146.800000
420.833496	146.400000
420.927155	145.940000
421.020782	145.500000
421.114471	145.180000
421.208069	145.380000
421.301758	145.420000
421.395386	146.100000
421.489044	146.040000
421.582703	146.220000
421.676361	146.640000
421.769989	146.440000
421.863647	146.620000
421.957306	146.860000
422.050934	147.160000
422.144592	147.060000
422.238251	146.760000
422.331909	146.420000
422.425537	146.560000
422.519196	146.220000
422.612854	145.720000
422.706543	145.740000
422.800140	145.860000
422.893829	145.140000
422.987457	145.240000
423.081146	145.320000
423.174744	145.760000
423.268433	145.520000
423.362061	145.800000
423.455750	145.660000
423.549347	145.740000
423.643036	145.340000
423.736664	146.140000
423.830353	146.280000
423.924011	146.760000
424.017639	146.520000
424.111298	146.640000
424.204956	146.280000
424.298615	146.120000
424.392273	145.660000
424.485931	145.780000
424.579559	145.920000
424.673218	145.580000
424.766876	145.860000
424.860535	145.380000
424.954193	145.300000
425.047882	145.860000
425.141510	146.040000
425.235199	146.240000
425.328796	146.420000
425.422485	146.620000
425.516113	145.820000
425.609802	145.580000
425.703430	145.520000
425.797119	145.800000
425.890747	145.640000
425.984436	145.720000
426.078064	145.720000
426.171753	145.500000
426.265411	145.140000
426.359070	145.340000
426.452728	145.480000
426.546356	145.580000
426.640015	145.400000
426.733673	145.540000
426.827332	145.120000
426.920990	145.720000
427.014648	145.380000
427.108307	145.480000
427.201965	146.340000
427.295624	146.660000
427.389282	145.720000
427.482941	146.120000
427.576630	146.160000
427.670258	145.320000
427.763947	145.200000
427.857574	145.340000
427.951263	145.220000
428.044922	145.200000
428.138611	145.140000
428.232239	145.580000
428.325928	146.360000
428.419556	146.740000
428.513245	146.560000
428.606903	147.000000
428.700562	146.460000
428.794220	145.640000
428.887878	144.920000
428.981537	145.060000
429.075195	145.120000
429.168854	145.520000
429.262512	145.740000
429.356201	146.240000
429.449860	146.380000
429.543518	145.980000
429.637177	145.960000
429.730835	145.900000
429.824493	145.680000
429.918182	145.800000
430.011810	145.400000
430.105530	144.920000
430.199158	145.000000
430.292847	144.960000
430.386475	144.540000
430.480164	145.000000
430.573792	144.720000
430.667511	144.580000
430.761139	144.840000
430.854828	145.320000
430.948456	145.600000
431.042145	146.460000
431.135834	146.240000
431.229492	146.300000
431.323151	146.260000
431.416809	146.040000
431.510468	145.760000
431.604156	146.040000
431.697815	145.860000
431.791473	145.200000
431.885132	144.960000
431.978821	145.420000
432.072479	145.400000
432.166138	145.940000
432.259827	145.960000
432.353485	146.260000
432.447174	145.720000
432.540802	145.700000
432.634491	145.560000
432.728149	146.220000
432.821838	146.380000
432.915466	146.300000
433.009186	145.980000
433.102814	145.020000
433.196503	144.760000
433.290131	144.660000
433.383850	145.120000
433.477509	145.540000
433.571167	146.640000
433.664856	146.660000
433.758514	147.160000
433.852173	146.880000
433.945862	146.500000
434.039520	145.960000
434.133179	145.460000
434.226868	144.560000
434.320526	144.020000
434.414185	144.780000
434.507874	144.640000
434.601562	145.180000
434.695221	145.200000
434.788910	145.500000
434.882538	145.340000
434.976257	145.060000
435.069885	145.020000
435.163574	145.640000
435.257233	145.420000
435.350922	145.580000
435.444580	145.680000
435.538269	145.340000
435.631897	145.420000
435.725616	146.080000
435.819275	146.060000
435.912964	146.500000
436.006622	147.080000
436.100311	146.740000
436.193970	146.100000
436.287628	145.940000
436.381317	145.840000
436.474976	145.620000
436.568665	145.260000
436.662323	145.620000
436.756012	145.300000
436.849670	145.140000
436.943390	145.080000
437.037018	145.440000
437.130737	145.340000
437.224365	145.120000
437.318085	145.080000
437.411713	144.980000
437.505432	145.180000
437.599060	145.500000
437.692780	146.460000
437.786407	146.580000
437.880127	146.620000
437.973755	146.080000
438.067474	145.500000
438.161133	145.300000
438.254822	145.660000
438.348480	145.660000
438.442169	146.460000
438.535828	146.860000
438.629517	146.580000
438.723175	146.040000
438.816864	146.320000
438.910553	145.440000
439.004211	145.140000
439.097900	144.760000
439.191559	144.840000
439.285248	144.320000
439.378906	145.000000
439.472626	144.900000
439.566284	144.740000
439.659973	144.960000
439.753632	144.960000
439.847321	144.940000
439.940979	145.080000
440.034698	145.440000
440.128326	145.200000
440.222046	145.240000
440.315674	144.320000
440.409393	144.700000
440.503082	144.560000
440.596741	144.780000
440.690430	145.100000
440.784088	145.300000
440.877777	144.660000
440.971466	144.840000
441.065125	144.560000
441.158813	144.120000
441.252502	144.520000
441.346161	144.920000
441.439850	145.060000
441.533539	145.000000
441.627197	145.480000
441.720886	145.220000
441.814606	145.540000
441.908234	145.720000
442.001953	145.740000
442.095612	145.620000
442.189301	146.100000
442.282959	145.980000
442.376678	145.280000
442.470306	145.960000
442.564026	145.780000
442.657684	145.820000
442.751404	145.800000
442.845032	146.760000
442.938751	146.100000
443.032440	146.280000
443.126099	145.660000
443.219788	146.160000
443.313477	145.600000
443.407166	145.860000
443.500824	146.060000
443.594513	146.800000
443.688202	146.160000
443.781891	146.020000
443.875549	145.720000
443.969238	145.720000
444.062927	145.560000
444.156647	145.400000
444.250275	145.880000
444.343994	146.020000
444.437653	146.120000
444.531372	145.760000
444.625031	145.920000
444.718719	145.320000
444.812378	145.360000
444.906097	145.060000
444.999756	144.500000
445.093445	144.280000
445.187103	144.400000
445.280823	144.820000
445.374512	144.140000
445.468201	144.860000
445.561859	145.080000
445.655548	145.000000
445.749237	144.280000
445.842926	144.660000
445.936615	144.920000
446.030304	144.540000
446.123962	145.060000
446.217651	145.260000
446.311340	145.560000
446.405029	145.300000
446.498749	145.400000
446.592407	144.760000
446.686096	145.060000
446.779755	144.940000
446.873474	145.020000
446.967133	145.380000
447.060852	145.560000
447.154510	145.380000
447.248230	145.900000
447.341858	145.580000
447.435577	145.160000
447.529236	144.900000
447.622955	144.680000
447.716644	144.560000
447.810333	145.100000
447.904022	145.520000
447.997711	145.880000
448.091400	146.540000
448.185059	146.260000
448.278748	146.140000
448.372437	145.620000
448.466125	145.600000
448.559814	145.040000
448.653503	145.580000
448.747192	145.660000
448.840912	146.540000
448.934570	146.520000
449.028290	147.060000
449.121948	146.520000
449.215637	146.140000
449.309296	145.680000
449.403015	145.760000
449.496674	145.580000
449.590393	145.880000
449.684052	145.860000
449.777771	146.760000
449.871429	146.280000
449.965149	146.020000
450.058838	146.120000
450.152527	146.380000
450.246216	145.540000
450.339905	145.820000
450.433594	145.660000
450.527283	145.860000
450.620972	145.780000
450.714661	145.540000
450.808350	145.800000
450.902039	146.280000
450.995728	145.880000
451.089417	145.800000
451.183105	146.040000
451.276794	146.600000
451.370514	145.820000
451.464172	145.060000
451.557892	144.820000
451.651550	145.100000
451.745270	144.540000
451.838928	144.180000
451.932648	144.900000
452.026306	145.640000
452.120026	144.860000
452.213684	145.080000
452.307404	145.740000
452.401062	145.860000
452.494781	146.020000
452.588470	146.700000
452.682159	146.120000
452.775848	146.280000
452.869537	145.800000
452.963226	145.020000
453.056915	144.620000
453.150604	145.000000
453.244293	144.860000
453.337982	145.320000
453.431671	145.960000
453.525360	146.720000
453.619049	146.720000
453.712769	146.880000
453.806427	146.600000
453.900146	146.100000
453.993805	145.700000
454.087555	146.000000
454.181213	146.000000
454.274933	145.700000
454.368591	145.460000
454.462311	145.260000
454.555969	144.880000
454.649689	145.720000
454.743347	145.660000
454.837067	146.500000
454.930756	146.820000
455.024445	146.980000
455.118134	146.340000
455.211853	146.580000
455.305542	146.020000
455.399231	145.860000
455.492920	145.560000
455.586609	145.320000
455.680298	145.340000
455.773987	145.040000
455.867676	145.100000
455.961365	145.280000
456.055084	145.240000
456.148773	145.160000
456.242493	145.300000
456.336151	145.440000
456.429871	145.640000
456.523529	145.880000
456.617249	145.940000
456.710907	146.440000
456.804626	146.040000
456.898315	145.540000
456.992035	145.340000
457.085693	144.960000
457.179413	144.300000
457.273102	145.180000
457.366791	145.340000
457.460480	145.660000
457.554199	146.640000
457.647888	146.760000
457.741577	146.420000
457.835266	146.580000
457.928955	146.440000
458.022644	146.440000
458.116364	146.900000
458.210052	146.320000
458.303741	146.300000
458.397461	145.980000
458.491119	145.060000
458.584839	144.840000
458.678528	144.800000
458.772247	144.460000
458.865906	144.540000
458.959625	145.640000
459.053284	145.520000
459.147003	145.640000
459.240692	146.420000
459.334412	146.820000
459.428070	146.000000
459.521790	145.700000
459.615479	145.400000
459.709198	145.420000
459.802887	144.820000
459.896576	144.800000
459.990265	145.060000
460.083954	145.560000
460.177673	144.820000
460.271362	144.900000
460.365051	144.940000
460.458740	144.720000
460.552429	144.240000
460.646149	144.300000
460.739838	144.220000
460.833527	144.200000
460.927246	144.020000
461.020905	143.980000
461.114655	144.020000
461.208313	144.680000
461.302032	144.460000
461.395691	145.260000
461.489441	145.700000
461.583099	145.880000
461.676819	145.220000
461.770477	145.840000
461.864197	145.260000
461.957916	145.000000
462.051605	144.360000
462.145294	145.300000
462.238983	144.980000
462.332703	145.820000
462.426392	146.240000
462.520081	146.480000
462.613770	145.840000
462.707489	146.120000
462.801178	145.480000
462.894867	145.080000
462.988556	145.340000
463.082275	145.300000
463.175964	144.780000
463.269684	145.120000
463.363342	145.520000
463.457092	145.020000
463.550751	145.560000
463.644470	145.880000
463.738129	145.500000
463.831879	145.240000
463.925537	146.540000
464.019257	146.300000
464.112946	146.260000
464.206665	146.260000
464.300323	146.340000
464.394043	145.720000
464.487762	145.460000
464.581451	145.680000
464.675140	145.320000
464.768829	145.420000
464.862549	145.400000
464.956238	145.640000
465.049927	145.720000
465.143646	146.160000
465.237335	146.060000
465.331024	146.640000
465.424713	146.540000
465.518433	146.500000
465.612152	146.520000
465.705811	146.380000
465.799561	146.100000
465.893219	145.980000
465.986938	145.680000
466.080597	145.340000
466.174347	145.500000
466.268005	145.300000
466.361725	145.320000
466.455414	145.320000
466.549133	145.140000
466.642792	145.340000
466.736542	144.600000
466.830231	144.680000
466.923920	144.520000
467.017609	144.820000
467.111328	144.260000
467.205017	144.700000
467.298706	144.620000
467.392426	145.040000
467.486115	145.540000
467.579803	145.680000
467.673523	146.060000
467.767212	146.260000
467.860901	145.800000
467.954651	145.720000
468.048309	146.000000
468.142029	145.600000
468.235718	145.520000
468.329437	145.540000
468.423096	145.400000
468.516846	145.060000
468.610504	145.140000
468.704224	144.860000
468.797913	145.100000
468.891632	144.940000
468.985291	145.200000
469.079010	145.040000
469.172729	144.700000
469.266418	145.140000
469.360107	145.320000
469.453827	144.960000
469.547516	145.360000
469.641205	146.000000
469.734924	145.840000
469.828613	146.260000
469.922302	146.400000
470.016022	146.400000
470.109711	146.560000
470.203430	145.960000
470.297150	144.620000
470.390808	144.880000
470.484558	144.500000
470.578217	144.540000
470.671936	145.300000
470.765625	146.460000
470.859344	146.360000
470.953003	146.660000
471.046753	146.220000
471.140411	145.500000
471.234131	145.600000
471.327820	145.820000
471.421539	145.880000
471.515228	145.780000
471.608948	146.100000
471.702637	145.560000
471.796326	145.100000
471.890045	145.080000
471.983734	145.380000
472.077423	144.940000
472.171143	144.720000
472.264832	144.720000
472.358521	144.740000
472.452240	144.520000
472.545929	145.280000
472.639648	145.620000
472.733337	146.480000
472.827057	146.400000
472.920746	146.560000
473.014465	146.740000
473.108124	146.820000
473.201874	146.160000
473.295532	145.960000
473.389252	146.120000
473.482941	146.120000
473.576660	146.080000
473.670319	146.080000
473.764069	146.400000
473.857727	146.500000
473.951477	146.640000
474.045166	147.300000
474.138855	147.160000
474.232574	146.880000
474.326263	146.740000
474.419952	146.500000
474.513672	145.980000
474.607361	145.860000
474.701050	146.140000
474.794769	146.180000
474.888458	146.340000
474.982178	146.340000
475.075867	146.860000
475.169586	146.580000
475.263275	146.520000
475.356995	146.280000
475.450653	145.980000
475.544403	145.360000
475.638062	146.080000
475.731812	145.540000
475.825470	145.140000
475.919189	145.220000
476.012878	145.820000
476.106598	144.780000
476.200256	145.440000
476.294006	145.520000
476.387695	145.760000
476.481384	145.660000
476.575104	145.980000
476.668793	145.720000
476.762512	145.280000
476.856201	145.560000
476.949890	145.240000
477.043610	144.740000
477.137299	144.780000
477.230988	145.500000
477.324707	144.800000
477.418396	145.260000
477.512146	145.600000
477.605804	145.620000
477.699524	145.820000
477.793213	145.740000
477.886932	145.100000
477.980591	145.040000
478.074341	144.860000
478.167999	144.300000
478.261749	144.860000
478.355408	145.220000
478.449127	145.500000
478.542816	146.160000
478.636536	146.740000
478.730225	146.840000
478.823944	146.860000
478.917633	146.780000
479.011322	146.660000
479.105042	146.500000
479.198730	146.460000
479.292450	146.300000
479.386139	146.540000
479.479828	146.520000
479.573547	146.740000
479.667267	146.440000
479.760925	146.640000
479.854675	146.600000
479.948334	146.480000
480.042084	145.800000
480.135742	146.140000
480.229462	145.600000
480.323151	145.620000
480.416870	144.860000
480.510529	145.020000
480.604279	144.540000
480.697937	145.340000
480.791656	144.980000
480.885345	145.280000
480.979065	144.960000
481.072754	145.480000
481.166473	145.520000
481.260132	145.620000
481.353882	145.580000
481.447540	145.640000
481.541260	145.680000
481.635010	145.220000
481.728668	145.220000
481.822388	145.380000
481.916077	145.760000
482.009796	145.280000
482.103485	145.440000
482.197205	145.440000
482.290863	145.780000
482.384613	145.480000
482.478271	145.320000
482.571991	145.500000
482.665680	145.420000
482.759399	145.880000
482.853058	146.400000
482.946808	146.280000
483.040466	146.160000
483.134216	146.480000
483.227875	145.720000
483.321594	145.840000
483.415283	146.240000
483.509003	145.980000
483.602661	145.580000
483.696411	146.000000
483.790070	145.700000
483.883789	145.720000
483.977478	146.080000
484.071198	146.240000
484.164917	145.820000
484.258606	145.360000
484.352325	145.420000
484.445984	145.240000
484.539734	144.980000
484.633392	144.280000
484.727142	144.900000
484.820801	144.860000
484.914520	144.660000
485.008209	145.220000
485.101929	146.040000
485.195587	145.680000
485.289337	145.620000
485.382996	146.120000
485.476715	146.040000
485.570404	146.240000
485.664124	146.360000
485.757782	146.620000
485.851532	145.900000
485.945190	145.920000
486.038910	146.120000
486.132599	146.280000
486.226318	145.660000
486.319977	145.820000
486.413727	146.100000
486.507446	145.400000
486.601105	144.840000
486.694855	144.880000
486.788513	144.880000
486.882233	144.720000
486.975922	144.800000
487.069641	145.240000
487.163300	145.580000
487.257050	146.940000
487.350708	146.200000
487.444427	146.020000
487.538116	145.880000
487.631836	145.720000
487.725494	144.780000
487.819214	145.240000
487.912903	145.380000
488.006622	145.920000
488.100281	146.280000
488.194031	146.020000
488.287689	146.460000
488.381409	147.180000
488.475098	146.720000
488.568817	146.660000
488.662476	146.580000
488.756226	145.980000
488.849945	145.040000
488.943604	145.180000
489.037354	145.260000
489.131012	145.440000
489.224731	145.080000
489.318390	145.360000
489.412140	145.140000
489.505798	144.640000
489.599518	144.200000
489.693207	144.920000
489.786926	144.640000
489.880585	144.500000
489.974335	145.020000
490.067993	146.020000
490.161713	145.960000
490.255371	146.780000
490.349121	146.900000
490.442780	146.680000
490.536499	145.720000
490.630188	145.700000
490.723907	145.240000
490.817566	145.240000
490.911285	145.140000
491.004974	145.300000
491.098694	144.980000
491.192413	145.700000
491.286102	145.480000
491.379822	145.500000
491.473480	145.680000
491.567200	145.860000
491.660889	145.080000
491.754608	145.300000
491.848267	145.420000
491.941986	145.420000
492.035675	145.440000
492.129395	145.640000
492.223053	145.420000
492.316772	145.740000
492.410461	145.740000
492.504181	145.800000
492.597839	145.480000
492.691559	145.960000
492.785248	145.700000
492.878967	145.740000
492.972626	145.460000
493.066345	145.700000
493.160034	144.860000
493.253754	144.880000
493.347412	144.600000
493.441132	144.900000
493.534882	145.560000
493.628540	146.460000
493.722260	146.440000
493.815918	146.880000
493.909668	147.240000
494.003326	146.840000
494.097046	146.560000
494.190704	146.560000
494.284454	146.420000
494.378113	146.300000
494.471832	146.020000
494.565491	145.700000
494.659210	145.660000
494.752899	145.620000
494.846619	145.480000
494.940277	145.800000
495.033997	146.020000
495.127686	145.860000
495.221405	145.680000
495.315063	145.580000
495.408783	145.620000
495.502441	145.600000
495.596191	145.740000
495.689850	145.680000
495.783569	145.880000
495.877228	145.840000
495.970947	145.480000
496.064697	145.320000
496.158356	146.300000
496.252075	146.180000
496.345734	146.040000
496.439453	146.920000
496.533142	147.060000
496.626862	146.920000
496.720520	146.940000
496.814240	146.980000
496.907898	146.660000
497.001617	146.740000
497.095306	146.140000
497.189026	145.920000
497.282684	145.940000
497.376404	146.080000
497.470062	145.640000
497.563782	145.840000
497.657471	145.820000
497.751190	145.520000
497.844849	145.600000
497.938568	146.200000
498.032227	146.060000
498.125946	146.180000
498.219635	146.140000
498.313354	146.220000
498.407074	145.620000
498.500732	145.760000
498.594452	146.160000
498.688110	145.820000
498.781830	145.100000
498.875519	145.040000
498.969238	144.800000
499.062897	144.120000
499.156616	145.180000
499.250275	145.540000
499.343994	145.540000
499.437653	145.620000
499.531372	146.000000
499.625061	146.100000
499.718781	146.340000
499.812439	147.080000
499.906158	146.840000
499.999817	146.600000
500.093536	145.900000
500.187195	146.120000
500.280914	145.940000
500.374573	146.380000
500.468323	146.360000
500.561981	146.620000
500.655701	145.760000
500.749420	145.380000
500.843079	145.640000
500.936798	145.900000
501.030457	146.260000
501.124176	146.700000
501.217834	146.760000
501.311554	146.520000
501.405212	146.200000
501.498962	145.300000
501.592621	145.200000
501.686340	145.400000
501.779999	145.340000
501.873718	145.800000
501.967377	146.420000
502.061096	146.780000
502.154755	146.300000
502.248474	146.280000
502.342133	146.100000
502.435852	145.580000
502.529510	146.300000
502.623230	147.240000
502.716888	146.900000
502.810608	146.880000
502.904266	147.460000
502.997986	146.660000
503.091705	145.760000
503.185364	145.680000
503.279083	145.700000
503.372772	145.520000
503.466492	144.760000
503.560150	145.060000
503.653870	145.860000
503.747528	145.860000
503.841248	145.780000
503.934906	146.680000
504.028625	146.540000
504.122284	146.220000
504.216003	147.040000
504.309662	146.520000
504.403381	146.240000
504.497040	146.320000
504.590759	146.180000
504.684418	145.780000
504.778137	146.880000
504.871796	147.140000
504.965515	146.860000
505.059174	146.920000
505.152893	146.540000
505.246521	145.740000
505.340240	145.480000
505.433899	145.740000
505.527618	145.780000
505.621338	145.800000
505.714996	145.800000
505.808716	145.660000
505.902374	146.340000
505.996094	146.300000
506.089752	146.140000
506.183472	146.600000
506.277130	146.860000
506.370850	146.260000
506.464508	145.960000
506.558228	146.280000
506.651886	145.700000
506.745605	145.780000
506.839264	145.800000
506.932983	146.200000
507.026611	145.740000
507.120331	146.300000
507.213989	145.500000
507.307709	145.680000
507.401367	145.680000
507.495087	146.780000
507.588745	146.360000
507.682465	147.440000
507.776123	147.500000
507.869843	147.040000
507.963531	146.380000
508.057190	146.540000
508.150909	145.660000
508.244568	145.620000
508.338287	145.800000
508.431946	145.220000
508.525665	145.120000
508.619324	145.280000
508.713013	145.280000
508.806671	145.620000
508.900391	146.420000
508.994049	146.900000
509.087769	146.600000
509.181427	146.640000
509.275146	146.260000
509.368774	145.320000
509.462494	144.960000
509.556152	145.220000
509.649872	145.280000
509.743530	145.520000
509.837250	146.160000
509.930878	146.260000
510.024597	146.300000
510.118256	146.060000
510.211975	145.840000
510.305695	145.220000
510.399353	145.260000
510.493042	145.600000
510.586700	146.020000
510.680420	146.660000
510.774078	146.840000
510.867798	146.780000
510.961426	146.540000
511.055145	146.180000
511.148804	145.700000
511.242523	146.240000
511.336151	146.380000
511.429871	146.840000
511.523529	146.760000
511.617249	146.400000
511.710876	145.940000
511.804596	145.580000
511.898254	145.220000
511.991974	145.700000
512.085632	145.780000
512.179321	145.940000
512.272949	146.420000
512.366699	147.000000
512.460327	146.600000
512.554077	147.500000
512.647766	147.840000
512.741394	147.440000
512.835144	147.280000
512.928772	147.020000
513.022461	146.320000
513.116150	145.880000
513.209839	146.300000
513.303467	145.780000
513.397217	145.540000
513.490845	145.640000
513.584595	145.580000
513.678223	145.080000
513.771912	144.380000
513.865601	145.060000
513.959290	144.740000
514.052917	144.780000
514.146667	145.500000
514.240295	146.340000
514.333984	146.480000
514.427673	146.480000
514.521362	146.900000
514.614990	146.140000
514.708740	146.280000
514.802368	145.980000
514.896057	146.280000
514.989746	146.920000
515.083435	146.940000
515.177124	147.060000
515.270752	147.140000
515.364502	147.200000
515.458130	146.820000
515.551819	146.740000
515.645508	146.540000
515.739197	146.480000
515.832825	146.320000
515.926575	145.660000
516.020203	145.780000
516.113892	146.200000
516.207520	146.200000
516.301270	146.580000
516.394897	146.780000
516.488586	147.260000
516.582275	146.960000
516.675964	146.200000
516.769592	145.820000
516.863281	146.700000
516.956970	146.740000
517.050659	146.740000
517.144287	147.160000
517.238037	147.260000
517.331665	146.260000
517.425354	145.940000
517.519043	145.440000
517.612732	145.720000
517.706421	145.580000
517.800049	145.580000
517.893738	144.980000
517.987427	145.320000
518.081116	145.060000
518.174744	144.800000
518.268433	145.220000
518.362122	146.020000
518.455811	145.920000
518.549438	146.600000
518.643127	147.440000
518.736816	147.100000
518.830505	146.480000
518.924133	146.220000
519.017822	146.160000
519.111511	145.980000
519.205200	146.480000
519.298828	146.720000
519.392517	146.660000
519.486206	146.620000
519.579895	146.320000
519.673523	145.600000
519.767212	145.800000
519.860901	146.480000
519.954590	145.980000
520.048279	145.640000
520.141907	145.680000
520.235596	146.620000
520.329224	146.600000
520.422974	146.720000
520.516602	146.820000
520.610291	146.680000
520.703918	146.120000
520.797607	145.560000
520.891296	145.720000
520.984985	145.760000
521.078613	146.400000
521.172302	145.600000
521.265930	146.640000
521.359680	146.900000
521.453308	147.060000
521.546997	146.820000
521.640625	147.100000
521.734314	146.240000
521.827942	145.940000
521.921692	146.060000
522.015320	146.180000
522.109009	146.020000
522.202698	146.040000
522.296326	145.760000
522.390015	146.120000
522.483704	146.280000
522.577393	146.020000
522.671021	145.840000
522.764709	145.880000
522.858337	145.920000
522.952026	145.580000
523.045654	146.280000
523.139404	146.820000
523.233032	147.140000
523.326721	146.920000
523.420349	147.000000
523.514038	146.660000
523.607666	147.080000
523.701355	146.500000
523.795044	146.220000
523.888733	146.360000
523.982361	146.720000
524.076050	145.740000
524.169678	146.160000
524.263367	146.020000
524.356995	145.520000
524.450684	145.400000
524.544373	145.580000
524.638062	145.600000
524.731750	145.740000
524.825378	145.980000
524.919067	145.340000
525.012695	145.460000
525.106384	145.300000
525.200012	145.360000
525.293701	145.400000
525.387329	145.920000
525.481018	146.100000
525.574646	146.340000
525.668396	146.280000
525.762024	146.540000
525.855713	146.740000
525.949341	146.180000
526.043030	146.160000
526.136658	146.200000
526.230347	145.700000
526.323975	145.340000
526.417664	145.400000
526.511292	145.680000
526.604980	145.740000
526.698608	146.140000
526.792297	146.440000
526.885925	146.840000
526.979614	146.820000
527.073303	146.780000
527.166931	146.580000
527.260620	146.620000
527.354309	146.780000
527.447998	146.580000
527.541626	146.580000
527.635315	146.460000
527.728943	146.940000
527.822632	146.980000
527.916260	146.840000
528.009949	147.060000
528.103577	147.100000
528.197266	146.000000
528.290894	145.860000
528.384583	145.800000
528.478210	145.680000
528.571899	145.900000
528.665527	146.720000
528.759216	146.780000
528.852844	147.340000
528.946533	147.140000
529.040161	146.980000
529.133850	146.400000
529.227478	146.620000
529.321167	146.480000
529.414856	146.980000
529.508484	147.400000
529.602173	147.340000
529.695801	146.940000
529.789490	146.560000
529.883057	146.200000
529.976746	146.400000
530.070374	146.880000
530.164062	147.140000
530.257690	147.760000
530.351379	147.820000
530.445007	147.500000
530.538696	146.680000
530.632324	146.700000
530.726013	146.380000
530.819641	146.540000
530.913330	146.380000
531.006958	146.680000
531.100647	146.480000
531.194275	146.100000
531.287964	145.520000
531.381592	145.420000
531.475220	145.700000
531.568848	145.440000
531.662537	145.620000
531.756226	146.480000
531.849854	146.600000
531.943542	146.380000
532.037170	146.320000
532.130859	146.840000
532.224487	145.800000
532.318176	145.360000
532.411804	145.960000
532.505432	146.320000
532.599060	145.680000
532.692749	146.300000
532.786377	147.140000
532.880066	146.340000
532.973694	145.520000
533.067383	145.480000
533.161011	145.240000
533.254639	144.700000
533.348267	144.600000
533.441956	145.420000
533.535583	145.240000
533.629272	145.460000
533.722900	145.100000
533.816589	145.400000
533.910156	145.520000
534.003845	145.640000
534.097534	145.880000
534.191162	146.640000
534.284851	146.700000
534.378479	146.280000
534.472107	146.380000
534.565735	145.980000
534.659424	145.940000
534.753052	146.220000
534.846741	145.920000
534.940369	146.420000
535.033997	146.400000
535.127625	146.440000
535.221313	146.920000
535.314941	147.280000
535.408630	146.620000
535.502197	147.020000
535.595886	146.640000
535.689514	146.140000
535.783203	146.680000
535.876831	147.460000
535.970459	147.160000
536.064087	147.260000
536.157776	147.220000
536.251404	146.880000
536.345093	146.140000
536.438721	146.400000
536.532349	146.600000
536.626038	146.440000
536.719666	146.760000
536.813293	146.940000
536.906921	146.940000
537.000610	146.840000
537.094238	147.060000
537.187866	146.800000
537.281494	146.780000
537.375183	146.840000
537.468811	146.500000
537.562439	146.360000
537.656067	146.360000
537.749756	146.160000
537.843384	146.300000
537.937012	146.540000
538.030640	146.260000
538.124329	146.120000
538.217896	146.740000
538.311584	146.360000
538.405212	146.580000
538.498901	146.940000
538.592468	147.580000
538.686157	146.960000
538.779785	146.740000
538.873413	146.320000
538.967102	145.840000
539.060730	145.080000
539.154358	145.480000
539.247986	145.740000
539.341675	146.140000
539.435242	146.320000
539.528931	146.560000
539.622559	145.980000
539.716187	146.580000
539.809814	146.320000
539.903503	146.360000
539.997070	146.120000
540.090759	146.300000
540.184387	145.720000
540.278015	146.000000
540.371643	146.220000
540.465332	146.420000
540.558899	146.400000
540.652588	146.280000
540.746216	146.060000
540.839844	146.260000
540.933472	146.440000
541.027100	146.620000
541.120728	146.740000
541.214417	146.840000
541.308044	147.000000
541.401672	146.680000
541.495300	146.420000
541.588928	146.460000
541.682617	146.160000
541.776184	145.360000
541.869873	145.520000
541.963440	145.800000
542.057129	145.560000
542.150757	145.900000
542.244385	146.140000
542.338013	145.720000
542.431641	145.820000
542.525269	145.960000
542.618958	146.020000
542.712524	146.260000
542.806213	146.160000
542.899780	146.020000
542.993469	145.860000
543.087036	145.780000
543.180725	145.320000
543.274292	145.920000
543.367981	146.260000
543.461548	146.520000
543.555237	146.360000
543.648926	146.840000
543.742493	147.380000
543.836182	147.020000
543.929749	146.980000
544.023437	147.060000
544.117004	147.160000
544.210693	146.880000
544.304260	147.020000
544.397949	146.940000
544.491516	147.120000
544.585205	146.960000
544.678772	146.320000
544.772461	146.760000
544.866028	146.760000
544.959717	146.620000
545.053284	146.360000
545.146973	146.900000
545.240540	146.860000
545.334229	147.380000
545.427795	147.520000
545.521423	147.940000
545.615051	147.700000
545.708679	147.580000
545.802307	147.160000
545.895935	147.520000
545.989624	147.980000
546.083191	147.900000
546.176880	147.780000
546.270447	147.320000
546.364136	147.360000
546.457703	146.740000
546.551331	146.780000
546.644958	147.100000
546.738586	147.520000
546.832214	146.840000
546.925842	146.880000
547.019409	147.100000
547.113098	146.500000
547.206665	145.980000
547.300354	146.200000
547.393921	146.120000
547.487549	146.320000
547.581177	146.080000
547.674805	146.400000
547.768433	145.620000
547.862061	145.500000
547.955627	144.720000
548.049316	145.460000
548.142883	145.900000
548.236572	146.660000
548.330139	146.980000
548.423767	147.040000
548.517456	146.840000
548.611023	146.980000
548.704651	146.480000
548.798279	146.560000
548.891907	147.300000
548.985474	147.160000
549.079163	147.080000
549.172729	147.000000
549.266357	146.380000
549.359985	145.900000
549.453613	145.380000
549.547180	144.980000
549.640869	145.880000
549.734436	145.980000
549.828064	146.420000
549.921631	146.760000
550.015320	146.360000
550.108887	146.160000
550.202515	146.140000
550.296143	145.660000
550.389771	145.760000
550.483337	146.000000
550.576965	145.660000
550.670593	146.020000
550.764221	146.180000
550.857849	146.200000
550.951477	145.880000
551.045105	145.900000
551.138672	145.700000
551.232300	145.360000
551.325928	145.300000
551.419556	145.880000
551.513123	145.820000
551.606750	145.700000
551.700378	145.900000
551.794006	146.100000
551.887573	145.960000
551.981201	146.300000
552.074768	146.440000
552.168457	146.300000
552.262024	147.020000
552.355652	147.000000
552.449219	147.360000
552.542847	147.520000
552.636475	147.440000
552.730103	146.240000
552.823669	146.240000
552.917297	145.580000
553.010864	145.440000
553.104553	145.540000
553.198181	145.540000
553.291748	145.740000
553.385376	146.260000
553.478943	146.160000
553.572571	146.380000
553.666199	146.920000
553.759827	146.580000
553.853394	145.940000
553.947021	146.100000
554.040588	146.300000
554.134216	146.100000
554.227783	146.780000
554.321411	147.420000
554.415039	146.940000
554.508667	146.620000
554.602234	146.880000
554.695862	146.160000
554.789429	145.920000
554.883057	146.320000
554.976624	146.140000
555.070251	145.860000
555.163818	145.980000
555.257507	145.800000
555.351074	145.700000
555.444702	146.780000
555.538330	146.620000
555.631897	147.020000
555.725525	147.200000
555.819092	147.280000
555.912720	146.220000
556.006287	147.000000
556.099915	146.840000
556.193481	146.960000
556.287109	146.960000
556.380676	146.840000
556.474304	146.620000
556.567871	146.620000
556.661499	145.980000
556.755066	145.840000
556.848694	146.240000
556.942261	145.880000
557.035889	146.100000
557.129517	146.240000
557.223145	147.220000
557.316711	147.160000
557.410339	147.480000
557.503906	147.200000
557.597473	147.660000
557.691040	146.860000
557.784668	146.920000
557.878296	146.480000
557.971863	146.580000
558.065491	146.580000
558.159058	146.300000
558.252686	146.780000
558.346252	147.660000
558.439880	147.200000
558.533447	146.740000
558.627075	146.620000
558.720642	146.060000
558.814270	145.500000
558.907837	145.840000
559.001465	145.620000
559.095032	146.480000
559.188660	146.520000
559.282227	146.020000
559.375854	146.520000
559.469360	146.900000
559.562988	146.960000
559.656555	146.980000
559.750183	147.140000
559.843750	146.900000
559.937378	147.020000
560.030945	146.420000
560.124573	0.000000
560.218140	0.000000
560.311707	0.000000
560.405334	0.000000
560.498901	0.000000
560.592529	0.000000
560.686096	0.000000
560.779724	0.000000
560.873291	0.000000
560.966858	0.000000
561.060425	0.000000
561.154053	0.000000
561.247620	0.000000
561.341248	0.000000
561.434814	0.000000
561.528381	0.000000
561.621948	0.000000
561.715576	0.000000
561.809143	0.000000
561.902771	0.000000
561.996277	0.000000
562.089905	0.000000
562.183472	0.000000
562.277100	0.000000
