Model Number: SPM-002-B   
Serial Number: 70087108
Firmware Version: 004.15.4
Exposure Time: 100000.000000us
Data Taken on: 11-12-2020 19:36:14.576
Wavelength	Amplitude
221.570786	0.000000
221.663406	0.000000
221.756027	0.000000
221.848648	0.000000
221.941269	0.000000
222.033905	0.000000
222.126526	0.000000
222.219162	0.000000
222.311798	0.000000
222.404419	0.000000
222.497055	0.000000
222.589676	0.000000
222.682312	0.000000
222.774933	0.000000
222.867569	0.000000
222.960205	0.000000
223.052841	0.000000
223.145462	0.000000
223.238098	0.000000
223.330734	0.000000
223.423386	0.000000
223.516022	0.000000
223.608658	0.000000
223.701309	0.000000
223.793945	0.000000
223.886581	0.000000
223.979218	0.000000
224.071869	0.000000
224.164505	0.000000
224.257156	0.000000
224.349792	0.000000
224.442444	0.000000
224.535095	0.000000
224.627747	0.000000
224.720398	0.000000
224.813034	0.000000
224.905685	0.000000
224.998337	145.740000
225.090988	145.520000
225.183640	145.400000
225.276291	145.220000
225.368942	145.500000
225.461594	146.160000
225.554245	146.460000
225.646912	146.700000
225.739578	147.060000
225.832230	147.160000
225.924896	146.300000
226.017548	146.780000
226.110199	147.120000
226.202866	146.440000
226.295532	146.540000
226.388184	146.500000
226.480850	145.600000
226.573517	144.980000
226.666168	145.620000
226.758835	145.880000
226.851501	146.460000
226.944183	146.700000
227.036850	146.420000
227.129517	146.320000
227.222183	146.080000
227.314850	145.920000
227.407516	146.020000
227.500198	146.740000
227.592865	146.440000
227.685532	146.140000
227.778214	146.060000
227.870880	146.480000
227.963562	146.680000
228.056229	146.900000
228.148926	146.940000
228.241592	147.840000
228.334274	147.440000
228.426956	146.960000
228.519638	147.220000
228.612305	146.940000
228.704987	146.240000
228.797668	146.040000
228.890350	145.860000
228.983032	145.000000
229.075714	145.760000
229.168396	145.680000
229.261108	145.640000
229.353790	145.860000
229.446472	146.340000
229.539169	146.020000
229.631851	145.800000
229.724533	145.860000
229.817230	146.180000
229.909912	147.120000
230.002609	147.320000
230.095306	147.600000
230.187988	147.780000
230.280685	147.420000
230.373383	146.160000
230.466095	145.740000
230.558792	145.740000
230.651474	145.600000
230.744171	145.620000
230.836868	145.400000
230.929581	145.700000
231.022278	145.860000
231.114975	145.880000
231.207672	145.600000
231.300369	146.400000
231.393082	146.400000
231.485779	145.920000
231.578506	146.000000
231.671204	145.980000
231.763916	145.820000
231.856613	145.660000
231.949326	146.100000
232.042023	145.840000
232.134735	146.420000
232.227448	146.000000
232.320160	146.480000
232.412872	146.260000
232.505585	147.140000
232.598297	147.300000
232.691010	147.480000
232.783722	146.800000
232.876450	147.160000
232.969162	146.520000
233.061874	145.980000
233.154587	145.820000
233.247314	146.340000
233.340027	145.720000
233.432739	146.160000
233.525467	145.960000
233.618179	146.520000
233.710907	146.200000
233.803635	147.080000
233.896347	146.560000
233.989090	147.420000
234.081818	146.960000
234.174545	147.000000
234.267258	146.080000
234.359985	146.320000
234.452713	145.820000
234.545441	145.840000
234.638168	145.420000
234.730896	146.140000
234.823639	145.920000
234.916367	146.340000
235.009094	146.440000
235.101822	146.780000
235.194580	146.640000
235.287308	147.040000
235.380051	146.300000
235.472778	146.600000
235.565521	146.860000
235.658249	146.480000
235.750992	146.440000
235.843719	146.720000
235.936462	146.980000
236.029205	146.780000
236.121948	146.580000
236.214691	146.860000
236.307449	147.360000
236.400192	146.880000
236.492935	146.560000
236.585678	146.900000
236.678421	146.600000
236.771164	146.460000
236.863907	147.200000
236.956665	147.780000
237.049408	149.160000
237.142151	148.740000
237.234909	149.200000
237.327652	148.320000
237.420410	147.720000
237.513153	146.720000
237.605927	146.960000
237.698669	146.200000
237.791428	145.740000
237.884186	146.420000
237.976944	145.880000
238.069702	145.900000
238.162445	145.440000
238.255203	146.140000
238.347961	146.520000
238.440720	146.700000
238.533478	146.340000
238.626266	146.340000
238.719025	146.300000
238.811783	145.440000
238.904541	145.480000
238.997314	145.620000
239.090073	145.600000
239.182831	145.720000
239.275604	146.700000
239.368362	146.320000
239.461136	146.600000
239.553909	146.880000
239.646667	146.600000
239.739441	146.260000
239.832214	146.700000
239.925003	146.540000
240.017761	147.220000
240.110535	147.960000
240.203308	147.360000
240.296082	147.440000
240.388855	147.460000
240.481628	147.300000
240.574417	147.100000
240.667191	147.380000
240.759964	146.740000
240.852737	146.660000
240.945526	146.160000
241.038315	145.860000
241.131088	145.960000
241.223877	146.500000
241.316650	146.200000
241.409439	146.620000
241.502228	146.280000
241.595001	146.960000
241.687790	146.520000
241.780579	146.840000
241.873367	146.880000
241.966141	147.400000
242.058929	146.480000
242.151718	147.040000
242.244507	147.600000
242.337311	146.600000
242.430099	146.800000
242.522903	147.140000
242.615692	146.580000
242.708481	146.340000
242.801270	147.200000
242.894073	147.180000
242.986862	147.020000
243.079651	147.760000
243.172455	147.140000
243.265244	147.180000
243.358063	146.500000
243.450867	147.020000
243.543655	146.620000
243.636459	146.880000
243.729263	147.100000
243.822067	147.460000
243.914856	147.360000
244.007660	147.520000
244.100464	147.880000
244.193268	147.060000
244.286072	146.880000
244.378876	146.340000
244.471680	145.880000
244.564499	146.100000
244.657318	147.040000
244.750122	147.360000
244.842926	146.900000
244.935745	147.360000
245.028549	146.540000
245.121368	145.980000
245.214172	145.860000
245.306992	146.420000
245.399796	146.100000
245.492615	146.160000
245.585434	146.080000
245.678253	145.860000
245.771072	145.500000
245.863892	146.020000
245.956711	146.660000
246.049530	146.480000
246.142349	146.440000
246.235168	146.780000
246.327988	147.040000
246.420807	146.500000
246.513626	146.820000
246.606445	146.800000
246.699280	146.940000
246.792099	146.340000
246.884918	146.180000
246.977753	146.020000
247.070587	146.120000
247.163422	145.920000
247.256241	145.960000
247.349075	146.220000
247.441895	146.260000
247.534729	146.100000
247.627563	146.120000
247.720383	146.600000
247.813217	146.800000
247.906052	146.720000
247.998886	146.900000
248.091736	146.820000
248.184570	146.380000
248.277405	146.500000
248.370239	147.500000
248.463074	148.540000
248.555908	148.900000
248.648743	148.860000
248.741592	148.660000
248.834427	147.800000
248.927261	146.460000
249.020111	146.580000
249.112946	147.180000
249.205795	146.800000
249.298630	146.900000
249.391495	147.180000
249.484344	146.720000
249.577179	146.260000
249.670029	146.660000
249.762878	146.940000
249.855728	146.980000
249.948563	147.140000
250.041412	146.920000
250.134262	147.080000
250.227112	147.200000
250.319962	147.260000
250.412827	147.160000
250.505692	146.840000
250.598541	146.660000
250.691391	146.260000
250.784241	146.240000
250.877106	146.600000
250.969955	146.760000
251.062805	147.260000
251.155670	147.700000
251.248520	147.800000
251.341385	147.480000
251.434235	147.380000
251.527100	146.860000
251.619965	146.520000
251.712814	146.900000
251.805695	146.900000
251.898560	147.140000
251.991425	147.380000
252.084290	147.220000
252.177155	146.260000
252.270020	145.880000
252.362885	145.900000
252.455750	145.860000
252.548615	145.580000
252.641479	145.780000
252.734360	145.820000
252.827240	145.760000
252.920105	145.520000
253.012970	145.680000
253.105850	146.000000
253.198715	146.080000
253.291595	146.040000
253.384460	145.940000
253.477341	145.940000
253.570221	145.820000
253.663086	145.560000
253.755966	146.420000
253.848846	146.500000
253.941727	146.760000
254.034592	146.880000
254.127472	146.600000
254.220367	146.340000
254.313248	146.340000
254.406128	146.040000
254.499008	146.260000
254.591904	147.380000
254.684784	147.420000
254.777664	147.260000
254.870544	146.780000
254.963440	146.340000
255.056335	145.960000
255.149216	145.460000
255.242111	146.040000
255.334991	146.760000
255.427887	146.920000
255.520767	147.100000
255.613663	147.400000
255.706558	146.680000
255.799438	146.560000
255.892334	146.620000
255.985229	146.620000
256.078125	146.420000
256.171021	146.740000
256.263916	146.980000
256.356812	147.220000
256.449707	147.100000
256.542603	147.020000
256.635498	147.500000
256.728394	147.220000
256.821289	146.800000
256.914215	146.980000
257.007080	147.240000
257.100006	147.220000
257.192932	147.700000
257.285828	147.920000
257.378723	147.700000
257.471619	147.640000
257.564545	146.880000
257.657440	146.900000
257.750336	147.020000
257.843262	146.680000
257.936157	147.700000
258.029053	148.380000
258.121979	148.160000
258.214874	148.000000
258.307800	148.220000
258.400696	146.880000
258.493622	146.760000
258.586517	146.120000
258.679443	146.380000
258.772339	146.100000
258.865265	145.900000
258.958160	145.340000
259.051086	146.440000
259.144012	146.120000
259.236938	146.880000
259.329834	147.420000
259.422791	147.580000
259.515717	146.700000
259.608612	146.360000
259.701538	146.340000
259.794464	146.140000
259.887390	146.200000
259.980316	146.180000
260.073212	146.100000
260.166138	145.200000
260.259064	145.600000
260.351990	146.240000
260.444916	146.060000
260.537842	146.680000
260.630768	147.620000
260.723694	147.440000
260.816620	147.240000
260.909546	147.300000
261.002472	147.020000
261.095398	146.580000
261.188354	146.560000
261.281281	146.360000
261.374207	146.660000
261.467133	147.140000
261.560089	147.100000
261.653015	146.920000
261.745972	147.280000
261.838867	147.780000
261.931824	148.120000
262.024780	147.600000
262.117706	147.920000
262.210663	147.720000
262.303589	147.340000
262.396515	146.560000
262.489471	147.800000
262.582397	147.480000
262.675354	147.060000
262.768280	147.180000
262.861237	147.400000
262.954163	146.880000
263.047119	147.220000
263.140045	147.120000
263.233002	146.960000
263.325958	146.980000
263.418884	146.400000
263.511841	146.140000
263.604797	146.060000
263.697723	146.020000
263.790680	146.000000
263.883636	146.720000
263.976593	146.420000
264.069550	146.820000
264.162476	146.400000
264.255463	146.420000
264.348419	146.140000
264.441376	146.560000
264.534332	146.080000
264.627289	146.360000
264.720245	146.720000
264.813202	146.000000
264.906158	146.000000
264.999115	146.680000
265.092072	146.800000
265.185028	146.920000
265.277985	147.500000
265.370941	147.460000
265.463898	147.200000
265.556854	147.040000
265.649811	145.820000
265.742798	145.900000
265.835754	145.840000
265.928711	146.420000
266.021667	146.560000
266.114655	147.460000
266.207611	147.860000
266.300568	147.280000
266.393585	146.500000
266.486511	146.520000
266.579498	145.620000
266.672485	145.240000
266.765442	145.440000
266.858429	145.900000
266.951385	145.720000
267.044342	146.200000
267.137329	146.320000
267.230316	146.540000
267.323273	146.040000
267.416260	146.740000
267.509216	146.600000
267.602203	146.220000
267.695160	146.760000
267.788147	147.060000
267.881134	146.340000
267.974091	146.660000
268.067078	146.620000
268.160065	146.100000
268.253052	145.880000
268.346008	146.220000
268.438995	145.900000
268.531982	146.220000
268.624969	146.320000
268.717987	146.700000
268.810944	146.500000
268.903961	146.900000
268.996948	146.400000
269.089905	146.640000
269.182892	146.580000
269.275879	146.720000
269.368866	146.000000
269.461853	146.440000
269.554871	146.500000
269.647858	146.620000
269.740845	146.980000
269.833832	147.580000
269.926819	147.260000
270.019806	146.940000
270.112793	146.500000
270.205811	146.340000
270.298798	145.960000
270.391785	146.400000
270.484772	146.020000
270.577789	146.040000
270.670776	145.360000
270.763763	145.260000
270.856750	145.280000
270.949768	145.620000
271.042786	145.760000
271.135773	146.120000
271.228790	146.960000
271.321808	146.600000
271.414795	146.120000
271.507782	145.660000
271.600800	145.480000
271.693817	145.140000
271.786804	145.620000
271.879822	146.480000
271.972809	146.860000
272.065826	147.220000
272.158844	147.060000
272.251831	147.640000
272.344849	147.400000
272.437866	146.980000
272.530853	147.160000
272.623871	147.060000
272.716888	145.800000
272.809906	145.560000
272.902893	145.540000
272.995911	144.900000
273.088928	144.800000
273.181946	145.320000
273.274963	145.000000
273.367981	145.360000
273.460999	145.780000
273.554047	146.320000
273.647003	146.740000
273.740051	147.140000
273.833069	147.480000
273.926086	147.460000
274.019135	147.260000
274.112152	146.860000
274.205170	146.840000
274.298187	146.620000
274.391205	146.320000
274.484222	146.180000
274.577240	146.060000
274.670258	145.980000
274.763306	145.960000
274.856323	146.320000
274.949341	146.680000
275.042358	147.040000
275.135406	147.080000
275.228424	146.980000
275.321442	146.880000
275.414490	146.200000
275.507507	146.580000
275.600525	146.920000
275.693573	146.720000
275.786591	146.080000
275.879669	146.640000
275.972656	146.140000
276.065735	145.800000
276.158752	146.480000
276.251801	147.560000
276.344818	147.440000
276.437866	147.520000
276.530884	147.440000
276.623932	146.620000
276.716980	146.280000
276.809998	146.420000
276.903046	146.460000
276.996094	147.580000
277.089111	148.160000
277.182159	148.620000
277.275208	148.280000
277.368256	147.840000
277.461304	146.720000
277.554321	145.940000
277.647369	145.660000
277.740417	145.920000
277.833466	146.020000
277.926514	146.180000
278.019562	147.180000
278.112610	146.820000
278.205688	146.960000
278.298706	147.060000
278.391785	146.720000
278.484833	146.320000
278.577881	146.340000
278.670929	146.160000
278.763977	146.400000
278.857025	147.140000
278.950073	147.040000
279.043121	146.760000
279.136169	146.560000
279.229248	145.920000
279.322296	145.640000
279.415344	145.640000
279.508392	145.520000
279.601440	145.480000
279.694519	145.760000
279.787567	145.920000
279.880615	145.740000
279.973694	145.980000
280.066742	146.260000
280.159790	146.220000
280.252869	145.880000
280.345917	146.100000
280.438995	146.140000
280.532074	145.880000
280.625122	146.160000
280.718201	146.820000
280.811279	146.660000
280.904327	146.480000
280.997406	146.820000
281.090454	146.740000
281.183533	146.180000
281.276581	146.040000
281.369659	145.980000
281.462738	146.080000
281.555786	146.160000
281.648865	146.020000
281.741943	146.200000
281.835022	146.940000
281.928070	146.600000
282.021149	146.460000
282.114227	146.300000
282.207306	146.460000
282.300385	146.360000
282.393433	146.280000
282.486511	146.320000
282.579590	147.000000
282.672668	147.260000
282.765747	146.540000
282.858856	146.440000
282.951904	146.480000
283.045013	146.080000
283.138062	146.180000
283.231171	146.520000
283.324249	146.860000
283.417328	147.020000
283.510406	146.700000
283.603485	146.380000
283.696564	146.260000
283.789642	146.260000
283.882751	145.820000
283.975830	146.480000
284.068909	146.440000
284.161987	147.460000
284.255066	146.900000
284.348175	147.120000
284.441254	147.080000
284.534332	147.480000
284.627441	146.760000
284.720520	146.660000
284.813599	146.640000
284.906708	146.620000
284.999786	145.620000
285.092896	145.360000
285.185974	146.540000
285.279053	146.020000
285.372192	145.960000
285.465240	147.080000
285.558380	147.280000
285.651459	146.720000
285.744568	147.880000
285.837677	147.500000
285.930756	147.360000
286.023865	147.460000
286.116943	147.340000
286.210052	147.120000
286.303162	147.140000
286.396240	146.820000
286.489349	146.540000
286.582458	146.780000
286.675568	146.220000
286.768646	146.520000
286.861755	146.920000
286.954865	147.500000
287.047974	146.760000
287.141083	147.040000
287.234161	146.720000
287.327271	146.460000
287.420380	146.660000
287.513519	146.720000
287.606598	146.580000
287.699738	146.780000
287.792816	146.500000
287.885956	146.300000
287.979034	146.480000
288.072174	146.840000
288.165283	146.860000
288.258392	147.260000
288.351501	146.560000
288.444611	146.880000
288.537720	147.060000
288.630859	146.780000
288.723969	146.740000
288.817078	147.140000
288.910187	147.100000
289.003296	146.320000
289.096436	146.380000
289.189545	146.040000
289.282654	145.740000
289.375763	146.140000
289.468903	146.600000
289.562012	146.900000
289.655121	146.920000
289.748260	147.220000
289.841400	147.380000
289.934509	147.240000
290.027649	147.280000
290.120728	147.160000
290.213898	147.280000
290.306976	146.860000
290.400146	146.740000
290.493256	146.160000
290.586395	146.260000
290.679535	146.500000
290.772644	146.080000
290.865784	145.600000
290.958893	145.820000
291.052032	145.540000
291.145172	145.040000
291.238281	144.940000
291.331421	145.560000
291.424561	146.020000
291.517670	146.280000
291.610809	146.620000
291.703949	146.720000
291.797089	146.760000
291.890228	146.100000
291.983337	146.100000
292.076477	145.820000
292.169617	146.160000
292.262756	146.040000
292.355927	145.980000
292.449036	145.800000
292.542206	145.900000
292.635315	145.960000
292.728485	146.160000
292.821625	146.240000
292.914764	147.400000
293.007904	147.300000
293.101044	147.220000
293.194183	147.060000
293.287323	147.100000
293.380463	146.000000
293.473602	145.660000
293.566742	145.780000
293.659882	146.200000
293.753021	146.700000
293.846191	147.100000
293.939331	147.280000
294.032471	147.120000
294.125610	146.580000
294.218781	146.760000
294.311920	146.860000
294.405060	146.820000
294.498230	146.740000
294.591370	146.820000
294.684540	146.000000
294.777679	145.440000
294.870850	146.020000
294.963959	146.020000
295.057159	145.980000
295.150299	146.380000
295.243469	146.660000
295.336609	146.040000
295.429779	146.100000
295.522919	146.560000
295.616089	146.620000
295.709229	147.200000
295.802399	147.280000
295.895569	146.960000
295.988708	146.500000
296.081879	146.500000
296.175018	145.640000
296.268188	145.500000
296.361359	146.140000
296.454529	146.540000
296.547668	146.460000
296.640839	146.960000
296.734009	146.680000
296.827179	146.460000
296.920319	146.540000
297.013519	146.300000
297.106659	146.280000
297.199860	146.600000
297.292999	146.480000
297.386200	145.920000
297.479309	146.000000
297.572510	146.120000
297.665680	146.040000
297.758850	146.220000
297.852020	146.240000
297.945190	146.060000
298.038361	145.480000
298.131531	146.580000
298.224701	146.280000
298.317871	146.060000
298.411072	145.800000
298.504242	145.900000
298.597412	145.120000
298.690582	145.440000
298.783752	145.440000
298.876923	146.060000
298.970093	146.140000
299.063293	146.420000
299.156464	146.720000
299.249634	147.360000
299.342834	147.640000
299.436005	147.840000
299.529205	147.540000
299.622345	147.180000
299.715576	146.280000
299.808716	145.840000
299.901917	145.740000
299.995117	146.280000
300.088287	146.520000
300.181488	146.640000
300.274658	146.620000
300.367828	146.760000
300.461029	146.220000
300.554199	146.120000
300.647400	146.620000
300.740601	147.420000
300.833771	146.960000
300.926971	147.180000
301.020142	146.700000
301.113342	146.360000
301.206512	145.760000
301.299713	146.240000
301.392914	146.140000
301.486084	146.700000
301.579285	146.860000
301.672516	147.340000
301.765686	146.940000
301.858887	147.180000
301.952057	146.880000
302.045288	146.840000
302.138458	146.360000
302.231659	146.380000
302.324860	146.080000
302.418060	145.840000
302.511261	145.920000
302.604462	146.120000
302.697662	146.060000
302.790863	145.800000
302.884064	145.660000
302.977264	145.800000
303.070465	145.900000
303.163666	146.760000
303.256866	147.540000
303.350067	147.920000
303.443268	147.920000
303.536469	148.220000
303.629669	147.280000
303.722870	146.860000
303.816071	146.920000
303.909271	146.720000
304.002472	145.660000
304.095673	145.600000
304.188934	144.740000
304.282104	145.380000
304.375336	145.420000
304.468506	145.660000
304.561768	145.760000
304.654968	146.660000
304.748169	145.900000
304.841370	145.700000
304.934601	146.000000
305.027802	145.720000
305.121002	145.280000
305.214233	145.260000
305.307434	145.640000
305.400665	146.040000
305.493866	146.200000
305.587097	146.820000
305.680298	146.540000
305.773499	146.760000
305.866730	146.480000
305.959930	147.020000
306.053162	146.940000
306.146393	146.880000
306.239594	146.020000
306.332825	146.240000
306.426025	146.320000
306.519287	145.880000
306.612488	146.420000
306.705719	146.760000
306.798920	146.700000
306.892181	146.140000
306.985352	146.120000
307.078613	145.480000
307.171844	146.040000
307.265045	145.340000
307.358276	145.300000
307.451508	145.680000
307.544739	146.240000
307.637970	145.700000
307.731201	145.860000
307.824402	146.700000
307.917633	146.700000
308.010864	146.880000
308.104095	147.200000
308.197327	147.380000
308.290558	147.220000
308.383789	146.720000
308.477020	146.220000
308.570251	145.480000
308.663483	145.140000
308.756714	145.080000
308.849976	145.420000
308.943176	146.080000
309.036438	146.360000
309.129639	146.440000
309.222900	146.440000
309.316101	146.560000
309.409393	146.080000
309.502625	145.940000
309.595856	146.120000
309.689087	145.940000
309.782318	145.700000
309.875580	145.900000
309.968811	146.520000
310.062042	146.280000
310.155273	146.240000
310.248535	146.820000
310.341766	146.760000
310.434998	146.340000
310.528259	146.300000
310.621490	146.500000
310.714722	145.660000
310.807983	145.360000
310.901215	145.560000
310.994476	146.080000
311.087708	145.700000
311.181000	146.260000
311.274200	146.240000
311.367462	146.340000
311.460693	145.860000
311.553986	146.640000
311.647186	146.700000
311.740479	147.380000
311.833710	146.880000
311.926971	147.080000
312.020203	146.240000
312.113464	145.940000
312.206726	145.360000
312.299957	145.740000
312.393219	145.920000
312.486481	146.220000
312.579712	146.140000
312.672974	146.340000
312.766235	145.820000
312.859497	145.720000
312.952759	145.480000
313.045990	146.160000
313.139252	145.400000
313.232513	146.100000
313.325775	146.320000
313.419037	146.420000
313.512299	145.620000
313.605530	146.460000
313.698822	146.180000
313.792053	146.100000
313.885345	145.420000
313.978577	145.880000
314.071869	145.600000
314.165131	145.920000
314.258392	146.120000
314.351654	146.740000
314.444916	146.000000
314.538177	146.500000
314.631439	146.720000
314.724701	146.440000
314.817993	146.340000
314.911255	146.740000
315.004517	146.140000
315.097778	145.760000
315.191040	146.260000
315.284302	146.260000
315.377594	146.400000
315.470856	146.620000
315.564117	146.180000
315.657379	145.080000
315.750671	144.960000
315.843933	145.020000
315.937195	144.440000
316.030518	144.360000
316.123749	144.840000
316.217041	145.600000
316.310303	145.400000
316.403595	145.940000
316.496857	146.600000
316.590149	146.960000
316.683411	146.360000
316.776703	146.240000
316.869965	146.120000
316.963257	145.580000
317.056519	144.640000
317.149811	144.680000
317.243073	144.880000
317.336365	144.920000
317.429626	145.100000
317.522919	145.920000
317.616180	145.900000
317.709473	145.520000
317.802765	145.480000
317.896027	145.560000
317.989319	145.560000
318.082611	145.420000
318.175873	145.360000
318.269165	145.280000
318.362488	145.360000
318.455750	145.060000
318.549042	145.500000
318.642303	146.260000
318.735626	146.180000
318.828888	146.240000
318.922211	146.080000
319.015472	146.480000
319.108765	145.760000
319.202057	145.640000
319.295349	145.840000
319.388641	145.760000
319.481934	145.400000
319.575226	145.280000
319.668518	145.560000
319.761810	145.440000
319.855103	146.120000
319.948395	146.180000
320.041687	146.460000
320.134979	146.460000
320.228271	146.100000
320.321564	145.420000
320.414856	145.360000
320.508148	145.180000
320.601440	145.280000
320.694763	145.400000
320.788025	146.000000
320.881348	145.920000
320.974640	146.060000
321.067963	145.620000
321.161224	145.840000
321.254547	145.000000
321.347839	145.340000
321.441162	145.160000
321.534454	145.500000
321.627747	145.120000
321.721069	146.360000
321.814362	146.360000
321.907654	146.440000
322.000946	146.020000
322.094269	146.740000
322.187561	146.020000
322.280884	145.980000
322.374176	146.120000
322.467468	147.100000
322.560791	146.800000
322.654083	147.100000
322.747406	147.240000
322.840698	147.500000
322.934021	147.340000
323.027344	147.600000
323.120636	147.360000
323.213959	146.980000
323.307251	146.540000
323.400574	146.200000
323.493866	145.740000
323.587219	146.120000
323.680511	146.600000
323.773834	146.940000
323.867157	147.080000
323.960449	147.060000
324.053772	146.680000
324.147095	146.200000
324.240387	146.340000
324.333710	146.300000
324.427032	146.240000
324.520355	146.040000
324.613647	145.680000
324.706970	145.620000
324.800293	145.520000
324.893616	145.880000
324.986938	146.420000
325.080231	146.380000
325.173553	146.520000
325.266876	146.820000
325.360199	146.580000
325.453522	145.900000
325.546875	145.800000
325.640167	145.560000
325.733521	145.700000
325.826813	146.080000
325.920166	146.360000
326.013489	146.460000
326.106812	145.620000
326.200134	145.080000
326.293457	144.340000
326.386780	144.320000
326.480103	144.340000
326.573425	144.700000
326.666748	144.780000
326.760071	145.400000
326.853424	145.380000
326.946747	145.460000
327.040070	146.300000
327.133392	146.200000
327.226715	145.460000
327.320068	145.200000
327.413391	145.540000
327.506714	145.120000
327.600037	145.180000
327.693390	145.700000
327.786713	145.900000
327.880066	145.860000
327.973358	145.800000
328.066742	146.440000
328.160034	146.460000
328.253418	146.900000
328.346710	146.540000
328.440063	146.400000
328.533417	145.700000
328.626740	146.080000
328.720093	145.700000
328.813416	145.820000
328.906769	145.900000
329.000092	146.120000
329.093445	145.280000
329.186768	145.300000
329.280121	145.900000
329.373444	146.160000
329.466797	146.100000
329.560120	146.820000
329.653473	146.580000
329.746796	145.880000
329.840149	145.460000
329.933502	145.660000
330.026825	145.160000
330.120178	145.320000
330.213562	145.360000
330.306854	145.840000
330.400238	145.740000
330.493561	145.680000
330.586945	146.540000
330.680237	146.860000
330.773621	146.480000
330.866974	146.320000
330.960327	146.660000
331.053680	145.960000
331.147003	145.840000
331.240356	146.280000
331.333710	146.320000
331.427063	146.100000
331.520416	145.880000
331.613770	146.020000
331.707123	146.080000
331.800476	146.440000
331.893829	147.700000
331.987152	148.000000
332.080505	147.960000
332.173859	147.420000
332.267212	146.620000
332.360565	145.580000
332.453918	145.120000
332.547333	144.600000
332.640656	144.640000
332.734039	145.260000
332.827362	145.340000
332.920746	145.880000
333.014069	146.340000
333.107452	146.960000
333.200806	146.580000
333.294159	146.400000
333.387543	146.060000
333.480896	145.740000
333.574249	145.420000
333.667603	145.300000
333.760956	145.460000
333.854340	145.440000
333.947693	145.460000
334.041046	145.440000
334.134430	145.840000
334.227783	145.460000
334.321136	145.440000
334.414520	145.380000
334.507874	145.540000
334.601227	145.380000
334.694611	145.300000
334.787964	145.400000
334.881348	145.680000
334.974701	145.660000
335.068085	145.620000
335.161438	146.120000
335.254822	145.800000
335.348175	145.700000
335.441559	144.920000
335.534943	145.540000
335.628296	145.200000
335.721680	145.440000
335.815033	145.620000
335.908417	146.380000
336.001770	145.860000
336.095154	145.660000
336.188538	145.460000
336.281891	145.060000
336.375275	144.620000
336.468658	144.540000
336.562012	144.840000
336.655396	145.300000
336.748779	145.800000
336.842133	146.000000
336.935516	146.200000
337.028900	145.700000
337.122284	145.300000
337.215637	145.340000
337.309021	145.120000
337.402435	144.720000
337.495789	145.000000
337.589203	145.180000
337.682526	144.840000
337.775940	145.020000
337.869324	145.340000
337.962708	145.220000
338.056091	145.400000
338.149475	145.020000
338.242859	145.180000
338.336243	145.040000
338.429626	145.240000
338.523010	145.320000
338.616394	145.400000
338.709778	145.560000
338.803162	145.880000
338.896545	145.820000
338.989929	145.500000
339.083313	146.040000
339.176697	145.800000
339.270081	145.140000
339.363464	145.540000
339.456848	145.820000
339.550232	145.140000
339.643616	145.180000
339.737030	145.580000
339.830383	145.200000
339.923828	145.440000
340.017181	145.920000
340.110596	146.100000
340.203949	146.080000
340.297363	145.820000
340.390778	145.420000
340.484161	145.400000
340.577545	145.120000
340.670959	145.440000
340.764343	145.580000
340.857727	145.780000
340.951111	145.100000
341.044525	145.480000
341.137909	144.840000
341.231293	144.980000
341.324707	144.320000
341.418091	145.200000
341.511505	145.060000
341.604889	145.580000
341.698303	145.740000
341.791687	146.200000
341.885071	145.620000
341.978485	145.240000
342.071899	145.560000
342.165283	145.780000
342.258698	145.860000
342.352081	146.160000
342.445496	146.680000
342.538879	146.280000
342.632324	146.020000
342.725708	145.900000
342.819122	145.760000
342.912506	145.280000
343.005920	144.740000
343.099335	145.260000
343.192719	145.400000
343.286133	145.380000
343.379547	145.960000
343.472931	146.440000
343.566345	145.720000
343.659760	145.600000
343.753143	145.640000
343.846558	144.920000
343.939972	144.920000
344.033386	145.520000
344.126770	145.240000
344.220184	145.440000
344.313599	146.020000
344.407043	146.100000
344.500427	145.420000
344.593872	146.360000
344.687225	146.260000
344.780670	146.080000
344.874054	145.920000
344.967499	146.460000
345.060913	146.060000
345.154327	145.800000
345.247742	145.420000
345.341156	145.480000
345.434570	145.220000
345.527985	144.860000
345.621399	145.200000
345.714813	145.080000
345.808228	145.180000
345.901642	144.940000
345.995056	144.700000
346.088470	144.760000
346.181885	145.080000
346.275299	144.740000
346.368713	144.440000
346.462128	144.420000
346.555573	144.200000
346.648987	143.920000
346.742401	144.240000
346.835815	145.340000
346.929260	145.220000
347.022644	145.360000
347.116119	145.720000
347.209503	145.780000
347.302948	146.200000
347.396362	147.300000
347.489807	147.320000
347.583221	147.900000
347.676636	147.780000
347.770050	146.700000
347.863495	145.820000
347.956909	145.720000
348.050323	145.040000
348.143768	144.940000
348.237183	144.780000
348.330597	145.500000
348.424042	145.880000
348.517456	146.280000
348.610901	146.580000
348.704315	146.500000
348.797760	145.940000
348.891174	145.440000
348.984619	144.920000
349.078033	145.040000
349.171448	145.720000
349.264923	145.560000
349.358337	145.420000
349.451782	145.740000
349.545197	145.140000
349.638641	144.780000
349.732086	144.580000
349.825500	144.940000
349.918945	144.520000
350.012390	144.940000
350.105804	145.220000
350.199249	145.340000
350.292664	145.840000
350.386108	146.080000
350.479553	146.440000
350.572968	146.140000
350.666412	146.420000
350.759857	145.980000
350.853302	146.380000
350.946716	145.840000
351.040161	145.740000
351.133606	145.800000
351.227081	145.660000
351.320465	145.960000
351.413940	145.720000
351.507355	146.000000
351.600830	146.120000
351.694244	146.060000
351.787720	145.440000
351.881104	145.680000
351.974579	145.260000
352.067993	145.840000
352.161469	145.920000
352.254883	145.980000
352.348358	145.980000
352.441803	146.500000
352.535248	145.840000
352.628693	146.260000
352.722137	146.260000
352.815582	146.600000
352.909027	146.620000
353.002472	146.580000
353.095917	146.520000
353.189362	146.700000
353.282806	146.400000
353.376251	146.100000
353.469696	145.880000
353.563141	146.180000
353.656586	145.960000
353.750061	145.740000
353.843475	145.440000
353.936981	145.900000
354.030396	144.920000
354.123871	144.880000
354.217285	145.560000
354.310760	146.240000
354.404175	146.200000
354.497681	146.360000
354.591095	146.300000
354.684570	145.180000
354.777985	144.560000
354.871490	144.220000
354.964935	144.660000
355.058380	145.060000
355.151855	145.440000
355.245300	146.120000
355.338745	146.360000
355.432220	146.120000
355.525665	145.580000
355.619110	146.100000
355.712585	145.720000
355.806030	145.500000
355.899475	145.500000
355.992950	145.840000
356.086426	145.980000
356.179871	146.180000
356.273346	146.480000
356.366791	146.440000
356.460266	146.460000
356.553711	145.900000
356.647186	145.580000
356.740631	145.500000
356.834106	145.200000
356.927551	145.200000
357.021027	145.460000
357.114471	145.660000
357.207947	145.780000
357.301422	146.240000
357.394867	146.400000
357.488342	146.820000
357.581818	146.800000
357.675262	146.800000
357.768738	146.460000
357.862213	145.640000
357.955658	145.260000
358.049133	145.300000
358.142609	145.360000
358.236053	145.380000
358.329529	145.680000
358.423035	145.980000
358.516449	145.420000
358.609955	145.680000
358.703400	146.240000
358.796906	146.660000
358.890350	145.940000
358.983826	146.600000
359.077271	145.780000
359.170776	145.380000
359.264221	144.840000
359.357727	145.280000
359.451172	145.640000
359.544647	146.060000
359.638123	146.000000
359.731598	146.540000
359.825073	146.600000
359.918549	146.160000
360.012024	146.120000
360.105499	145.800000
360.198975	145.760000
360.292450	145.600000
360.385925	145.520000
360.479401	145.080000
360.572876	145.640000
360.666351	145.660000
360.759857	145.920000
360.853302	146.240000
360.946808	146.100000
361.040253	146.000000
361.133759	145.640000
361.227203	145.580000
361.320709	145.000000
361.414154	145.680000
361.507660	146.020000
361.601105	146.600000
361.694641	147.100000
361.788086	147.160000
361.881592	147.280000
361.975067	146.980000
362.068542	147.120000
362.162018	146.920000
362.255524	146.780000
362.348999	146.540000
362.442474	146.500000
362.535950	145.820000
362.629456	145.020000
362.722931	144.980000
362.816406	145.460000
362.909882	145.720000
363.003387	145.700000
363.096863	146.420000
363.190338	146.580000
363.283875	146.280000
363.377319	146.320000
363.470825	147.120000
363.564301	146.420000
363.657806	146.500000
363.751282	145.960000
363.844788	146.320000
363.938232	145.500000
364.031769	146.300000
364.125214	146.800000
364.218750	147.740000
364.312225	146.880000
364.405731	147.140000
364.499207	146.520000
364.592712	145.980000
364.686188	145.440000
364.779694	145.740000
364.873169	145.480000
364.966675	145.440000
365.060150	145.240000
365.153656	145.580000
365.247131	145.460000
365.340637	145.960000
365.434143	146.520000
365.527618	146.920000
365.621155	145.980000
365.714600	146.160000
365.808136	146.080000
365.901611	145.060000
365.995117	144.640000
366.088593	144.880000
366.182129	144.520000
366.275604	144.400000
366.369110	144.760000
366.462585	144.900000
366.556122	145.500000
366.649567	145.860000
366.743103	146.080000
366.836609	146.060000
366.930115	146.360000
367.023590	146.560000
367.117096	146.100000
367.210602	145.800000
367.304108	146.540000
367.397614	147.040000
367.491119	146.760000
367.584595	147.060000
367.678101	147.240000
367.771606	146.500000
367.865112	145.640000
367.958649	145.180000
368.052124	145.320000
368.145660	145.160000
368.239136	146.200000
368.332672	146.400000
368.426147	146.720000
368.519684	146.160000
368.613159	146.500000
368.706696	145.680000
368.800171	145.800000
368.893707	145.760000
368.987183	145.880000
369.080719	145.560000
369.174225	145.280000
369.267731	145.320000
369.361237	145.540000
369.454742	145.700000
369.548248	146.220000
369.641754	146.040000
369.735260	145.860000
369.828766	145.000000
369.922272	145.420000
370.015808	145.020000
370.109314	145.280000
370.202820	145.260000
370.296356	146.480000
370.389832	145.980000
370.483368	145.320000
370.576874	145.160000
370.670410	145.360000
370.763885	144.000000
370.857422	144.160000
370.950928	144.520000
371.044464	145.340000
371.137939	145.340000
371.231476	146.100000
371.324982	146.520000
371.418518	146.660000
371.512024	146.300000
371.605560	146.000000
371.699066	146.220000
371.792572	145.640000
371.886108	146.140000
371.979614	145.960000
372.073120	146.520000
372.166656	145.980000
372.260162	146.140000
372.353668	145.620000
372.447205	145.620000
372.540710	145.500000
372.634277	145.380000
372.727753	145.700000
372.821320	145.920000
372.914795	146.020000
373.008362	145.600000
373.101837	146.020000
373.195404	145.660000
373.288879	145.640000
373.382446	146.400000
373.475922	146.600000
373.569489	147.100000
373.662964	147.560000
373.756531	147.520000
373.850037	147.340000
373.943573	147.140000
374.037109	146.220000
374.130615	146.360000
374.224152	146.480000
374.317657	145.900000
374.411194	146.920000
374.504730	146.980000
374.598236	146.420000
374.691772	146.180000
374.785309	146.160000
374.878815	145.100000
374.972351	145.880000
375.065887	145.940000
375.159454	146.520000
375.252930	146.300000
375.346497	146.840000
375.440002	146.760000
375.533569	146.800000
375.627045	146.320000
375.720612	146.380000
375.814117	146.500000
375.907684	146.220000
376.001160	145.980000
376.094727	145.820000
376.188232	146.740000
376.281799	146.500000
376.375336	146.560000
376.468872	147.340000
376.562408	147.300000
376.655914	146.580000
376.749451	146.620000
376.842987	146.460000
376.936523	146.080000
377.030060	146.420000
377.123596	146.700000
377.217133	146.300000
377.310669	146.380000
377.404205	146.460000
377.497772	146.700000
377.591278	146.320000
377.684845	147.060000
377.778351	147.420000
377.871918	147.340000
377.965424	146.380000
378.058990	146.140000
378.152496	145.900000
378.246063	145.820000
378.339569	145.900000
378.433136	146.100000
378.526642	146.460000
378.620209	146.100000
378.713745	145.780000
378.807312	146.060000
378.900848	146.340000
378.994385	146.860000
379.087921	146.500000
379.181458	146.740000
379.274994	146.100000
379.368530	145.980000
379.462097	145.860000
379.555634	146.320000
379.649170	145.660000
379.742706	145.640000
379.836273	145.800000
379.929810	145.320000
380.023376	144.940000
380.116882	145.200000
380.210449	145.040000
380.303986	144.720000
380.397552	144.500000
380.491058	145.060000
380.584656	145.020000
380.678162	145.400000
380.771729	145.640000
380.865265	146.600000
380.958832	146.640000
381.052368	146.980000
381.145935	146.960000
381.239471	147.300000
381.333008	146.680000
381.426575	146.620000
381.520111	146.500000
381.613647	146.640000
381.707214	146.220000
381.800751	145.720000
381.894318	145.500000
381.987854	145.200000
382.081421	145.120000
382.174988	145.460000
382.268524	145.500000
382.362091	145.640000
382.455627	146.680000
382.549194	146.280000
382.642731	145.600000
382.736298	145.660000
382.829834	145.420000
382.923401	145.240000
383.016937	145.760000
383.110504	146.380000
383.204041	146.420000
383.297607	146.720000
383.391174	146.040000
383.484741	146.340000
383.578278	145.940000
383.671844	145.940000
383.765411	145.240000
383.858948	145.760000
383.952515	145.620000
384.046051	146.200000
384.139618	146.560000
384.233185	147.220000
384.326721	146.940000
384.420288	147.200000
384.513855	146.860000
384.607422	147.180000
384.700989	147.100000
384.794525	146.860000
384.888123	146.560000
384.981659	146.760000
385.075226	146.040000
385.168762	145.980000
385.262360	145.880000
385.355896	145.100000
385.449463	144.800000
385.542999	144.980000
385.636597	145.400000
385.730164	145.840000
385.823730	145.920000
385.917267	145.640000
386.010834	145.880000
386.104401	145.840000
386.197968	145.920000
386.291534	146.420000
386.385101	146.800000
386.478668	147.040000
386.572235	146.620000
386.665802	146.140000
386.759338	145.840000
386.852905	145.580000
386.946472	145.080000
387.040070	145.360000
387.133606	145.520000
387.227203	145.460000
387.320740	145.360000
387.414337	145.100000
387.507874	145.200000
387.601471	145.220000
387.695007	145.020000
387.788605	145.140000
387.882141	145.620000
387.975739	145.560000
388.069275	145.240000
388.162872	145.820000
388.256439	145.680000
388.350037	145.380000
388.443604	145.000000
388.537170	145.080000
388.630737	145.460000
388.724304	145.760000
388.817871	145.520000
388.911438	145.820000
389.005005	146.100000
389.098602	146.240000
389.192169	145.920000
389.285736	146.760000
389.379333	146.680000
389.472870	146.360000
389.566467	146.000000
389.660034	146.540000
389.753632	146.020000
389.847168	146.260000
389.940765	146.860000
390.034332	146.820000
390.127930	146.000000
390.221466	145.960000
390.315063	145.400000
390.408630	144.540000
390.502228	143.920000
390.595795	144.380000
390.689362	144.560000
390.782959	144.920000
390.876526	145.660000
390.970093	145.760000
391.063690	146.420000
391.157257	146.620000
391.250824	147.000000
391.344421	146.760000
391.437988	146.860000
391.531555	146.620000
391.625153	146.820000
391.718750	146.860000
391.812317	146.820000
391.905914	146.800000
391.999481	146.880000
392.093079	146.540000
392.186615	146.680000
392.280243	146.680000
392.373779	146.740000
392.467407	146.780000
392.560944	146.640000
392.654572	145.940000
392.748108	145.920000
392.841736	146.160000
392.935303	145.880000
393.028900	146.000000
393.122467	146.160000
393.216064	145.880000
393.309631	145.340000
393.403229	145.060000
393.496796	144.700000
393.590393	144.260000
393.683990	144.720000
393.777557	145.140000
393.871155	145.300000
393.964722	146.000000
394.058350	146.240000
394.151917	146.120000
394.245514	145.960000
394.339081	146.540000
394.432678	146.540000
394.526245	146.580000
394.619873	146.260000
394.713409	146.480000
394.807037	145.880000
394.900604	145.860000
394.994202	146.160000
395.087769	146.460000
395.181396	146.140000
395.274994	146.880000
395.368561	146.120000
395.462158	145.780000
395.555756	145.560000
395.649353	145.760000
395.742920	145.100000
395.836517	146.120000
395.930115	145.880000
396.023712	145.980000
396.117279	146.320000
396.210876	146.060000
396.304474	145.800000
396.398071	146.220000
396.491669	146.780000
396.585266	146.660000
396.678833	146.860000
396.772461	146.820000
396.866028	146.800000
396.959656	146.660000
397.053223	147.060000
397.146851	147.560000
397.240417	148.380000
397.334015	150.100000
397.427582	151.160000
397.521210	152.960000
397.614807	155.800000
397.708405	158.940000
397.802002	162.560000
397.895599	168.000000
397.989197	173.740000
398.082794	180.200000
398.176392	189.020000
398.269989	199.020000
398.363586	211.400000
398.457184	227.140000
398.550781	244.880000
398.644379	263.220000
398.737976	284.680000
398.831573	307.440000
398.925201	330.040000
399.018768	353.720000
399.112396	377.860000
399.205963	400.520000
399.299591	422.420000
399.393158	444.400000
399.486786	465.560000
399.580353	485.840000
399.673981	502.860000
399.767578	519.040000
399.861206	531.660000
399.954773	540.840000
400.048401	543.340000
400.141998	543.340000
400.235596	537.100000
400.329193	527.100000
400.422791	512.700000
400.516418	497.600000
400.610016	479.880000
400.703613	460.580000
400.797211	436.860000
400.890808	412.120000
400.984436	386.040000
401.078033	358.300000
401.171631	331.200000
401.265259	306.520000
401.358826	284.300000
401.452484	262.760000
401.546051	245.160000
401.639679	227.640000
401.733246	212.920000
401.826904	199.000000
401.920471	187.660000
402.014099	177.640000
402.107697	170.720000
402.201324	165.120000
402.294891	160.380000
402.388550	157.220000
402.482147	154.760000
402.575745	152.380000
402.669373	150.140000
402.762970	149.340000
402.856567	148.380000
402.950195	148.120000
403.043793	147.840000
403.137390	148.580000
403.231018	147.540000
403.324615	148.020000
403.418243	147.700000
403.511841	147.940000
403.605469	147.520000
403.699066	148.140000
403.792694	148.040000
403.886292	147.860000
403.979919	147.540000
404.073517	147.220000
404.167145	147.360000
404.260712	147.340000
404.354370	147.100000
404.447937	147.220000
404.541595	147.160000
404.635162	147.260000
404.728821	147.660000
404.822418	147.260000
404.916046	147.080000
405.009644	147.360000
405.103271	147.540000
405.196899	146.700000
405.290497	147.160000
405.384125	147.360000
405.477722	146.940000
405.571350	146.120000
405.664948	146.540000
405.758575	146.220000
405.852203	145.840000
405.945801	146.060000
406.039429	146.300000
406.133057	145.880000
406.226654	145.880000
406.320312	146.160000
406.413879	146.340000
406.507538	146.780000
406.601135	146.240000
406.694763	146.780000
406.788361	146.320000
406.882019	146.000000
406.975586	146.220000
407.069244	147.000000
407.162872	147.060000
407.256470	147.220000
407.350098	146.980000
407.443726	146.180000
407.537323	145.740000
407.630951	145.500000
407.724579	145.380000
407.818207	146.120000
407.911804	146.180000
408.005432	146.440000
408.099060	146.920000
408.192688	147.440000
408.286285	146.940000
408.379913	146.720000
408.473572	146.760000
408.567169	145.800000
408.660828	145.460000
408.754395	145.320000
408.848053	145.700000
408.941650	145.720000
409.035309	145.860000
409.128906	145.580000
409.222565	145.500000
409.316132	145.400000
409.409790	145.020000
409.503387	145.080000
409.597046	145.640000
409.690674	145.940000
409.784302	146.180000
409.877930	146.340000
409.971558	146.760000
410.065186	146.660000
410.158783	146.680000
410.252411	146.300000
410.346039	146.620000
410.439667	146.460000
410.533295	146.340000
410.626923	146.360000
410.720551	146.540000
410.814209	146.800000
410.907806	146.860000
411.001465	146.540000
411.095062	146.680000
411.188721	146.660000
411.282318	146.020000
411.375977	145.540000
411.469574	145.840000
411.563232	145.400000
411.656830	145.120000
411.750488	145.600000
411.844086	145.520000
411.937744	145.500000
412.031372	145.440000
412.125000	145.560000
412.218628	145.340000
412.312256	146.240000
412.405884	146.820000
412.499512	147.120000
412.593170	147.480000
412.686798	147.700000
412.780426	146.880000
412.874054	146.800000
412.967682	146.520000
413.061310	146.980000
413.154968	146.660000
413.248566	146.740000
413.342224	146.200000
413.435852	146.420000
413.529510	145.820000
413.623108	145.460000
413.716766	145.640000
413.810364	145.980000
413.904022	145.500000
413.997650	145.220000
414.091309	146.120000
414.184906	146.000000
414.278564	145.500000
414.372192	146.320000
414.465851	146.720000
414.559479	145.840000
414.653107	146.700000
414.746735	146.960000
414.840393	146.700000
414.934021	146.740000
415.027649	146.740000
415.121277	146.500000
415.214935	146.720000
415.308563	146.940000
415.402191	146.380000
415.495850	146.600000
415.589478	146.100000
415.683136	145.860000
415.776733	145.800000
415.870422	146.400000
415.964020	146.060000
416.057678	146.180000
416.151306	146.440000
416.244965	146.000000
416.338562	146.000000
416.432251	146.740000
416.525848	147.440000
416.619507	147.480000
416.713165	148.060000
416.806793	147.900000
416.900421	148.180000
416.994080	147.200000
417.087708	147.000000
417.181366	146.660000
417.274994	146.420000
417.368622	146.140000
417.462280	146.820000
417.555908	146.720000
417.649567	146.680000
417.743195	146.800000
417.836853	146.640000
417.930481	146.600000
418.024170	146.860000
418.117767	147.200000
418.211426	147.380000
418.305054	147.580000
418.398712	147.040000
418.492340	146.940000
418.585999	146.860000
418.679626	146.980000
418.773285	146.840000
418.866913	147.340000
418.960571	147.720000
419.054230	147.800000
419.147858	147.700000
419.241516	147.660000
419.335144	147.040000
419.428802	146.360000
419.522461	145.980000
419.616089	145.640000
419.709747	145.680000
419.803375	146.000000
419.897034	145.880000
419.990662	146.120000
420.084320	146.520000
420.177979	147.080000
420.271606	147.320000
420.365295	147.980000
420.458893	147.900000
420.552582	148.080000
420.646210	147.680000
420.739868	147.280000
420.833496	146.960000
420.927155	146.840000
421.020782	146.500000
421.114471	145.880000
421.208069	145.900000
421.301758	146.220000
421.395386	146.380000
421.489044	146.300000
421.582703	146.580000
421.676361	147.040000
421.769989	146.560000
421.863647	146.980000
421.957306	146.880000
422.050934	147.080000
422.144592	147.020000
422.238251	146.860000
422.331909	146.300000
422.425537	146.340000
422.519196	146.280000
422.612854	145.860000
422.706543	145.580000
422.800140	145.780000
422.893829	145.560000
422.987457	145.260000
423.081146	145.200000
423.174744	146.280000
423.268433	145.800000
423.362061	145.940000
423.455750	145.980000
423.549347	146.280000
423.643036	145.340000
423.736664	146.020000
423.830353	145.980000
423.924011	146.460000
424.017639	145.880000
424.111298	146.140000
424.204956	146.060000
424.298615	146.200000
424.392273	145.820000
424.485931	146.380000
424.579559	146.440000
424.673218	145.960000
424.766876	145.740000
424.860535	145.640000
424.954193	145.280000
425.047882	145.840000
425.141510	145.780000
425.235199	146.120000
425.328796	145.700000
425.422485	145.860000
425.516113	144.840000
425.609802	145.100000
425.703430	144.980000
425.797119	145.420000
425.890747	145.600000
425.984436	145.920000
426.078064	146.260000
426.171753	146.240000
426.265411	145.880000
426.359070	145.820000
426.452728	145.720000
426.546356	145.440000
426.640015	145.300000
426.733673	145.520000
426.827332	145.040000
426.920990	145.640000
427.014648	145.240000
427.108307	145.400000
427.201965	145.680000
427.295624	146.200000
427.389282	145.680000
427.482941	145.800000
427.576630	145.900000
427.670258	145.460000
427.763947	145.060000
427.857574	145.100000
427.951263	145.200000
428.044922	144.700000
428.138611	144.900000
428.232239	145.560000
428.325928	146.040000
428.419556	146.400000
428.513245	146.580000
428.606903	146.680000
428.700562	145.800000
428.794220	145.040000
428.887878	144.460000
428.981537	144.800000
429.075195	144.880000
429.168854	145.500000
429.262512	145.880000
429.356201	146.160000
429.449860	145.800000
429.543518	145.660000
429.637177	145.580000
429.730835	145.420000
429.824493	145.420000
429.918182	145.720000
430.011810	145.480000
430.105530	144.980000
430.199158	145.340000
430.292847	145.100000
430.386475	144.860000
430.480164	144.940000
430.573792	144.880000
430.667511	144.640000
430.761139	144.680000
430.854828	145.200000
430.948456	145.400000
431.042145	146.140000
431.135834	146.120000
431.229492	146.420000
431.323151	146.220000
431.416809	146.260000
431.510468	146.000000
431.604156	146.040000
431.697815	146.100000
431.791473	145.880000
431.885132	145.440000
431.978821	145.560000
432.072479	145.700000
432.166138	146.020000
432.259827	146.040000
432.353485	146.560000
432.447174	146.740000
432.540802	146.540000
432.634491	146.320000
432.728149	146.580000
432.821838	146.840000
432.915466	146.340000
433.009186	146.140000
433.102814	145.640000
433.196503	145.340000
433.290131	145.140000
433.383850	145.560000
433.477509	145.760000
433.571167	146.540000
433.664856	147.000000
433.758514	147.420000
433.852173	147.100000
433.945862	147.140000
434.039520	146.660000
434.133179	145.760000
434.226868	145.100000
434.320526	144.940000
434.414185	145.480000
434.507874	145.720000
434.601562	146.240000
434.695221	146.380000
434.788910	146.720000
434.882538	146.320000
434.976257	145.660000
435.069885	145.660000
435.163574	145.700000
435.257233	145.340000
435.350922	145.400000
435.444580	145.480000
435.538269	145.340000
435.631897	145.500000
435.725616	146.080000
435.819275	146.440000
435.912964	147.180000
436.006622	147.740000
436.100311	147.460000
436.193970	146.400000
436.287628	145.960000
436.381317	145.420000
436.474976	144.520000
436.568665	144.400000
436.662323	145.140000
436.756012	145.100000
436.849670	144.840000
436.943390	144.960000
437.037018	145.000000
437.130737	144.860000
437.224365	144.860000
437.318085	145.300000
437.411713	145.660000
437.505432	146.080000
437.599060	146.400000
437.692780	147.120000
437.786407	146.820000
437.880127	146.800000
437.973755	146.480000
438.067474	146.120000
438.161133	145.540000
438.254822	146.240000
438.348480	146.280000
438.442169	146.860000
438.535828	147.420000
438.629517	147.080000
438.723175	146.380000
438.816864	146.700000
438.910553	145.880000
439.004211	145.240000
439.097900	145.240000
439.191559	145.500000
439.285248	144.680000
439.378906	145.260000
439.472626	145.080000
439.566284	144.940000
439.659973	145.120000
439.753632	145.380000
439.847321	145.840000
439.940979	146.220000
440.034698	146.620000
440.128326	145.920000
440.222046	145.780000
440.315674	144.980000
440.409393	145.200000
440.503082	144.900000
440.596741	145.280000
440.690430	145.620000
440.784088	145.280000
440.877777	144.820000
440.971466	145.000000
441.065125	144.900000
441.158813	144.760000
441.252502	145.020000
441.346161	145.200000
441.439850	145.420000
441.533539	145.320000
441.627197	145.440000
441.720886	145.460000
441.814606	145.780000
441.908234	145.960000
442.001953	145.940000
442.095612	146.220000
442.189301	146.620000
442.282959	146.600000
442.376678	146.140000
442.470306	146.660000
442.564026	146.280000
442.657684	146.040000
442.751404	145.840000
442.845032	146.700000
442.938751	146.160000
443.032440	146.160000
443.126099	145.840000
443.219788	146.400000
443.313477	146.040000
443.407166	146.920000
443.500824	147.060000
443.594513	147.560000
443.688202	147.380000
443.781891	146.740000
443.875549	145.740000
443.969238	145.800000
444.062927	145.820000
444.156647	145.580000
444.250275	146.020000
444.343994	146.720000
444.437653	146.780000
444.531372	146.480000
444.625031	146.380000
444.718719	146.240000
444.812378	145.800000
444.906097	145.760000
444.999756	145.400000
445.093445	145.560000
445.187103	145.580000
445.280823	146.200000
445.374512	145.800000
445.468201	145.960000
445.561859	145.920000
445.655548	145.780000
445.749237	145.300000
445.842926	145.520000
445.936615	146.160000
446.030304	145.640000
446.123962	146.180000
446.217651	146.000000
446.311340	146.340000
446.405029	145.760000
446.498749	145.880000
446.592407	145.380000
446.686096	145.800000
446.779755	145.340000
446.873474	145.560000
446.967133	145.860000
447.060852	145.440000
447.154510	144.940000
447.248230	145.260000
447.341858	145.180000
447.435577	144.620000
447.529236	144.920000
447.622955	145.200000
447.716644	145.160000
447.810333	145.240000
447.904022	145.860000
447.997711	145.780000
448.091400	145.980000
448.185059	146.080000
448.278748	146.300000
448.372437	146.100000
448.466125	146.540000
448.559814	146.280000
448.653503	146.320000
448.747192	146.500000
448.840912	146.960000
448.934570	146.900000
449.028290	147.200000
449.121948	146.520000
449.215637	145.840000
449.309296	145.260000
449.403015	145.120000
449.496674	145.100000
449.590393	145.460000
449.684052	145.420000
449.777771	146.340000
449.871429	145.860000
449.965149	145.720000
450.058838	146.160000
450.152527	146.800000
450.246216	146.140000
450.339905	146.540000
450.433594	146.260000
450.527283	146.660000
450.620972	146.300000
450.714661	146.420000
450.808350	146.400000
450.902039	146.720000
450.995728	146.220000
451.089417	145.860000
451.183105	145.680000
451.276794	146.180000
451.370514	145.860000
451.464172	145.220000
451.557892	145.180000
451.651550	145.400000
451.745270	144.620000
451.838928	144.180000
451.932648	144.440000
452.026306	144.940000
452.120026	144.800000
452.213684	145.360000
452.307404	145.720000
452.401062	146.000000
452.494781	146.200000
452.588470	146.000000
452.682159	145.620000
452.775848	145.700000
452.869537	145.200000
452.963226	144.680000
453.056915	144.700000
453.150604	144.980000
453.244293	145.300000
453.337982	145.940000
453.431671	146.320000
453.525360	146.920000
453.619049	146.720000
453.712769	146.420000
453.806427	145.860000
453.900146	145.460000
453.993805	145.180000
454.087555	145.420000
454.181213	145.540000
454.274933	145.620000
454.368591	145.880000
454.462311	145.380000
454.555969	144.900000
454.649689	145.700000
454.743347	145.660000
454.837067	146.360000
454.930756	147.100000
455.024445	147.320000
455.118134	146.720000
455.211853	146.840000
455.305542	146.000000
455.399231	145.680000
455.492920	145.780000
455.586609	145.900000
455.680298	146.320000
455.773987	146.140000
455.867676	146.060000
455.961365	146.200000
456.055084	145.900000
456.148773	145.200000
456.242493	145.380000
456.336151	145.740000
456.429871	146.100000
456.523529	146.580000
456.617249	146.500000
456.710907	147.060000
456.804626	146.440000
456.898315	145.680000
456.992035	145.020000
457.085693	144.940000
457.179413	144.040000
457.273102	145.260000
457.366791	145.540000
457.460480	146.200000
457.554199	146.840000
457.647888	147.160000
457.741577	146.360000
457.835266	146.420000
457.928955	146.260000
458.022644	146.680000
458.116364	146.960000
458.210052	146.720000
458.303741	146.820000
458.397461	146.120000
458.491119	145.040000
458.584839	145.080000
458.678528	144.940000
458.772247	144.660000
458.865906	145.360000
458.959625	146.500000
459.053284	146.420000
459.147003	146.420000
459.240692	147.300000
459.334412	146.960000
459.428070	146.680000
459.521790	146.640000
459.615479	146.600000
459.709198	146.420000
459.802887	146.160000
459.896576	145.700000
459.990265	145.680000
460.083954	146.180000
460.177673	145.520000
460.271362	146.180000
460.365051	146.320000
460.458740	146.100000
460.552429	145.600000
460.646149	145.460000
460.739838	144.920000
460.833527	145.080000
460.927246	144.940000
461.020905	144.720000
461.114655	144.900000
461.208313	145.420000
461.302032	145.000000
461.395691	145.620000
461.489441	146.180000
461.583099	146.240000
461.676819	145.580000
461.770477	145.980000
461.864197	145.500000
461.957916	145.280000
462.051605	144.820000
462.145294	145.900000
462.238983	145.660000
462.332703	146.340000
462.426392	147.120000
462.520081	147.460000
462.613770	146.680000
462.707489	146.840000
462.801178	146.260000
462.894867	145.740000
462.988556	145.800000
463.082275	146.000000
463.175964	145.680000
463.269684	146.320000
463.363342	146.080000
463.457092	145.600000
463.550751	145.820000
463.644470	146.160000
463.738129	145.700000
463.831879	146.100000
463.925537	146.980000
464.019257	147.040000
464.112946	147.000000
464.206665	146.980000
464.300323	146.780000
464.394043	146.440000
464.487762	146.100000
464.581451	146.320000
464.675140	145.980000
464.768829	146.320000
464.862549	146.280000
464.956238	146.480000
465.049927	146.260000
465.143646	146.720000
465.237335	146.280000
465.331024	146.860000
465.424713	146.880000
465.518433	147.040000
465.612152	146.840000
465.705811	146.880000
465.799561	146.220000
465.893219	146.120000
465.986938	145.720000
466.080597	145.380000
466.174347	145.600000
466.268005	145.960000
466.361725	146.040000
466.455414	146.300000
466.549133	146.400000
466.642792	146.420000
466.736542	146.120000
466.830231	146.140000
466.923920	146.040000
467.017609	146.160000
467.111328	145.800000
467.205017	145.600000
467.298706	145.500000
467.392426	145.920000
467.486115	146.340000
467.579803	146.200000
467.673523	146.700000
467.767212	146.660000
467.860901	146.300000
467.954651	146.160000
468.048309	146.520000
468.142029	146.160000
468.235718	146.280000
468.329437	146.100000
468.423096	146.140000
468.516846	145.760000
468.610504	145.540000
468.704224	145.140000
468.797913	145.000000
468.891632	144.840000
468.985291	145.120000
469.079010	145.520000
469.172729	145.160000
469.266418	145.840000
469.360107	145.720000
469.453827	145.460000
469.547516	145.520000
469.641205	146.140000
469.734924	145.960000
469.828613	146.420000
469.922302	146.720000
470.016022	146.640000
470.109711	146.720000
470.203430	146.240000
470.297150	145.380000
470.390808	145.680000
470.484558	145.320000
470.578217	145.540000
470.671936	146.020000
470.765625	146.740000
470.859344	146.120000
470.953003	146.580000
471.046753	146.180000
471.140411	145.680000
471.234131	145.960000
471.327820	146.580000
471.421539	146.580000
471.515228	146.460000
471.608948	146.460000
471.702637	145.600000
471.796326	145.380000
471.890045	145.420000
471.983734	145.400000
472.077423	145.360000
472.171143	145.480000
472.264832	145.220000
472.358521	144.980000
472.452240	144.880000
472.545929	145.700000
472.639648	146.120000
472.733337	146.300000
472.827057	146.420000
472.920746	146.460000
473.014465	146.620000
473.108124	146.720000
473.201874	147.140000
473.295532	146.960000
473.389252	147.200000
473.482941	146.840000
473.576660	146.080000
473.670319	145.640000
473.764069	146.140000
473.857727	146.380000
473.951477	146.540000
474.045166	147.640000
474.138855	147.480000
474.232574	147.000000
474.326263	146.860000
474.419952	146.320000
474.513672	145.940000
474.607361	146.120000
474.701050	146.080000
474.794769	146.200000
474.888458	146.840000
474.982178	146.560000
475.075867	146.400000
475.169586	146.780000
475.263275	146.780000
475.356995	146.440000
475.450653	146.300000
475.544403	146.020000
475.638062	146.540000
475.731812	145.780000
475.825470	145.480000
475.919189	145.740000
476.012878	146.200000
476.106598	145.120000
476.200256	145.940000
476.294006	145.980000
476.387695	145.860000
476.481384	145.740000
476.575104	146.220000
476.668793	145.560000
476.762512	145.380000
476.856201	146.100000
476.949890	145.920000
477.043610	145.280000
477.137299	145.460000
477.230988	146.180000
477.324707	145.640000
477.418396	146.080000
477.512146	146.460000
477.605804	146.460000
477.699524	146.360000
477.793213	146.140000
477.886932	145.720000
477.980591	145.660000
478.074341	145.640000
478.167999	144.840000
478.261749	144.980000
478.355408	144.940000
478.449127	145.500000
478.542816	146.380000
478.636536	147.280000
478.730225	147.300000
478.823944	147.660000
478.917633	147.360000
479.011322	147.080000
479.105042	146.660000
479.198730	147.100000
479.292450	146.800000
479.386139	146.740000
479.479828	146.600000
479.573547	147.060000
479.667267	146.520000
479.760925	147.080000
479.854675	147.200000
479.948334	147.280000
480.042084	146.700000
480.135742	147.240000
480.229462	146.480000
480.323151	146.480000
480.416870	145.800000
480.510529	146.220000
480.604279	145.440000
480.697937	145.980000
480.791656	145.720000
480.885345	145.720000
480.979065	145.300000
481.072754	146.160000
481.166473	146.520000
481.260132	146.420000
481.353882	146.340000
481.447540	146.240000
481.541260	146.040000
481.635010	145.280000
481.728668	145.400000
481.822388	145.560000
481.916077	145.840000
482.009796	145.520000
482.103485	145.900000
482.197205	145.780000
482.290863	146.120000
482.384613	145.760000
482.478271	145.400000
482.571991	145.320000
482.665680	145.380000
482.759399	146.200000
482.853058	147.040000
482.946808	147.100000
483.040466	146.900000
483.134216	146.600000
483.227875	145.300000
483.321594	145.200000
483.415283	145.320000
483.509003	145.260000
483.602661	145.380000
483.696411	146.160000
483.790070	145.860000
483.883789	146.060000
483.977478	146.340000
484.071198	146.720000
484.164917	146.400000
484.258606	146.080000
484.352325	146.380000
484.445984	146.240000
484.539734	146.080000
484.633392	145.440000
484.727142	146.260000
484.820801	145.700000
484.914520	145.960000
485.008209	146.360000
485.101929	147.240000
485.195587	146.500000
485.289337	146.640000
485.382996	146.600000
485.476715	146.220000
485.570404	146.480000
485.664124	146.460000
485.757782	147.040000
485.851532	146.780000
485.945190	146.740000
486.038910	146.620000
486.132599	147.260000
486.226318	146.460000
486.319977	146.340000
486.413727	146.920000
486.507446	146.240000
486.601105	145.380000
486.694855	145.380000
486.788513	145.460000
486.882233	144.780000
486.975922	144.900000
487.069641	145.060000
487.163300	144.940000
487.257050	146.000000
487.350708	145.880000
487.444427	145.820000
487.538116	145.820000
487.631836	145.720000
487.725494	145.500000
487.819214	145.780000
487.912903	145.680000
488.006622	145.820000
488.100281	146.360000
488.194031	145.800000
488.287689	146.360000
488.381409	147.360000
488.475098	147.460000
488.568817	147.220000
488.662476	146.900000
488.756226	146.140000
488.849945	144.820000
488.943604	144.960000
489.037354	145.400000
489.131012	145.660000
489.224731	145.920000
489.318390	146.320000
489.412140	146.160000
489.505798	145.840000
489.599518	145.540000
489.693207	145.720000
489.786926	145.880000
489.880585	145.520000
489.974335	145.840000
490.067993	146.980000
490.161713	146.840000
490.255371	147.300000
490.349121	147.560000
490.442780	147.140000
490.536499	145.700000
490.630188	145.820000
490.723907	145.140000
490.817566	145.420000
490.911285	145.580000
491.004974	145.820000
491.098694	145.340000
491.192413	146.200000
491.286102	145.800000
491.379822	146.160000
491.473480	146.380000
491.567200	146.680000
491.660889	145.780000
491.754608	146.160000
491.848267	145.980000
491.941986	146.060000
492.035675	146.080000
492.129395	146.340000
492.223053	146.020000
492.316772	146.280000
492.410461	146.160000
492.504181	145.920000
492.597839	145.720000
492.691559	145.960000
492.785248	145.660000
492.878967	145.860000
492.972626	145.840000
493.066345	146.120000
493.160034	145.480000
493.253754	145.480000
493.347412	144.920000
493.441132	145.080000
493.534882	145.520000
493.628540	146.320000
493.722260	146.400000
493.815918	146.940000
493.909668	147.320000
494.003326	147.480000
494.097046	147.040000
494.190704	146.680000
494.284454	146.720000
494.378113	146.720000
494.471832	145.980000
494.565491	146.100000
494.659210	146.340000
494.752899	146.140000
494.846619	145.880000
494.940277	146.320000
495.033997	146.140000
495.127686	145.900000
495.221405	145.680000
495.315063	145.880000
495.408783	145.900000
495.502441	146.120000
495.596191	146.380000
495.689850	146.480000
495.783569	146.640000
495.877228	146.260000
495.970947	146.120000
496.064697	145.980000
496.158356	146.820000
496.252075	146.680000
496.345734	146.720000
496.439453	147.380000
496.533142	147.640000
496.626862	147.520000
496.720520	147.640000
496.814240	147.820000
496.907898	147.160000
497.001617	147.100000
497.095306	146.340000
497.189026	146.200000
497.282684	146.320000
497.376404	146.800000
497.470062	146.460000
497.563782	146.920000
497.657471	146.640000
497.751190	146.280000
497.844849	146.020000
497.938568	146.440000
498.032227	146.040000
498.125946	145.980000
498.219635	145.780000
498.313354	145.680000
498.407074	145.320000
498.500732	145.780000
498.594452	145.960000
498.688110	146.000000
498.781830	145.900000
498.875519	145.980000
498.969238	145.640000
499.062897	145.700000
499.156616	146.240000
499.250275	146.460000
499.343994	145.980000
499.437653	146.060000
499.531372	146.080000
499.625061	146.280000
499.718781	146.180000
499.812439	146.760000
499.906158	146.600000
499.999817	146.260000
500.093536	145.680000
500.187195	145.700000
500.280914	145.540000
500.374573	145.960000
500.468323	145.700000
500.561981	146.000000
500.655701	145.660000
500.749420	145.720000
500.843079	145.540000
500.936798	145.940000
501.030457	146.100000
501.124176	146.260000
501.217834	146.180000
501.311554	146.120000
501.405212	146.020000
501.498962	145.340000
501.592621	145.400000
501.686340	145.580000
501.779999	145.500000
501.873718	145.560000
501.967377	145.800000
502.061096	146.120000
502.154755	145.720000
502.248474	145.700000
502.342133	146.060000
502.435852	146.240000
502.529510	146.960000
502.623230	147.720000
502.716888	147.520000
502.810608	147.280000
502.904266	147.640000
502.997986	146.680000
503.091705	146.200000
503.185364	146.300000
503.279083	146.320000
503.372772	146.020000
503.466492	145.580000
503.560150	145.800000
503.653870	146.160000
503.747528	146.260000
503.841248	146.020000
503.934906	146.380000
504.028625	146.120000
504.122284	146.260000
504.216003	146.820000
504.309662	146.580000
504.403381	147.000000
504.497040	146.780000
504.590759	146.200000
504.684418	145.860000
504.778137	146.500000
504.871796	146.660000
504.965515	146.660000
505.059174	146.780000
505.152893	145.960000
505.246521	145.320000
505.340240	144.840000
505.433899	145.120000
505.527618	145.420000
505.621338	146.120000
505.714996	146.100000
505.808716	146.100000
505.902374	146.500000
505.996094	146.520000
506.089752	146.100000
506.183472	146.420000
506.277130	146.440000
506.370850	146.220000
506.464508	145.820000
506.558228	146.120000
506.651886	145.820000
506.745605	145.840000
506.839264	145.620000
506.932983	145.860000
507.026611	145.660000
507.120331	146.300000
507.213989	145.860000
507.307709	145.860000
507.401367	146.280000
507.495087	147.260000
507.588745	146.780000
507.682465	147.840000
507.776123	147.880000
507.869843	147.580000
507.963531	146.760000
508.057190	147.080000
508.150909	145.920000
508.244568	146.100000
508.338287	145.560000
508.431946	145.400000
508.525665	144.840000
508.619324	145.120000
508.713013	145.300000
508.806671	145.860000
508.900391	146.600000
508.994049	146.960000
509.087769	146.820000
509.181427	146.780000
509.275146	146.460000
509.368774	145.480000
509.462494	145.580000
509.556152	145.660000
509.649872	145.760000
509.743530	146.120000
509.837250	146.620000
509.930878	146.280000
510.024597	146.160000
510.118256	145.760000
510.211975	145.400000
510.305695	145.000000
510.399353	145.500000
510.493042	146.140000
510.586700	146.560000
510.680420	147.300000
510.774078	147.440000
510.867798	147.440000
510.961426	146.800000
511.055145	146.460000
511.148804	145.720000
511.242523	146.160000
511.336151	146.160000
511.429871	146.780000
511.523529	146.720000
511.617249	146.700000
511.710876	146.140000
511.804596	145.800000
511.898254	145.420000
511.991974	145.800000
512.085632	145.560000
512.179321	145.740000
512.272949	146.240000
512.366699	146.540000
512.460327	146.300000
512.554077	147.400000
512.647766	147.440000
512.741394	147.340000
512.835144	147.580000
512.928772	147.420000
513.022461	146.960000
513.116150	146.820000
513.209839	146.900000
513.303467	146.400000
513.397217	145.900000
513.490845	145.720000
513.584595	145.720000
513.678223	145.120000
513.771912	144.600000
513.865601	145.060000
513.959290	144.900000
514.052917	145.000000
514.146667	145.800000
514.240295	146.520000
514.333984	146.660000
514.427673	146.580000
514.521362	146.920000
514.614990	145.980000
514.708740	145.720000
514.802368	145.740000
514.896057	146.000000
514.989746	146.520000
515.083435	146.620000
515.177124	147.140000
515.270752	146.920000
515.364502	146.720000
515.458130	146.360000
515.551819	146.340000
515.645508	146.140000
515.739197	146.240000
515.832825	146.380000
515.926575	145.880000
516.020203	146.300000
516.113892	146.620000
516.207520	146.540000
516.301270	146.560000
516.394897	146.780000
516.488586	147.160000
516.582275	147.040000
516.675964	146.340000
516.769592	146.160000
516.863281	146.820000
516.956970	146.560000
517.050659	146.420000
517.144287	146.980000
517.238037	147.020000
517.331665	146.240000
517.425354	146.040000
517.519043	145.680000
517.612732	146.200000
517.706421	145.920000
517.800049	145.760000
517.893738	145.680000
517.987427	145.980000
518.081116	145.440000
518.174744	145.320000
518.268433	145.740000
518.362122	146.120000
518.455811	145.980000
518.549438	146.700000
518.643127	147.840000
518.736816	147.440000
518.830505	147.060000
518.924133	147.000000
519.017822	146.940000
519.111511	146.700000
519.205200	147.100000
519.298828	147.120000
519.392517	146.900000
519.486206	146.960000
519.579895	146.700000
519.673523	146.440000
519.767212	146.600000
519.860901	147.580000
519.954590	147.080000
520.048279	146.640000
520.141907	146.840000
520.235596	147.580000
520.329224	147.240000
520.422974	147.320000
520.516602	147.500000
520.610291	146.820000
520.703918	146.340000
520.797607	145.740000
520.891296	145.640000
520.984985	145.940000
521.078613	146.900000
521.172302	146.440000
521.265930	147.500000
521.359680	148.300000
521.453308	148.220000
521.546997	147.860000
521.640625	148.120000
521.734314	147.400000
521.827942	146.820000
521.921692	146.880000
522.015320	146.800000
522.109009	146.360000
522.202698	146.320000
522.296326	145.960000
522.390015	146.320000
522.483704	146.320000
522.577393	146.380000
522.671021	146.120000
522.764709	146.100000
522.858337	146.160000
522.952026	146.280000
523.045654	147.100000
523.139404	147.760000
523.233032	148.100000
523.326721	147.520000
523.420349	147.480000
523.514038	146.900000
523.607666	147.060000
523.701355	146.580000
523.795044	146.620000
523.888733	146.820000
523.982361	146.880000
524.076050	146.420000
524.169678	147.240000
524.263367	147.080000
524.356995	146.780000
524.450684	146.740000
524.544373	146.300000
524.638062	145.880000
524.731750	146.200000
524.825378	146.240000
524.919067	145.740000
525.012695	146.140000
525.106384	145.940000
525.200012	145.960000
525.293701	145.740000
525.387329	146.500000
525.481018	146.540000
525.574646	146.820000
525.668396	146.760000
525.762024	147.240000
525.855713	147.220000
525.949341	146.520000
526.043030	146.740000
526.136658	146.440000
526.230347	146.140000
526.323975	145.700000
526.417664	145.900000
526.511292	145.660000
526.604980	145.980000
526.698608	145.860000
526.792297	145.900000
526.885925	146.360000
526.979614	146.540000
527.073303	146.720000
527.166931	146.780000
527.260620	146.840000
527.354309	147.300000
527.447998	147.080000
527.541626	146.760000
527.635315	146.820000
527.728943	147.640000
527.822632	147.540000
527.916260	147.600000
528.009949	147.620000
528.103577	147.540000
528.197266	146.460000
528.290894	146.200000
528.384583	146.080000
528.478210	146.180000
528.571899	146.540000
528.665527	147.460000
528.759216	147.680000
528.852844	148.120000
528.946533	148.120000
529.040161	147.960000
529.133850	147.140000
529.227478	147.160000
529.321167	147.400000
529.414856	147.720000
529.508484	148.040000
529.602173	148.060000
529.695801	147.920000
529.789490	147.620000
529.883057	147.220000
529.976746	147.380000
530.070374	147.800000
530.164062	147.840000
530.257690	147.860000
530.351379	148.140000
530.445007	147.500000
530.538696	146.880000
530.632324	146.700000
530.726013	146.620000
530.819641	146.400000
530.913330	146.680000
531.006958	146.960000
531.100647	147.000000
531.194275	146.680000
531.287964	146.620000
531.381592	146.280000
531.475220	146.340000
531.568848	146.300000
531.662537	146.600000
531.756226	147.080000
531.849854	147.020000
531.943542	147.240000
532.037170	146.720000
532.130859	146.980000
532.224487	146.280000
532.318176	146.320000
532.411804	146.560000
532.505432	147.300000
532.599060	146.720000
532.692749	146.760000
532.786377	147.320000
532.880066	146.540000
532.973694	145.780000
533.067383	145.680000
533.161011	145.600000
533.254639	145.220000
533.348267	145.000000
533.441956	145.780000
533.535583	145.920000
533.629272	146.300000
533.722900	146.060000
533.816589	146.500000
533.910156	146.600000
534.003845	146.440000
534.097534	146.620000
534.191162	147.220000
534.284851	147.580000
534.378479	147.180000
534.472107	147.440000
534.565735	147.200000
534.659424	147.240000
534.753052	147.160000
534.846741	147.120000
534.940369	147.700000
535.033997	147.640000
535.127625	147.320000
535.221313	147.500000
535.314941	147.320000
535.408630	146.580000
535.502197	146.920000
535.595886	146.840000
535.689514	146.380000
535.783203	146.940000
535.876831	147.200000
535.970459	146.840000
536.064087	146.560000
536.157776	146.620000
536.251404	146.240000
536.345093	146.120000
536.438721	146.260000
536.532349	146.620000
536.626038	146.800000
536.719666	147.120000
536.813293	146.680000
536.906921	146.560000
537.000610	146.860000
537.094238	146.920000
537.187866	146.660000
537.281494	146.920000
537.375183	147.140000
537.468811	146.600000
537.562439	146.380000
537.656067	146.680000
537.749756	146.720000
537.843384	147.260000
537.937012	147.720000
538.030640	147.540000
538.124329	147.300000
538.217896	147.920000
538.311584	147.500000
538.405212	147.000000
538.498901	147.340000
538.592468	147.800000
538.686157	147.040000
538.779785	146.300000
538.873413	146.380000
538.967102	146.100000
539.060730	145.440000
539.154358	145.940000
539.247986	146.400000
539.341675	146.480000
539.435242	146.640000
539.528931	146.720000
539.622559	146.080000
539.716187	146.820000
539.809814	146.740000
539.903503	146.660000
539.997070	146.420000
540.090759	146.500000
540.184387	145.960000
540.278015	146.480000
540.371643	146.880000
540.465332	147.200000
540.558899	147.480000
540.652588	147.480000
540.746216	146.640000
540.839844	146.520000
540.933472	146.540000
541.027100	146.620000
541.120728	146.580000
541.214417	147.140000
541.308044	147.240000
541.401672	146.980000
541.495300	146.640000
541.588928	146.320000
541.682617	146.140000
541.776184	145.660000
541.869873	145.820000
541.963440	146.060000
542.057129	146.340000
542.150757	146.500000
542.244385	146.180000
542.338013	145.920000
542.431641	145.900000
542.525269	145.660000
542.618958	145.740000
542.712524	146.620000
542.806213	146.580000
542.899780	146.560000
542.993469	146.620000
543.087036	146.200000
543.180725	145.440000
543.274292	145.700000
543.367981	146.240000
543.461548	146.460000
543.555237	146.500000
543.648926	147.020000
543.742493	147.880000
543.836182	147.500000
543.929749	147.360000
544.023437	147.600000
544.117004	147.540000
544.210693	147.180000
544.304260	147.220000
544.397949	146.980000
544.491516	147.120000
544.585205	147.100000
544.678772	146.560000
544.772461	146.740000
544.866028	146.700000
544.959717	147.040000
545.053284	146.960000
545.146973	147.220000
545.240540	146.960000
545.334229	147.700000
545.427795	147.580000
545.521423	147.960000
545.615051	148.080000
545.708679	148.600000
545.802307	148.540000
545.895935	148.560000
545.989624	148.860000
546.083191	148.400000
546.176880	147.880000
546.270447	147.240000
546.364136	147.400000
546.457703	146.740000
546.551331	147.040000
546.644958	147.280000
546.738586	147.480000
546.832214	147.160000
546.925842	147.200000
547.019409	147.280000
547.113098	146.980000
547.206665	146.800000
547.300354	146.800000
547.393921	147.060000
547.487549	147.000000
547.581177	146.880000
547.674805	146.940000
547.768433	146.000000
547.862061	145.700000
547.955627	145.380000
548.049316	145.820000
548.142883	146.140000
548.236572	146.820000
548.330139	147.440000
548.423767	147.660000
548.517456	147.680000
548.611023	148.000000
548.704651	147.440000
548.798279	146.920000
548.891907	147.300000
548.985474	146.820000
549.079163	146.540000
549.172729	146.720000
549.266357	146.340000
549.359985	146.260000
549.453613	146.180000
549.547180	145.780000
549.640869	146.580000
549.734436	146.500000
549.828064	146.400000
549.921631	146.160000
550.015320	146.080000
550.108887	146.040000
550.202515	146.180000
550.296143	145.880000
550.389771	146.140000
550.483337	146.220000
550.576965	145.880000
550.670593	146.460000
550.764221	146.660000
550.857849	146.660000
550.951477	146.400000
551.045105	146.080000
551.138672	145.800000
551.232300	145.220000
551.325928	145.640000
551.419556	146.060000
551.513123	146.040000
551.606750	145.680000
551.700378	146.120000
551.794006	145.880000
551.887573	145.580000
551.981201	146.160000
552.074768	146.220000
552.168457	146.180000
552.262024	146.980000
552.355652	146.860000
552.449219	147.320000
552.542847	147.360000
552.636475	147.100000
552.730103	146.160000
552.823669	146.140000
552.917297	145.220000
553.010864	145.200000
553.104553	145.580000
553.198181	145.400000
553.291748	145.740000
553.385376	146.100000
553.478943	146.180000
553.572571	146.400000
553.666199	146.680000
553.759827	146.520000
553.853394	146.300000
553.947021	146.340000
554.040588	146.040000
554.134216	146.180000
554.227783	146.700000
554.321411	147.020000
554.415039	146.760000
554.508667	146.600000
554.602234	146.660000
554.695862	146.080000
554.789429	145.800000
554.883057	145.740000
554.976624	145.780000
555.070251	145.680000
555.163818	145.900000
555.257507	146.060000
555.351074	146.260000
555.444702	147.420000
555.538330	147.080000
555.631897	147.240000
555.725525	146.920000
555.819092	146.760000
555.912720	145.620000
556.006287	146.100000
556.099915	145.760000
556.193481	145.920000
556.287109	146.400000
556.380676	146.260000
556.474304	146.160000
556.567871	146.580000
556.661499	146.120000
556.755066	145.700000
556.848694	145.820000
556.942261	145.560000
557.035889	145.360000
557.129517	145.660000
557.223145	146.020000
557.316711	145.980000
557.410339	145.980000
557.503906	145.960000
557.597473	146.300000
557.691040	146.120000
557.784668	146.300000
557.878296	146.460000
557.971863	146.660000
558.065491	146.760000
558.159058	146.620000
558.252686	147.140000
558.346252	147.720000
558.439880	147.120000
558.533447	146.560000
558.627075	146.560000
558.720642	146.020000
558.814270	145.720000
558.907837	145.960000
559.001465	146.060000
559.095032	146.840000
559.188660	147.140000
559.282227	146.600000
559.375854	147.100000
559.469360	147.160000
559.562988	147.060000
559.656555	146.580000
559.750183	146.800000
559.843750	146.720000
559.937378	146.860000
560.030945	146.460000
560.124573	0.000000
560.218140	0.000000
560.311707	0.000000
560.405334	0.000000
560.498901	0.000000
560.592529	0.000000
560.686096	0.000000
560.779724	0.000000
560.873291	0.000000
560.966858	0.000000
561.060425	0.000000
561.154053	0.000000
561.247620	0.000000
561.341248	0.000000
561.434814	0.000000
561.528381	0.000000
561.621948	0.000000
561.715576	0.000000
561.809143	0.000000
561.902771	0.000000
561.996277	0.000000
562.089905	0.000000
562.183472	0.000000
562.277100	0.000000
