Model Number: SPM-002-B   
Serial Number: 70087108
Firmware Version: 004.15.4
Exposure Time: 100000.000000us
Data Taken on: 11-12-2020 19:36:52.187
Wavelength	Amplitude
221.570786	0.000000
221.663406	0.000000
221.756027	0.000000
221.848648	0.000000
221.941269	0.000000
222.033905	0.000000
222.126526	0.000000
222.219162	0.000000
222.311798	0.000000
222.404419	0.000000
222.497055	0.000000
222.589676	0.000000
222.682312	0.000000
222.774933	0.000000
222.867569	0.000000
222.960205	0.000000
223.052841	0.000000
223.145462	0.000000
223.238098	0.000000
223.330734	0.000000
223.423386	0.000000
223.516022	0.000000
223.608658	0.000000
223.701309	0.000000
223.793945	0.000000
223.886581	0.000000
223.979218	0.000000
224.071869	0.000000
224.164505	0.000000
224.257156	0.000000
224.349792	0.000000
224.442444	0.000000
224.535095	0.000000
224.627747	0.000000
224.720398	0.000000
224.813034	0.000000
224.905685	0.000000
224.998337	145.660000
225.090988	145.580000
225.183640	145.360000
225.276291	144.720000
225.368942	145.220000
225.461594	145.900000
225.554245	146.260000
225.646912	146.380000
225.739578	147.280000
225.832230	147.500000
225.924896	146.820000
226.017548	147.040000
226.110199	147.460000
226.202866	146.900000
226.295532	146.480000
226.388184	146.440000
226.480850	145.940000
226.573517	145.360000
226.666168	145.480000
226.758835	145.720000
226.851501	146.360000
226.944183	146.240000
227.036850	145.980000
227.129517	145.900000
227.222183	146.200000
227.314850	146.020000
227.407516	146.440000
227.500198	147.440000
227.592865	147.360000
227.685532	146.600000
227.778214	146.600000
227.870880	146.980000
227.963562	147.080000
228.056229	147.340000
228.148926	147.640000
228.241592	148.120000
228.334274	147.540000
228.426956	146.920000
228.519638	147.180000
228.612305	146.800000
228.704987	146.740000
228.797668	146.780000
228.890350	146.540000
228.983032	145.740000
229.075714	146.440000
229.168396	146.100000
229.261108	145.760000
229.353790	145.980000
229.446472	146.340000
229.539169	146.020000
229.631851	145.460000
229.724533	145.920000
229.817230	146.000000
229.909912	146.880000
230.002609	146.820000
230.095306	147.180000
230.187988	146.900000
230.280685	146.660000
230.373383	145.380000
230.466095	145.300000
230.558792	145.560000
230.651474	145.620000
230.744171	145.440000
230.836868	145.580000
230.929581	145.760000
231.022278	145.920000
231.114975	146.140000
231.207672	146.260000
231.300369	146.800000
231.393082	146.880000
231.485779	146.660000
231.578506	146.480000
231.671204	146.840000
231.763916	146.640000
231.856613	146.660000
231.949326	146.700000
232.042023	146.640000
232.134735	146.640000
232.227448	146.200000
232.320160	146.280000
232.412872	146.380000
232.505585	147.100000
232.598297	147.320000
232.691010	147.520000
232.783722	146.880000
232.876450	147.360000
232.969162	146.500000
233.061874	145.800000
233.154587	145.300000
233.247314	145.640000
233.340027	144.980000
233.432739	145.640000
233.525467	145.760000
233.618179	146.260000
233.710907	146.040000
233.803635	146.260000
233.896347	145.820000
233.989090	146.460000
234.081818	146.560000
234.174545	146.820000
234.267258	146.560000
234.359985	146.900000
234.452713	146.360000
234.545441	146.260000
234.638168	146.380000
234.730896	146.720000
234.823639	146.480000
234.916367	147.240000
235.009094	147.400000
235.101822	147.280000
235.194580	147.040000
235.287308	146.940000
235.380051	146.120000
235.472778	146.400000
235.565521	146.520000
235.658249	146.440000
235.750992	146.580000
235.843719	146.440000
235.936462	146.060000
236.029205	145.820000
236.121948	145.360000
236.214691	145.660000
236.307449	146.320000
236.400192	146.400000
236.492935	146.320000
236.585678	146.680000
236.678421	146.600000
236.771164	146.280000
236.863907	146.480000
236.956665	146.560000
237.049408	148.160000
237.142151	147.380000
237.234909	148.140000
237.327652	148.380000
237.420410	148.120000
237.513153	146.920000
237.605927	147.140000
237.698669	146.400000
237.791428	145.500000
237.884186	146.200000
237.976944	145.660000
238.069702	146.120000
238.162445	145.880000
238.255203	146.080000
238.347961	146.180000
238.440720	146.220000
238.533478	145.960000
238.626266	145.760000
238.719025	146.260000
238.811783	146.060000
238.904541	145.640000
238.997314	145.700000
239.090073	145.580000
239.182831	145.660000
239.275604	146.180000
239.368362	146.640000
239.461136	146.480000
239.553909	146.860000
239.646667	146.240000
239.739441	145.620000
239.832214	145.880000
239.925003	146.340000
240.017761	146.460000
240.110535	147.220000
240.203308	146.800000
240.296082	146.700000
240.388855	146.480000
240.481628	146.740000
240.574417	146.600000
240.667191	146.900000
240.759964	146.600000
240.852737	146.680000
240.945526	146.360000
241.038315	145.940000
241.131088	146.200000
241.223877	146.380000
241.316650	145.800000
241.409439	146.000000
241.502228	145.880000
241.595001	146.140000
241.687790	146.160000
241.780579	146.420000
241.873367	146.460000
241.966141	147.000000
242.058929	146.460000
242.151718	146.760000
242.244507	147.020000
242.337311	146.400000
242.430099	146.580000
242.522903	146.780000
242.615692	146.240000
242.708481	146.180000
242.801270	146.480000
242.894073	146.320000
242.986862	146.280000
243.079651	146.800000
243.172455	146.480000
243.265244	146.780000
243.358063	145.960000
243.450867	146.180000
243.543655	146.240000
243.636459	146.340000
243.729263	146.520000
243.822067	147.060000
243.914856	147.280000
244.007660	147.420000
244.100464	147.700000
244.193268	147.120000
244.286072	147.080000
244.378876	146.660000
244.471680	146.020000
244.564499	146.180000
244.657318	146.780000
244.750122	147.080000
244.842926	146.520000
244.935745	146.940000
245.028549	146.360000
245.121368	145.980000
245.214172	145.900000
245.306992	146.420000
245.399796	146.120000
245.492615	146.420000
245.585434	146.200000
245.678253	146.060000
245.771072	146.040000
245.863892	146.460000
245.956711	146.740000
246.049530	146.740000
246.142349	146.600000
246.235168	146.920000
246.327988	147.180000
246.420807	146.780000
246.513626	147.020000
246.606445	147.060000
246.699280	146.540000
246.792099	146.140000
246.884918	146.240000
246.977753	146.040000
247.070587	146.100000
247.163422	146.040000
247.256241	146.080000
247.349075	146.260000
247.441895	146.300000
247.534729	146.080000
247.627563	146.160000
247.720383	146.640000
247.813217	146.620000
247.906052	146.840000
247.998886	147.140000
248.091736	146.960000
248.184570	146.500000
248.277405	146.380000
248.370239	147.200000
248.463074	148.020000
248.555908	148.400000
248.648743	148.180000
248.741592	148.200000
248.834427	147.240000
248.927261	146.040000
249.020111	146.580000
249.112946	147.220000
249.205795	146.920000
249.298630	147.120000
249.391495	147.060000
249.484344	146.440000
249.577179	146.220000
249.670029	146.440000
249.762878	146.820000
249.855728	147.420000
249.948563	147.340000
250.041412	146.860000
250.134262	147.280000
250.227112	147.000000
250.319962	146.700000
250.412827	146.800000
250.505692	146.580000
250.598541	146.240000
250.691391	145.760000
250.784241	145.880000
250.877106	146.060000
250.969955	145.940000
251.062805	146.360000
251.155670	147.020000
251.248520	146.880000
251.341385	146.860000
251.434235	147.160000
251.527100	146.840000
251.619965	146.480000
251.712814	146.920000
251.805695	146.780000
251.898560	146.820000
251.991425	146.920000
252.084290	147.020000
252.177155	146.620000
252.270020	146.580000
252.362885	146.380000
252.455750	146.320000
252.548615	145.920000
252.641479	145.960000
252.734360	145.940000
252.827240	145.840000
252.920105	146.060000
253.012970	145.980000
253.105850	145.480000
253.198715	145.500000
253.291595	145.800000
253.384460	145.380000
253.477341	145.520000
253.570221	146.220000
253.663086	145.640000
253.755966	146.680000
253.848846	146.720000
253.941727	147.100000
254.034592	146.780000
254.127472	146.580000
254.220367	145.760000
254.313248	145.940000
254.406128	145.580000
254.499008	145.840000
254.591904	146.760000
254.684784	147.380000
254.777664	147.320000
254.870544	147.100000
254.963440	146.920000
255.056335	147.120000
255.149216	146.400000
255.242111	146.660000
255.334991	147.120000
255.427887	147.240000
255.520767	146.940000
255.613663	147.140000
255.706558	146.720000
255.799438	146.520000
255.892334	146.220000
255.985229	146.220000
256.078125	146.200000
256.171021	146.160000
256.263916	146.440000
256.356812	146.720000
256.449707	146.920000
256.542603	146.520000
256.635498	146.840000
256.728394	146.540000
256.821289	146.440000
256.914215	146.540000
257.007080	146.760000
257.100006	146.860000
257.192932	147.260000
257.285828	147.360000
257.378723	146.920000
257.471619	146.600000
257.564545	145.840000
257.657440	145.840000
257.750336	146.360000
257.843262	146.120000
257.936157	147.540000
258.029053	148.280000
258.121979	148.120000
258.214874	147.320000
258.307800	147.740000
258.400696	146.500000
258.493622	146.200000
258.586517	145.540000
258.679443	146.000000
258.772339	145.440000
258.865265	145.600000
258.958160	145.300000
259.051086	146.480000
259.144012	146.100000
259.236938	147.180000
259.329834	147.180000
259.422791	147.240000
259.515717	146.240000
259.608612	146.440000
259.701538	146.240000
259.794464	145.960000
259.887390	146.080000
259.980316	146.060000
260.073212	145.700000
260.166138	144.620000
260.259064	145.260000
260.351990	145.720000
260.444916	145.920000
260.537842	146.520000
260.630768	147.480000
260.723694	147.120000
260.816620	146.980000
260.909546	147.100000
261.002472	146.740000
261.095398	146.320000
261.188354	146.220000
261.281281	145.920000
261.374207	146.020000
261.467133	146.580000
261.560089	146.620000
261.653015	146.700000
261.745972	147.240000
261.838867	147.280000
261.931824	147.500000
262.024780	146.820000
262.117706	147.000000
262.210663	147.100000
262.303589	147.120000
262.396515	146.920000
262.489471	148.380000
262.582397	148.180000
262.675354	147.420000
262.768280	147.480000
262.861237	147.160000
262.954163	146.640000
263.047119	146.780000
263.140045	146.700000
263.233002	146.640000
263.325958	146.540000
263.418884	146.080000
263.511841	146.080000
263.604797	146.040000
263.697723	146.240000
263.790680	146.180000
263.883636	146.860000
263.976593	146.660000
264.069550	147.200000
264.162476	147.040000
264.255463	147.260000
264.348419	146.760000
264.441376	147.160000
264.534332	146.620000
264.627289	146.620000
264.720245	146.960000
264.813202	146.460000
264.906158	146.460000
264.999115	147.160000
265.092072	146.780000
265.185028	147.020000
265.277985	147.680000
265.370941	147.440000
265.463898	146.980000
265.556854	147.040000
265.649811	145.980000
265.742798	146.100000
265.835754	146.100000
265.928711	146.540000
266.021667	146.820000
266.114655	147.280000
266.207611	147.380000
266.300568	147.020000
266.393585	146.540000
266.486511	146.580000
266.579498	146.040000
266.672485	145.620000
266.765442	145.920000
266.858429	146.460000
266.951385	146.280000
267.044342	146.520000
267.137329	146.520000
267.230316	146.520000
267.323273	145.920000
267.416260	146.580000
267.509216	146.460000
267.602203	146.420000
267.695160	146.980000
267.788147	147.040000
267.881134	146.120000
267.974091	146.540000
268.067078	146.440000
268.160065	145.800000
268.253052	145.960000
268.346008	146.320000
268.438995	145.860000
268.531982	145.980000
268.624969	145.900000
268.717987	146.140000
268.810944	145.980000
268.903961	146.220000
268.996948	145.880000
269.089905	146.480000
269.182892	146.420000
269.275879	146.880000
269.368866	146.440000
269.461853	146.900000
269.554871	146.500000
269.647858	146.500000
269.740845	146.480000
269.833832	146.940000
269.926819	146.660000
270.019806	146.880000
270.112793	146.260000
270.205811	146.300000
270.298798	146.180000
270.391785	146.840000
270.484772	146.260000
270.577789	146.640000
270.670776	146.020000
270.763763	145.920000
270.856750	145.700000
270.949768	145.540000
271.042786	145.580000
271.135773	145.940000
271.228790	146.380000
271.321808	145.960000
271.414795	145.800000
271.507782	145.520000
271.600800	145.180000
271.693817	145.260000
271.786804	146.020000
271.879822	146.800000
271.972809	146.940000
272.065826	147.480000
272.158844	146.960000
272.251831	146.920000
272.344849	146.320000
272.437866	146.160000
272.530853	146.020000
272.623871	146.100000
272.716888	145.140000
272.809906	145.840000
272.902893	145.860000
272.995911	145.320000
273.088928	145.380000
273.181946	145.840000
273.274963	145.400000
273.367981	145.580000
273.460999	145.900000
273.554047	146.340000
273.647003	146.740000
273.740051	146.880000
273.833069	147.260000
273.926086	147.540000
274.019135	146.940000
274.112152	146.600000
274.205170	146.500000
274.298187	146.380000
274.391205	145.920000
274.484222	146.340000
274.577240	146.000000
274.670258	146.180000
274.763306	146.240000
274.856323	146.740000
274.949341	146.620000
275.042358	147.400000
275.135406	147.140000
275.228424	146.740000
275.321442	146.740000
275.414490	146.280000
275.507507	146.260000
275.600525	146.760000
275.693573	146.800000
275.786591	146.320000
275.879669	146.620000
275.972656	146.240000
276.065735	146.120000
276.158752	146.780000
276.251801	147.640000
276.344818	147.680000
276.437866	147.600000
276.530884	147.220000
276.623932	146.260000
276.716980	146.080000
276.809998	146.100000
276.903046	146.420000
276.996094	147.240000
277.089111	147.900000
277.182159	148.000000
277.275208	147.740000
277.368256	147.480000
277.461304	147.120000
277.554321	146.420000
277.647369	145.980000
277.740417	146.140000
277.833466	145.980000
277.926514	145.520000
278.019562	146.180000
278.112610	145.800000
278.205688	146.140000
278.298706	146.360000
278.391785	146.340000
278.484833	145.840000
278.577881	146.100000
278.670929	146.200000
278.763977	146.240000
278.857025	146.720000
278.950073	146.900000
279.043121	146.340000
279.136169	146.100000
279.229248	145.560000
279.322296	145.440000
279.415344	145.360000
279.508392	145.640000
279.601440	145.680000
279.694519	146.020000
279.787567	146.040000
279.880615	145.920000
279.973694	146.000000
280.066742	146.000000
280.159790	146.020000
280.252869	145.840000
280.345917	146.320000
280.438995	146.340000
280.532074	146.160000
280.625122	146.620000
280.718201	147.240000
280.811279	147.020000
280.904327	146.940000
280.997406	147.220000
281.090454	147.260000
281.183533	146.540000
281.276581	146.400000
281.369659	146.120000
281.462738	145.980000
281.555786	145.700000
281.648865	145.900000
281.741943	145.800000
281.835022	146.660000
281.928070	146.380000
282.021149	145.940000
282.114227	145.640000
282.207306	145.520000
282.300385	145.420000
282.393433	145.540000
282.486511	145.720000
282.579590	146.180000
282.672668	146.660000
282.765747	146.120000
282.858856	145.960000
282.951904	146.280000
283.045013	146.560000
283.138062	146.760000
283.231171	147.060000
283.324249	147.620000
283.417328	147.640000
283.510406	146.940000
283.603485	146.740000
283.696564	146.620000
283.789642	146.360000
283.882751	146.040000
283.975830	146.520000
284.068909	146.060000
284.161987	146.860000
284.255066	146.480000
284.348175	146.720000
284.441254	146.660000
284.534332	147.260000
284.627441	146.520000
284.720520	146.480000
284.813599	146.660000
284.906708	146.800000
284.999786	146.240000
285.092896	146.120000
285.185974	147.480000
285.279053	146.700000
285.372192	146.720000
285.465240	147.320000
285.558380	147.200000
285.651459	146.200000
285.744568	147.160000
285.837677	146.700000
285.930756	146.600000
286.023865	146.560000
286.116943	146.040000
286.210052	146.000000
286.303162	146.000000
286.396240	146.000000
286.489349	146.040000
286.582458	146.580000
286.675568	146.320000
286.768646	146.300000
286.861755	146.500000
286.954865	147.400000
287.047974	147.140000
287.141083	146.640000
287.234161	146.620000
287.327271	146.400000
287.420380	146.180000
287.513519	146.220000
287.606598	146.600000
287.699738	147.060000
287.792816	146.720000
287.885956	146.460000
287.979034	146.480000
288.072174	146.620000
288.165283	146.080000
288.258392	146.460000
288.351501	146.060000
288.444611	146.340000
288.537720	146.660000
288.630859	146.740000
288.723969	146.620000
288.817078	147.200000
288.910187	146.700000
289.003296	145.860000
289.096436	145.380000
289.189545	145.200000
289.282654	144.620000
289.375763	145.220000
289.468903	145.820000
289.562012	146.620000
289.655121	146.760000
289.748260	147.020000
289.841400	147.360000
289.934509	147.280000
290.027649	147.300000
290.120728	147.040000
290.213898	147.060000
290.306976	146.480000
290.400146	146.480000
290.493256	145.800000
290.586395	146.120000
290.679535	146.500000
290.772644	146.420000
290.865784	145.540000
290.958893	145.800000
291.052032	145.660000
291.145172	145.560000
291.238281	145.500000
291.331421	145.900000
291.424561	146.420000
291.517670	146.160000
291.610809	146.260000
291.703949	146.080000
291.797089	146.340000
291.890228	145.760000
291.983337	145.980000
292.076477	145.680000
292.169617	146.020000
292.262756	146.200000
292.355927	146.460000
292.449036	146.060000
292.542206	145.980000
292.635315	146.300000
292.728485	146.400000
292.821625	146.040000
292.914764	147.280000
293.007904	147.520000
293.101044	147.140000
293.194183	146.960000
293.287323	147.280000
293.380463	146.640000
293.473602	146.340000
293.566742	146.840000
293.659882	147.420000
293.753021	147.500000
293.846191	147.200000
293.939331	147.100000
294.032471	146.720000
294.125610	146.080000
294.218781	146.580000
294.311920	147.340000
294.405060	147.260000
294.498230	146.900000
294.591370	146.940000
294.684540	145.940000
294.777679	145.060000
294.870850	145.540000
294.963959	145.720000
295.057159	145.880000
295.150299	146.420000
295.243469	146.240000
295.336609	145.980000
295.429779	146.200000
295.522919	146.240000
295.616089	146.320000
295.709229	147.180000
295.802399	147.440000
295.895569	147.140000
295.988708	146.800000
296.081879	146.880000
296.175018	146.400000
296.268188	146.140000
296.361359	146.560000
296.454529	146.760000
296.547668	146.340000
296.640839	146.740000
296.734009	146.460000
296.827179	146.620000
296.920319	146.840000
297.013519	146.940000
297.106659	147.020000
297.199860	147.260000
297.292999	146.940000
297.386200	146.500000
297.479309	146.320000
297.572510	145.940000
297.665680	145.760000
297.758850	145.520000
297.852020	145.760000
297.945190	145.680000
298.038361	145.440000
298.131531	146.200000
298.224701	146.420000
298.317871	145.920000
298.411072	145.600000
298.504242	145.700000
298.597412	145.260000
298.690582	145.460000
298.783752	145.740000
298.876923	146.400000
298.970093	146.340000
299.063293	146.700000
299.156464	146.760000
299.249634	147.220000
299.342834	147.540000
299.436005	147.840000
299.529205	147.580000
299.622345	147.760000
299.715576	146.920000
299.808716	146.060000
299.901917	146.260000
299.995117	146.380000
300.088287	146.120000
300.181488	146.260000
300.274658	146.540000
300.367828	146.480000
300.461029	146.520000
300.554199	146.660000
300.647400	146.980000
300.740601	147.800000
300.833771	147.460000
300.926971	147.600000
301.020142	147.180000
301.113342	147.120000
301.206512	146.520000
301.299713	146.920000
301.392914	146.640000
301.486084	147.040000
301.579285	146.880000
301.672516	147.420000
301.765686	147.180000
301.858887	146.980000
301.952057	146.780000
302.045288	147.200000
302.138458	146.940000
302.231659	146.740000
302.324860	146.780000
302.418060	146.440000
302.511261	145.960000
302.604462	146.160000
302.697662	146.120000
302.790863	145.940000
302.884064	145.880000
302.977264	146.060000
303.070465	146.040000
303.163666	146.800000
303.256866	147.380000
303.350067	147.420000
303.443268	147.360000
303.536469	147.220000
303.629669	146.360000
303.722870	146.320000
303.816071	146.360000
303.909271	146.400000
304.002472	145.600000
304.095673	145.620000
304.188934	144.540000
304.282104	145.240000
304.375336	145.400000
304.468506	145.700000
304.561768	145.640000
304.654968	146.780000
304.748169	146.180000
304.841370	145.800000
304.934601	145.940000
305.027802	145.620000
305.121002	145.140000
305.214233	145.320000
305.307434	145.560000
305.400665	146.160000
305.493866	146.500000
305.587097	146.840000
305.680298	146.620000
305.773499	147.080000
305.866730	146.460000
305.959930	147.040000
306.053162	147.220000
306.146393	147.140000
306.239594	146.340000
306.332825	146.560000
306.426025	146.700000
306.519287	146.020000
306.612488	146.120000
306.705719	146.300000
306.798920	146.340000
306.892181	145.560000
306.985352	145.500000
307.078613	145.200000
307.171844	145.400000
307.265045	145.120000
307.358276	144.820000
307.451508	145.100000
307.544739	145.760000
307.637970	145.520000
307.731201	145.480000
307.824402	146.140000
307.917633	146.260000
308.010864	146.540000
308.104095	147.000000
308.197327	147.360000
308.290558	147.480000
308.383789	146.960000
308.477020	146.240000
308.570251	145.700000
308.663483	145.240000
308.756714	145.280000
308.849976	145.740000
308.943176	146.260000
309.036438	146.280000
309.129639	146.280000
309.222900	146.000000
309.316101	145.820000
309.409393	145.380000
309.502625	145.300000
309.595856	145.580000
309.689087	145.820000
309.782318	145.900000
309.875580	145.920000
309.968811	146.080000
310.062042	145.640000
310.155273	145.340000
310.248535	145.640000
310.341766	145.700000
310.434998	145.680000
310.528259	145.780000
310.621490	146.080000
310.714722	145.300000
310.807983	145.160000
310.901215	144.940000
310.994476	145.420000
311.087708	144.960000
311.181000	145.500000
311.274200	145.320000
311.367462	145.680000
311.460693	145.340000
311.553986	146.260000
311.647186	146.680000
311.740479	147.260000
311.833710	146.920000
311.926971	147.020000
312.020203	146.160000
312.113464	145.760000
312.206726	145.000000
312.299957	145.560000
312.393219	145.860000
312.486481	146.160000
312.579712	145.920000
312.672974	146.460000
312.766235	146.220000
312.859497	145.860000
312.952759	145.660000
313.045990	146.460000
313.139252	145.960000
313.232513	146.120000
313.325775	146.320000
313.419037	146.260000
313.512299	145.460000
313.605530	146.260000
313.698822	146.340000
313.792053	146.500000
313.885345	146.320000
313.978577	146.180000
314.071869	145.320000
314.165131	145.120000
314.258392	145.200000
314.351654	145.680000
314.444916	145.840000
314.538177	146.960000
314.631439	147.300000
314.724701	146.960000
314.817993	146.500000
314.911255	146.540000
315.004517	145.560000
315.097778	145.160000
315.191040	145.600000
315.284302	146.120000
315.377594	145.860000
315.470856	146.040000
315.564117	145.780000
315.657379	145.160000
315.750671	144.760000
315.843933	145.480000
315.937195	145.280000
316.030518	145.080000
316.123749	145.220000
316.217041	146.100000
316.310303	145.900000
316.403595	146.360000
316.496857	146.920000
316.590149	147.100000
316.683411	145.980000
316.776703	145.560000
316.869965	145.360000
316.963257	144.860000
317.056519	144.340000
317.149811	144.540000
317.243073	144.700000
317.336365	144.780000
317.429626	145.600000
317.522919	146.180000
317.616180	146.380000
317.709473	146.420000
317.802765	146.380000
317.896027	146.040000
317.989319	146.400000
318.082611	146.120000
318.175873	145.900000
318.269165	145.900000
318.362488	145.980000
318.455750	145.240000
318.549042	145.660000
318.642303	146.140000
318.735626	145.800000
318.828888	145.800000
318.922211	145.600000
319.015472	146.100000
319.108765	145.660000
319.202057	145.620000
319.295349	145.560000
319.388641	145.760000
319.481934	145.520000
319.575226	145.200000
319.668518	145.620000
319.761810	146.140000
319.855103	146.340000
319.948395	146.020000
320.041687	146.460000
320.134979	146.300000
320.228271	145.460000
320.321564	145.160000
320.414856	144.900000
320.508148	144.740000
320.601440	144.920000
320.694763	144.940000
320.788025	146.040000
320.881348	146.380000
320.974640	146.420000
321.067963	145.840000
321.161224	145.960000
321.254547	144.680000
321.347839	145.460000
321.441162	145.240000
321.534454	145.580000
321.627747	145.660000
321.721069	146.680000
321.814362	146.200000
321.907654	146.300000
322.000946	146.300000
322.094269	146.660000
322.187561	146.180000
322.280884	146.200000
322.374176	146.300000
322.467468	146.960000
322.560791	147.020000
322.654083	147.260000
322.747406	147.300000
322.840698	147.640000
322.934021	147.840000
323.027344	147.740000
323.120636	147.220000
323.213959	146.960000
323.307251	146.500000
323.400574	145.980000
323.493866	145.580000
323.587219	146.140000
323.680511	146.540000
323.773834	146.520000
323.867157	146.520000
323.960449	146.860000
324.053772	146.420000
324.147095	146.140000
324.240387	146.780000
324.333710	146.640000
324.427032	146.700000
324.520355	146.780000
324.613647	146.280000
324.706970	145.880000
324.800293	145.860000
324.893616	145.980000
324.986938	146.360000
325.080231	146.420000
325.173553	146.580000
325.266876	147.140000
325.360199	147.220000
325.453522	146.660000
325.546875	146.700000
325.640167	147.120000
325.733521	146.920000
325.826813	146.960000
325.920166	147.000000
326.013489	146.960000
326.106812	145.860000
326.200134	145.500000
326.293457	144.860000
326.386780	145.120000
326.480103	145.100000
326.573425	145.160000
326.666748	145.320000
326.760071	145.980000
326.853424	145.800000
326.946747	145.960000
327.040070	147.000000
327.133392	146.560000
327.226715	145.900000
327.320068	145.740000
327.413391	146.000000
327.506714	145.360000
327.600037	145.680000
327.693390	145.660000
327.786713	145.740000
327.880066	145.660000
327.973358	146.040000
328.066742	146.760000
328.160034	147.040000
328.253418	147.440000
328.346710	146.960000
328.440063	146.320000
328.533417	145.640000
328.626740	146.120000
328.720093	145.840000
328.813416	146.240000
328.906769	146.620000
329.000092	146.660000
329.093445	146.000000
329.186768	145.940000
329.280121	146.040000
329.373444	146.200000
329.466797	146.300000
329.560120	146.760000
329.653473	146.780000
329.746796	146.600000
329.840149	146.320000
329.933502	146.220000
330.026825	145.780000
330.120178	145.760000
330.213562	145.660000
330.306854	145.860000
330.400238	145.720000
330.493561	145.460000
330.586945	146.120000
330.680237	146.520000
330.773621	146.300000
330.866974	146.440000
330.960327	146.980000
331.053680	146.260000
331.147003	146.260000
331.240356	146.660000
331.333710	146.640000
331.427063	146.360000
331.520416	146.180000
331.613770	146.020000
331.707123	146.120000
331.800476	146.600000
331.893829	147.480000
331.987152	147.980000
332.080505	147.980000
332.173859	147.620000
332.267212	146.980000
332.360565	146.160000
332.453918	145.780000
332.547333	145.460000
332.640656	145.360000
332.734039	145.420000
332.827362	145.600000
332.920746	146.160000
333.014069	146.520000
333.107452	147.140000
333.200806	147.680000
333.294159	147.780000
333.387543	147.300000
333.480896	146.860000
333.574249	146.640000
333.667603	145.920000
333.760956	146.100000
333.854340	146.120000
333.947693	146.380000
334.041046	145.860000
334.134430	146.440000
334.227783	145.800000
334.321136	145.700000
334.414520	145.260000
334.507874	145.800000
334.601227	145.460000
334.694611	145.460000
334.787964	145.500000
334.881348	146.300000
334.974701	145.880000
335.068085	145.700000
335.161438	146.160000
335.254822	146.280000
335.348175	146.000000
335.441559	145.520000
335.534943	146.140000
335.628296	145.840000
335.721680	145.620000
335.815033	145.820000
335.908417	146.580000
336.001770	146.520000
336.095154	146.380000
336.188538	146.180000
336.281891	145.680000
336.375275	145.180000
336.468658	144.880000
336.562012	145.000000
336.655396	145.440000
336.748779	145.840000
336.842133	146.340000
336.935516	146.440000
337.028900	146.260000
337.122284	146.140000
337.215637	146.240000
337.309021	145.860000
337.402435	145.400000
337.495789	145.340000
337.589203	145.300000
337.682526	144.500000
337.775940	144.680000
337.869324	145.200000
337.962708	145.080000
338.056091	145.320000
338.149475	145.520000
338.242859	145.800000
338.336243	145.520000
338.429626	146.100000
338.523010	146.040000
338.616394	145.960000
338.709778	146.100000
338.803162	146.320000
338.896545	146.020000
338.989929	145.520000
339.083313	145.980000
339.176697	145.560000
339.270081	145.640000
339.363464	146.080000
339.456848	146.680000
339.550232	146.340000
339.643616	146.300000
339.737030	145.920000
339.830383	145.760000
339.923828	145.600000
340.017181	145.480000
340.110596	145.440000
340.203949	145.420000
340.297363	144.840000
340.390778	144.780000
340.484161	145.080000
340.577545	145.200000
340.670959	145.680000
340.764343	146.040000
340.857727	146.060000
340.951111	145.560000
341.044525	145.860000
341.137909	144.800000
341.231293	144.880000
341.324707	144.780000
341.418091	145.860000
341.511505	145.720000
341.604889	146.620000
341.698303	146.460000
341.791687	146.620000
341.885071	145.780000
341.978485	145.440000
342.071899	145.380000
342.165283	145.400000
342.258698	145.620000
342.352081	146.180000
342.445496	146.560000
342.538879	146.380000
342.632324	146.360000
342.725708	146.100000
342.819122	145.440000
342.912506	145.400000
343.005920	145.640000
343.099335	146.440000
343.192719	146.460000
343.286133	146.780000
343.379547	146.660000
343.472931	146.560000
343.566345	145.720000
343.659760	146.240000
343.753143	145.940000
343.846558	145.980000
343.939972	145.960000
344.033386	146.380000
344.126770	145.920000
344.220184	146.360000
344.313599	146.560000
344.407043	146.700000
344.500427	146.160000
344.593872	146.680000
344.687225	146.140000
344.780670	145.700000
344.874054	145.420000
344.967499	146.000000
345.060913	145.720000
345.154327	145.980000
345.247742	145.740000
345.341156	145.580000
345.434570	145.360000
345.527985	145.260000
345.621399	145.520000
345.714813	145.540000
345.808228	146.060000
345.901642	145.680000
345.995056	145.340000
346.088470	145.260000
346.181885	145.600000
346.275299	144.980000
346.368713	145.340000
346.462128	145.340000
346.555573	145.520000
346.648987	145.760000
346.742401	146.040000
346.835815	146.460000
346.929260	146.200000
347.022644	146.060000
347.116119	146.140000
347.209503	146.340000
347.302948	146.760000
347.396362	147.780000
347.489807	147.980000
347.583221	148.220000
347.676636	148.040000
347.770050	146.960000
347.863495	145.960000
347.956909	146.000000
348.050323	145.540000
348.143768	145.380000
348.237183	145.300000
348.330597	145.960000
348.424042	146.280000
348.517456	146.620000
348.610901	146.940000
348.704315	146.940000
348.797760	146.260000
348.891174	145.320000
348.984619	144.860000
349.078033	145.100000
349.171448	145.880000
349.264923	145.980000
349.358337	146.220000
349.451782	146.240000
349.545197	145.520000
349.638641	144.840000
349.732086	144.460000
349.825500	144.860000
349.918945	144.620000
350.012390	145.400000
350.105804	145.900000
350.199249	146.260000
350.292664	146.360000
350.386108	146.600000
350.479553	146.700000
350.572968	146.380000
350.666412	146.820000
350.759857	146.540000
350.853302	146.920000
350.946716	146.180000
351.040161	146.480000
351.133606	146.320000
351.227081	146.360000
351.320465	146.800000
351.413940	147.240000
351.507355	147.200000
351.600830	147.300000
351.694244	146.980000
351.787720	146.420000
351.881104	146.340000
351.974579	145.980000
352.067993	146.640000
352.161469	146.880000
352.254883	146.500000
352.348358	146.320000
352.441803	146.340000
352.535248	145.820000
352.628693	146.160000
352.722137	146.140000
352.815582	146.560000
352.909027	146.640000
353.002472	146.600000
353.095917	146.300000
353.189362	146.680000
353.282806	146.520000
353.376251	146.500000
353.469696	146.020000
353.563141	146.540000
353.656586	146.080000
353.750061	145.720000
353.843475	145.760000
353.936981	146.440000
354.030396	145.720000
354.123871	146.060000
354.217285	146.680000
354.310760	146.800000
354.404175	146.420000
354.497681	146.140000
354.591095	145.900000
354.684570	145.040000
354.777985	144.940000
354.871490	144.880000
354.964935	145.480000
355.058380	146.000000
355.151855	145.860000
355.245300	146.460000
355.338745	146.820000
355.432220	146.500000
355.525665	145.760000
355.619110	146.500000
355.712585	145.660000
355.806030	145.680000
355.899475	145.280000
355.992950	145.920000
356.086426	145.960000
356.179871	146.300000
356.273346	146.020000
356.366791	146.780000
356.460266	147.000000
356.553711	146.520000
356.647186	146.360000
356.740631	146.160000
356.834106	145.740000
356.927551	145.420000
357.021027	145.580000
357.114471	145.820000
357.207947	146.000000
357.301422	146.380000
357.394867	146.480000
357.488342	146.900000
357.581818	146.600000
357.675262	146.400000
357.768738	146.040000
357.862213	145.500000
357.955658	145.280000
358.049133	145.340000
358.142609	145.700000
358.236053	145.780000
358.329529	146.000000
358.423035	146.200000
358.516449	145.940000
358.609955	146.340000
358.703400	147.000000
358.796906	147.100000
358.890350	146.780000
358.983826	147.320000
359.077271	146.620000
359.170776	146.120000
359.264221	145.860000
359.357727	145.880000
359.451172	145.860000
359.544647	145.920000
359.638123	145.680000
359.731598	146.200000
359.825073	146.840000
359.918549	146.800000
360.012024	147.080000
360.105499	146.960000
360.198975	146.660000
360.292450	146.160000
360.385925	145.900000
360.479401	145.540000
360.572876	145.860000
360.666351	146.160000
360.759857	146.000000
360.853302	146.060000
360.946808	145.740000
361.040253	145.620000
361.133759	145.240000
361.227203	145.280000
361.320709	144.960000
361.414154	145.580000
361.507660	146.000000
361.601105	146.460000
361.694641	147.280000
361.788086	147.460000
361.881592	147.720000
361.975067	147.180000
362.068542	147.340000
362.162018	146.660000
362.255524	146.560000
362.348999	146.240000
362.442474	146.440000
362.535950	145.740000
362.629456	145.620000
362.722931	145.580000
362.816406	146.180000
362.909882	146.660000
363.003387	146.600000
363.096863	147.340000
363.190338	147.340000
363.283875	146.620000
363.377319	146.200000
363.470825	146.740000
363.564301	145.520000
363.657806	145.860000
363.751282	145.680000
363.844788	146.600000
363.938232	146.220000
364.031769	147.200000
364.125214	147.240000
364.218750	147.940000
364.312225	146.660000
364.405731	146.720000
364.499207	146.080000
364.592712	145.860000
364.686188	145.740000
364.779694	146.020000
364.873169	146.080000
364.966675	145.920000
365.060150	145.920000
365.153656	146.040000
365.247131	146.020000
365.340637	146.220000
365.434143	147.000000
365.527618	147.180000
365.621155	146.160000
365.714600	146.380000
365.808136	146.180000
365.901611	145.300000
365.995117	145.100000
366.088593	145.600000
366.182129	145.260000
366.275604	145.500000
366.369110	145.880000
366.462585	146.120000
366.556122	146.580000
366.649567	146.680000
366.743103	146.880000
366.836609	146.340000
366.930115	146.420000
367.023590	146.240000
367.117096	146.120000
367.210602	145.580000
367.304108	146.600000
367.397614	147.000000
367.491119	147.160000
367.584595	147.140000
367.678101	147.640000
367.771606	147.140000
367.865112	146.780000
367.958649	146.260000
368.052124	146.360000
368.145660	146.080000
368.239136	146.560000
368.332672	146.680000
368.426147	147.080000
368.519684	147.040000
368.613159	147.280000
368.706696	146.720000
368.800171	146.480000
368.893707	146.180000
368.987183	146.140000
369.080719	146.060000
369.174225	146.120000
369.267731	146.580000
369.361237	146.520000
369.454742	146.620000
369.548248	146.880000
369.641754	146.900000
369.735260	146.300000
369.828766	145.800000
369.922272	146.500000
370.015808	146.000000
370.109314	145.560000
370.202820	145.440000
370.296356	146.420000
370.389832	145.880000
370.483368	145.620000
370.576874	145.920000
370.670410	146.000000
370.763885	145.000000
370.857422	144.840000
370.950928	145.000000
371.044464	145.580000
371.137939	145.920000
371.231476	146.540000
371.324982	147.140000
371.418518	147.140000
371.512024	146.840000
371.605560	146.620000
371.699066	146.760000
371.792572	146.200000
371.886108	146.460000
371.979614	146.080000
372.073120	146.680000
372.166656	146.720000
372.260162	146.940000
372.353668	146.800000
372.447205	146.860000
372.540710	146.280000
372.634277	146.160000
372.727753	146.100000
372.821320	146.060000
372.914795	145.880000
373.008362	145.840000
373.101837	145.640000
373.195404	145.420000
373.288879	145.560000
373.382446	146.160000
373.475922	146.240000
373.569489	147.080000
373.662964	147.560000
373.756531	147.560000
373.850037	147.820000
373.943573	147.520000
374.037109	146.360000
374.130615	146.300000
374.224152	146.320000
374.317657	145.940000
374.411194	146.780000
374.504730	146.680000
374.598236	146.320000
374.691772	145.960000
374.785309	145.680000
374.878815	144.640000
374.972351	145.500000
375.065887	145.340000
375.159454	146.160000
375.252930	146.120000
375.346497	146.660000
375.440002	147.020000
375.533569	147.080000
375.627045	146.420000
375.720612	146.700000
375.814117	146.920000
375.907684	146.200000
376.001160	146.240000
376.094727	145.980000
376.188232	146.660000
376.281799	146.380000
376.375336	146.560000
376.468872	147.300000
376.562408	147.480000
376.655914	146.800000
376.749451	146.980000
376.842987	147.000000
376.936523	146.600000
377.030060	146.820000
377.123596	146.960000
377.217133	146.520000
377.310669	146.460000
377.404205	146.840000
377.497772	146.960000
377.591278	146.740000
377.684845	147.580000
377.778351	147.660000
377.871918	146.980000
377.965424	146.380000
378.058990	146.360000
378.152496	145.900000
378.246063	146.200000
378.339569	146.340000
378.433136	146.400000
378.526642	146.460000
378.620209	146.400000
378.713745	145.720000
378.807312	146.160000
378.900848	146.280000
378.994385	146.260000
379.087921	145.560000
379.181458	145.980000
379.274994	145.180000
379.368530	145.020000
379.462097	145.380000
379.555634	145.880000
379.649170	145.440000
379.742706	145.760000
379.836273	146.100000
379.929810	145.780000
380.023376	145.840000
380.116882	145.700000
380.210449	145.740000
380.303986	145.380000
380.397552	145.040000
380.491058	145.200000
380.584656	145.160000
380.678162	145.320000
380.771729	145.600000
380.865265	146.560000
380.958832	146.520000
381.052368	146.820000
381.145935	147.020000
381.239471	147.220000
381.333008	146.580000
381.426575	146.620000
381.520111	146.940000
381.613647	147.240000
381.707214	146.960000
381.800751	146.500000
381.894318	146.780000
381.987854	146.440000
382.081421	145.660000
382.174988	145.720000
382.268524	145.600000
382.362091	145.100000
382.455627	145.820000
382.549194	145.760000
382.642731	145.300000
382.736298	145.760000
382.829834	145.700000
382.923401	145.780000
383.016937	146.260000
383.110504	147.200000
383.204041	147.360000
383.297607	147.700000
383.391174	146.720000
383.484741	147.220000
383.578278	146.580000
383.671844	145.980000
383.765411	145.140000
383.858948	145.860000
383.952515	145.360000
384.046051	146.040000
384.139618	146.840000
384.233185	147.620000
384.326721	147.460000
384.420288	147.780000
384.513855	147.140000
384.607422	147.020000
384.700989	147.340000
384.794525	146.880000
384.888123	146.860000
384.981659	147.300000
385.075226	146.920000
385.168762	146.200000
385.262360	146.480000
385.355896	145.440000
385.449463	145.220000
385.542999	145.320000
385.636597	146.180000
385.730164	146.400000
385.823730	146.500000
385.917267	146.300000
386.010834	146.280000
386.104401	145.880000
386.197968	146.160000
386.291534	146.420000
386.385101	146.640000
386.478668	147.160000
386.572235	146.900000
386.665802	146.160000
386.759338	145.960000
386.852905	145.580000
386.946472	144.900000
387.040070	145.280000
387.133606	145.440000
387.227203	145.620000
387.320740	146.020000
387.414337	145.940000
387.507874	145.920000
387.601471	146.140000
387.695007	145.880000
387.788605	145.420000
387.882141	145.840000
387.975739	145.620000
388.069275	145.220000
388.162872	145.780000
388.256439	146.080000
388.350037	145.600000
388.443604	145.520000
388.537170	145.440000
388.630737	145.980000
388.724304	146.380000
388.817871	146.480000
388.911438	146.560000
389.005005	147.100000
389.098602	146.960000
389.192169	146.240000
389.285736	147.040000
389.379333	147.020000
389.472870	146.320000
389.566467	145.800000
389.660034	146.140000
389.753632	145.400000
389.847168	145.820000
389.940765	146.340000
390.034332	146.660000
390.127930	146.120000
390.221466	146.060000
390.315063	145.540000
390.408630	144.620000
390.502228	143.720000
390.595795	144.200000
390.689362	144.320000
390.782959	144.520000
390.876526	145.160000
390.970093	145.540000
391.063690	146.140000
391.157257	146.380000
391.250824	146.540000
391.344421	146.740000
391.437988	147.020000
391.531555	146.640000
391.625153	146.580000
391.718750	146.580000
391.812317	146.500000
391.905914	146.300000
391.999481	146.460000
392.093079	146.420000
392.186615	146.700000
392.280243	146.660000
392.373779	146.780000
392.467407	146.780000
392.560944	146.400000
392.654572	145.780000
392.748108	145.920000
392.841736	146.040000
392.935303	145.580000
393.028900	145.680000
393.122467	145.920000
393.216064	145.420000
393.309631	144.740000
393.403229	144.620000
393.496796	144.660000
393.590393	143.940000
393.683990	144.400000
393.777557	145.440000
393.871155	145.620000
393.964722	146.120000
394.058350	146.380000
394.151917	146.300000
394.245514	145.580000
394.339081	146.020000
394.432678	146.260000
394.526245	146.560000
394.619873	146.220000
394.713409	146.500000
394.807037	146.000000
394.900604	146.000000
394.994202	145.780000
395.087769	146.220000
395.181396	145.640000
395.274994	146.580000
395.368561	146.080000
395.462158	146.520000
395.555756	146.260000
395.649353	146.980000
395.742920	146.160000
395.836517	146.600000
395.930115	146.120000
396.023712	146.400000
396.117279	146.460000
396.210876	146.320000
396.304474	146.200000
396.398071	146.460000
396.491669	146.680000
396.585266	146.160000
396.678833	146.380000
396.772461	146.520000
396.866028	146.400000
396.959656	146.540000
397.053223	147.380000
397.146851	147.620000
397.240417	148.180000
397.334015	149.980000
397.427582	151.240000
397.521210	152.640000
397.614807	155.560000
397.708405	158.700000
397.802002	162.160000
397.895599	167.520000
397.989197	173.600000
398.082794	180.280000
398.176392	189.140000
398.269989	199.280000
398.363586	211.600000
398.457184	227.360000
398.550781	246.200000
398.644379	265.580000
398.737976	288.360000
398.831573	312.280000
398.925201	335.600000
399.018768	359.360000
399.112396	383.120000
399.205963	405.480000
399.299591	426.500000
399.393158	446.700000
399.486786	465.340000
399.580353	483.100000
399.673981	497.640000
399.767578	511.960000
399.861206	525.520000
399.954773	536.580000
400.048401	542.080000
400.141998	544.220000
400.235596	541.260000
400.329193	532.900000
400.422791	519.320000
400.516418	504.140000
400.610016	487.760000
400.703613	468.440000
400.797211	445.420000
400.890808	420.980000
400.984436	395.700000
401.078033	367.900000
401.171631	340.460000
401.265259	314.820000
401.358826	291.900000
401.452484	270.080000
401.546051	251.840000
401.639679	233.900000
401.733246	218.960000
401.826904	204.260000
401.920471	191.820000
402.014099	181.080000
402.107697	173.240000
402.201324	166.560000
402.294891	162.020000
402.388550	158.440000
402.482147	155.680000
402.575745	152.780000
402.669373	150.520000
402.762970	149.120000
402.856567	148.040000
402.950195	147.160000
403.043793	146.920000
403.137390	147.120000
403.231018	146.320000
403.324615	146.940000
403.418243	146.740000
403.511841	147.400000
403.605469	147.320000
403.699066	147.540000
403.792694	147.400000
403.886292	147.680000
403.979919	147.320000
404.073517	147.060000
404.167145	147.380000
404.260712	147.040000
404.354370	146.580000
404.447937	146.460000
404.541595	146.500000
404.635162	146.620000
404.728821	147.060000
404.822418	146.780000
404.916046	146.680000
405.009644	147.200000
405.103271	147.260000
405.196899	146.620000
405.290497	146.900000
405.384125	147.360000
405.477722	146.640000
405.571350	146.060000
405.664948	146.480000
405.758575	146.260000
405.852203	145.540000
405.945801	145.600000
406.039429	145.780000
406.133057	145.540000
406.226654	145.560000
406.320312	145.740000
406.413879	146.060000
406.507538	146.140000
406.601135	145.860000
406.694763	146.220000
406.788361	146.080000
406.882019	145.720000
406.975586	146.140000
407.069244	146.660000
407.162872	146.700000
407.256470	146.680000
407.350098	146.500000
407.443726	145.820000
407.537323	145.320000
407.630951	145.300000
407.724579	145.260000
407.818207	145.780000
407.911804	145.600000
408.005432	145.840000
408.099060	146.080000
408.192688	146.540000
408.286285	146.460000
408.379913	146.340000
408.473572	146.100000
408.567169	145.480000
408.660828	145.280000
408.754395	144.820000
408.848053	145.180000
408.941650	145.540000
409.035309	145.120000
409.128906	145.100000
409.222565	145.560000
409.316132	145.560000
409.409790	145.200000
409.503387	145.660000
409.597046	145.420000
409.690674	145.480000
409.784302	145.600000
409.877930	145.360000
409.971558	145.600000
410.065186	145.680000
410.158783	145.380000
410.252411	145.240000
410.346039	145.700000
410.439667	145.740000
410.533295	146.140000
410.626923	146.480000
410.720551	146.340000
410.814209	146.760000
410.907806	146.820000
411.001465	146.180000
411.095062	146.300000
411.188721	146.340000
411.282318	145.800000
411.375977	145.500000
411.469574	145.820000
411.563232	145.320000
411.656830	145.620000
411.750488	145.600000
411.844086	145.140000
411.937744	145.440000
412.031372	145.540000
412.125000	145.160000
412.218628	145.160000
412.312256	146.300000
412.405884	146.380000
412.499512	146.360000
412.593170	146.960000
412.686798	147.020000
412.780426	146.060000
412.874054	146.040000
412.967682	146.120000
413.061310	146.400000
413.154968	146.520000
413.248566	146.860000
413.342224	146.700000
413.435852	146.520000
413.529510	145.840000
413.623108	145.240000
413.716766	145.300000
413.810364	145.560000
413.904022	145.640000
413.997650	145.440000
414.091309	146.360000
414.184906	146.160000
414.278564	145.680000
414.372192	145.860000
414.465851	146.440000
414.559479	146.300000
414.653107	147.280000
414.746735	147.180000
414.840393	147.100000
414.934021	147.200000
415.027649	146.600000
415.121277	146.120000
415.214935	146.440000
415.308563	146.520000
415.402191	145.680000
415.495850	145.920000
415.589478	145.680000
415.683136	145.620000
415.776733	145.840000
415.870422	146.820000
415.964020	146.360000
416.057678	146.300000
416.151306	146.400000
416.244965	146.220000
416.338562	145.960000
416.432251	146.780000
416.525848	147.440000
416.619507	147.480000
416.713165	148.060000
416.806793	147.960000
416.900421	147.780000
416.994080	146.960000
417.087708	146.780000
417.181366	146.140000
417.274994	145.780000
417.368622	146.140000
417.462280	146.800000
417.555908	146.840000
417.649567	146.680000
417.743195	146.940000
417.836853	146.680000
417.930481	146.580000
418.024170	146.660000
418.117767	146.880000
418.211426	147.040000
418.305054	147.340000
418.398712	146.660000
418.492340	146.380000
418.585999	146.800000
418.679626	146.680000
418.773285	146.300000
418.866913	146.880000
418.960571	147.120000
419.054230	146.720000
419.147858	146.680000
419.241516	146.960000
419.335144	146.340000
419.428802	146.300000
419.522461	145.940000
419.616089	145.760000
419.709747	145.700000
419.803375	146.340000
419.897034	146.240000
419.990662	146.580000
420.084320	147.100000
420.177979	147.180000
420.271606	147.140000
420.365295	147.700000
420.458893	147.920000
420.552582	147.940000
420.646210	148.020000
420.739868	147.740000
420.833496	147.180000
420.927155	146.420000
421.020782	145.920000
421.114471	145.320000
421.208069	145.260000
421.301758	145.560000
421.395386	145.900000
421.489044	145.800000
421.582703	146.000000
421.676361	146.640000
421.769989	146.300000
421.863647	146.900000
421.957306	147.040000
422.050934	147.420000
422.144592	147.020000
422.238251	146.640000
422.331909	146.040000
422.425537	146.000000
422.519196	145.480000
422.612854	144.960000
422.706543	145.000000
422.800140	145.240000
422.893829	144.740000
422.987457	144.620000
423.081146	144.800000
423.174744	145.560000
423.268433	145.200000
423.362061	145.440000
423.455750	145.240000
423.549347	145.480000
423.643036	144.560000
423.736664	145.260000
423.830353	145.620000
423.924011	146.180000
424.017639	145.920000
424.111298	146.300000
424.204956	145.920000
424.298615	145.720000
424.392273	145.400000
424.485931	145.460000
424.579559	145.660000
424.673218	145.440000
424.766876	145.660000
424.860535	145.640000
424.954193	145.340000
425.047882	145.500000
425.141510	145.640000
425.235199	145.640000
425.328796	145.320000
425.422485	145.640000
425.516113	145.160000
425.609802	145.300000
425.703430	145.540000
425.797119	145.800000
425.890747	146.060000
425.984436	146.220000
426.078064	146.060000
426.171753	145.480000
426.265411	145.180000
426.359070	145.000000
426.452728	144.700000
426.546356	144.560000
426.640015	144.540000
426.733673	144.860000
426.827332	144.560000
426.920990	145.800000
427.014648	145.560000
427.108307	146.000000
427.201965	146.500000
427.295624	146.980000
427.389282	145.940000
427.482941	146.460000
427.576630	146.320000
427.670258	145.560000
427.763947	145.360000
427.857574	145.380000
427.951263	145.440000
428.044922	145.140000
428.138611	145.620000
428.232239	146.100000
428.325928	146.660000
428.419556	146.800000
428.513245	146.840000
428.606903	146.880000
428.700562	146.100000
428.794220	145.320000
428.887878	144.740000
428.981537	145.140000
429.075195	145.200000
429.168854	145.960000
429.262512	146.140000
429.356201	146.620000
429.449860	146.320000
429.543518	146.180000
429.637177	145.960000
429.730835	145.920000
429.824493	145.620000
429.918182	145.680000
430.011810	145.020000
430.105530	144.500000
430.199158	145.100000
430.292847	144.660000
430.386475	144.600000
430.480164	144.820000
430.573792	144.700000
430.667511	144.300000
430.761139	144.860000
430.854828	145.380000
430.948456	145.600000
431.042145	146.420000
431.135834	146.180000
431.229492	146.300000
431.323151	146.440000
431.416809	146.520000
431.510468	146.000000
431.604156	146.100000
431.697815	145.820000
431.791473	145.020000
431.885132	144.760000
431.978821	145.120000
432.072479	145.240000
432.166138	146.000000
432.259827	145.840000
432.353485	146.380000
432.447174	146.240000
432.540802	146.040000
432.634491	145.560000
432.728149	146.200000
432.821838	146.300000
432.915466	145.760000
433.009186	145.820000
433.102814	145.440000
433.196503	144.980000
433.290131	144.820000
433.383850	145.400000
433.477509	145.480000
433.571167	146.400000
433.664856	146.900000
433.758514	146.900000
433.852173	146.960000
433.945862	147.000000
434.039520	146.260000
434.133179	145.840000
434.226868	145.520000
434.320526	144.520000
434.414185	145.220000
434.507874	144.940000
434.601562	145.080000
434.695221	145.280000
434.788910	146.100000
434.882538	145.760000
434.976257	145.860000
435.069885	145.980000
435.163574	146.060000
435.257233	145.760000
435.350922	145.460000
435.444580	145.440000
435.538269	145.260000
435.631897	145.500000
435.725616	146.080000
435.819275	146.660000
435.912964	147.360000
436.006622	147.660000
436.100311	147.160000
436.193970	146.400000
436.287628	145.880000
436.381317	145.220000
436.474976	144.760000
436.568665	144.560000
436.662323	144.900000
436.756012	144.960000
436.849670	144.800000
436.943390	144.720000
437.037018	144.900000
437.130737	144.840000
437.224365	144.700000
437.318085	145.080000
437.411713	145.340000
437.505432	145.760000
437.599060	146.420000
437.692780	146.980000
437.786407	146.960000
437.880127	147.140000
437.973755	146.840000
438.067474	146.400000
438.161133	146.380000
438.254822	146.660000
438.348480	146.280000
438.442169	147.000000
438.535828	147.100000
438.629517	146.480000
438.723175	145.720000
438.816864	146.440000
438.910553	145.680000
439.004211	145.420000
439.097900	145.340000
439.191559	145.580000
439.285248	144.660000
439.378906	145.100000
439.472626	145.180000
439.566284	145.240000
439.659973	145.680000
439.753632	145.760000
439.847321	146.000000
439.940979	145.940000
440.034698	146.160000
440.128326	145.560000
440.222046	145.740000
440.315674	144.980000
440.409393	145.420000
440.503082	145.100000
440.596741	145.500000
440.690430	145.860000
440.784088	145.780000
440.877777	144.900000
440.971466	145.280000
441.065125	145.140000
441.158813	144.720000
441.252502	145.000000
441.346161	145.300000
441.439850	145.260000
441.533539	145.000000
441.627197	145.180000
441.720886	144.900000
441.814606	145.400000
441.908234	145.680000
442.001953	145.780000
442.095612	145.920000
442.189301	146.320000
442.282959	146.320000
442.376678	145.760000
442.470306	146.500000
442.564026	146.180000
442.657684	146.340000
442.751404	145.980000
442.845032	146.880000
442.938751	146.060000
443.032440	146.280000
443.126099	145.800000
443.219788	146.560000
443.313477	145.820000
443.407166	146.080000
443.500824	145.920000
443.594513	146.240000
443.688202	145.680000
443.781891	145.480000
443.875549	145.260000
443.969238	145.440000
444.062927	145.440000
444.156647	145.360000
444.250275	145.880000
444.343994	146.140000
444.437653	146.220000
444.531372	146.120000
444.625031	146.060000
444.718719	145.540000
444.812378	145.520000
444.906097	145.360000
444.999756	144.780000
445.093445	144.840000
445.187103	145.080000
445.280823	145.820000
445.374512	145.200000
445.468201	145.640000
445.561859	145.520000
445.655548	145.600000
445.749237	144.680000
445.842926	145.480000
445.936615	146.080000
446.030304	145.800000
446.123962	146.100000
446.217651	146.140000
446.311340	146.140000
446.405029	145.520000
446.498749	145.600000
446.592407	145.020000
446.686096	145.220000
446.779755	145.220000
446.873474	145.580000
446.967133	145.820000
447.060852	145.800000
447.154510	145.840000
447.248230	145.720000
447.341858	145.640000
447.435577	145.400000
447.529236	145.600000
447.622955	145.260000
447.716644	145.360000
447.810333	145.560000
447.904022	146.080000
447.997711	145.920000
448.091400	146.240000
448.185059	146.640000
448.278748	146.540000
448.372437	145.980000
448.466125	146.300000
448.559814	146.200000
448.653503	146.100000
448.747192	146.160000
448.840912	146.820000
448.934570	146.440000
449.028290	146.680000
449.121948	146.100000
449.215637	145.620000
449.309296	145.000000
449.403015	145.120000
449.496674	145.260000
449.590393	145.360000
449.684052	145.240000
449.777771	146.120000
449.871429	145.800000
449.965149	145.580000
450.058838	145.800000
450.152527	146.480000
450.246216	146.300000
450.339905	146.600000
450.433594	146.260000
450.527283	146.660000
450.620972	146.380000
450.714661	146.140000
450.808350	146.480000
450.902039	147.080000
450.995728	146.860000
451.089417	146.500000
451.183105	146.460000
451.276794	146.760000
451.370514	146.000000
451.464172	145.260000
451.557892	145.480000
451.651550	145.420000
451.745270	144.700000
451.838928	144.540000
451.932648	145.060000
452.026306	145.480000
452.120026	145.240000
452.213684	145.560000
452.307404	146.000000
452.401062	146.160000
452.494781	146.040000
452.588470	146.220000
452.682159	146.040000
452.775848	146.160000
452.869537	145.560000
452.963226	144.980000
453.056915	144.680000
453.150604	144.960000
453.244293	145.300000
453.337982	146.100000
453.431671	146.440000
453.525360	147.340000
453.619049	147.180000
453.712769	146.740000
453.806427	146.020000
453.900146	145.780000
453.993805	145.180000
454.087555	145.800000
454.181213	146.100000
454.274933	146.100000
454.368591	146.340000
454.462311	146.500000
454.555969	145.620000
454.649689	146.160000
454.743347	146.100000
454.837067	146.920000
454.930756	147.340000
455.024445	147.720000
455.118134	147.040000
455.211853	147.480000
455.305542	146.360000
455.399231	146.100000
455.492920	146.360000
455.586609	146.560000
455.680298	146.580000
455.773987	146.760000
455.867676	146.480000
455.961365	146.380000
456.055084	146.200000
456.148773	145.940000
456.242493	146.000000
456.336151	145.920000
456.429871	145.840000
456.523529	146.000000
456.617249	145.840000
456.710907	146.700000
456.804626	146.840000
456.898315	146.480000
456.992035	146.520000
457.085693	146.420000
457.179413	145.360000
457.273102	146.220000
457.366791	146.200000
457.460480	146.380000
457.554199	147.340000
457.647888	147.600000
457.741577	146.780000
457.835266	147.040000
457.928955	146.920000
458.022644	146.580000
458.116364	147.180000
458.210052	146.940000
458.303741	147.060000
458.397461	146.380000
458.491119	145.660000
458.584839	144.880000
458.678528	144.940000
458.772247	144.720000
458.865906	145.200000
458.959625	146.460000
459.053284	146.820000
459.147003	146.600000
459.240692	147.060000
459.334412	147.320000
459.428070	146.720000
459.521790	146.520000
459.615479	146.700000
459.709198	146.660000
459.802887	146.300000
459.896576	146.000000
459.990265	146.000000
460.083954	146.380000
460.177673	145.980000
460.271362	145.920000
460.365051	145.780000
460.458740	145.680000
460.552429	145.100000
460.646149	145.340000
460.739838	145.140000
460.833527	145.580000
460.927246	145.500000
461.020905	145.600000
461.114655	145.100000
461.208313	145.460000
461.302032	144.800000
461.395691	144.840000
461.489441	145.200000
461.583099	145.540000
461.676819	145.340000
461.770477	146.200000
461.864197	146.160000
461.957916	145.820000
462.051605	145.320000
462.145294	146.020000
462.238983	145.460000
462.332703	146.060000
462.426392	146.640000
462.520081	147.000000
462.613770	146.320000
462.707489	146.300000
462.801178	146.020000
462.894867	145.540000
462.988556	145.400000
463.082275	145.460000
463.175964	145.340000
463.269684	145.440000
463.363342	145.640000
463.457092	145.140000
463.550751	145.460000
463.644470	145.900000
463.738129	145.660000
463.831879	145.740000
463.925537	147.020000
464.019257	146.920000
464.112946	146.600000
464.206665	146.420000
464.300323	146.080000
464.394043	145.280000
464.487762	145.560000
464.581451	146.000000
464.675140	146.160000
464.768829	146.580000
464.862549	146.840000
464.956238	146.600000
465.049927	146.680000
465.143646	146.940000
465.237335	146.540000
465.331024	146.860000
465.424713	146.600000
465.518433	146.500000
465.612152	146.120000
465.705811	146.480000
465.799561	146.000000
465.893219	145.920000
465.986938	145.540000
466.080597	145.580000
466.174347	145.580000
466.268005	145.840000
466.361725	145.880000
466.455414	145.860000
466.549133	145.720000
466.642792	145.720000
466.736542	145.140000
466.830231	145.340000
466.923920	145.660000
467.017609	145.740000
467.111328	145.380000
467.205017	145.860000
467.298706	145.880000
467.392426	145.640000
467.486115	145.960000
467.579803	145.840000
467.673523	145.940000
467.767212	146.080000
467.860901	146.300000
467.954651	146.280000
468.048309	146.640000
468.142029	146.760000
468.235718	146.640000
468.329437	146.400000
468.423096	146.440000
468.516846	146.280000
468.610504	145.680000
468.704224	145.560000
468.797913	145.420000
468.891632	145.440000
468.985291	145.380000
469.079010	145.720000
469.172729	145.360000
469.266418	145.880000
469.360107	145.640000
469.453827	145.320000
469.547516	145.420000
469.641205	145.920000
469.734924	145.940000
469.828613	146.580000
469.922302	147.200000
470.016022	147.240000
470.109711	147.140000
470.203430	146.900000
470.297150	145.660000
470.390808	145.820000
470.484558	145.480000
470.578217	145.840000
470.671936	146.280000
470.765625	147.620000
470.859344	147.060000
470.953003	147.280000
471.046753	146.620000
471.140411	145.600000
471.234131	145.380000
471.327820	145.860000
471.421539	146.080000
471.515228	145.860000
471.608948	146.340000
471.702637	145.660000
471.796326	145.360000
471.890045	145.360000
471.983734	145.740000
472.077423	145.480000
472.171143	145.600000
472.264832	145.560000
472.358521	145.200000
472.452240	145.000000
472.545929	145.860000
472.639648	145.960000
472.733337	146.300000
472.827057	146.420000
472.920746	146.640000
473.014465	146.460000
473.108124	146.620000
473.201874	146.460000
473.295532	146.280000
473.389252	146.600000
473.482941	146.560000
473.576660	145.920000
473.670319	145.860000
473.764069	146.100000
473.857727	146.100000
473.951477	146.120000
474.045166	147.020000
474.138855	146.980000
474.232574	146.800000
474.326263	146.800000
474.419952	146.800000
474.513672	146.340000
474.607361	146.320000
474.701050	146.300000
474.794769	146.240000
474.888458	146.400000
474.982178	146.500000
475.075867	146.460000
475.169586	146.580000
475.263275	146.280000
475.356995	145.800000
475.450653	145.600000
475.544403	145.220000
475.638062	145.900000
475.731812	145.580000
475.825470	145.500000
475.919189	145.680000
476.012878	146.160000
476.106598	145.280000
476.200256	145.840000
476.294006	146.140000
476.387695	146.320000
476.481384	146.340000
476.575104	146.640000
476.668793	146.300000
476.762512	145.740000
476.856201	145.980000
476.949890	145.500000
477.043610	144.920000
477.137299	145.080000
477.230988	145.480000
477.324707	144.780000
477.418396	145.460000
477.512146	145.800000
477.605804	145.740000
477.699524	145.940000
477.793213	146.180000
477.886932	145.760000
477.980591	145.560000
478.074341	145.400000
478.167999	144.620000
478.261749	144.760000
478.355408	144.560000
478.449127	145.280000
478.542816	146.080000
478.636536	147.080000
478.730225	146.760000
478.823944	147.320000
478.917633	146.840000
479.011322	146.540000
479.105042	146.340000
479.198730	146.820000
479.292450	146.480000
479.386139	146.820000
479.479828	146.900000
479.573547	146.960000
479.667267	146.540000
479.760925	146.460000
479.854675	146.320000
479.948334	146.040000
480.042084	145.560000
480.135742	146.020000
480.229462	145.760000
480.323151	145.760000
480.416870	145.440000
480.510529	145.400000
480.604279	144.740000
480.697937	145.380000
480.791656	145.320000
480.885345	145.200000
480.979065	145.240000
481.072754	145.760000
481.166473	145.880000
481.260132	145.780000
481.353882	146.120000
481.447540	146.140000
481.541260	146.260000
481.635010	145.680000
481.728668	145.780000
481.822388	145.520000
481.916077	145.820000
482.009796	145.600000
482.103485	146.220000
482.197205	146.340000
482.290863	146.660000
482.384613	146.480000
482.478271	146.220000
482.571991	145.980000
482.665680	145.900000
482.759399	146.500000
482.853058	146.980000
482.946808	146.960000
483.040466	146.740000
483.134216	146.720000
483.227875	145.960000
483.321594	146.180000
483.415283	146.260000
483.509003	146.200000
483.602661	145.720000
483.696411	146.140000
483.790070	145.880000
483.883789	146.060000
483.977478	146.480000
484.071198	146.800000
484.164917	146.420000
484.258606	145.760000
484.352325	145.820000
484.445984	145.640000
484.539734	145.440000
484.633392	145.180000
484.727142	145.820000
484.820801	145.540000
484.914520	145.360000
485.008209	145.640000
485.101929	146.320000
485.195587	146.040000
485.289337	146.140000
485.382996	146.300000
485.476715	146.340000
485.570404	146.440000
485.664124	145.980000
485.757782	146.580000
485.851532	146.340000
485.945190	146.260000
486.038910	146.220000
486.132599	147.180000
486.226318	146.360000
486.319977	146.460000
486.413727	146.780000
486.507446	146.140000
486.601105	145.360000
486.694855	145.180000
486.788513	145.420000
486.882233	145.200000
486.975922	145.300000
487.069641	145.460000
487.163300	145.740000
487.257050	146.400000
487.350708	146.160000
487.444427	146.020000
487.538116	146.160000
487.631836	146.180000
487.725494	145.400000
487.819214	145.500000
487.912903	145.460000
488.006622	145.660000
488.100281	146.020000
488.194031	146.060000
488.287689	146.300000
488.381409	147.260000
488.475098	146.940000
488.568817	146.940000
488.662476	146.720000
488.756226	146.160000
488.849945	144.980000
488.943604	144.980000
489.037354	144.980000
489.131012	144.820000
489.224731	144.900000
489.318390	145.000000
489.412140	144.900000
489.505798	144.640000
489.599518	145.080000
489.693207	145.400000
489.786926	145.520000
489.880585	145.300000
489.974335	145.420000
490.067993	146.400000
490.161713	146.520000
490.255371	147.220000
490.349121	147.820000
490.442780	147.980000
490.536499	146.640000
490.630188	146.580000
490.723907	146.000000
490.817566	145.820000
490.911285	145.200000
491.004974	145.080000
491.098694	144.700000
491.192413	145.400000
491.286102	145.160000
491.379822	145.440000
491.473480	145.800000
491.567200	146.220000
491.660889	145.540000
491.754608	145.860000
491.848267	145.780000
491.941986	145.700000
492.035675	145.540000
492.129395	146.160000
492.223053	145.560000
492.316772	145.580000
492.410461	145.580000
492.504181	145.400000
492.597839	144.740000
492.691559	145.320000
492.785248	145.560000
492.878967	145.560000
492.972626	145.520000
493.066345	145.920000
493.160034	145.580000
493.253754	145.740000
493.347412	145.540000
493.441132	145.880000
493.534882	146.040000
493.628540	146.420000
493.722260	146.480000
493.815918	146.420000
493.909668	146.720000
494.003326	146.900000
494.097046	146.520000
494.190704	146.160000
494.284454	146.500000
494.378113	146.500000
494.471832	146.040000
494.565491	146.060000
494.659210	146.280000
494.752899	146.020000
494.846619	145.660000
494.940277	145.920000
495.033997	145.920000
495.127686	145.900000
495.221405	146.020000
495.315063	145.840000
495.408783	145.940000
495.502441	146.040000
495.596191	145.620000
495.689850	145.580000
495.783569	146.180000
495.877228	146.020000
495.970947	145.920000
496.064697	146.420000
496.158356	147.220000
496.252075	146.900000
496.345734	146.540000
496.439453	147.240000
496.533142	147.040000
496.626862	147.000000
496.720520	146.980000
496.814240	147.160000
496.907898	146.540000
497.001617	146.820000
497.095306	145.660000
497.189026	145.720000
497.282684	145.840000
497.376404	146.140000
497.470062	146.080000
497.563782	146.740000
497.657471	146.660000
497.751190	146.120000
497.844849	145.740000
497.938568	145.740000
498.032227	145.580000
498.125946	145.500000
498.219635	145.620000
498.313354	145.920000
498.407074	145.520000
498.500732	145.720000
498.594452	145.940000
498.688110	145.580000
498.781830	145.280000
498.875519	145.200000
498.969238	144.780000
499.062897	144.680000
499.156616	145.460000
499.250275	145.640000
499.343994	145.520000
499.437653	145.700000
499.531372	145.680000
499.625061	146.320000
499.718781	146.600000
499.812439	147.000000
499.906158	147.100000
499.999817	146.980000
500.093536	146.060000
500.187195	145.740000
500.280914	145.780000
500.374573	145.780000
500.468323	145.660000
500.561981	146.000000
500.655701	145.780000
500.749420	145.940000
500.843079	146.040000
500.936798	146.420000
501.030457	146.660000
501.124176	147.000000
501.217834	146.640000
501.311554	146.560000
501.405212	146.300000
501.498962	145.460000
501.592621	145.440000
501.686340	146.100000
501.779999	146.320000
501.873718	146.500000
501.967377	146.840000
502.061096	147.140000
502.154755	146.140000
502.248474	145.940000
502.342133	145.920000
502.435852	146.020000
502.529510	146.180000
502.623230	147.120000
502.716888	146.740000
502.810608	146.680000
502.904266	147.240000
502.997986	146.740000
503.091705	146.020000
503.185364	146.240000
503.279083	146.200000
503.372772	145.840000
503.466492	145.460000
503.560150	145.620000
503.653870	146.000000
503.747528	145.860000
503.841248	145.280000
503.934906	145.800000
504.028625	145.800000
504.122284	145.940000
504.216003	146.700000
504.309662	146.720000
504.403381	146.680000
504.497040	146.660000
504.590759	145.960000
504.684418	145.860000
504.778137	146.460000
504.871796	146.660000
504.965515	146.580000
505.059174	146.940000
505.152893	146.220000
505.246521	145.820000
505.340240	145.460000
505.433899	145.340000
505.527618	145.500000
505.621338	146.100000
505.714996	146.000000
505.808716	146.020000
505.902374	146.780000
505.996094	146.640000
506.089752	146.360000
506.183472	146.760000
506.277130	146.760000
506.370850	146.440000
506.464508	146.280000
506.558228	146.480000
506.651886	145.900000
506.745605	146.080000
506.839264	146.160000
506.932983	146.440000
507.026611	146.000000
507.120331	146.680000
507.213989	146.160000
507.307709	146.020000
507.401367	146.020000
507.495087	147.060000
507.588745	146.700000
507.682465	147.880000
507.776123	147.840000
507.869843	147.480000
507.963531	146.860000
508.057190	147.300000
508.150909	146.200000
508.244568	146.300000
508.338287	146.200000
508.431946	145.880000
508.525665	145.620000
508.619324	145.540000
508.713013	145.940000
508.806671	146.560000
508.900391	147.420000
508.994049	147.440000
509.087769	147.560000
509.181427	147.140000
509.275146	146.640000
509.368774	145.600000
509.462494	145.660000
509.556152	145.600000
509.649872	145.860000
509.743530	146.020000
509.837250	145.920000
509.930878	145.600000
510.024597	145.720000
510.118256	145.360000
510.211975	145.600000
510.305695	145.880000
510.399353	146.480000
510.493042	146.880000
510.586700	147.140000
510.680420	147.560000
510.774078	147.340000
510.867798	147.260000
510.961426	146.720000
511.055145	146.440000
511.148804	145.820000
511.242523	146.220000
511.336151	146.000000
511.429871	146.380000
511.523529	146.280000
511.617249	146.040000
511.710876	145.940000
511.804596	145.380000
511.898254	145.240000
511.991974	145.920000
512.085632	145.920000
512.179321	146.080000
512.272949	146.860000
512.366699	147.220000
512.460327	146.720000
512.554077	147.620000
512.647766	147.300000
512.741394	146.940000
512.835144	147.120000
512.928772	146.880000
513.022461	146.480000
513.116150	146.440000
513.209839	146.840000
513.303467	146.180000
513.397217	146.080000
513.490845	145.840000
513.584595	145.700000
513.678223	145.160000
513.771912	144.860000
513.865601	145.120000
513.959290	144.940000
514.052917	145.100000
514.146667	145.920000
514.240295	146.580000
514.333984	146.920000
514.427673	146.840000
514.521362	147.540000
514.614990	146.740000
514.708740	146.700000
514.802368	146.840000
514.896057	147.100000
514.989746	147.360000
515.083435	147.600000
515.177124	147.540000
515.270752	146.880000
515.364502	147.020000
515.458130	146.800000
515.551819	146.680000
515.645508	146.560000
515.739197	146.600000
515.832825	146.520000
515.926575	145.780000
516.020203	145.760000
516.113892	146.220000
516.207520	146.460000
516.301270	146.260000
516.394897	146.480000
516.488586	146.920000
516.582275	147.080000
516.675964	146.360000
516.769592	146.100000
516.863281	146.880000
516.956970	146.880000
517.050659	146.180000
517.144287	146.900000
517.238037	147.340000
517.331665	146.340000
517.425354	146.340000
517.519043	146.440000
517.612732	146.600000
517.706421	146.500000
517.800049	146.620000
517.893738	145.800000
517.987427	145.820000
518.081116	145.440000
518.174744	145.080000
518.268433	145.360000
518.362122	146.380000
518.455811	146.340000
518.549438	147.020000
518.643127	147.920000
518.736816	147.700000
518.830505	146.780000
518.924133	146.620000
519.017822	146.520000
519.111511	146.160000
519.205200	146.700000
519.298828	146.980000
519.392517	147.000000
519.486206	147.100000
519.579895	147.080000
519.673523	146.880000
519.767212	146.820000
519.860901	147.320000
519.954590	146.920000
520.048279	146.460000
520.141907	146.440000
520.235596	147.400000
520.329224	147.480000
520.422974	147.700000
520.516602	147.920000
520.610291	147.280000
520.703918	147.020000
520.797607	146.640000
520.891296	146.120000
520.984985	146.160000
521.078613	146.840000
521.172302	146.140000
521.265930	147.080000
521.359680	147.760000
521.453308	147.420000
521.546997	147.260000
521.640625	147.420000
521.734314	146.400000
521.827942	145.920000
521.921692	146.640000
522.015320	146.440000
522.109009	146.320000
522.202698	146.500000
522.296326	146.680000
522.390015	146.560000
522.483704	146.600000
522.577393	146.300000
522.671021	146.300000
522.764709	145.620000
522.858337	146.080000
522.952026	146.180000
523.045654	147.120000
523.139404	147.700000
523.233032	148.480000
523.326721	147.800000
523.420349	147.620000
523.514038	147.220000
523.607666	147.280000
523.701355	146.680000
523.795044	146.740000
523.888733	147.040000
523.982361	146.840000
524.076050	146.180000
524.169678	146.720000
524.263367	146.200000
524.356995	145.740000
524.450684	145.680000
524.544373	145.320000
524.638062	145.260000
524.731750	145.780000
524.825378	145.800000
524.919067	145.660000
525.012695	145.860000
525.106384	145.460000
525.200012	145.580000
525.293701	145.600000
525.387329	145.960000
525.481018	145.980000
525.574646	146.460000
525.668396	146.420000
525.762024	146.980000
525.855713	147.160000
525.949341	146.900000
526.043030	146.940000
526.136658	146.580000
526.230347	146.280000
526.323975	145.880000
526.417664	145.900000
526.511292	145.900000
526.604980	146.300000
526.698608	146.260000
526.792297	146.280000
526.885925	146.740000
526.979614	146.860000
527.073303	146.600000
527.166931	146.620000
527.260620	146.740000
527.354309	146.780000
527.447998	146.420000
527.541626	146.120000
527.635315	146.060000
527.728943	146.480000
527.822632	146.580000
527.916260	146.320000
528.009949	147.000000
528.103577	146.980000
528.197266	146.200000
528.290894	146.300000
528.384583	146.580000
528.478210	146.360000
528.571899	146.660000
528.665527	147.220000
528.759216	146.980000
528.852844	147.340000
528.946533	147.300000
529.040161	146.980000
529.133850	146.660000
529.227478	146.740000
529.321167	146.700000
529.414856	147.100000
529.508484	147.680000
529.602173	147.400000
529.695801	147.340000
529.789490	147.320000
529.883057	146.740000
529.976746	146.460000
530.070374	146.880000
530.164062	146.640000
530.257690	146.640000
530.351379	147.080000
530.445007	146.660000
530.538696	146.160000
530.632324	146.600000
530.726013	146.520000
530.819641	146.320000
530.913330	146.460000
531.006958	146.460000
531.100647	146.440000
531.194275	146.120000
531.287964	146.060000
531.381592	146.000000
531.475220	146.360000
531.568848	146.260000
531.662537	146.140000
531.756226	146.340000
531.849854	146.420000
531.943542	146.520000
532.037170	145.700000
532.130859	146.440000
532.224487	146.100000
532.318176	145.700000
532.411804	146.280000
532.505432	147.020000
532.599060	146.440000
532.692749	146.320000
532.786377	146.860000
532.880066	146.040000
532.973694	145.500000
533.067383	145.740000
533.161011	146.020000
533.254639	145.880000
533.348267	145.780000
533.441956	146.340000
533.535583	146.380000
533.629272	146.640000
533.722900	146.140000
533.816589	146.360000
533.910156	146.660000
534.003845	145.860000
534.097534	145.960000
534.191162	146.920000
534.284851	146.980000
534.378479	146.300000
534.472107	146.560000
534.565735	146.140000
534.659424	146.020000
534.753052	146.200000
534.846741	146.360000
534.940369	147.120000
535.033997	147.340000
535.127625	147.100000
535.221313	147.320000
535.314941	147.280000
535.408630	146.440000
535.502197	146.380000
535.595886	146.320000
535.689514	146.000000
535.783203	146.420000
535.876831	147.140000
535.970459	147.300000
536.064087	147.000000
536.157776	146.780000
536.251404	146.580000
536.345093	146.320000
536.438721	146.080000
536.532349	146.340000
536.626038	146.340000
536.719666	146.660000
536.813293	146.460000
536.906921	146.320000
537.000610	146.380000
537.094238	146.540000
537.187866	146.320000
537.281494	146.380000
537.375183	146.940000
537.468811	146.760000
537.562439	146.720000
537.656067	146.740000
537.749756	146.660000
537.843384	146.720000
537.937012	147.100000
538.030640	146.880000
538.124329	146.760000
538.217896	146.960000
538.311584	146.720000
538.405212	146.600000
538.498901	146.920000
538.592468	147.360000
538.686157	146.980000
538.779785	146.240000
538.873413	146.060000
538.967102	145.880000
539.060730	145.100000
539.154358	145.660000
539.247986	146.140000
539.341675	146.300000
539.435242	146.180000
539.528931	146.760000
539.622559	146.160000
539.716187	146.640000
539.809814	146.660000
539.903503	146.860000
539.997070	146.200000
540.090759	146.500000
540.184387	146.260000
540.278015	146.580000
540.371643	146.780000
540.465332	147.220000
540.558899	147.140000
540.652588	147.100000
540.746216	146.600000
540.839844	146.640000
540.933472	146.760000
541.027100	146.340000
541.120728	146.300000
541.214417	146.580000
541.308044	146.740000
541.401672	146.340000
541.495300	146.460000
541.588928	146.540000
541.682617	146.280000
541.776184	145.620000
541.869873	146.140000
541.963440	146.540000
542.057129	146.380000
542.150757	146.420000
542.244385	146.440000
542.338013	145.920000
542.431641	145.660000
542.525269	145.380000
542.618958	145.920000
542.712524	146.140000
542.806213	146.120000
542.899780	146.380000
542.993469	146.340000
543.087036	145.940000
543.180725	145.580000
543.274292	146.020000
543.367981	146.140000
543.461548	146.640000
543.555237	146.380000
543.648926	146.940000
543.742493	147.120000
543.836182	147.140000
543.929749	146.720000
544.023437	146.800000
544.117004	146.740000
544.210693	146.440000
544.304260	146.520000
544.397949	146.580000
544.491516	146.960000
544.585205	146.660000
544.678772	146.460000
544.772461	146.600000
544.866028	146.360000
544.959717	146.500000
545.053284	146.360000
545.146973	146.640000
545.240540	146.460000
545.334229	147.280000
545.427795	147.380000
545.521423	148.080000
545.615051	147.900000
545.708679	148.300000
545.802307	147.980000
545.895935	148.040000
545.989624	148.360000
546.083191	148.340000
546.176880	147.760000
546.270447	147.440000
546.364136	147.300000
546.457703	146.420000
546.551331	146.680000
546.644958	146.840000
546.738586	147.140000
546.832214	146.740000
546.925842	146.680000
547.019409	146.640000
547.113098	146.300000
547.206665	145.880000
547.300354	145.780000
547.393921	146.140000
547.487549	146.160000
547.581177	146.140000
547.674805	146.280000
547.768433	145.800000
547.862061	145.580000
547.955627	145.160000
548.049316	145.760000
548.142883	145.880000
548.236572	146.660000
548.330139	147.040000
548.423767	146.840000
548.517456	146.500000
548.611023	147.040000
548.704651	146.500000
548.798279	146.280000
548.891907	146.900000
548.985474	146.760000
549.079163	146.580000
549.172729	146.340000
549.266357	145.960000
549.359985	145.900000
549.453613	145.500000
549.547180	145.140000
549.640869	145.740000
549.734436	145.980000
549.828064	146.280000
549.921631	146.480000
550.015320	146.120000
550.108887	146.260000
550.202515	146.260000
550.296143	145.540000
550.389771	145.880000
550.483337	146.240000
550.576965	146.000000
550.670593	146.200000
550.764221	146.600000
550.857849	146.360000
550.951477	146.080000
551.045105	145.560000
551.138672	145.900000
551.232300	145.220000
551.325928	145.720000
551.419556	146.160000
551.513123	146.560000
551.606750	146.220000
551.700378	146.640000
551.794006	146.280000
551.887573	145.960000
551.981201	146.620000
552.074768	146.520000
552.168457	146.260000
552.262024	147.140000
552.355652	147.360000
552.449219	147.280000
552.542847	147.180000
552.636475	147.160000
552.730103	145.780000
552.823669	145.300000
552.917297	144.600000
553.010864	144.360000
553.104553	144.840000
553.198181	144.780000
553.291748	145.460000
553.385376	145.820000
553.478943	145.940000
553.572571	145.860000
553.666199	146.480000
553.759827	146.160000
553.853394	145.960000
553.947021	146.160000
554.040588	146.080000
554.134216	146.280000
554.227783	146.820000
554.321411	147.580000
554.415039	147.300000
554.508667	147.380000
554.602234	147.320000
554.695862	146.700000
554.789429	146.380000
554.883057	146.740000
554.976624	146.420000
555.070251	146.280000
555.163818	146.080000
555.257507	146.220000
555.351074	145.920000
555.444702	147.160000
555.538330	146.980000
555.631897	147.600000
555.725525	147.140000
555.819092	147.200000
555.912720	145.880000
556.006287	146.140000
556.099915	145.860000
556.193481	146.020000
556.287109	146.120000
556.380676	146.380000
556.474304	146.440000
556.567871	146.600000
556.661499	146.160000
556.755066	146.260000
556.848694	146.180000
556.942261	146.160000
557.035889	146.240000
557.129517	146.640000
557.223145	146.740000
557.316711	146.700000
557.410339	146.440000
557.503906	146.220000
557.597473	146.620000
557.691040	146.220000
557.784668	146.340000
557.878296	146.320000
557.971863	146.280000
558.065491	145.700000
558.159058	145.640000
558.252686	146.500000
558.346252	147.300000
558.439880	146.940000
558.533447	146.800000
558.627075	146.680000
558.720642	145.680000
558.814270	145.160000
558.907837	145.600000
559.001465	145.200000
559.095032	146.000000
559.188660	146.460000
559.282227	146.120000
559.375854	146.500000
559.469360	147.160000
559.562988	147.460000
559.656555	147.120000
559.750183	147.380000
559.843750	147.260000
559.937378	146.920000
560.030945	146.360000
560.124573	0.000000
560.218140	0.000000
560.311707	0.000000
560.405334	0.000000
560.498901	0.000000
560.592529	0.000000
560.686096	0.000000
560.779724	0.000000
560.873291	0.000000
560.966858	0.000000
561.060425	0.000000
561.154053	0.000000
561.247620	0.000000
561.341248	0.000000
561.434814	0.000000
561.528381	0.000000
561.621948	0.000000
561.715576	0.000000
561.809143	0.000000
561.902771	0.000000
561.996277	0.000000
562.089905	0.000000
562.183472	0.000000
562.277100	0.000000
