Model Number: SPM-002-B   
Serial Number: 70087108
Firmware Version: 004.15.4
Exposure Time: 100000.000000us
Data Taken on: 11-12-2020 19:36:40.097
Wavelength	Amplitude
221.570786	0.000000
221.663406	0.000000
221.756027	0.000000
221.848648	0.000000
221.941269	0.000000
222.033905	0.000000
222.126526	0.000000
222.219162	0.000000
222.311798	0.000000
222.404419	0.000000
222.497055	0.000000
222.589676	0.000000
222.682312	0.000000
222.774933	0.000000
222.867569	0.000000
222.960205	0.000000
223.052841	0.000000
223.145462	0.000000
223.238098	0.000000
223.330734	0.000000
223.423386	0.000000
223.516022	0.000000
223.608658	0.000000
223.701309	0.000000
223.793945	0.000000
223.886581	0.000000
223.979218	0.000000
224.071869	0.000000
224.164505	0.000000
224.257156	0.000000
224.349792	0.000000
224.442444	0.000000
224.535095	0.000000
224.627747	0.000000
224.720398	0.000000
224.813034	0.000000
224.905685	0.000000
224.998337	145.460000
225.090988	145.380000
225.183640	145.660000
225.276291	145.560000
225.368942	146.180000
225.461594	146.540000
225.554245	146.700000
225.646912	146.440000
225.739578	146.800000
225.832230	146.680000
225.924896	145.960000
226.017548	146.180000
226.110199	146.580000
226.202866	146.160000
226.295532	146.140000
226.388184	146.300000
226.480850	145.980000
226.573517	145.660000
226.666168	145.680000
226.758835	146.120000
226.851501	146.700000
226.944183	146.660000
227.036850	146.340000
227.129517	146.420000
227.222183	146.420000
227.314850	146.160000
227.407516	146.560000
227.500198	147.320000
227.592865	146.920000
227.685532	146.420000
227.778214	146.260000
227.870880	146.600000
227.963562	146.860000
228.056229	147.440000
228.148926	147.620000
228.241592	148.520000
228.334274	147.720000
228.426956	147.280000
228.519638	147.160000
228.612305	146.640000
228.704987	146.240000
228.797668	146.340000
228.890350	145.980000
228.983032	145.580000
229.075714	146.460000
229.168396	146.200000
229.261108	145.900000
229.353790	146.220000
229.446472	146.400000
229.539169	145.940000
229.631851	145.640000
229.724533	146.020000
229.817230	146.020000
229.909912	147.000000
230.002609	146.920000
230.095306	147.180000
230.187988	147.440000
230.280685	147.180000
230.373383	146.020000
230.466095	146.080000
230.558792	146.380000
230.651474	146.040000
230.744171	146.040000
230.836868	146.020000
230.929581	146.060000
231.022278	145.860000
231.114975	145.940000
231.207672	145.880000
231.300369	146.680000
231.393082	146.760000
231.485779	146.700000
231.578506	146.900000
231.671204	146.820000
231.763916	146.360000
231.856613	146.160000
231.949326	146.160000
232.042023	145.920000
232.134735	146.180000
232.227448	145.880000
232.320160	146.340000
232.412872	146.280000
232.505585	147.020000
232.598297	147.260000
232.691010	147.240000
232.783722	146.580000
232.876450	146.940000
232.969162	146.520000
233.061874	146.320000
233.154587	146.060000
233.247314	146.740000
233.340027	146.180000
233.432739	146.320000
233.525467	146.080000
233.618179	146.740000
233.710907	146.120000
233.803635	146.700000
233.896347	146.540000
233.989090	147.220000
234.081818	147.020000
234.174545	147.300000
234.267258	146.800000
234.359985	146.860000
234.452713	146.380000
234.545441	146.280000
234.638168	146.340000
234.730896	146.860000
234.823639	146.680000
234.916367	147.360000
235.009094	147.560000
235.101822	147.520000
235.194580	147.500000
235.287308	147.720000
235.380051	146.940000
235.472778	147.120000
235.565521	147.180000
235.658249	146.380000
235.750992	146.540000
235.843719	146.600000
235.936462	146.800000
236.029205	146.260000
236.121948	146.300000
236.214691	146.480000
236.307449	147.100000
236.400192	146.500000
236.492935	146.640000
236.585678	146.880000
236.678421	146.200000
236.771164	145.780000
236.863907	146.480000
236.956665	146.640000
237.049408	148.180000
237.142151	148.260000
237.234909	148.880000
237.327652	148.580000
237.420410	148.460000
237.513153	147.160000
237.605927	146.700000
237.698669	146.080000
237.791428	145.640000
237.884186	146.260000
237.976944	145.920000
238.069702	146.600000
238.162445	146.320000
238.255203	146.300000
238.347961	146.540000
238.440720	146.600000
238.533478	146.440000
238.626266	146.320000
238.719025	146.980000
238.811783	146.360000
238.904541	146.220000
238.997314	146.140000
239.090073	146.100000
239.182831	145.820000
239.275604	146.440000
239.368362	146.400000
239.461136	146.540000
239.553909	146.580000
239.646667	146.580000
239.739441	146.060000
239.832214	146.640000
239.925003	146.800000
240.017761	147.460000
240.110535	147.900000
240.203308	147.660000
240.296082	147.480000
240.388855	147.260000
240.481628	147.440000
240.574417	147.160000
240.667191	147.260000
240.759964	147.020000
240.852737	146.780000
240.945526	146.140000
241.038315	145.940000
241.131088	146.180000
241.223877	146.420000
241.316650	146.200000
241.409439	146.460000
241.502228	146.220000
241.595001	146.580000
241.687790	146.300000
241.780579	146.560000
241.873367	146.640000
241.966141	146.660000
242.058929	146.280000
242.151718	146.500000
242.244507	146.840000
242.337311	146.220000
242.430099	146.980000
242.522903	147.220000
242.615692	146.940000
242.708481	146.880000
242.801270	147.260000
242.894073	146.740000
242.986862	146.520000
243.079651	146.980000
243.172455	146.700000
243.265244	147.080000
243.358063	146.840000
243.450867	147.260000
243.543655	147.260000
243.636459	147.340000
243.729263	147.300000
243.822067	147.600000
243.914856	147.660000
244.007660	147.540000
244.100464	147.560000
244.193268	146.780000
244.286072	146.700000
244.378876	145.940000
244.471680	145.480000
244.564499	145.420000
244.657318	146.460000
244.750122	146.640000
244.842926	146.100000
244.935745	146.620000
245.028549	146.740000
245.121368	146.300000
245.214172	145.900000
245.306992	146.820000
245.399796	146.380000
245.492615	146.480000
245.585434	146.220000
245.678253	146.660000
245.771072	146.300000
245.863892	146.920000
245.956711	147.120000
246.049530	147.160000
246.142349	146.580000
246.235168	146.620000
246.327988	146.920000
246.420807	146.520000
246.513626	146.360000
246.606445	146.460000
246.699280	146.420000
246.792099	145.740000
246.884918	145.100000
246.977753	144.780000
247.070587	144.920000
247.163422	145.080000
247.256241	145.300000
247.349075	146.160000
247.441895	146.560000
247.534729	146.220000
247.627563	145.760000
247.720383	146.380000
247.813217	146.240000
247.906052	146.180000
247.998886	146.620000
248.091736	146.720000
248.184570	146.180000
248.277405	146.240000
248.370239	147.280000
248.463074	148.080000
248.555908	148.420000
248.648743	148.300000
248.741592	148.460000
248.834427	147.400000
248.927261	146.040000
249.020111	146.400000
249.112946	146.900000
249.205795	146.360000
249.298630	146.460000
249.391495	146.780000
249.484344	146.360000
249.577179	145.940000
249.670029	146.420000
249.762878	147.040000
249.855728	147.300000
249.948563	147.540000
250.041412	147.280000
250.134262	147.360000
250.227112	147.340000
250.319962	147.520000
250.412827	147.720000
250.505692	147.240000
250.598541	147.000000
250.691391	146.560000
250.784241	146.080000
250.877106	145.740000
250.969955	146.080000
251.062805	146.520000
251.155670	147.000000
251.248520	147.020000
251.341385	147.300000
251.434235	147.220000
251.527100	146.540000
251.619965	145.800000
251.712814	146.800000
251.805695	146.540000
251.898560	146.920000
251.991425	147.560000
252.084290	147.940000
252.177155	146.940000
252.270020	146.660000
252.362885	146.660000
252.455750	146.320000
252.548615	146.040000
252.641479	146.080000
252.734360	146.060000
252.827240	145.800000
252.920105	145.940000
253.012970	145.840000
253.105850	145.860000
253.198715	145.480000
253.291595	145.400000
253.384460	145.000000
253.477341	145.160000
253.570221	145.120000
253.663086	145.160000
253.755966	145.800000
253.848846	146.100000
253.941727	146.460000
254.034592	146.480000
254.127472	146.380000
254.220367	146.200000
254.313248	146.100000
254.406128	145.540000
254.499008	145.780000
254.591904	146.920000
254.684784	147.340000
254.777664	147.620000
254.870544	147.380000
254.963440	147.300000
255.056335	147.000000
255.149216	146.240000
255.242111	146.300000
255.334991	146.800000
255.427887	146.680000
255.520767	146.700000
255.613663	146.920000
255.706558	146.360000
255.799438	146.120000
255.892334	146.080000
255.985229	145.900000
256.078125	145.860000
256.171021	146.060000
256.263916	146.520000
256.356812	146.860000
256.449707	146.900000
256.542603	146.900000
256.635498	147.240000
256.728394	147.040000
256.821289	146.740000
256.914215	146.920000
257.007080	147.300000
257.100006	147.200000
257.192932	147.580000
257.285828	147.740000
257.378723	147.260000
257.471619	147.000000
257.564545	146.560000
257.657440	146.460000
257.750336	146.740000
257.843262	146.440000
257.936157	147.260000
258.029053	147.700000
258.121979	147.700000
258.214874	147.260000
258.307800	147.580000
258.400696	146.580000
258.493622	146.500000
258.586517	145.800000
258.679443	146.140000
258.772339	145.880000
258.865265	145.920000
258.958160	145.420000
259.051086	146.300000
259.144012	146.180000
259.236938	146.900000
259.329834	146.840000
259.422791	147.200000
259.515717	146.280000
259.608612	145.920000
259.701538	145.980000
259.794464	146.120000
259.887390	145.980000
259.980316	146.600000
260.073212	146.560000
260.166138	145.380000
260.259064	145.800000
260.351990	146.340000
260.444916	145.840000
260.537842	146.280000
260.630768	147.340000
260.723694	146.960000
260.816620	146.600000
260.909546	146.820000
261.002472	146.360000
261.095398	145.740000
261.188354	145.640000
261.281281	145.400000
261.374207	145.420000
261.467133	146.360000
261.560089	146.880000
261.653015	146.820000
261.745972	147.700000
261.838867	148.040000
261.931824	148.020000
262.024780	147.480000
262.117706	147.660000
262.210663	147.600000
262.303589	147.300000
262.396515	146.920000
262.489471	147.800000
262.582397	147.700000
262.675354	146.880000
262.768280	146.680000
262.861237	146.600000
262.954163	146.580000
263.047119	146.580000
263.140045	146.500000
263.233002	146.620000
263.325958	146.360000
263.418884	145.500000
263.511841	145.380000
263.604797	145.440000
263.697723	145.900000
263.790680	146.160000
263.883636	146.800000
263.976593	146.660000
264.069550	147.020000
264.162476	146.580000
264.255463	146.480000
264.348419	146.120000
264.441376	146.840000
264.534332	145.980000
264.627289	145.880000
264.720245	146.420000
264.813202	146.060000
264.906158	146.040000
264.999115	147.100000
265.092072	147.360000
265.185028	147.460000
265.277985	148.140000
265.370941	147.560000
265.463898	147.100000
265.556854	146.760000
265.649811	145.980000
265.742798	145.620000
265.835754	146.000000
265.928711	146.260000
266.021667	146.360000
266.114655	146.860000
266.207611	147.420000
266.300568	146.700000
266.393585	146.420000
266.486511	146.660000
266.579498	145.800000
266.672485	145.480000
266.765442	145.500000
266.858429	146.120000
266.951385	145.760000
267.044342	145.980000
267.137329	145.900000
267.230316	146.640000
267.323273	145.920000
267.416260	146.620000
267.509216	146.680000
267.602203	146.540000
267.695160	146.560000
267.788147	146.780000
267.881134	146.200000
267.974091	146.660000
268.067078	146.460000
268.160065	146.280000
268.253052	146.200000
268.346008	146.240000
268.438995	146.060000
268.531982	146.260000
268.624969	145.940000
268.717987	146.380000
268.810944	146.400000
268.903961	146.180000
268.996948	146.240000
269.089905	146.920000
269.182892	146.920000
269.275879	147.300000
269.368866	146.980000
269.461853	147.260000
269.554871	146.860000
269.647858	146.720000
269.740845	146.740000
269.833832	147.520000
269.926819	146.820000
270.019806	147.080000
270.112793	146.480000
270.205811	146.540000
270.298798	146.100000
270.391785	146.940000
270.484772	146.560000
270.577789	146.840000
270.670776	146.080000
270.763763	146.120000
270.856750	145.900000
270.949768	145.720000
271.042786	145.840000
271.135773	146.480000
271.228790	146.760000
271.321808	146.480000
271.414795	146.080000
271.507782	145.560000
271.600800	144.760000
271.693817	144.780000
271.786804	145.360000
271.879822	145.940000
271.972809	146.280000
272.065826	146.760000
272.158844	146.400000
272.251831	146.460000
272.344849	146.440000
272.437866	146.420000
272.530853	146.680000
272.623871	146.840000
272.716888	145.940000
272.809906	146.200000
272.902893	146.000000
272.995911	145.280000
273.088928	145.160000
273.181946	145.100000
273.274963	144.600000
273.367981	144.780000
273.460999	145.260000
273.554047	145.860000
273.647003	146.920000
273.740051	147.180000
273.833069	147.520000
273.926086	147.860000
274.019135	146.940000
274.112152	146.400000
274.205170	146.620000
274.298187	146.940000
274.391205	146.480000
274.484222	146.700000
274.577240	146.440000
274.670258	145.920000
274.763306	145.440000
274.856323	145.640000
274.949341	146.000000
275.042358	146.560000
275.135406	146.900000
275.228424	146.980000
275.321442	147.140000
275.414490	146.460000
275.507507	146.660000
275.600525	147.080000
275.693573	146.580000
275.786591	146.140000
275.879669	146.860000
275.972656	146.380000
276.065735	145.880000
276.158752	146.800000
276.251801	147.620000
276.344818	147.460000
276.437866	147.400000
276.530884	147.140000
276.623932	146.020000
276.716980	145.800000
276.809998	145.900000
276.903046	146.120000
276.996094	147.300000
277.089111	148.260000
277.182159	148.460000
277.275208	148.180000
277.368256	148.100000
277.461304	147.340000
277.554321	146.640000
277.647369	146.640000
277.740417	146.420000
277.833466	145.880000
277.926514	145.700000
278.019562	146.500000
278.112610	145.660000
278.205688	146.100000
278.298706	146.680000
278.391785	146.440000
278.484833	145.840000
278.577881	146.020000
278.670929	146.340000
278.763977	145.980000
278.857025	146.560000
278.950073	146.600000
279.043121	146.500000
279.136169	146.000000
279.229248	146.000000
279.322296	145.960000
279.415344	145.760000
279.508392	145.940000
279.601440	145.980000
279.694519	145.820000
279.787567	145.560000
279.880615	145.600000
279.973694	145.240000
280.066742	145.380000
280.159790	145.720000
280.252869	145.560000
280.345917	145.560000
280.438995	145.840000
280.532074	145.680000
280.625122	146.020000
280.718201	146.920000
280.811279	146.960000
280.904327	147.160000
280.997406	147.460000
281.090454	147.160000
281.183533	146.280000
281.276581	146.260000
281.369659	145.660000
281.462738	145.600000
281.555786	145.760000
281.648865	146.120000
281.741943	146.020000
281.835022	146.900000
281.928070	146.440000
282.021149	146.140000
282.114227	145.760000
282.207306	146.080000
282.300385	145.960000
282.393433	146.460000
282.486511	146.700000
282.579590	147.360000
282.672668	147.700000
282.765747	147.220000
282.858856	146.940000
282.951904	146.900000
283.045013	147.000000
283.138062	147.160000
283.231171	147.480000
283.324249	147.880000
283.417328	148.100000
283.510406	147.420000
283.603485	146.960000
283.696564	146.960000
283.789642	146.880000
283.882751	146.460000
283.975830	147.120000
284.068909	146.860000
284.161987	147.520000
284.255066	147.020000
284.348175	147.180000
284.441254	146.860000
284.534332	147.420000
284.627441	146.760000
284.720520	146.840000
284.813599	147.040000
284.906708	147.140000
284.999786	146.340000
285.092896	146.040000
285.185974	146.900000
285.279053	146.280000
285.372192	146.140000
285.465240	146.920000
285.558380	146.940000
285.651459	146.380000
285.744568	147.520000
285.837677	147.180000
285.930756	146.840000
286.023865	147.020000
286.116943	146.820000
286.210052	146.500000
286.303162	146.840000
286.396240	146.920000
286.489349	146.660000
286.582458	147.160000
286.675568	146.760000
286.768646	146.500000
286.861755	146.780000
286.954865	147.420000
287.047974	146.760000
287.141083	146.940000
287.234161	146.940000
287.327271	146.380000
287.420380	146.580000
287.513519	146.700000
287.606598	146.580000
287.699738	146.800000
287.792816	146.960000
287.885956	146.480000
287.979034	146.480000
288.072174	146.660000
288.165283	146.480000
288.258392	146.540000
288.351501	146.240000
288.444611	146.560000
288.537720	146.700000
288.630859	146.800000
288.723969	147.140000
288.817078	147.280000
288.910187	146.800000
289.003296	146.080000
289.096436	145.500000
289.189545	145.260000
289.282654	144.980000
289.375763	145.500000
289.468903	145.960000
289.562012	146.680000
289.655121	146.520000
289.748260	146.940000
289.841400	147.220000
289.934509	147.300000
290.027649	147.100000
290.120728	147.020000
290.213898	146.760000
290.306976	146.460000
290.400146	146.340000
290.493256	145.880000
290.586395	146.080000
290.679535	146.420000
290.772644	145.740000
290.865784	145.040000
290.958893	145.240000
291.052032	145.140000
291.145172	145.120000
291.238281	145.260000
291.331421	145.680000
291.424561	146.220000
291.517670	146.220000
291.610809	146.320000
291.703949	146.560000
291.797089	146.840000
291.890228	146.180000
291.983337	146.100000
292.076477	145.820000
292.169617	146.020000
292.262756	145.800000
292.355927	146.040000
292.449036	145.720000
292.542206	146.080000
292.635315	146.260000
292.728485	146.500000
292.821625	146.300000
292.914764	147.600000
293.007904	147.180000
293.101044	146.740000
293.194183	146.760000
293.287323	147.000000
293.380463	145.920000
293.473602	145.840000
293.566742	145.960000
293.659882	146.040000
293.753021	146.160000
293.846191	146.420000
293.939331	146.280000
294.032471	146.380000
294.125610	146.240000
294.218781	146.560000
294.311920	146.920000
294.405060	146.980000
294.498230	146.800000
294.591370	146.720000
294.684540	146.040000
294.777679	145.260000
294.870850	146.040000
294.963959	145.800000
295.057159	145.700000
295.150299	145.800000
295.243469	146.080000
295.336609	145.460000
295.429779	145.840000
295.522919	146.420000
295.616089	146.820000
295.709229	147.460000
295.802399	147.720000
295.895569	147.480000
295.988708	147.020000
296.081879	146.820000
296.175018	145.940000
296.268188	145.880000
296.361359	146.200000
296.454529	146.300000
296.547668	146.460000
296.640839	146.840000
296.734009	146.660000
296.827179	146.700000
296.920319	147.060000
297.013519	146.680000
297.106659	146.760000
297.199860	146.620000
297.292999	146.740000
297.386200	146.420000
297.479309	146.420000
297.572510	146.560000
297.665680	146.400000
297.758850	146.260000
297.852020	146.180000
297.945190	146.240000
298.038361	145.980000
298.131531	146.920000
298.224701	146.340000
298.317871	146.040000
298.411072	145.600000
298.504242	145.540000
298.597412	144.720000
298.690582	145.540000
298.783752	145.700000
298.876923	146.120000
298.970093	146.220000
299.063293	146.880000
299.156464	147.180000
299.249634	147.340000
299.342834	147.680000
299.436005	147.600000
299.529205	147.400000
299.622345	147.040000
299.715576	146.380000
299.808716	145.940000
299.901917	146.120000
299.995117	146.200000
300.088287	146.200000
300.181488	146.320000
300.274658	146.180000
300.367828	146.080000
300.461029	145.940000
300.554199	146.280000
300.647400	146.360000
300.740601	147.220000
300.833771	147.020000
300.926971	147.280000
301.020142	146.360000
301.113342	146.620000
301.206512	146.260000
301.299713	146.860000
301.392914	146.580000
301.486084	147.220000
301.579285	147.140000
301.672516	147.320000
301.765686	146.740000
301.858887	146.780000
301.952057	146.360000
302.045288	146.340000
302.138458	145.920000
302.231659	145.780000
302.324860	145.760000
302.418060	145.940000
302.511261	145.660000
302.604462	146.060000
302.697662	146.060000
302.790863	145.680000
302.884064	145.240000
302.977264	145.600000
303.070465	145.580000
303.163666	146.160000
303.256866	146.520000
303.350067	146.720000
303.443268	146.740000
303.536469	146.840000
303.629669	146.460000
303.722870	146.820000
303.816071	146.460000
303.909271	146.220000
304.002472	145.560000
304.095673	145.420000
304.188934	144.480000
304.282104	145.540000
304.375336	145.940000
304.468506	146.000000
304.561768	145.920000
304.654968	146.660000
304.748169	145.900000
304.841370	145.500000
304.934601	145.800000
305.027802	145.700000
305.121002	145.220000
305.214233	145.480000
305.307434	145.760000
305.400665	146.380000
305.493866	146.660000
305.587097	146.680000
305.680298	146.600000
305.773499	147.080000
305.866730	146.500000
305.959930	147.000000
306.053162	147.400000
306.146393	147.080000
306.239594	146.080000
306.332825	146.140000
306.426025	146.040000
306.519287	145.320000
306.612488	145.660000
306.705719	146.000000
306.798920	145.960000
306.892181	145.500000
306.985352	145.460000
307.078613	145.100000
307.171844	145.320000
307.265045	144.860000
307.358276	144.680000
307.451508	145.380000
307.544739	145.840000
307.637970	145.560000
307.731201	145.780000
307.824402	146.360000
307.917633	146.660000
308.010864	146.900000
308.104095	147.080000
308.197327	147.220000
308.290558	146.980000
308.383789	146.160000
308.477020	145.680000
308.570251	145.360000
308.663483	144.960000
308.756714	144.960000
308.849976	145.360000
308.943176	145.560000
309.036438	145.660000
309.129639	145.660000
309.222900	145.560000
309.316101	145.500000
309.409393	145.180000
309.502625	144.940000
309.595856	145.300000
309.689087	145.340000
309.782318	145.080000
309.875580	145.400000
309.968811	145.860000
310.062042	145.380000
310.155273	145.480000
310.248535	146.160000
310.341766	146.060000
310.434998	145.800000
310.528259	146.260000
310.621490	146.400000
310.714722	145.560000
310.807983	145.540000
310.901215	145.460000
310.994476	145.600000
311.087708	145.100000
311.181000	145.680000
311.274200	145.640000
311.367462	145.800000
311.460693	145.380000
311.553986	146.400000
311.647186	146.420000
311.740479	146.660000
311.833710	146.340000
311.926971	146.320000
312.020203	145.300000
312.113464	145.320000
312.206726	144.740000
312.299957	145.000000
312.393219	145.660000
312.486481	146.020000
312.579712	145.600000
312.672974	146.040000
312.766235	146.120000
312.859497	145.860000
312.952759	145.720000
313.045990	146.520000
313.139252	145.980000
313.232513	146.000000
313.325775	146.000000
313.419037	145.900000
313.512299	145.180000
313.605530	145.940000
313.698822	146.100000
313.792053	146.140000
313.885345	146.100000
313.978577	146.120000
314.071869	145.360000
314.165131	145.560000
314.258392	145.700000
314.351654	145.880000
314.444916	145.520000
314.538177	146.380000
314.631439	146.300000
314.724701	146.180000
314.817993	146.060000
314.911255	146.520000
315.004517	145.960000
315.097778	145.740000
315.191040	146.120000
315.284302	146.240000
315.377594	145.860000
315.470856	145.640000
315.564117	145.520000
315.657379	144.660000
315.750671	144.200000
315.843933	144.960000
315.937195	144.820000
316.030518	144.540000
316.123749	144.860000
316.217041	145.800000
316.310303	145.520000
316.403595	146.100000
316.496857	146.420000
316.590149	146.800000
316.683411	146.260000
316.776703	145.900000
316.869965	145.840000
316.963257	145.800000
317.056519	145.080000
317.149811	144.860000
317.243073	144.920000
317.336365	144.800000
317.429626	145.200000
317.522919	145.720000
317.616180	145.740000
317.709473	145.680000
317.802765	145.720000
317.896027	145.360000
317.989319	145.840000
318.082611	145.760000
318.175873	145.800000
318.269165	145.780000
318.362488	145.720000
318.455750	144.940000
318.549042	145.620000
318.642303	146.240000
318.735626	145.900000
318.828888	145.900000
318.922211	145.620000
319.015472	145.840000
319.108765	145.240000
319.202057	145.400000
319.295349	145.840000
319.388641	146.240000
319.481934	145.720000
319.575226	145.660000
319.668518	145.740000
319.761810	145.720000
319.855103	145.560000
319.948395	145.880000
320.041687	146.060000
320.134979	146.280000
320.228271	146.160000
320.321564	146.260000
320.414856	145.780000
320.508148	145.500000
320.601440	145.220000
320.694763	144.740000
320.788025	145.260000
320.881348	145.480000
320.974640	145.740000
321.067963	145.480000
321.161224	145.940000
321.254547	145.280000
321.347839	145.920000
321.441162	145.660000
321.534454	146.000000
321.627747	145.540000
321.721069	146.380000
321.814362	146.420000
321.907654	146.600000
322.000946	146.720000
322.094269	147.580000
322.187561	146.480000
322.280884	146.240000
322.374176	146.400000
322.467468	146.780000
322.560791	146.480000
322.654083	147.300000
322.747406	146.920000
322.840698	147.200000
322.934021	147.020000
323.027344	147.280000
323.120636	147.200000
323.213959	147.040000
323.307251	146.160000
323.400574	145.800000
323.493866	145.420000
323.587219	145.380000
323.680511	145.840000
323.773834	146.300000
323.867157	146.540000
323.960449	146.440000
324.053772	146.280000
324.147095	145.880000
324.240387	146.160000
324.333710	146.260000
324.427032	146.520000
324.520355	146.480000
324.613647	146.480000
324.706970	146.100000
324.800293	145.820000
324.893616	145.700000
324.986938	146.000000
325.080231	145.720000
325.173553	146.440000
325.266876	146.980000
325.360199	147.200000
325.453522	146.640000
325.546875	146.700000
325.640167	146.580000
325.733521	146.400000
325.826813	146.460000
325.920166	146.380000
326.013489	146.280000
326.106812	145.440000
326.200134	145.180000
326.293457	144.640000
326.386780	145.060000
326.480103	145.080000
326.573425	145.120000
326.666748	145.160000
326.760071	145.620000
326.853424	145.340000
326.946747	145.540000
327.040070	146.320000
327.133392	145.840000
327.226715	145.200000
327.320068	145.040000
327.413391	145.680000
327.506714	144.920000
327.600037	145.260000
327.693390	145.540000
327.786713	145.800000
327.880066	145.480000
327.973358	145.860000
328.066742	146.180000
328.160034	146.260000
328.253418	146.440000
328.346710	146.100000
328.440063	145.940000
328.533417	145.560000
328.626740	146.060000
328.720093	145.840000
328.813416	145.720000
328.906769	145.680000
329.000092	146.000000
329.093445	145.700000
329.186768	145.460000
329.280121	146.000000
329.373444	146.300000
329.466797	146.140000
329.560120	146.260000
329.653473	146.540000
329.746796	146.060000
329.840149	145.900000
329.933502	146.020000
330.026825	145.740000
330.120178	145.420000
330.213562	145.480000
330.306854	145.560000
330.400238	145.380000
330.493561	145.220000
330.586945	146.240000
330.680237	146.740000
330.773621	146.900000
330.866974	147.120000
330.960327	147.240000
331.053680	146.460000
331.147003	146.180000
331.240356	146.200000
331.333710	146.180000
331.427063	146.060000
331.520416	146.340000
331.613770	146.380000
331.707123	146.460000
331.800476	146.440000
331.893829	147.560000
331.987152	147.520000
332.080505	147.280000
332.173859	146.820000
332.267212	146.620000
332.360565	145.500000
332.453918	145.200000
332.547333	145.240000
332.640656	145.700000
332.734039	145.600000
332.827362	145.620000
332.920746	146.020000
333.014069	146.440000
333.107452	146.460000
333.200806	147.080000
333.294159	147.440000
333.387543	147.000000
333.480896	146.280000
333.574249	146.080000
333.667603	145.400000
333.760956	145.280000
333.854340	145.400000
333.947693	145.880000
334.041046	145.880000
334.134430	146.460000
334.227783	146.420000
334.321136	146.340000
334.414520	145.800000
334.507874	145.920000
334.601227	145.640000
334.694611	145.200000
334.787964	145.620000
334.881348	146.520000
334.974701	146.300000
335.068085	145.980000
335.161438	146.340000
335.254822	145.820000
335.348175	145.440000
335.441559	145.060000
335.534943	145.960000
335.628296	145.540000
335.721680	145.740000
335.815033	145.720000
335.908417	146.100000
336.001770	145.800000
336.095154	146.000000
336.188538	145.700000
336.281891	145.500000
336.375275	145.200000
336.468658	144.520000
336.562012	144.940000
336.655396	145.300000
336.748779	145.660000
336.842133	146.060000
336.935516	146.740000
337.028900	146.080000
337.122284	145.980000
337.215637	145.820000
337.309021	145.480000
337.402435	144.920000
337.495789	145.080000
337.589203	144.980000
337.682526	144.580000
337.775940	145.000000
337.869324	145.300000
337.962708	145.420000
338.056091	146.020000
338.149475	146.020000
338.242859	145.680000
338.336243	145.480000
338.429626	145.780000
338.523010	145.580000
338.616394	145.680000
338.709778	146.020000
338.803162	146.060000
338.896545	145.800000
338.989929	145.180000
339.083313	145.260000
339.176697	145.000000
339.270081	144.780000
339.363464	144.960000
339.456848	145.360000
339.550232	144.920000
339.643616	144.800000
339.737030	144.960000
339.830383	144.840000
339.923828	145.060000
340.017181	145.420000
340.110596	145.480000
340.203949	145.500000
340.297363	145.180000
340.390778	144.920000
340.484161	145.120000
340.577545	144.900000
340.670959	145.160000
340.764343	145.340000
340.857727	145.420000
340.951111	144.900000
341.044525	145.360000
341.137909	144.860000
341.231293	144.960000
341.324707	144.740000
341.418091	145.500000
341.511505	145.580000
341.604889	145.880000
341.698303	145.900000
341.791687	146.040000
341.885071	145.560000
341.978485	144.920000
342.071899	144.980000
342.165283	145.220000
342.258698	145.760000
342.352081	146.220000
342.445496	147.140000
342.538879	146.900000
342.632324	146.500000
342.725708	146.580000
342.819122	146.300000
342.912506	146.080000
343.005920	146.200000
343.099335	147.000000
343.192719	146.500000
343.286133	146.520000
343.379547	146.320000
343.472931	146.680000
343.566345	145.720000
343.659760	146.040000
343.753143	145.700000
343.846558	145.620000
343.939972	145.360000
344.033386	146.380000
344.126770	145.820000
344.220184	146.260000
344.313599	146.760000
344.407043	146.840000
344.500427	145.980000
344.593872	146.920000
344.687225	146.780000
344.780670	146.360000
344.874054	146.320000
344.967499	147.020000
345.060913	146.520000
345.154327	146.300000
345.247742	146.080000
345.341156	146.080000
345.434570	145.340000
345.527985	144.920000
345.621399	145.360000
345.714813	145.460000
345.808228	145.500000
345.901642	145.360000
345.995056	145.320000
346.088470	145.360000
346.181885	145.500000
346.275299	145.080000
346.368713	145.260000
346.462128	145.060000
346.555573	144.860000
346.648987	144.940000
346.742401	144.980000
346.835815	145.240000
346.929260	145.380000
347.022644	145.220000
347.116119	145.340000
347.209503	145.740000
347.302948	146.720000
347.396362	147.420000
347.489807	147.580000
347.583221	147.960000
347.676636	147.880000
347.770050	146.580000
347.863495	145.920000
347.956909	145.700000
348.050323	145.100000
348.143768	144.940000
348.237183	144.880000
348.330597	145.580000
348.424042	146.120000
348.517456	146.260000
348.610901	146.400000
348.704315	146.380000
348.797760	145.460000
348.891174	144.860000
348.984619	144.360000
349.078033	144.720000
349.171448	145.620000
349.264923	145.680000
349.358337	145.640000
349.451782	145.960000
349.545197	144.940000
349.638641	144.160000
349.732086	144.320000
349.825500	145.140000
349.918945	144.820000
350.012390	145.800000
350.105804	146.160000
350.199249	146.360000
350.292664	146.100000
350.386108	146.500000
350.479553	146.700000
350.572968	146.700000
350.666412	146.800000
350.759857	146.800000
350.853302	147.080000
350.946716	146.400000
351.040161	146.320000
351.133606	146.000000
351.227081	145.620000
351.320465	146.260000
351.413940	146.360000
351.507355	146.260000
351.600830	146.480000
351.694244	146.300000
351.787720	145.740000
351.881104	145.660000
351.974579	145.680000
352.067993	146.440000
352.161469	146.440000
352.254883	145.500000
352.348358	145.560000
352.441803	145.560000
352.535248	144.840000
352.628693	145.300000
352.722137	145.460000
352.815582	145.760000
352.909027	145.840000
353.002472	145.900000
353.095917	145.780000
353.189362	146.300000
353.282806	145.920000
353.376251	145.700000
353.469696	145.560000
353.563141	146.140000
353.656586	145.880000
353.750061	145.680000
353.843475	145.600000
353.936981	146.120000
354.030396	145.120000
354.123871	145.140000
354.217285	146.260000
354.310760	146.780000
354.404175	146.660000
354.497681	146.680000
354.591095	146.700000
354.684570	145.680000
354.777985	145.240000
354.871490	144.660000
354.964935	145.240000
355.058380	145.380000
355.151855	145.100000
355.245300	145.680000
355.338745	146.220000
355.432220	145.960000
355.525665	145.640000
355.619110	146.620000
355.712585	146.120000
355.806030	145.820000
355.899475	145.500000
355.992950	145.900000
356.086426	145.680000
356.179871	145.940000
356.273346	145.980000
356.366791	146.420000
356.460266	146.440000
356.553711	146.140000
356.647186	146.060000
356.740631	145.760000
356.834106	145.440000
356.927551	145.580000
357.021027	145.680000
357.114471	145.760000
357.207947	146.000000
357.301422	146.480000
357.394867	146.440000
357.488342	146.700000
357.581818	146.680000
357.675262	146.820000
357.768738	146.320000
357.862213	145.720000
357.955658	145.420000
358.049133	145.260000
358.142609	145.540000
358.236053	145.340000
358.329529	145.580000
358.423035	145.740000
358.516449	145.460000
358.609955	145.740000
358.703400	146.900000
358.796906	146.920000
358.890350	146.640000
358.983826	147.120000
359.077271	146.060000
359.170776	145.380000
359.264221	145.240000
359.357727	145.540000
359.451172	145.800000
359.544647	146.120000
359.638123	145.920000
359.731598	146.600000
359.825073	146.640000
359.918549	146.500000
360.012024	146.900000
360.105499	146.620000
360.198975	146.040000
360.292450	146.100000
360.385925	146.160000
360.479401	145.420000
360.572876	146.060000
360.666351	146.480000
360.759857	146.280000
360.853302	146.040000
360.946808	146.240000
361.040253	145.840000
361.133759	145.400000
361.227203	145.600000
361.320709	145.120000
361.414154	145.580000
361.507660	146.140000
361.601105	146.400000
361.694641	146.740000
361.788086	146.820000
361.881592	147.020000
361.975067	146.660000
362.068542	147.080000
362.162018	146.840000
362.255524	146.520000
362.348999	146.400000
362.442474	146.460000
362.535950	145.500000
362.629456	145.260000
362.722931	145.640000
362.816406	145.720000
362.909882	146.120000
363.003387	146.240000
363.096863	146.500000
363.190338	146.620000
363.283875	146.120000
363.377319	145.900000
363.470825	146.780000
363.564301	146.100000
363.657806	146.160000
363.751282	146.220000
363.844788	146.740000
363.938232	145.860000
364.031769	146.540000
364.125214	146.540000
364.218750	147.040000
364.312225	146.340000
364.405731	146.380000
364.499207	145.680000
364.592712	145.660000
364.686188	145.120000
364.779694	145.100000
364.873169	145.400000
364.966675	145.660000
365.060150	145.480000
365.153656	146.120000
365.247131	146.000000
365.340637	146.540000
365.434143	147.120000
365.527618	147.320000
365.621155	146.400000
365.714600	146.660000
365.808136	146.220000
365.901611	145.280000
365.995117	145.080000
366.088593	145.340000
366.182129	145.160000
366.275604	145.280000
366.369110	145.660000
366.462585	145.740000
366.556122	146.400000
366.649567	146.580000
366.743103	146.740000
366.836609	146.540000
366.930115	146.760000
367.023590	146.380000
367.117096	146.100000
367.210602	145.400000
367.304108	146.160000
367.397614	146.700000
367.491119	146.780000
367.584595	146.900000
367.678101	147.680000
367.771606	147.240000
367.865112	146.700000
367.958649	146.180000
368.052124	145.800000
368.145660	145.140000
368.239136	145.800000
368.332672	145.860000
368.426147	145.980000
368.519684	146.060000
368.613159	146.760000
368.706696	145.980000
368.800171	145.720000
368.893707	145.600000
368.987183	145.760000
369.080719	145.440000
369.174225	145.420000
369.267731	145.920000
369.361237	146.060000
369.454742	145.940000
369.548248	146.160000
369.641754	145.840000
369.735260	145.260000
369.828766	144.600000
369.922272	145.280000
370.015808	144.840000
370.109314	144.980000
370.202820	144.820000
370.296356	146.280000
370.389832	145.700000
370.483368	145.660000
370.576874	145.600000
370.670410	146.180000
370.763885	145.040000
370.857422	145.160000
370.950928	144.800000
371.044464	145.960000
371.137939	145.800000
371.231476	146.440000
371.324982	146.880000
371.418518	147.300000
371.512024	146.580000
371.605560	146.540000
371.699066	146.460000
371.792572	145.680000
371.886108	146.200000
371.979614	146.200000
372.073120	146.680000
372.166656	146.520000
372.260162	147.120000
372.353668	146.700000
372.447205	146.520000
372.540710	145.900000
372.634277	145.800000
372.727753	145.720000
372.821320	145.640000
372.914795	145.780000
373.008362	145.900000
373.101837	146.240000
373.195404	146.080000
373.288879	146.080000
373.382446	146.600000
373.475922	146.420000
373.569489	146.780000
373.662964	147.360000
373.756531	147.380000
373.850037	147.340000
373.943573	147.400000
374.037109	146.480000
374.130615	146.340000
374.224152	146.580000
374.317657	146.280000
374.411194	147.300000
374.504730	147.320000
374.598236	147.200000
374.691772	146.640000
374.785309	146.640000
374.878815	145.320000
374.972351	146.160000
375.065887	145.800000
375.159454	146.420000
375.252930	146.160000
375.346497	146.600000
375.440002	146.780000
375.533569	146.600000
375.627045	146.040000
375.720612	146.080000
375.814117	146.320000
375.907684	145.520000
376.001160	145.460000
376.094727	145.420000
376.188232	145.900000
376.281799	146.240000
376.375336	146.340000
376.468872	146.980000
376.562408	146.960000
376.655914	146.520000
376.749451	146.120000
376.842987	146.260000
376.936523	145.900000
377.030060	146.160000
377.123596	146.420000
377.217133	146.020000
377.310669	146.180000
377.404205	146.460000
377.497772	146.980000
377.591278	146.640000
377.684845	147.100000
377.778351	146.940000
377.871918	146.740000
377.965424	145.840000
378.058990	145.640000
378.152496	145.420000
378.246063	145.780000
378.339569	146.120000
378.433136	146.140000
378.526642	146.420000
378.620209	146.360000
378.713745	145.540000
378.807312	145.680000
378.900848	145.900000
378.994385	146.080000
379.087921	145.540000
379.181458	146.020000
379.274994	145.080000
379.368530	145.060000
379.462097	145.120000
379.555634	145.800000
379.649170	145.360000
379.742706	145.440000
379.836273	145.560000
379.929810	145.340000
380.023376	144.920000
380.116882	145.120000
380.210449	145.620000
380.303986	145.580000
380.397552	145.120000
380.491058	145.540000
380.584656	145.440000
380.678162	145.520000
380.771729	145.480000
380.865265	146.500000
380.958832	146.320000
381.052368	146.780000
381.145935	147.320000
381.239471	147.680000
381.333008	147.020000
381.426575	147.240000
381.520111	147.320000
381.613647	147.040000
381.707214	147.000000
381.800751	146.720000
381.894318	146.760000
381.987854	146.160000
382.081421	145.900000
382.174988	145.900000
382.268524	145.940000
382.362091	145.840000
382.455627	146.860000
382.549194	146.680000
382.642731	145.740000
382.736298	145.860000
382.829834	145.620000
382.923401	145.540000
383.016937	145.660000
383.110504	146.460000
383.204041	146.520000
383.297607	146.840000
383.391174	146.400000
383.484741	146.860000
383.578278	146.300000
383.671844	145.980000
383.765411	145.460000
383.858948	145.860000
383.952515	145.340000
384.046051	145.940000
384.139618	146.600000
384.233185	147.080000
384.326721	146.580000
384.420288	147.340000
384.513855	147.280000
384.607422	147.520000
384.700989	147.580000
384.794525	147.140000
384.888123	146.620000
384.981659	146.860000
385.075226	146.100000
385.168762	145.740000
385.262360	145.960000
385.355896	145.640000
385.449463	145.380000
385.542999	145.400000
385.636597	146.400000
385.730164	146.800000
385.823730	146.560000
385.917267	146.180000
386.010834	146.580000
386.104401	146.060000
386.197968	146.240000
386.291534	146.620000
386.385101	146.760000
386.478668	146.800000
386.572235	146.420000
386.665802	145.660000
386.759338	145.360000
386.852905	145.400000
386.946472	144.980000
387.040070	145.340000
387.133606	145.860000
387.227203	145.620000
387.320740	145.860000
387.414337	145.840000
387.507874	145.560000
387.601471	145.360000
387.695007	145.360000
387.788605	145.140000
387.882141	145.420000
387.975739	145.540000
388.069275	145.300000
388.162872	145.720000
388.256439	145.480000
388.350037	145.260000
388.443604	145.100000
388.537170	145.220000
388.630737	145.920000
388.724304	146.500000
388.817871	146.540000
388.911438	146.700000
389.005005	146.940000
389.098602	146.660000
389.192169	146.260000
389.285736	147.140000
389.379333	147.240000
389.472870	146.800000
389.566467	146.680000
389.660034	146.540000
389.753632	145.500000
389.847168	145.620000
389.940765	146.100000
390.034332	146.340000
390.127930	146.180000
390.221466	146.160000
390.315063	145.520000
390.408630	145.020000
390.502228	143.940000
390.595795	144.440000
390.689362	144.460000
390.782959	145.000000
390.876526	145.380000
390.970093	145.780000
391.063690	146.140000
391.157257	146.460000
391.250824	146.580000
391.344421	146.400000
391.437988	146.860000
391.531555	146.580000
391.625153	146.300000
391.718750	146.220000
391.812317	146.300000
391.905914	145.740000
391.999481	145.740000
392.093079	146.140000
392.186615	146.380000
392.280243	146.260000
392.373779	146.580000
392.467407	147.100000
392.560944	146.820000
392.654572	146.300000
392.748108	146.460000
392.841736	146.520000
392.935303	145.980000
393.028900	146.080000
393.122467	146.260000
393.216064	145.640000
393.309631	145.100000
393.403229	144.640000
393.496796	144.440000
393.590393	143.780000
393.683990	144.660000
393.777557	145.300000
393.871155	145.660000
393.964722	146.180000
394.058350	146.580000
394.151917	146.140000
394.245514	145.600000
394.339081	145.900000
394.432678	145.880000
394.526245	145.840000
394.619873	145.680000
394.713409	146.100000
394.807037	145.860000
394.900604	145.880000
394.994202	145.880000
395.087769	146.140000
395.181396	145.520000
395.274994	146.140000
395.368561	145.640000
395.462158	146.160000
395.555756	145.760000
395.649353	146.700000
395.742920	145.880000
395.836517	146.260000
395.930115	145.140000
396.023712	145.840000
396.117279	145.660000
396.210876	145.640000
396.304474	145.580000
396.398071	146.400000
396.491669	146.460000
396.585266	146.120000
396.678833	145.860000
396.772461	146.180000
396.866028	146.280000
396.959656	146.360000
397.053223	146.820000
397.146851	147.460000
397.240417	148.120000
397.334015	149.700000
397.427582	150.820000
397.521210	153.000000
397.614807	156.040000
397.708405	159.300000
397.802002	163.120000
397.895599	169.360000
397.989197	176.280000
398.082794	183.980000
398.176392	194.520000
398.269989	206.180000
398.363586	219.920000
398.457184	237.060000
398.550781	257.220000
398.644379	277.640000
398.737976	301.180000
398.831573	325.300000
398.925201	348.460000
399.018768	372.800000
399.112396	397.040000
399.205963	420.220000
399.299591	443.340000
399.393158	466.200000
399.486786	487.200000
399.580353	507.020000
399.673981	524.320000
399.767578	539.620000
399.861206	551.800000
399.954773	559.920000
400.048401	562.580000
400.141998	561.800000
400.235596	556.260000
400.329193	546.920000
400.422791	533.880000
400.516418	519.380000
400.610016	502.360000
400.703613	483.240000
400.797211	459.780000
400.890808	434.580000
400.984436	407.900000
401.078033	379.380000
401.171631	350.500000
401.265259	323.980000
401.358826	300.340000
401.452484	277.440000
401.546051	257.660000
401.639679	238.620000
401.733246	222.480000
401.826904	207.020000
401.920471	194.120000
402.014099	183.280000
402.107697	175.120000
402.201324	168.320000
402.294891	162.760000
402.388550	158.960000
402.482147	155.720000
402.575745	152.840000
402.669373	150.200000
402.762970	149.000000
402.856567	148.280000
402.950195	147.660000
403.043793	147.400000
403.137390	148.080000
403.231018	147.260000
403.324615	147.460000
403.418243	146.740000
403.511841	146.960000
403.605469	146.620000
403.699066	147.160000
403.792694	146.800000
403.886292	147.480000
403.979919	147.120000
404.073517	146.660000
404.167145	146.780000
404.260712	146.700000
404.354370	146.300000
404.447937	146.560000
404.541595	146.660000
404.635162	146.620000
404.728821	147.020000
404.822418	146.640000
404.916046	146.620000
405.009644	147.000000
405.103271	147.060000
405.196899	146.460000
405.290497	147.000000
405.384125	147.140000
405.477722	146.760000
405.571350	146.360000
405.664948	146.660000
405.758575	146.300000
405.852203	145.560000
405.945801	145.480000
406.039429	145.580000
406.133057	145.300000
406.226654	145.180000
406.320312	145.580000
406.413879	145.880000
406.507538	146.380000
406.601135	146.020000
406.694763	146.640000
406.788361	146.280000
406.882019	146.280000
406.975586	146.500000
407.069244	147.120000
407.162872	147.020000
407.256470	147.220000
407.350098	146.960000
407.443726	145.960000
407.537323	145.360000
407.630951	145.420000
407.724579	145.400000
407.818207	145.820000
407.911804	146.040000
408.005432	146.040000
408.099060	146.180000
408.192688	146.440000
408.286285	145.960000
408.379913	145.700000
408.473572	145.960000
408.567169	145.200000
408.660828	145.120000
408.754395	145.160000
408.848053	145.400000
408.941650	145.680000
409.035309	145.640000
409.128906	145.760000
409.222565	145.840000
409.316132	145.980000
409.409790	145.580000
409.503387	145.640000
409.597046	145.540000
409.690674	145.640000
409.784302	145.720000
409.877930	145.740000
409.971558	145.920000
410.065186	145.740000
410.158783	145.880000
410.252411	145.740000
410.346039	146.120000
410.439667	146.300000
410.533295	146.480000
410.626923	146.520000
410.720551	146.140000
410.814209	146.440000
410.907806	146.700000
411.001465	146.040000
411.095062	146.020000
411.188721	146.420000
411.282318	145.900000
411.375977	145.400000
411.469574	146.160000
411.563232	146.080000
411.656830	145.920000
411.750488	145.660000
411.844086	145.420000
411.937744	145.520000
412.031372	145.060000
412.125000	145.200000
412.218628	145.400000
412.312256	146.360000
412.405884	146.580000
412.499512	147.180000
412.593170	147.480000
412.686798	147.780000
412.780426	147.060000
412.874054	146.640000
412.967682	146.160000
413.061310	146.360000
413.154968	146.140000
413.248566	146.380000
413.342224	146.500000
413.435852	146.940000
413.529510	146.460000
413.623108	146.200000
413.716766	146.100000
413.810364	146.080000
413.904022	145.640000
413.997650	145.380000
414.091309	146.120000
414.184906	146.080000
414.278564	146.160000
414.372192	146.480000
414.465851	146.780000
414.559479	146.140000
414.653107	146.900000
414.746735	146.560000
414.840393	146.260000
414.934021	146.520000
415.027649	146.540000
415.121277	146.320000
415.214935	146.660000
415.308563	147.020000
415.402191	146.460000
415.495850	146.260000
415.589478	145.660000
415.683136	145.380000
415.776733	145.260000
415.870422	145.900000
415.964020	145.460000
416.057678	145.500000
416.151306	145.520000
416.244965	145.580000
416.338562	145.120000
416.432251	146.060000
416.525848	146.800000
416.619507	147.360000
416.713165	147.460000
416.806793	147.560000
416.900421	147.640000
416.994080	147.060000
417.087708	146.700000
417.181366	146.100000
417.274994	145.980000
417.368622	146.180000
417.462280	146.500000
417.555908	146.180000
417.649567	146.540000
417.743195	146.740000
417.836853	146.360000
417.930481	146.540000
418.024170	146.780000
418.117767	147.220000
418.211426	147.300000
418.305054	147.300000
418.398712	146.540000
418.492340	146.680000
418.585999	146.620000
418.679626	146.580000
418.773285	146.780000
418.866913	147.240000
418.960571	147.660000
419.054230	147.640000
419.147858	147.680000
419.241516	147.640000
419.335144	147.160000
419.428802	146.580000
419.522461	146.160000
419.616089	146.000000
419.709747	146.040000
419.803375	146.400000
419.897034	145.740000
419.990662	145.920000
420.084320	146.260000
420.177979	146.140000
420.271606	146.100000
420.365295	147.300000
420.458893	147.580000
420.552582	147.540000
420.646210	147.640000
420.739868	147.640000
420.833496	147.080000
420.927155	146.420000
421.020782	146.140000
421.114471	145.380000
421.208069	145.360000
421.301758	146.000000
421.395386	146.400000
421.489044	146.540000
421.582703	147.160000
421.676361	147.420000
421.769989	146.860000
421.863647	147.180000
421.957306	146.920000
422.050934	147.140000
422.144592	146.920000
422.238251	146.480000
422.331909	145.960000
422.425537	145.900000
422.519196	145.580000
422.612854	145.080000
422.706543	145.080000
422.800140	145.240000
422.893829	144.820000
422.987457	144.500000
423.081146	144.760000
423.174744	145.280000
423.268433	145.040000
423.362061	145.380000
423.455750	145.560000
423.549347	145.780000
423.643036	145.100000
423.736664	145.920000
423.830353	146.120000
423.924011	146.600000
424.017639	146.000000
424.111298	146.580000
424.204956	145.960000
424.298615	146.040000
424.392273	145.700000
424.485931	146.140000
424.579559	146.140000
424.673218	146.400000
424.766876	146.380000
424.860535	146.180000
424.954193	146.100000
425.047882	146.240000
425.141510	145.880000
425.235199	145.840000
425.328796	145.720000
425.422485	145.660000
425.516113	145.240000
425.609802	145.180000
425.703430	145.320000
425.797119	145.140000
425.890747	145.320000
425.984436	145.520000
426.078064	145.600000
426.171753	145.300000
426.265411	145.340000
426.359070	145.480000
426.452728	145.080000
426.546356	145.240000
426.640015	145.380000
426.733673	145.500000
426.827332	145.100000
426.920990	145.980000
427.014648	145.440000
427.108307	145.440000
427.201965	146.160000
427.295624	146.600000
427.389282	145.680000
427.482941	146.080000
427.576630	146.000000
427.670258	145.280000
427.763947	144.840000
427.857574	145.180000
427.951263	145.160000
428.044922	144.960000
428.138611	145.200000
428.232239	145.940000
428.325928	146.600000
428.419556	146.960000
428.513245	146.900000
428.606903	146.740000
428.700562	146.000000
428.794220	144.920000
428.887878	144.360000
428.981537	144.620000
429.075195	144.820000
429.168854	145.320000
429.262512	145.580000
429.356201	145.840000
429.449860	145.680000
429.543518	145.660000
429.637177	145.640000
429.730835	145.860000
429.824493	145.600000
429.918182	146.040000
430.011810	145.680000
430.105530	144.920000
430.199158	145.220000
430.292847	145.400000
430.386475	145.240000
430.480164	145.120000
430.573792	145.220000
430.667511	144.720000
430.761139	144.880000
430.854828	145.140000
430.948456	145.600000
431.042145	146.260000
431.135834	146.120000
431.229492	146.300000
431.323151	146.340000
431.416809	146.360000
431.510468	146.060000
431.604156	146.340000
431.697815	146.180000
431.791473	145.700000
431.885132	145.340000
431.978821	145.700000
432.072479	145.940000
432.166138	146.380000
432.259827	146.380000
432.353485	146.600000
432.447174	146.680000
432.540802	146.360000
432.634491	146.240000
432.728149	146.620000
432.821838	147.100000
432.915466	146.500000
433.009186	146.580000
433.102814	145.880000
433.196503	145.440000
433.290131	145.260000
433.383850	145.880000
433.477509	145.960000
433.571167	146.940000
433.664856	147.580000
433.758514	147.820000
433.852173	147.620000
433.945862	147.640000
434.039520	147.440000
434.133179	146.720000
434.226868	146.420000
434.320526	145.820000
434.414185	146.220000
434.507874	145.700000
434.601562	145.960000
434.695221	145.740000
434.788910	146.240000
434.882538	145.960000
434.976257	145.700000
435.069885	145.720000
435.163574	145.780000
435.257233	145.120000
435.350922	145.240000
435.444580	145.280000
435.538269	145.220000
435.631897	145.820000
435.725616	146.780000
435.819275	147.060000
435.912964	147.680000
436.006622	148.040000
436.100311	147.620000
436.193970	146.720000
436.287628	146.160000
436.381317	145.580000
436.474976	145.100000
436.568665	144.640000
436.662323	145.300000
436.756012	145.380000
436.849670	145.320000
436.943390	145.300000
437.037018	145.280000
437.130737	145.240000
437.224365	144.980000
437.318085	145.140000
437.411713	145.240000
437.505432	145.700000
437.599060	145.700000
437.692780	146.420000
437.786407	146.400000
437.880127	146.540000
437.973755	146.160000
438.067474	146.180000
438.161133	146.000000
438.254822	146.380000
438.348480	146.200000
438.442169	146.980000
438.535828	147.120000
438.629517	146.620000
438.723175	146.100000
438.816864	146.580000
438.910553	146.060000
439.004211	146.020000
439.097900	145.860000
439.191559	146.020000
439.285248	145.280000
439.378906	145.440000
439.472626	145.020000
439.566284	145.100000
439.659973	145.540000
439.753632	145.580000
439.847321	146.020000
439.940979	146.120000
440.034698	146.260000
440.128326	145.940000
440.222046	145.840000
440.315674	144.920000
440.409393	144.940000
440.503082	144.660000
440.596741	144.600000
440.690430	145.020000
440.784088	145.080000
440.877777	144.660000
440.971466	144.880000
441.065125	144.620000
441.158813	144.560000
441.252502	144.840000
441.346161	145.260000
441.439850	145.600000
441.533539	145.360000
441.627197	145.480000
441.720886	145.480000
441.814606	145.840000
441.908234	145.920000
442.001953	146.200000
442.095612	146.140000
442.189301	146.220000
442.282959	146.020000
442.376678	145.240000
442.470306	145.780000
442.564026	145.840000
442.657684	146.040000
442.751404	146.080000
442.845032	147.340000
442.938751	146.760000
443.032440	146.980000
443.126099	146.760000
443.219788	147.200000
443.313477	146.780000
443.407166	147.400000
443.500824	147.060000
443.594513	146.840000
443.688202	146.400000
443.781891	145.660000
443.875549	145.240000
443.969238	145.320000
444.062927	145.640000
444.156647	145.460000
444.250275	146.040000
444.343994	146.000000
444.437653	146.180000
444.531372	145.980000
444.625031	146.080000
444.718719	145.580000
444.812378	145.740000
444.906097	145.740000
444.999756	145.380000
445.093445	145.460000
445.187103	145.880000
445.280823	146.220000
445.374512	145.800000
445.468201	146.260000
445.561859	145.940000
445.655548	145.960000
445.749237	145.460000
445.842926	145.580000
445.936615	145.840000
446.030304	146.020000
446.123962	146.080000
446.217651	146.100000
446.311340	146.400000
446.405029	145.740000
446.498749	145.620000
446.592407	145.360000
446.686096	145.600000
446.779755	145.420000
446.873474	145.680000
446.967133	145.940000
447.060852	145.380000
447.154510	145.400000
447.248230	145.360000
447.341858	145.360000
447.435577	144.860000
447.529236	145.220000
447.622955	144.940000
447.716644	144.920000
447.810333	145.020000
447.904022	145.820000
447.997711	145.960000
448.091400	146.120000
448.185059	146.080000
448.278748	146.360000
448.372437	146.040000
448.466125	146.040000
448.559814	145.920000
448.653503	146.560000
448.747192	146.500000
448.840912	146.840000
448.934570	146.900000
449.028290	147.340000
449.121948	146.820000
449.215637	146.640000
449.309296	145.780000
449.403015	146.000000
449.496674	145.700000
449.590393	145.820000
449.684052	145.640000
449.777771	146.560000
449.871429	146.080000
449.965149	146.100000
450.058838	146.200000
450.152527	146.740000
450.246216	146.400000
450.339905	146.580000
450.433594	146.460000
450.527283	146.640000
450.620972	146.140000
450.714661	146.080000
450.808350	146.240000
450.902039	146.240000
450.995728	146.140000
451.089417	145.800000
451.183105	145.740000
451.276794	145.940000
451.370514	145.740000
451.464172	145.020000
451.557892	145.280000
451.651550	145.400000
451.745270	145.000000
451.838928	144.620000
451.932648	144.740000
452.026306	145.080000
452.120026	144.760000
452.213684	145.200000
452.307404	145.780000
452.401062	146.160000
452.494781	146.420000
452.588470	146.480000
452.682159	145.940000
452.775848	146.140000
452.869537	145.420000
452.963226	144.640000
453.056915	144.780000
453.150604	144.860000
453.244293	144.880000
453.337982	145.940000
453.431671	146.440000
453.525360	146.820000
453.619049	147.020000
453.712769	146.840000
453.806427	146.140000
453.900146	145.780000
453.993805	145.460000
454.087555	145.740000
454.181213	146.000000
454.274933	146.060000
454.368591	146.100000
454.462311	146.100000
454.555969	145.400000
454.649689	145.680000
454.743347	145.500000
454.837067	146.200000
454.930756	146.680000
455.024445	147.180000
455.118134	146.700000
455.211853	147.020000
455.305542	146.500000
455.399231	146.120000
455.492920	146.000000
455.586609	146.160000
455.680298	146.640000
455.773987	146.300000
455.867676	146.360000
455.961365	146.640000
456.055084	146.600000
456.148773	145.800000
456.242493	146.120000
456.336151	146.120000
456.429871	146.180000
456.523529	146.320000
456.617249	146.020000
456.710907	146.540000
456.804626	146.320000
456.898315	145.660000
456.992035	145.200000
457.085693	145.300000
457.179413	144.460000
457.273102	145.120000
457.366791	145.520000
457.460480	145.980000
457.554199	147.100000
457.647888	147.360000
457.741577	146.720000
457.835266	146.820000
457.928955	146.880000
458.022644	146.540000
458.116364	146.800000
458.210052	146.680000
458.303741	146.640000
458.397461	145.900000
458.491119	145.300000
458.584839	145.240000
458.678528	144.920000
458.772247	144.600000
458.865906	144.940000
458.959625	145.900000
459.053284	145.820000
459.147003	146.100000
459.240692	147.000000
459.334412	146.960000
459.428070	146.500000
459.521790	146.240000
459.615479	146.260000
459.709198	146.120000
459.802887	145.940000
459.896576	145.780000
459.990265	146.100000
460.083954	146.560000
460.177673	145.580000
460.271362	145.720000
460.365051	145.700000
460.458740	145.420000
460.552429	144.540000
460.646149	145.020000
460.739838	144.840000
460.833527	144.760000
460.927246	144.760000
461.020905	144.860000
461.114655	145.000000
461.208313	145.540000
461.302032	145.300000
461.395691	145.340000
461.489441	145.620000
461.583099	145.420000
461.676819	145.000000
461.770477	145.420000
461.864197	145.080000
461.957916	145.000000
462.051605	144.460000
462.145294	145.440000
462.238983	145.300000
462.332703	146.000000
462.426392	146.760000
462.520081	147.420000
462.613770	146.700000
462.707489	146.980000
462.801178	146.860000
462.894867	146.300000
462.988556	146.160000
463.082275	146.160000
463.175964	145.680000
463.269684	145.740000
463.363342	145.540000
463.457092	144.780000
463.550751	145.040000
463.644470	145.400000
463.738129	145.320000
463.831879	145.820000
463.925537	146.940000
464.019257	146.880000
464.112946	146.700000
464.206665	146.500000
464.300323	146.340000
464.394043	145.840000
464.487762	145.680000
464.581451	145.760000
464.675140	145.560000
464.768829	145.620000
464.862549	145.860000
464.956238	146.080000
465.049927	146.020000
465.143646	146.180000
465.237335	145.880000
465.331024	146.240000
465.424713	146.140000
465.518433	146.400000
465.612152	146.400000
465.705811	146.820000
465.799561	146.460000
465.893219	146.180000
465.986938	145.880000
466.080597	145.580000
466.174347	145.580000
466.268005	145.680000
466.361725	145.820000
466.455414	145.680000
466.549133	145.820000
466.642792	146.180000
466.736542	145.560000
466.830231	145.700000
466.923920	146.040000
467.017609	146.220000
467.111328	145.480000
467.205017	145.980000
467.298706	145.860000
467.392426	146.000000
467.486115	146.320000
467.579803	146.160000
467.673523	146.340000
467.767212	146.300000
467.860901	146.340000
467.954651	146.480000
468.048309	146.880000
468.142029	146.900000
468.235718	147.180000
468.329437	146.440000
468.423096	146.080000
468.516846	145.760000
468.610504	145.260000
468.704224	144.700000
468.797913	145.140000
468.891632	145.380000
468.985291	145.680000
469.079010	145.800000
469.172729	145.540000
469.266418	145.920000
469.360107	145.900000
469.453827	145.740000
469.547516	145.980000
469.641205	146.600000
469.734924	146.440000
469.828613	146.720000
469.922302	146.800000
470.016022	146.340000
470.109711	146.000000
470.203430	145.620000
470.297150	144.880000
470.390808	144.920000
470.484558	144.740000
470.578217	145.340000
470.671936	145.900000
470.765625	146.400000
470.859344	146.220000
470.953003	147.060000
471.046753	146.560000
471.140411	145.780000
471.234131	145.580000
471.327820	146.080000
471.421539	146.180000
471.515228	145.700000
471.608948	145.960000
471.702637	145.460000
471.796326	145.020000
471.890045	144.800000
471.983734	145.140000
472.077423	145.040000
472.171143	145.500000
472.264832	145.200000
472.358521	144.920000
472.452240	144.720000
472.545929	145.660000
472.639648	145.720000
472.733337	146.400000
472.827057	146.620000
472.920746	147.020000
473.014465	147.000000
473.108124	147.320000
473.201874	147.020000
473.295532	146.700000
473.389252	146.960000
473.482941	146.520000
473.576660	146.040000
473.670319	145.880000
473.764069	146.260000
473.857727	146.600000
473.951477	146.760000
474.045166	147.360000
474.138855	147.440000
474.232574	147.320000
474.326263	146.760000
474.419952	146.880000
474.513672	146.620000
474.607361	146.560000
474.701050	146.840000
474.794769	147.380000
474.888458	147.460000
474.982178	147.380000
475.075867	147.380000
475.169586	147.260000
475.263275	146.780000
475.356995	146.300000
475.450653	146.000000
475.544403	145.740000
475.638062	146.060000
475.731812	145.520000
475.825470	145.360000
475.919189	145.600000
476.012878	146.160000
476.106598	145.540000
476.200256	145.960000
476.294006	145.960000
476.387695	146.100000
476.481384	145.720000
476.575104	145.640000
476.668793	145.380000
476.762512	145.280000
476.856201	145.540000
476.949890	145.480000
477.043610	145.140000
477.137299	145.500000
477.230988	145.800000
477.324707	145.340000
477.418396	145.900000
477.512146	146.420000
477.605804	146.360000
477.699524	146.480000
477.793213	146.620000
477.886932	146.280000
477.980591	146.080000
478.074341	145.820000
478.167999	145.120000
478.261749	144.960000
478.355408	144.700000
478.449127	144.960000
478.542816	145.740000
478.636536	146.900000
478.730225	147.120000
478.823944	147.540000
478.917633	147.540000
479.011322	147.480000
479.105042	147.200000
479.198730	147.140000
479.292450	146.980000
479.386139	147.060000
479.479828	146.920000
479.573547	146.960000
479.667267	146.660000
479.760925	146.660000
479.854675	146.740000
479.948334	146.660000
480.042084	146.140000
480.135742	146.740000
480.229462	146.220000
480.323151	146.120000
480.416870	145.440000
480.510529	145.380000
480.604279	144.720000
480.697937	145.200000
480.791656	144.620000
480.885345	145.080000
480.979065	144.960000
481.072754	145.300000
481.166473	145.760000
481.260132	146.100000
481.353882	145.800000
481.447540	145.900000
481.541260	145.980000
481.635010	145.340000
481.728668	145.480000
481.822388	145.560000
481.916077	145.740000
482.009796	145.420000
482.103485	145.740000
482.197205	145.660000
482.290863	146.020000
482.384613	145.740000
482.478271	145.460000
482.571991	145.620000
482.665680	145.700000
482.759399	146.120000
482.853058	146.560000
482.946808	146.580000
483.040466	146.080000
483.134216	145.940000
483.227875	145.100000
483.321594	145.480000
483.415283	145.680000
483.509003	145.480000
483.602661	145.060000
483.696411	145.600000
483.790070	144.960000
483.883789	144.880000
483.977478	145.540000
484.071198	146.240000
484.164917	145.820000
484.258606	145.900000
484.352325	146.520000
484.445984	146.420000
484.539734	146.220000
484.633392	145.760000
484.727142	145.960000
484.820801	145.680000
484.914520	145.500000
485.008209	145.760000
485.101929	146.680000
485.195587	146.660000
485.289337	146.300000
485.382996	146.420000
485.476715	146.200000
485.570404	146.380000
485.664124	146.160000
485.757782	147.000000
485.851532	146.740000
485.945190	146.640000
486.038910	146.360000
486.132599	146.860000
486.226318	146.240000
486.319977	146.120000
486.413727	146.660000
486.507446	146.080000
486.601105	145.420000
486.694855	144.980000
486.788513	145.080000
486.882233	144.720000
486.975922	144.960000
487.069641	144.880000
487.163300	144.960000
487.257050	145.820000
487.350708	145.540000
487.444427	145.340000
487.538116	145.480000
487.631836	145.560000
487.725494	145.040000
487.819214	144.860000
487.912903	145.000000
488.006622	145.500000
488.100281	145.760000
488.194031	145.780000
488.287689	146.260000
488.381409	147.080000
488.475098	146.720000
488.568817	146.880000
488.662476	146.320000
488.756226	145.920000
488.849945	144.600000
488.943604	144.680000
489.037354	144.600000
489.131012	144.880000
489.224731	144.720000
489.318390	145.180000
489.412140	145.280000
489.505798	145.420000
489.599518	145.400000
489.693207	146.040000
489.786926	146.040000
489.880585	145.820000
489.974335	145.820000
490.067993	146.780000
490.161713	146.860000
490.255371	147.600000
490.349121	147.900000
490.442780	147.800000
490.536499	146.660000
490.630188	146.660000
490.723907	145.900000
490.817566	146.040000
490.911285	145.800000
491.004974	146.080000
491.098694	145.400000
491.192413	146.180000
491.286102	145.700000
491.379822	146.220000
491.473480	146.300000
491.567200	146.360000
491.660889	145.420000
491.754608	145.580000
491.848267	145.140000
491.941986	144.960000
492.035675	145.200000
492.129395	145.820000
492.223053	145.640000
492.316772	145.780000
492.410461	145.760000
492.504181	145.500000
492.597839	145.300000
492.691559	145.580000
492.785248	145.540000
492.878967	145.820000
492.972626	145.940000
493.066345	145.620000
493.160034	144.980000
493.253754	144.960000
493.347412	144.320000
493.441132	144.740000
493.534882	145.680000
493.628540	146.320000
493.722260	146.620000
493.815918	147.440000
493.909668	147.620000
494.003326	147.480000
494.097046	147.460000
494.190704	147.020000
494.284454	146.720000
494.378113	146.640000
494.471832	146.260000
494.565491	146.180000
494.659210	146.460000
494.752899	146.380000
494.846619	146.120000
494.940277	146.240000
495.033997	146.120000
495.127686	145.820000
495.221405	145.600000
495.315063	145.700000
495.408783	145.620000
495.502441	145.540000
495.596191	145.720000
495.689850	145.800000
495.783569	146.140000
495.877228	146.200000
495.970947	146.140000
496.064697	146.100000
496.158356	146.980000
496.252075	146.660000
496.345734	146.180000
496.439453	147.040000
496.533142	147.200000
496.626862	147.220000
496.720520	147.080000
496.814240	147.380000
496.907898	146.940000
497.001617	147.080000
497.095306	145.940000
497.189026	146.020000
497.282684	146.000000
497.376404	146.300000
497.470062	145.780000
497.563782	146.300000
497.657471	146.580000
497.751190	146.420000
497.844849	146.000000
497.938568	146.800000
498.032227	146.740000
498.125946	146.380000
498.219635	146.340000
498.313354	146.740000
498.407074	145.920000
498.500732	146.160000
498.594452	146.440000
498.688110	146.340000
498.781830	145.640000
498.875519	146.000000
498.969238	145.900000
499.062897	145.360000
499.156616	145.860000
499.250275	146.160000
499.343994	145.620000
499.437653	145.520000
499.531372	146.180000
499.625061	146.660000
499.718781	146.720000
499.812439	147.420000
499.906158	147.300000
499.999817	146.780000
500.093536	145.980000
500.187195	145.940000
500.280914	145.640000
500.374573	145.680000
500.468323	145.360000
500.561981	145.780000
500.655701	145.460000
500.749420	145.460000
500.843079	145.620000
500.936798	146.100000
501.030457	146.300000
501.124176	146.640000
501.217834	146.420000
501.311554	146.320000
501.405212	146.180000
501.498962	145.240000
501.592621	145.260000
501.686340	145.800000
501.779999	146.080000
501.873718	146.220000
501.967377	146.660000
502.061096	146.820000
502.154755	146.260000
502.248474	146.240000
502.342133	146.240000
502.435852	146.280000
502.529510	146.940000
502.623230	147.820000
502.716888	147.140000
502.810608	147.260000
502.904266	147.820000
502.997986	146.900000
503.091705	146.140000
503.185364	146.300000
503.279083	146.260000
503.372772	145.820000
503.466492	145.440000
503.560150	145.640000
503.653870	146.100000
503.747528	146.080000
503.841248	146.120000
503.934906	146.320000
504.028625	146.180000
504.122284	146.200000
504.216003	146.760000
504.309662	146.280000
504.403381	146.660000
504.497040	146.720000
504.590759	146.300000
504.684418	146.180000
504.778137	146.860000
504.871796	147.060000
504.965515	146.760000
505.059174	146.920000
505.152893	146.180000
505.246521	145.440000
505.340240	145.060000
505.433899	145.260000
505.527618	145.640000
505.621338	145.980000
505.714996	145.980000
505.808716	145.880000
505.902374	146.440000
505.996094	146.400000
506.089752	146.340000
506.183472	146.980000
506.277130	147.140000
506.370850	146.860000
506.464508	146.600000
506.558228	146.320000
506.651886	145.960000
506.745605	145.980000
506.839264	145.900000
506.932983	146.320000
507.026611	146.640000
507.120331	146.960000
507.213989	146.380000
507.307709	146.540000
507.401367	146.180000
507.495087	146.680000
507.588745	146.020000
507.682465	147.320000
507.776123	147.240000
507.869843	147.360000
507.963531	146.920000
508.057190	147.780000
508.150909	146.780000
508.244568	146.660000
508.338287	146.200000
508.431946	145.860000
508.525665	145.400000
508.619324	145.420000
508.713013	145.600000
508.806671	146.020000
508.900391	146.960000
508.994049	147.160000
509.087769	146.920000
509.181427	146.860000
509.275146	146.480000
509.368774	145.640000
509.462494	145.540000
509.556152	145.940000
509.649872	146.100000
509.743530	146.340000
509.837250	146.560000
509.930878	146.440000
510.024597	146.480000
510.118256	146.220000
510.211975	146.280000
510.305695	146.220000
510.399353	146.340000
510.493042	146.700000
510.586700	146.800000
510.680420	147.120000
510.774078	146.840000
510.867798	146.920000
510.961426	146.040000
511.055145	145.880000
511.148804	145.480000
511.242523	145.920000
511.336151	146.100000
511.429871	146.480000
511.523529	146.620000
511.617249	146.400000
511.710876	146.360000
511.804596	145.700000
511.898254	145.760000
511.991974	145.980000
512.085632	145.900000
512.179321	145.620000
512.272949	146.460000
512.366699	146.780000
512.460327	146.500000
512.554077	147.260000
512.647766	147.540000
512.741394	146.960000
512.835144	146.960000
512.928772	146.820000
513.022461	146.640000
513.116150	146.220000
513.209839	146.540000
513.303467	146.080000
513.397217	145.880000
513.490845	145.620000
513.584595	145.560000
513.678223	144.920000
513.771912	144.560000
513.865601	144.800000
513.959290	144.280000
514.052917	144.460000
514.146667	145.380000
514.240295	146.200000
514.333984	146.360000
514.427673	146.640000
514.521362	147.040000
514.614990	146.280000
514.708740	145.960000
514.802368	145.860000
514.896057	145.960000
514.989746	146.260000
515.083435	146.540000
515.177124	146.880000
515.270752	146.620000
515.364502	146.760000
515.458130	146.440000
515.551819	146.320000
515.645508	145.800000
515.739197	146.060000
515.832825	146.020000
515.926575	145.740000
516.020203	146.120000
516.113892	146.660000
516.207520	146.440000
516.301270	146.680000
516.394897	146.900000
516.488586	146.880000
516.582275	146.720000
516.675964	146.260000
516.769592	145.720000
516.863281	146.080000
516.956970	146.240000
517.050659	145.900000
517.144287	146.300000
517.238037	146.600000
517.331665	146.000000
517.425354	145.480000
517.519043	145.300000
517.612732	145.940000
517.706421	145.860000
517.800049	145.520000
517.893738	145.700000
517.987427	146.120000
518.081116	145.460000
518.174744	144.860000
518.268433	145.560000
518.362122	146.060000
518.455811	146.000000
518.549438	146.380000
518.643127	147.740000
518.736816	147.340000
518.830505	146.820000
518.924133	146.440000
519.017822	146.620000
519.111511	146.060000
519.205200	146.500000
519.298828	146.240000
519.392517	146.300000
519.486206	146.240000
519.579895	145.960000
519.673523	145.460000
519.767212	145.460000
519.860901	146.200000
519.954590	145.940000
520.048279	145.600000
520.141907	145.480000
520.235596	146.480000
520.329224	146.180000
520.422974	146.220000
520.516602	146.400000
520.610291	146.420000
520.703918	145.900000
520.797607	145.480000
520.891296	145.400000
520.984985	145.820000
521.078613	146.460000
521.172302	145.960000
521.265930	146.660000
521.359680	147.220000
521.453308	146.980000
521.546997	146.760000
521.640625	146.960000
521.734314	146.240000
521.827942	146.100000
521.921692	146.260000
522.015320	146.360000
522.109009	146.220000
522.202698	146.420000
522.296326	146.180000
522.390015	146.500000
522.483704	146.380000
522.577393	146.320000
522.671021	146.280000
522.764709	145.880000
522.858337	146.060000
522.952026	145.960000
523.045654	146.660000
523.139404	147.200000
523.233032	147.640000
523.326721	147.420000
523.420349	147.400000
523.514038	146.720000
523.607666	147.020000
523.701355	146.640000
523.795044	146.380000
523.888733	146.700000
523.982361	146.920000
524.076050	146.400000
524.169678	147.040000
524.263367	146.720000
524.356995	146.360000
524.450684	146.300000
524.544373	146.000000
524.638062	145.880000
524.731750	146.340000
524.825378	146.160000
524.919067	145.740000
525.012695	145.860000
525.106384	145.560000
525.200012	145.580000
525.293701	145.760000
525.387329	146.480000
525.481018	146.620000
525.574646	146.900000
525.668396	146.580000
525.762024	146.920000
525.855713	147.040000
525.949341	146.340000
526.043030	146.460000
526.136658	146.460000
526.230347	146.100000
526.323975	145.640000
526.417664	145.980000
526.511292	145.660000
526.604980	145.780000
526.698608	145.700000
526.792297	145.600000
526.885925	145.980000
526.979614	146.120000
527.073303	146.180000
527.166931	146.400000
527.260620	146.800000
527.354309	147.060000
527.447998	146.720000
527.541626	146.460000
527.635315	146.660000
527.728943	146.880000
527.822632	146.840000
527.916260	147.140000
528.009949	147.520000
528.103577	146.980000
528.197266	146.360000
528.290894	146.140000
528.384583	146.000000
528.478210	145.700000
528.571899	146.100000
528.665527	146.640000
528.759216	146.600000
528.852844	147.040000
528.946533	147.240000
529.040161	147.140000
529.133850	146.720000
529.227478	146.940000
529.321167	146.960000
529.414856	147.320000
529.508484	147.680000
529.602173	147.520000
529.695801	147.420000
529.789490	147.060000
529.883057	146.540000
529.976746	146.700000
530.070374	147.160000
530.164062	147.140000
530.257690	147.260000
530.351379	147.440000
530.445007	146.740000
530.538696	146.000000
530.632324	146.060000
530.726013	146.080000
530.819641	146.200000
530.913330	146.420000
531.006958	146.820000
531.100647	146.700000
531.194275	146.460000
531.287964	146.320000
531.381592	146.240000
531.475220	146.340000
531.568848	146.500000
531.662537	146.620000
531.756226	146.780000
531.849854	146.800000
531.943542	146.680000
532.037170	146.120000
532.130859	146.500000
532.224487	146.260000
532.318176	145.900000
532.411804	146.580000
532.505432	146.960000
532.599060	146.600000
532.692749	146.640000
532.786377	147.240000
532.880066	146.360000
532.973694	145.800000
533.067383	145.560000
533.161011	145.740000
533.254639	145.720000
533.348267	145.700000
533.441956	146.440000
533.535583	146.820000
533.629272	146.720000
533.722900	146.200000
533.816589	146.220000
533.910156	146.100000
534.003845	145.520000
534.097534	145.740000
534.191162	146.660000
534.284851	147.020000
534.378479	146.600000
534.472107	146.840000
534.565735	146.380000
534.659424	146.180000
534.753052	146.220000
534.846741	146.240000
534.940369	146.700000
535.033997	147.200000
535.127625	146.860000
535.221313	147.340000
535.314941	147.380000
535.408630	146.840000
535.502197	146.900000
535.595886	146.680000
535.689514	146.120000
535.783203	146.440000
535.876831	147.140000
535.970459	147.040000
536.064087	146.900000
536.157776	146.780000
536.251404	146.780000
536.345093	146.060000
536.438721	146.040000
536.532349	146.320000
536.626038	146.440000
536.719666	146.840000
536.813293	147.020000
536.906921	146.740000
537.000610	146.880000
537.094238	146.580000
537.187866	146.060000
537.281494	146.060000
537.375183	146.160000
537.468811	145.880000
537.562439	146.300000
537.656067	146.220000
537.749756	146.020000
537.843384	146.740000
537.937012	146.940000
538.030640	146.620000
538.124329	146.860000
538.217896	147.500000
538.311584	147.100000
538.405212	147.020000
538.498901	147.580000
538.592468	147.940000
538.686157	147.240000
538.779785	146.600000
538.873413	146.600000
538.967102	146.240000
539.060730	145.800000
539.154358	146.300000
539.247986	146.600000
539.341675	146.740000
539.435242	146.540000
539.528931	146.540000
539.622559	146.140000
539.716187	146.800000
539.809814	146.800000
539.903503	146.860000
539.997070	146.940000
540.090759	147.140000
540.184387	146.560000
540.278015	146.840000
540.371643	146.940000
540.465332	146.940000
540.558899	146.820000
540.652588	146.820000
540.746216	146.180000
540.839844	146.240000
540.933472	146.080000
541.027100	145.980000
541.120728	146.220000
541.214417	146.640000
541.308044	147.160000
541.401672	146.900000
541.495300	146.520000
541.588928	146.080000
541.682617	145.840000
541.776184	145.340000
541.869873	145.820000
541.963440	146.380000
542.057129	146.340000
542.150757	146.540000
542.244385	146.060000
542.338013	145.620000
542.431641	145.500000
542.525269	145.360000
542.618958	145.660000
542.712524	146.340000
542.806213	146.320000
542.899780	146.380000
542.993469	146.440000
543.087036	145.840000
543.180725	145.140000
543.274292	145.640000
543.367981	145.800000
543.461548	146.240000
543.555237	146.340000
543.648926	147.000000
543.742493	147.460000
543.836182	147.360000
543.929749	147.100000
544.023437	147.440000
544.117004	147.560000
544.210693	147.040000
544.304260	146.920000
544.397949	147.040000
544.491516	147.060000
544.585205	146.720000
544.678772	146.380000
544.772461	146.740000
544.866028	146.540000
544.959717	146.680000
545.053284	146.540000
545.146973	146.980000
545.240540	147.000000
545.334229	147.720000
545.427795	147.540000
545.521423	147.540000
545.615051	147.480000
545.708679	147.640000
545.802307	147.100000
545.895935	147.380000
545.989624	148.100000
546.083191	147.800000
546.176880	147.620000
546.270447	147.260000
546.364136	147.640000
546.457703	146.980000
546.551331	147.140000
546.644958	146.940000
546.738586	147.300000
546.832214	146.520000
546.925842	146.400000
547.019409	146.780000
547.113098	146.680000
547.206665	146.440000
547.300354	146.580000
547.393921	146.840000
547.487549	146.640000
547.581177	146.800000
547.674805	147.100000
547.768433	146.260000
547.862061	146.040000
547.955627	145.480000
548.049316	145.600000
548.142883	145.420000
548.236572	146.360000
548.330139	146.780000
548.423767	146.920000
548.517456	146.760000
548.611023	147.020000
548.704651	146.400000
548.798279	146.320000
548.891907	146.840000
548.985474	146.860000
549.079163	146.960000
549.172729	147.020000
549.266357	146.460000
549.359985	146.200000
549.453613	145.540000
549.547180	145.120000
549.640869	145.300000
549.734436	145.400000
549.828064	145.760000
549.921631	146.300000
550.015320	146.160000
550.108887	146.480000
550.202515	146.440000
550.296143	145.840000
550.389771	146.080000
550.483337	146.080000
550.576965	145.980000
550.670593	146.460000
550.764221	146.760000
550.857849	146.220000
550.951477	146.080000
551.045105	145.580000
551.138672	145.300000
551.232300	144.880000
551.325928	145.440000
551.419556	145.720000
551.513123	145.960000
551.606750	145.880000
551.700378	146.040000
551.794006	145.820000
551.887573	145.640000
551.981201	146.020000
552.074768	145.900000
552.168457	145.800000
552.262024	146.760000
552.355652	146.860000
552.449219	147.100000
552.542847	147.540000
552.636475	147.360000
552.730103	146.100000
552.823669	145.980000
552.917297	145.260000
553.010864	145.180000
553.104553	145.780000
553.198181	145.580000
553.291748	146.000000
553.385376	146.540000
553.478943	146.140000
553.572571	146.120000
553.666199	146.580000
553.759827	146.200000
553.853394	145.700000
553.947021	146.080000
554.040588	145.940000
554.134216	146.080000
554.227783	146.680000
554.321411	147.220000
554.415039	146.680000
554.508667	146.620000
554.602234	146.580000
554.695862	145.920000
554.789429	145.420000
554.883057	145.820000
554.976624	145.520000
555.070251	145.480000
555.163818	145.440000
555.257507	145.540000
555.351074	145.580000
555.444702	146.720000
555.538330	146.440000
555.631897	146.820000
555.725525	146.700000
555.819092	146.360000
555.912720	145.140000
556.006287	145.540000
556.099915	145.320000
556.193481	145.440000
556.287109	145.940000
556.380676	146.080000
556.474304	146.180000
556.567871	146.720000
556.661499	146.440000
556.755066	146.040000
556.848694	146.100000
556.942261	145.840000
557.035889	145.600000
557.129517	146.020000
557.223145	146.640000
557.316711	146.780000
557.410339	146.920000
557.503906	146.660000
557.597473	146.900000
557.691040	146.320000
557.784668	146.280000
557.878296	146.060000
557.971863	146.320000
558.065491	146.040000
558.159058	146.340000
558.252686	147.020000
558.346252	147.660000
558.439880	147.040000
558.533447	146.800000
558.627075	146.300000
558.720642	145.700000
558.814270	145.100000
558.907837	145.480000
559.001465	145.500000
559.095032	146.400000
559.188660	146.560000
559.282227	146.180000
559.375854	146.680000
559.469360	146.600000
559.562988	146.760000
559.656555	146.680000
559.750183	147.440000
559.843750	147.400000
559.937378	147.400000
560.030945	146.860000
560.124573	0.000000
560.218140	0.000000
560.311707	0.000000
560.405334	0.000000
560.498901	0.000000
560.592529	0.000000
560.686096	0.000000
560.779724	0.000000
560.873291	0.000000
560.966858	0.000000
561.060425	0.000000
561.154053	0.000000
561.247620	0.000000
561.341248	0.000000
561.434814	0.000000
561.528381	0.000000
561.621948	0.000000
561.715576	0.000000
561.809143	0.000000
561.902771	0.000000
561.996277	0.000000
562.089905	0.000000
562.183472	0.000000
562.277100	0.000000
