Model Number: SPM-002-B   
Serial Number: 70087108
Firmware Version: 004.15.4
Exposure Time: 100000.000000us
Data Taken on: 11-12-2020 19:37:02.946
Wavelength	Amplitude
221.570786	0.000000
221.663406	0.000000
221.756027	0.000000
221.848648	0.000000
221.941269	0.000000
222.033905	0.000000
222.126526	0.000000
222.219162	0.000000
222.311798	0.000000
222.404419	0.000000
222.497055	0.000000
222.589676	0.000000
222.682312	0.000000
222.774933	0.000000
222.867569	0.000000
222.960205	0.000000
223.052841	0.000000
223.145462	0.000000
223.238098	0.000000
223.330734	0.000000
223.423386	0.000000
223.516022	0.000000
223.608658	0.000000
223.701309	0.000000
223.793945	0.000000
223.886581	0.000000
223.979218	0.000000
224.071869	0.000000
224.164505	0.000000
224.257156	0.000000
224.349792	0.000000
224.442444	0.000000
224.535095	0.000000
224.627747	0.000000
224.720398	0.000000
224.813034	0.000000
224.905685	0.000000
224.998337	145.280000
225.090988	144.980000
225.183640	144.980000
225.276291	144.520000
225.368942	144.740000
225.461594	145.460000
225.554245	145.480000
225.646912	145.480000
225.739578	145.800000
225.832230	146.060000
225.924896	145.200000
226.017548	145.700000
226.110199	146.240000
226.202866	145.640000
226.295532	145.640000
226.388184	145.440000
226.480850	144.860000
226.573517	144.420000
226.666168	145.080000
226.758835	145.120000
226.851501	145.680000
226.944183	146.160000
227.036850	145.700000
227.129517	145.620000
227.222183	146.060000
227.314850	146.320000
227.407516	146.240000
227.500198	147.260000
227.592865	146.640000
227.685532	146.080000
227.778214	145.520000
227.870880	145.820000
227.963562	145.900000
228.056229	146.880000
228.148926	146.940000
228.241592	147.660000
228.334274	147.180000
228.426956	146.780000
228.519638	146.640000
228.612305	146.180000
228.704987	146.040000
228.797668	146.140000
228.890350	146.040000
228.983032	145.060000
229.075714	145.740000
229.168396	145.260000
229.261108	145.080000
229.353790	145.040000
229.446472	145.980000
229.539169	145.540000
229.631851	145.220000
229.724533	145.320000
229.817230	145.680000
229.909912	146.140000
230.002609	146.480000
230.095306	146.560000
230.187988	146.580000
230.280685	146.300000
230.373383	145.220000
230.466095	144.940000
230.558792	145.320000
230.651474	145.340000
230.744171	145.080000
230.836868	145.200000
230.929581	145.300000
231.022278	145.160000
231.114975	145.400000
231.207672	145.220000
231.300369	145.660000
231.393082	145.960000
231.485779	146.060000
231.578506	145.480000
231.671204	146.100000
231.763916	145.880000
231.856613	145.580000
231.949326	145.900000
232.042023	146.100000
232.134735	145.840000
232.227448	145.420000
232.320160	145.440000
232.412872	145.400000
232.505585	146.340000
232.598297	146.680000
232.691010	146.980000
232.783722	146.780000
232.876450	147.020000
232.969162	146.140000
233.061874	145.540000
233.154587	145.300000
233.247314	145.580000
233.340027	145.280000
233.432739	145.940000
233.525467	145.980000
233.618179	146.560000
233.710907	146.340000
233.803635	146.660000
233.896347	146.220000
233.989090	146.860000
234.081818	146.540000
234.174545	146.860000
234.267258	145.920000
234.359985	145.920000
234.452713	145.560000
234.545441	145.420000
234.638168	145.040000
234.730896	145.920000
234.823639	146.000000
234.916367	146.360000
235.009094	146.600000
235.101822	146.700000
235.194580	146.260000
235.287308	146.020000
235.380051	145.300000
235.472778	145.620000
235.565521	146.080000
235.658249	145.980000
235.750992	146.180000
235.843719	146.520000
235.936462	146.620000
236.029205	146.000000
236.121948	145.840000
236.214691	145.940000
236.307449	146.400000
236.400192	145.860000
236.492935	145.900000
236.585678	146.180000
236.678421	146.060000
236.771164	145.900000
236.863907	146.320000
236.956665	146.400000
237.049408	147.840000
237.142151	147.360000
237.234909	147.680000
237.327652	147.540000
237.420410	147.260000
237.513153	146.420000
237.605927	146.420000
237.698669	145.600000
237.791428	144.980000
237.884186	145.580000
237.976944	144.840000
238.069702	145.380000
238.162445	145.260000
238.255203	145.660000
238.347961	146.000000
238.440720	145.980000
238.533478	145.700000
238.626266	145.760000
238.719025	146.140000
238.811783	145.660000
238.904541	145.580000
238.997314	145.700000
239.090073	145.440000
239.182831	145.380000
239.275604	146.220000
239.368362	146.220000
239.461136	146.600000
239.553909	146.960000
239.646667	146.820000
239.739441	146.260000
239.832214	146.480000
239.925003	145.840000
240.017761	146.360000
240.110535	146.820000
240.203308	146.340000
240.296082	146.520000
240.388855	146.700000
240.481628	146.600000
240.574417	146.340000
240.667191	146.920000
240.759964	146.700000
240.852737	146.800000
240.945526	146.200000
241.038315	145.660000
241.131088	145.140000
241.223877	145.300000
241.316650	144.840000
241.409439	145.260000
241.502228	145.280000
241.595001	145.780000
241.687790	145.700000
241.780579	146.000000
241.873367	146.040000
241.966141	146.260000
242.058929	145.920000
242.151718	146.120000
242.244507	146.580000
242.337311	145.820000
242.430099	146.200000
242.522903	146.280000
242.615692	145.820000
242.708481	145.400000
242.801270	146.380000
242.894073	146.240000
242.986862	146.360000
243.079651	146.880000
243.172455	146.880000
243.265244	146.640000
243.358063	146.280000
243.450867	146.480000
243.543655	146.280000
243.636459	146.540000
243.729263	146.800000
243.822067	146.940000
243.914856	147.220000
244.007660	147.380000
244.100464	147.040000
244.193268	146.760000
244.286072	146.600000
244.378876	145.880000
244.471680	145.660000
244.564499	146.060000
244.657318	146.600000
244.750122	146.960000
244.842926	146.600000
244.935745	146.700000
245.028549	146.320000
245.121368	145.840000
245.214172	145.860000
245.306992	146.540000
245.399796	146.320000
245.492615	146.700000
245.585434	146.560000
245.678253	146.280000
245.771072	145.920000
245.863892	146.300000
245.956711	146.260000
246.049530	145.960000
246.142349	145.880000
246.235168	146.180000
246.327988	146.340000
246.420807	146.040000
246.513626	146.160000
246.606445	146.060000
246.699280	145.880000
246.792099	145.420000
246.884918	145.120000
246.977753	144.920000
247.070587	145.100000
247.163422	145.020000
247.256241	145.240000
247.349075	145.700000
247.441895	145.680000
247.534729	145.640000
247.627563	145.520000
247.720383	145.620000
247.813217	145.620000
247.906052	145.860000
247.998886	145.760000
248.091736	145.800000
248.184570	145.600000
248.277405	145.200000
248.370239	146.200000
248.463074	147.220000
248.555908	147.540000
248.648743	147.480000
248.741592	147.960000
248.834427	146.880000
248.927261	145.620000
249.020111	145.900000
249.112946	146.440000
249.205795	145.900000
249.298630	146.220000
249.391495	146.540000
249.484344	146.040000
249.577179	145.740000
249.670029	146.320000
249.762878	146.680000
249.855728	146.780000
249.948563	146.820000
250.041412	146.400000
250.134262	146.360000
250.227112	146.060000
250.319962	146.120000
250.412827	146.160000
250.505692	145.860000
250.598541	146.020000
250.691391	145.700000
250.784241	145.820000
250.877106	145.980000
250.969955	146.120000
251.062805	146.220000
251.155670	147.060000
251.248520	146.680000
251.341385	147.040000
251.434235	147.080000
251.527100	146.660000
251.619965	145.820000
251.712814	146.720000
251.805695	146.220000
251.898560	146.340000
251.991425	146.740000
252.084290	146.960000
252.177155	145.720000
252.270020	145.620000
252.362885	145.940000
252.455750	145.780000
252.548615	145.220000
252.641479	145.700000
252.734360	145.480000
252.827240	145.080000
252.920105	144.940000
253.012970	145.060000
253.105850	144.940000
253.198715	144.840000
253.291595	145.000000
253.384460	144.820000
253.477341	145.140000
253.570221	145.240000
253.663086	145.380000
253.755966	145.800000
253.848846	145.880000
253.941727	146.140000
254.034592	146.080000
254.127472	145.580000
254.220367	145.480000
254.313248	145.560000
254.406128	144.820000
254.499008	145.500000
254.591904	146.600000
254.684784	146.940000
254.777664	146.960000
254.870544	146.900000
254.963440	146.120000
255.056335	145.900000
255.149216	145.540000
255.242111	145.860000
255.334991	146.660000
255.427887	147.080000
255.520767	147.100000
255.613663	147.020000
255.706558	146.200000
255.799438	145.580000
255.892334	145.200000
255.985229	145.040000
256.078125	144.980000
256.171021	145.360000
256.263916	146.240000
256.356812	146.560000
256.449707	146.420000
256.542603	146.220000
256.635498	146.820000
256.728394	146.180000
256.821289	146.000000
256.914215	146.380000
257.007080	146.880000
257.100006	146.520000
257.192932	147.140000
257.285828	147.300000
257.378723	146.900000
257.471619	146.580000
257.564545	146.200000
257.657440	145.900000
257.750336	146.300000
257.843262	146.180000
257.936157	147.100000
258.029053	147.420000
258.121979	147.640000
258.214874	147.320000
258.307800	147.120000
258.400696	146.260000
258.493622	146.240000
258.586517	145.480000
258.679443	145.580000
258.772339	145.660000
258.865265	145.320000
258.958160	145.080000
259.051086	145.740000
259.144012	145.640000
259.236938	146.500000
259.329834	147.040000
259.422791	146.640000
259.515717	145.940000
259.608612	145.480000
259.701538	145.340000
259.794464	144.760000
259.887390	145.120000
259.980316	145.480000
260.073212	145.400000
260.166138	144.200000
260.259064	144.620000
260.351990	145.220000
260.444916	145.100000
260.537842	145.640000
260.630768	146.820000
260.723694	146.640000
260.816620	146.040000
260.909546	146.000000
261.002472	145.400000
261.095398	144.640000
261.188354	144.940000
261.281281	144.840000
261.374207	145.060000
261.467133	145.900000
261.560089	146.540000
261.653015	146.120000
261.745972	147.140000
261.838867	147.620000
261.931824	147.540000
262.024780	147.100000
262.117706	147.060000
262.210663	146.640000
262.303589	146.380000
262.396515	146.320000
262.489471	146.940000
262.582397	147.160000
262.675354	146.820000
262.768280	146.580000
262.861237	146.700000
262.954163	146.680000
263.047119	146.580000
263.140045	146.120000
263.233002	146.060000
263.325958	145.420000
263.418884	144.700000
263.511841	144.900000
263.604797	145.540000
263.697723	145.440000
263.790680	145.600000
263.883636	146.080000
263.976593	145.760000
264.069550	145.540000
264.162476	145.580000
264.255463	146.060000
264.348419	145.800000
264.441376	146.200000
264.534332	145.900000
264.627289	146.240000
264.720245	146.260000
264.813202	146.080000
264.906158	146.240000
264.999115	146.740000
265.092072	146.280000
265.185028	146.520000
265.277985	146.760000
265.370941	146.580000
265.463898	146.560000
265.556854	146.620000
265.649811	145.660000
265.742798	145.640000
265.835754	145.800000
265.928711	146.020000
266.021667	146.100000
266.114655	146.540000
266.207611	147.040000
266.300568	146.200000
266.393585	145.780000
266.486511	146.260000
266.579498	145.440000
266.672485	144.960000
266.765442	145.220000
266.858429	145.540000
266.951385	144.880000
267.044342	145.640000
267.137329	145.580000
267.230316	145.960000
267.323273	145.400000
267.416260	146.380000
267.509216	146.140000
267.602203	146.380000
267.695160	146.700000
267.788147	146.800000
267.881134	146.080000
267.974091	146.480000
268.067078	146.140000
268.160065	145.720000
268.253052	145.780000
268.346008	145.640000
268.438995	145.160000
268.531982	145.200000
268.624969	145.300000
268.717987	145.640000
268.810944	145.640000
268.903961	145.840000
268.996948	145.860000
269.089905	146.020000
269.182892	146.140000
269.275879	146.720000
269.368866	146.160000
269.461853	146.280000
269.554871	146.120000
269.647858	145.880000
269.740845	145.940000
269.833832	146.700000
269.926819	146.300000
270.019806	146.100000
270.112793	145.780000
270.205811	145.680000
270.298798	145.480000
270.391785	146.600000
270.484772	146.520000
270.577789	146.480000
270.670776	145.980000
270.763763	145.880000
270.856750	145.180000
270.949768	145.280000
271.042786	145.640000
271.135773	145.960000
271.228790	146.360000
271.321808	146.120000
271.414795	145.740000
271.507782	145.520000
271.600800	145.380000
271.693817	145.220000
271.786804	145.640000
271.879822	146.080000
271.972809	146.040000
272.065826	146.620000
272.158844	146.220000
272.251831	146.820000
272.344849	146.780000
272.437866	146.620000
272.530853	146.460000
272.623871	146.800000
272.716888	145.400000
272.809906	145.500000
272.902893	145.840000
272.995911	145.020000
273.088928	144.980000
273.181946	145.480000
273.274963	145.200000
273.367981	144.940000
273.460999	145.100000
273.554047	145.400000
273.647003	146.040000
273.740051	146.220000
273.833069	146.560000
273.926086	146.760000
274.019135	146.620000
274.112152	146.560000
274.205170	146.320000
274.298187	146.340000
274.391205	146.040000
274.484222	146.000000
274.577240	145.800000
274.670258	145.800000
274.763306	145.460000
274.856323	145.920000
274.949341	146.000000
275.042358	146.000000
275.135406	146.020000
275.228424	146.320000
275.321442	146.200000
275.414490	145.740000
275.507507	145.940000
275.600525	146.560000
275.693573	146.400000
275.786591	145.960000
275.879669	146.280000
275.972656	146.020000
276.065735	145.400000
276.158752	145.780000
276.251801	146.900000
276.344818	146.700000
276.437866	146.760000
276.530884	146.940000
276.623932	146.040000
276.716980	145.780000
276.809998	146.260000
276.903046	146.340000
276.996094	147.180000
277.089111	148.200000
277.182159	148.420000
277.275208	148.160000
277.368256	148.000000
277.461304	147.400000
277.554321	146.520000
277.647369	146.160000
277.740417	145.820000
277.833466	145.400000
277.926514	145.400000
278.019562	146.140000
278.112610	145.440000
278.205688	145.740000
278.298706	145.960000
278.391785	145.520000
278.484833	144.780000
278.577881	144.800000
278.670929	144.780000
278.763977	144.840000
278.857025	145.380000
278.950073	145.660000
279.043121	146.120000
279.136169	146.260000
279.229248	145.960000
279.322296	145.800000
279.415344	145.920000
279.508392	145.340000
279.601440	145.060000
279.694519	145.140000
279.787567	144.740000
279.880615	144.620000
279.973694	144.940000
280.066742	144.980000
280.159790	145.240000
280.252869	145.400000
280.345917	145.540000
280.438995	145.560000
280.532074	145.620000
280.625122	145.920000
280.718201	146.480000
280.811279	146.520000
280.904327	146.480000
280.997406	146.580000
281.090454	146.420000
281.183533	145.760000
281.276581	145.800000
281.369659	145.700000
281.462738	145.640000
281.555786	145.560000
281.648865	146.000000
281.741943	145.580000
281.835022	146.340000
281.928070	146.440000
282.021149	146.180000
282.114227	146.060000
282.207306	146.320000
282.300385	146.180000
282.393433	146.280000
282.486511	146.360000
282.579590	146.600000
282.672668	146.960000
282.765747	146.300000
282.858856	145.800000
282.951904	146.420000
283.045013	146.400000
283.138062	146.640000
283.231171	147.200000
283.324249	147.660000
283.417328	147.120000
283.510406	146.820000
283.603485	146.340000
283.696564	146.060000
283.789642	146.060000
283.882751	145.840000
283.975830	146.260000
284.068909	146.120000
284.161987	146.620000
284.255066	146.260000
284.348175	146.500000
284.441254	146.160000
284.534332	146.560000
284.627441	146.120000
284.720520	145.940000
284.813599	146.120000
284.906708	146.200000
284.999786	145.560000
285.092896	144.900000
285.185974	146.260000
285.279053	146.000000
285.372192	145.920000
285.465240	146.560000
285.558380	147.040000
285.651459	146.260000
285.744568	146.760000
285.837677	146.360000
285.930756	146.280000
286.023865	146.600000
286.116943	146.280000
286.210052	146.340000
286.303162	146.500000
286.396240	146.480000
286.489349	146.160000
286.582458	146.640000
286.675568	146.080000
286.768646	145.960000
286.861755	146.240000
286.954865	147.080000
287.047974	146.120000
287.141083	146.140000
287.234161	146.380000
287.327271	146.000000
287.420380	146.000000
287.513519	146.280000
287.606598	146.340000
287.699738	146.660000
287.792816	146.480000
287.885956	145.980000
287.979034	146.300000
288.072174	146.500000
288.165283	146.100000
288.258392	146.460000
288.351501	145.820000
288.444611	145.980000
288.537720	146.280000
288.630859	146.400000
288.723969	146.440000
288.817078	147.040000
288.910187	146.860000
289.003296	146.440000
289.096436	146.160000
289.189545	145.980000
289.282654	145.500000
289.375763	145.900000
289.468903	145.960000
289.562012	146.340000
289.655121	146.480000
289.748260	147.040000
289.841400	147.200000
289.934509	147.300000
290.027649	147.280000
290.120728	146.880000
290.213898	146.640000
290.306976	146.140000
290.400146	146.100000
290.493256	145.660000
290.586395	145.820000
290.679535	146.180000
290.772644	146.120000
290.865784	145.440000
290.958893	145.660000
291.052032	145.580000
291.145172	145.320000
291.238281	145.140000
291.331421	145.540000
291.424561	145.940000
291.517670	145.680000
291.610809	145.820000
291.703949	145.860000
291.797089	146.080000
291.890228	145.600000
291.983337	145.660000
292.076477	145.320000
292.169617	145.760000
292.262756	145.780000
292.355927	146.120000
292.449036	145.820000
292.542206	146.040000
292.635315	146.140000
292.728485	146.280000
292.821625	145.880000
292.914764	147.400000
293.007904	147.380000
293.101044	146.920000
293.194183	146.680000
293.287323	146.800000
293.380463	145.620000
293.473602	145.620000
293.566742	145.900000
293.659882	146.480000
293.753021	146.820000
293.846191	147.100000
293.939331	146.740000
294.032471	146.560000
294.125610	145.960000
294.218781	146.240000
294.311920	146.300000
294.405060	146.760000
294.498230	146.640000
294.591370	146.700000
294.684540	145.860000
294.777679	145.620000
294.870850	145.760000
294.963959	145.760000
295.057159	145.680000
295.150299	145.860000
295.243469	145.880000
295.336609	145.200000
295.429779	145.280000
295.522919	145.480000
295.616089	145.520000
295.709229	146.080000
295.802399	146.360000
295.895569	145.920000
295.988708	145.760000
296.081879	145.900000
296.175018	145.080000
296.268188	144.780000
296.361359	145.680000
296.454529	145.740000
296.547668	145.540000
296.640839	146.020000
296.734009	145.780000
296.827179	145.560000
296.920319	145.680000
297.013519	145.780000
297.106659	145.800000
297.199860	146.120000
297.292999	145.800000
297.386200	145.620000
297.479309	145.460000
297.572510	145.320000
297.665680	145.280000
297.758850	145.680000
297.852020	145.660000
297.945190	145.400000
298.038361	145.120000
298.131531	145.740000
298.224701	145.300000
298.317871	145.180000
298.411072	145.200000
298.504242	145.500000
298.597412	145.080000
298.690582	145.420000
298.783752	145.580000
298.876923	146.200000
298.970093	146.080000
299.063293	146.420000
299.156464	146.800000
299.249634	146.640000
299.342834	146.580000
299.436005	146.900000
299.529205	146.520000
299.622345	146.120000
299.715576	145.900000
299.808716	145.540000
299.901917	145.560000
299.995117	145.960000
300.088287	146.120000
300.181488	145.720000
300.274658	145.940000
300.367828	145.780000
300.461029	145.460000
300.554199	145.700000
300.647400	146.320000
300.740601	146.820000
300.833771	146.600000
300.926971	146.880000
301.020142	146.040000
301.113342	146.180000
301.206512	145.760000
301.299713	146.120000
301.392914	146.220000
301.486084	146.960000
301.579285	146.740000
301.672516	147.320000
301.765686	147.420000
301.858887	147.120000
301.952057	146.720000
302.045288	146.880000
302.138458	146.280000
302.231659	145.820000
302.324860	145.980000
302.418060	145.820000
302.511261	145.680000
302.604462	145.880000
302.697662	145.700000
302.790863	145.500000
302.884064	145.320000
302.977264	145.580000
303.070465	145.660000
303.163666	146.680000
303.256866	147.120000
303.350067	147.340000
303.443268	147.040000
303.536469	146.900000
303.629669	146.020000
303.722870	145.820000
303.816071	145.480000
303.909271	145.620000
304.002472	145.080000
304.095673	145.040000
304.188934	144.260000
304.282104	145.360000
304.375336	145.140000
304.468506	145.540000
304.561768	145.180000
304.654968	145.920000
304.748169	145.140000
304.841370	145.120000
304.934601	145.140000
305.027802	145.420000
305.121002	145.040000
305.214233	145.220000
305.307434	145.340000
305.400665	146.000000
305.493866	145.740000
305.587097	146.200000
305.680298	146.020000
305.773499	146.400000
305.866730	146.100000
305.959930	147.020000
306.053162	147.180000
306.146393	147.020000
306.239594	146.280000
306.332825	145.860000
306.426025	145.820000
306.519287	145.320000
306.612488	145.480000
306.705719	146.080000
306.798920	146.060000
306.892181	145.220000
306.985352	144.900000
307.078613	144.120000
307.171844	144.040000
307.265045	143.940000
307.358276	143.780000
307.451508	144.220000
307.544739	145.280000
307.637970	144.960000
307.731201	144.800000
307.824402	146.000000
307.917633	146.360000
308.010864	146.660000
308.104095	147.320000
308.197327	147.580000
308.290558	147.420000
308.383789	146.880000
308.477020	146.520000
308.570251	145.720000
308.663483	145.660000
308.756714	145.120000
308.849976	145.440000
308.943176	145.900000
309.036438	146.060000
309.129639	145.820000
309.222900	146.100000
309.316101	145.820000
309.409393	144.960000
309.502625	144.540000
309.595856	144.660000
309.689087	144.640000
309.782318	144.740000
309.875580	145.180000
309.968811	145.460000
310.062042	145.340000
310.155273	145.260000
310.248535	145.420000
310.341766	145.060000
310.434998	145.100000
310.528259	145.100000
310.621490	145.500000
310.714722	144.860000
310.807983	144.980000
310.901215	145.060000
310.994476	145.540000
311.087708	144.800000
311.181000	145.580000
311.274200	145.200000
311.367462	145.140000
311.460693	144.580000
311.553986	145.600000
311.647186	145.380000
311.740479	146.340000
311.833710	146.240000
311.926971	146.280000
312.020203	145.200000
312.113464	145.240000
312.206726	144.180000
312.299957	144.660000
312.393219	145.060000
312.486481	145.500000
312.579712	145.460000
312.672974	145.980000
312.766235	145.860000
312.859497	145.920000
312.952759	145.680000
313.045990	146.520000
313.139252	145.820000
313.232513	146.080000
313.325775	145.960000
313.419037	145.940000
313.512299	144.580000
313.605530	145.480000
313.698822	145.220000
313.792053	145.200000
313.885345	144.920000
313.978577	145.460000
314.071869	144.980000
314.165131	145.340000
314.258392	145.720000
314.351654	146.340000
314.444916	145.500000
314.538177	146.100000
314.631439	145.800000
314.724701	145.500000
314.817993	145.280000
314.911255	145.980000
315.004517	145.440000
315.097778	145.800000
315.191040	146.240000
315.284302	146.260000
315.377594	146.060000
315.470856	145.900000
315.564117	145.160000
315.657379	144.540000
315.750671	144.480000
315.843933	144.980000
315.937195	145.140000
316.030518	145.100000
316.123749	145.340000
316.217041	146.020000
316.310303	145.840000
316.403595	145.860000
316.496857	146.140000
316.590149	145.980000
316.683411	144.800000
316.776703	144.840000
316.869965	144.980000
316.963257	144.740000
317.056519	144.420000
317.149811	144.820000
317.243073	144.660000
317.336365	144.800000
317.429626	145.140000
317.522919	145.640000
317.616180	145.480000
317.709473	145.300000
317.802765	145.240000
317.896027	145.340000
317.989319	145.460000
318.082611	145.480000
318.175873	145.580000
318.269165	145.560000
318.362488	145.320000
318.455750	144.960000
318.549042	145.600000
318.642303	146.060000
318.735626	145.540000
318.828888	145.780000
318.922211	145.520000
319.015472	145.820000
319.108765	145.000000
319.202057	144.960000
319.295349	144.820000
319.388641	145.120000
319.481934	144.800000
319.575226	145.020000
319.668518	145.580000
319.761810	145.780000
319.855103	145.820000
319.948395	145.620000
320.041687	146.000000
320.134979	145.940000
320.228271	145.680000
320.321564	145.360000
320.414856	145.240000
320.508148	144.800000
320.601440	144.640000
320.694763	144.720000
320.788025	145.520000
320.881348	145.480000
320.974640	145.460000
321.067963	145.160000
321.161224	145.040000
321.254547	144.480000
321.347839	145.060000
321.441162	144.860000
321.534454	145.280000
321.627747	145.280000
321.721069	145.820000
321.814362	145.780000
321.907654	146.080000
322.000946	145.700000
322.094269	146.500000
322.187561	145.880000
322.280884	145.700000
322.374176	146.140000
322.467468	147.040000
322.560791	146.640000
322.654083	147.580000
322.747406	147.720000
322.840698	147.640000
322.934021	147.700000
323.027344	147.780000
323.120636	147.000000
323.213959	146.940000
323.307251	146.700000
323.400574	146.040000
323.493866	145.820000
323.587219	145.740000
323.680511	146.000000
323.773834	146.300000
323.867157	146.500000
323.960449	146.260000
324.053772	146.360000
324.147095	146.180000
324.240387	146.660000
324.333710	146.660000
324.427032	147.040000
324.520355	147.120000
324.613647	146.820000
324.706970	146.040000
324.800293	145.840000
324.893616	145.940000
324.986938	146.140000
325.080231	145.840000
325.173553	146.500000
325.266876	147.300000
325.360199	147.040000
325.453522	146.680000
325.546875	146.600000
325.640167	146.340000
325.733521	146.180000
325.826813	146.480000
325.920166	146.240000
326.013489	146.320000
326.106812	145.420000
326.200134	144.860000
326.293457	144.140000
326.386780	144.400000
326.480103	144.260000
326.573425	144.760000
326.666748	144.740000
326.760071	145.360000
326.853424	145.440000
326.946747	145.740000
327.040070	146.160000
327.133392	145.920000
327.226715	145.120000
327.320068	144.700000
327.413391	145.220000
327.506714	144.560000
327.600037	144.780000
327.693390	145.520000
327.786713	145.680000
327.880066	145.280000
327.973358	146.080000
328.066742	146.260000
328.160034	145.960000
328.253418	146.360000
328.346710	146.160000
328.440063	145.260000
328.533417	145.100000
328.626740	145.680000
328.720093	145.540000
328.813416	145.520000
328.906769	145.660000
329.000092	146.080000
329.093445	145.660000
329.186768	145.300000
329.280121	145.720000
329.373444	146.160000
329.466797	145.920000
329.560120	145.840000
329.653473	146.280000
329.746796	146.080000
329.840149	145.720000
329.933502	145.680000
330.026825	145.620000
330.120178	145.360000
330.213562	145.440000
330.306854	145.500000
330.400238	145.460000
330.493561	145.120000
330.586945	146.020000
330.680237	145.900000
330.773621	146.300000
330.866974	146.440000
330.960327	146.880000
331.053680	146.200000
331.147003	146.280000
331.240356	145.980000
331.333710	145.820000
331.427063	145.520000
331.520416	145.420000
331.613770	145.220000
331.707123	145.560000
331.800476	145.840000
331.893829	147.060000
331.987152	147.180000
332.080505	147.140000
332.173859	146.900000
332.267212	146.240000
332.360565	145.120000
332.453918	144.820000
332.547333	144.700000
332.640656	144.580000
332.734039	144.980000
332.827362	145.240000
332.920746	145.620000
333.014069	146.180000
333.107452	146.820000
333.200806	147.120000
333.294159	147.220000
333.387543	146.580000
333.480896	146.060000
333.574249	145.760000
333.667603	145.480000
333.760956	145.400000
333.854340	145.820000
333.947693	146.060000
334.041046	145.760000
334.134430	145.980000
334.227783	145.620000
334.321136	145.280000
334.414520	145.060000
334.507874	145.360000
334.601227	145.440000
334.694611	145.860000
334.787964	146.540000
334.881348	146.780000
334.974701	146.480000
335.068085	145.980000
335.161438	146.100000
335.254822	145.540000
335.348175	145.520000
335.441559	145.280000
335.534943	146.200000
335.628296	145.780000
335.721680	145.980000
335.815033	146.160000
335.908417	146.660000
336.001770	145.960000
336.095154	146.140000
336.188538	145.740000
336.281891	144.900000
336.375275	144.140000
336.468658	144.160000
336.562012	144.060000
336.655396	144.860000
336.748779	145.840000
336.842133	146.120000
336.935516	146.320000
337.028900	145.980000
337.122284	145.540000
337.215637	145.660000
337.309021	145.880000
337.402435	145.300000
337.495789	145.620000
337.589203	145.560000
337.682526	145.300000
337.775940	145.360000
337.869324	145.700000
337.962708	145.320000
338.056091	145.740000
338.149475	145.100000
338.242859	145.080000
338.336243	144.940000
338.429626	145.440000
338.523010	145.060000
338.616394	145.380000
338.709778	145.580000
338.803162	145.820000
338.896545	145.980000
338.989929	145.600000
339.083313	146.020000
339.176697	145.620000
339.270081	145.500000
339.363464	145.420000
339.456848	146.020000
339.550232	145.360000
339.643616	145.240000
339.737030	145.020000
339.830383	144.700000
339.923828	144.760000
340.017181	144.780000
340.110596	145.120000
340.203949	145.260000
340.297363	145.260000
340.390778	145.220000
340.484161	145.200000
340.577545	145.160000
340.670959	145.420000
340.764343	145.400000
340.857727	145.460000
340.951111	145.320000
341.044525	145.540000
341.137909	145.080000
341.231293	145.060000
341.324707	144.560000
341.418091	145.380000
341.511505	145.300000
341.604889	145.800000
341.698303	146.260000
341.791687	146.460000
341.885071	145.780000
341.978485	145.440000
342.071899	145.420000
342.165283	145.380000
342.258698	145.580000
342.352081	146.140000
342.445496	146.700000
342.538879	146.600000
342.632324	146.180000
342.725708	145.940000
342.819122	145.520000
342.912506	145.120000
343.005920	144.820000
343.099335	145.760000
343.192719	145.760000
343.286133	145.760000
343.379547	145.880000
343.472931	145.900000
343.566345	144.940000
343.659760	145.300000
343.753143	144.960000
343.846558	144.720000
343.939972	144.840000
344.033386	145.680000
344.126770	145.360000
344.220184	146.080000
344.313599	146.680000
344.407043	146.780000
344.500427	145.920000
344.593872	146.580000
344.687225	145.960000
344.780670	145.380000
344.874054	145.280000
344.967499	145.800000
345.060913	145.780000
345.154327	145.960000
345.247742	146.020000
345.341156	145.820000
345.434570	145.420000
345.527985	145.080000
345.621399	145.260000
345.714813	145.400000
345.808228	145.700000
345.901642	145.600000
345.995056	145.260000
346.088470	145.400000
346.181885	145.240000
346.275299	144.800000
346.368713	144.780000
346.462128	144.760000
346.555573	144.400000
346.648987	144.620000
346.742401	144.760000
346.835815	145.420000
346.929260	145.100000
347.022644	145.340000
347.116119	145.360000
347.209503	146.000000
347.302948	146.300000
347.396362	147.280000
347.489807	147.460000
347.583221	147.860000
347.676636	147.320000
347.770050	146.300000
347.863495	145.760000
347.956909	145.300000
348.050323	144.480000
348.143768	144.420000
348.237183	144.460000
348.330597	144.520000
348.424042	145.180000
348.517456	145.860000
348.610901	145.960000
348.704315	145.900000
348.797760	145.480000
348.891174	144.620000
348.984619	144.020000
349.078033	144.440000
349.171448	145.040000
349.264923	145.060000
349.358337	145.260000
349.451782	145.260000
349.545197	144.660000
349.638641	143.640000
349.732086	143.520000
349.825500	144.080000
349.918945	143.820000
350.012390	144.160000
350.105804	145.220000
350.199249	145.420000
350.292664	145.760000
350.386108	146.340000
350.479553	146.900000
350.572968	146.460000
350.666412	146.700000
350.759857	146.100000
350.853302	146.100000
350.946716	145.620000
351.040161	145.940000
351.133606	145.760000
351.227081	145.580000
351.320465	146.480000
351.413940	146.400000
351.507355	146.400000
351.600830	146.840000
351.694244	146.500000
351.787720	145.840000
351.881104	145.800000
351.974579	145.460000
352.067993	145.900000
352.161469	146.160000
352.254883	145.580000
352.348358	145.300000
352.441803	145.420000
352.535248	144.960000
352.628693	145.620000
352.722137	145.660000
352.815582	146.120000
352.909027	146.080000
353.002472	145.900000
353.095917	145.480000
353.189362	145.780000
353.282806	145.520000
353.376251	145.440000
353.469696	145.120000
353.563141	145.680000
353.656586	145.400000
353.750061	145.220000
353.843475	145.240000
353.936981	145.800000
354.030396	145.160000
354.123871	145.440000
354.217285	146.060000
354.310760	146.460000
354.404175	146.380000
354.497681	146.080000
354.591095	145.900000
354.684570	145.140000
354.777985	144.540000
354.871490	144.200000
354.964935	144.700000
355.058380	144.800000
355.151855	144.920000
355.245300	145.580000
355.338745	146.160000
355.432220	146.180000
355.525665	145.900000
355.619110	146.400000
355.712585	146.140000
355.806030	145.540000
355.899475	145.020000
355.992950	145.340000
356.086426	145.500000
356.179871	145.520000
356.273346	145.700000
356.366791	146.120000
356.460266	146.280000
356.553711	145.900000
356.647186	145.800000
356.740631	145.740000
356.834106	145.480000
356.927551	145.420000
357.021027	145.400000
357.114471	145.780000
357.207947	145.860000
357.301422	146.200000
357.394867	146.220000
357.488342	146.380000
357.581818	145.760000
357.675262	145.900000
357.768738	145.600000
357.862213	145.120000
357.955658	145.000000
358.049133	145.360000
358.142609	145.660000
358.236053	145.520000
358.329529	145.840000
358.423035	146.120000
358.516449	145.860000
358.609955	146.160000
358.703400	146.900000
358.796906	147.220000
358.890350	146.720000
358.983826	147.340000
359.077271	146.460000
359.170776	145.900000
359.264221	145.440000
359.357727	145.900000
359.451172	145.820000
359.544647	145.840000
359.638123	146.140000
359.731598	146.680000
359.825073	146.700000
359.918549	146.500000
360.012024	146.540000
360.105499	145.720000
360.198975	145.600000
360.292450	145.480000
360.385925	145.260000
360.479401	145.120000
360.572876	145.700000
360.666351	145.880000
360.759857	145.980000
360.853302	146.180000
360.946808	146.000000
361.040253	146.220000
361.133759	145.360000
361.227203	145.300000
361.320709	144.740000
361.414154	145.120000
361.507660	145.160000
361.601105	146.040000
361.694641	146.360000
361.788086	146.600000
361.881592	146.900000
361.975067	146.460000
362.068542	146.400000
362.162018	146.120000
362.255524	145.540000
362.348999	145.540000
362.442474	146.040000
362.535950	145.540000
362.629456	145.380000
362.722931	145.940000
362.816406	145.940000
362.909882	146.080000
363.003387	145.840000
363.096863	146.160000
363.190338	146.280000
363.283875	146.220000
363.377319	145.880000
363.470825	146.660000
363.564301	146.180000
363.657806	146.120000
363.751282	145.640000
363.844788	146.580000
363.938232	145.800000
364.031769	146.360000
364.125214	147.020000
364.218750	147.540000
364.312225	146.040000
364.405731	146.420000
364.499207	145.800000
364.592712	145.140000
364.686188	145.120000
364.779694	145.800000
364.873169	146.020000
364.966675	146.100000
365.060150	145.760000
365.153656	146.000000
365.247131	145.880000
365.340637	145.860000
365.434143	146.340000
365.527618	146.900000
365.621155	145.940000
365.714600	145.740000
365.808136	145.440000
365.901611	144.540000
365.995117	144.160000
366.088593	144.440000
366.182129	144.640000
366.275604	144.960000
366.369110	145.400000
366.462585	145.420000
366.556122	146.200000
366.649567	146.240000
366.743103	146.220000
366.836609	145.800000
366.930115	146.480000
367.023590	146.120000
367.117096	145.920000
367.210602	145.800000
367.304108	146.740000
367.397614	146.640000
367.491119	146.820000
367.584595	146.940000
367.678101	147.280000
367.771606	146.720000
367.865112	146.240000
367.958649	145.480000
368.052124	145.420000
368.145660	145.020000
368.239136	145.620000
368.332672	146.140000
368.426147	146.580000
368.519684	146.340000
368.613159	146.800000
368.706696	146.220000
368.800171	145.700000
368.893707	145.860000
368.987183	146.020000
369.080719	145.760000
369.174225	145.620000
369.267731	145.660000
369.361237	145.260000
369.454742	145.220000
369.548248	145.480000
369.641754	145.340000
369.735260	145.420000
369.828766	144.860000
369.922272	145.600000
370.015808	145.440000
370.109314	145.460000
370.202820	144.960000
370.296356	146.000000
370.389832	145.220000
370.483368	144.640000
370.576874	144.700000
370.670410	145.200000
370.763885	144.460000
370.857422	144.640000
370.950928	144.720000
371.044464	145.300000
371.137939	145.300000
371.231476	145.800000
371.324982	146.240000
371.418518	146.380000
371.512024	146.200000
371.605560	145.940000
371.699066	146.260000
371.792572	145.480000
371.886108	145.980000
371.979614	145.880000
372.073120	146.380000
372.166656	146.020000
372.260162	146.480000
372.353668	145.880000
372.447205	145.500000
372.540710	145.400000
372.634277	145.040000
372.727753	145.120000
372.821320	145.240000
372.914795	145.660000
373.008362	145.440000
373.101837	145.980000
373.195404	145.620000
373.288879	145.420000
373.382446	145.960000
373.475922	146.080000
373.569489	146.240000
373.662964	146.620000
373.756531	146.700000
373.850037	146.320000
373.943573	146.040000
374.037109	145.240000
374.130615	145.400000
374.224152	145.740000
374.317657	145.320000
374.411194	146.280000
374.504730	146.180000
374.598236	145.720000
374.691772	145.560000
374.785309	145.640000
374.878815	144.860000
374.972351	145.260000
375.065887	145.500000
375.159454	146.060000
375.252930	146.180000
375.346497	146.500000
375.440002	147.220000
375.533569	147.120000
375.627045	146.160000
375.720612	145.940000
375.814117	145.900000
375.907684	145.280000
376.001160	144.800000
376.094727	144.720000
376.188232	145.480000
376.281799	145.320000
376.375336	145.320000
376.468872	146.400000
376.562408	146.700000
376.655914	146.340000
376.749451	146.500000
376.842987	146.420000
376.936523	145.540000
377.030060	145.600000
377.123596	145.720000
377.217133	145.260000
377.310669	145.420000
377.404205	146.020000
377.497772	146.520000
377.591278	145.960000
377.684845	146.680000
377.778351	147.060000
377.871918	147.020000
377.965424	146.220000
378.058990	146.220000
378.152496	145.880000
378.246063	145.680000
378.339569	145.700000
378.433136	145.940000
378.526642	146.440000
378.620209	146.180000
378.713745	145.920000
378.807312	146.100000
378.900848	146.080000
378.994385	145.940000
379.087921	145.660000
379.181458	145.840000
379.274994	145.320000
379.368530	145.220000
379.462097	145.680000
379.555634	146.300000
379.649170	145.840000
379.742706	145.540000
379.836273	145.740000
379.929810	144.820000
380.023376	144.160000
380.116882	144.300000
380.210449	144.480000
380.303986	144.000000
380.397552	143.920000
380.491058	144.480000
380.584656	144.400000
380.678162	144.780000
380.771729	145.280000
380.865265	146.200000
380.958832	146.300000
381.052368	146.380000
381.145935	146.400000
381.239471	146.640000
381.333008	146.540000
381.426575	146.420000
381.520111	147.000000
381.613647	147.120000
381.707214	146.780000
381.800751	146.160000
381.894318	146.140000
381.987854	145.540000
382.081421	145.480000
382.174988	145.560000
382.268524	145.620000
382.362091	145.500000
382.455627	146.200000
382.549194	145.700000
382.642731	145.040000
382.736298	144.940000
382.829834	144.900000
382.923401	145.280000
383.016937	145.740000
383.110504	146.340000
383.204041	146.520000
383.297607	147.040000
383.391174	145.780000
383.484741	146.340000
383.578278	146.020000
383.671844	145.740000
383.765411	144.740000
383.858948	145.180000
383.952515	144.540000
384.046051	145.120000
384.139618	145.740000
384.233185	146.340000
384.326721	146.360000
384.420288	146.880000
384.513855	146.500000
384.607422	146.780000
384.700989	146.840000
384.794525	146.640000
384.888123	146.320000
384.981659	146.680000
385.075226	145.840000
385.168762	145.760000
385.262360	145.840000
385.355896	145.120000
385.449463	144.700000
385.542999	144.760000
385.636597	145.200000
385.730164	145.560000
385.823730	145.480000
385.917267	145.460000
386.010834	145.660000
386.104401	145.500000
386.197968	145.700000
386.291534	146.300000
386.385101	146.780000
386.478668	146.940000
386.572235	146.920000
386.665802	146.200000
386.759338	145.780000
386.852905	145.380000
386.946472	145.180000
387.040070	145.340000
387.133606	145.340000
387.227203	145.340000
387.320740	145.240000
387.414337	145.060000
387.507874	144.520000
387.601471	144.760000
387.695007	144.720000
387.788605	144.560000
387.882141	144.760000
387.975739	144.960000
388.069275	144.660000
388.162872	144.900000
388.256439	145.040000
388.350037	144.780000
388.443604	144.780000
388.537170	145.020000
388.630737	145.720000
388.724304	146.040000
388.817871	146.080000
388.911438	145.980000
389.005005	146.100000
389.098602	145.980000
389.192169	145.640000
389.285736	145.940000
389.379333	146.100000
389.472870	145.880000
389.566467	145.700000
389.660034	145.720000
389.753632	145.180000
389.847168	145.420000
389.940765	145.800000
390.034332	146.000000
390.127930	145.500000
390.221466	145.960000
390.315063	145.280000
390.408630	144.280000
390.502228	143.220000
390.595795	143.920000
390.689362	143.980000
390.782959	144.300000
390.876526	145.320000
390.970093	145.700000
391.063690	146.160000
391.157257	146.060000
391.250824	146.500000
391.344421	146.300000
391.437988	146.520000
391.531555	146.340000
391.625153	146.520000
391.718750	146.320000
391.812317	145.760000
391.905914	145.560000
391.999481	145.480000
392.093079	145.380000
392.186615	145.680000
392.280243	146.200000
392.373779	146.140000
392.467407	146.920000
392.560944	146.860000
392.654572	146.140000
392.748108	145.960000
392.841736	146.220000
392.935303	145.320000
393.028900	145.420000
393.122467	145.440000
393.216064	145.200000
393.309631	144.600000
393.403229	144.400000
393.496796	144.380000
393.590393	144.240000
393.683990	144.740000
393.777557	145.620000
393.871155	145.880000
393.964722	146.160000
394.058350	146.260000
394.151917	146.040000
394.245514	145.340000
394.339081	145.340000
394.432678	145.500000
394.526245	145.640000
394.619873	145.040000
394.713409	145.660000
394.807037	145.520000
394.900604	145.340000
394.994202	145.360000
395.087769	146.040000
395.181396	145.400000
395.274994	146.100000
395.368561	145.440000
395.462158	145.560000
395.555756	145.160000
395.649353	145.620000
395.742920	144.920000
395.836517	145.500000
395.930115	144.740000
396.023712	145.140000
396.117279	145.220000
396.210876	145.080000
396.304474	144.820000
396.398071	145.400000
396.491669	145.460000
396.585266	145.160000
396.678833	145.120000
396.772461	145.420000
396.866028	145.560000
396.959656	145.880000
397.053223	146.500000
397.146851	146.680000
397.240417	147.340000
397.334015	148.760000
397.427582	149.580000
397.521210	150.900000
397.614807	153.460000
397.708405	155.640000
397.802002	158.680000
397.895599	163.160000
397.989197	167.860000
398.082794	173.560000
398.176392	181.400000
398.269989	189.820000
398.363586	200.660000
398.457184	214.860000
398.550781	231.100000
398.644379	247.720000
398.737976	267.320000
398.831573	287.060000
398.925201	306.900000
399.018768	326.580000
399.112396	346.680000
399.205963	365.420000
399.299591	383.920000
399.393158	401.620000
399.486786	419.640000
399.580353	436.180000
399.673981	451.160000
399.767578	466.240000
399.861206	478.940000
399.954773	488.620000
400.048401	493.520000
400.141998	495.580000
400.235596	492.520000
400.329193	485.200000
400.422791	474.460000
400.516418	463.040000
400.610016	449.760000
400.703613	434.700000
400.797211	415.580000
400.890808	395.040000
400.984436	373.200000
401.078033	348.820000
401.171631	323.720000
401.265259	301.540000
401.358826	281.060000
401.452484	261.140000
401.546051	243.980000
401.639679	227.560000
401.733246	213.500000
401.826904	199.720000
401.920471	187.980000
402.014099	178.380000
402.107697	171.080000
402.201324	165.020000
402.294891	160.520000
402.388550	157.500000
402.482147	154.840000
402.575745	152.540000
402.669373	150.400000
402.762970	148.860000
402.856567	148.020000
402.950195	147.400000
403.043793	146.900000
403.137390	147.520000
403.231018	147.020000
403.324615	147.260000
403.418243	146.860000
403.511841	147.120000
403.605469	146.660000
403.699066	147.240000
403.792694	147.140000
403.886292	147.040000
403.979919	146.780000
404.073517	146.560000
404.167145	146.240000
404.260712	146.140000
404.354370	146.020000
404.447937	146.360000
404.541595	146.540000
404.635162	146.900000
404.728821	147.060000
404.822418	146.840000
404.916046	146.400000
405.009644	146.400000
405.103271	146.400000
405.196899	145.800000
405.290497	145.920000
405.384125	146.560000
405.477722	146.000000
405.571350	145.580000
405.664948	146.020000
405.758575	146.140000
405.852203	145.380000
405.945801	145.480000
406.039429	145.560000
406.133057	145.020000
406.226654	144.760000
406.320312	144.840000
406.413879	145.000000
406.507538	145.360000
406.601135	145.340000
406.694763	145.820000
406.788361	145.660000
406.882019	145.440000
406.975586	145.640000
407.069244	146.280000
407.162872	146.200000
407.256470	146.300000
407.350098	146.240000
407.443726	145.620000
407.537323	145.020000
407.630951	145.300000
407.724579	144.880000
407.818207	145.440000
407.911804	145.480000
408.005432	145.640000
408.099060	145.400000
408.192688	146.020000
408.286285	145.940000
408.379913	145.940000
408.473572	146.100000
408.567169	145.440000
408.660828	145.360000
408.754395	145.020000
408.848053	144.960000
408.941650	144.900000
409.035309	144.920000
409.128906	144.780000
409.222565	144.840000
409.316132	145.040000
409.409790	145.020000
409.503387	145.320000
409.597046	145.580000
409.690674	145.860000
409.784302	145.760000
409.877930	145.560000
409.971558	145.440000
410.065186	144.780000
410.158783	144.780000
410.252411	144.800000
410.346039	145.220000
410.439667	145.520000
410.533295	146.120000
410.626923	146.160000
410.720551	145.720000
410.814209	146.100000
410.907806	146.100000
411.001465	145.800000
411.095062	145.940000
411.188721	146.140000
411.282318	145.360000
411.375977	144.800000
411.469574	144.920000
411.563232	144.560000
411.656830	144.600000
411.750488	144.500000
411.844086	144.700000
411.937744	144.780000
412.031372	144.720000
412.125000	144.720000
412.218628	145.120000
412.312256	145.920000
412.405884	146.320000
412.499512	146.180000
412.593170	146.340000
412.686798	146.500000
412.780426	145.820000
412.874054	145.620000
412.967682	145.700000
413.061310	146.360000
413.154968	146.180000
413.248566	146.200000
413.342224	146.020000
413.435852	146.000000
413.529510	145.680000
413.623108	145.220000
413.716766	145.180000
413.810364	145.640000
413.904022	145.720000
413.997650	145.140000
414.091309	145.940000
414.184906	145.800000
414.278564	145.160000
414.372192	145.600000
414.465851	145.780000
414.559479	145.020000
414.653107	146.220000
414.746735	146.380000
414.840393	146.100000
414.934021	146.780000
415.027649	146.760000
415.121277	146.440000
415.214935	146.760000
415.308563	146.780000
415.402191	145.660000
415.495850	145.740000
415.589478	144.820000
415.683136	144.400000
415.776733	144.340000
415.870422	145.260000
415.964020	145.260000
416.057678	145.880000
416.151306	145.900000
416.244965	146.100000
416.338562	145.720000
416.432251	146.260000
416.525848	146.500000
416.619507	147.140000
416.713165	147.220000
416.806793	147.140000
416.900421	147.140000
416.994080	146.580000
417.087708	146.020000
417.181366	145.820000
417.274994	145.740000
417.368622	145.600000
417.462280	146.080000
417.555908	145.920000
417.649567	145.660000
417.743195	145.880000
417.836853	145.760000
417.930481	145.640000
418.024170	145.880000
418.117767	146.260000
418.211426	146.580000
418.305054	146.740000
418.398712	146.340000
418.492340	146.260000
418.585999	146.780000
418.679626	146.620000
418.773285	146.680000
418.866913	147.160000
418.960571	147.600000
419.054230	147.060000
419.147858	147.120000
419.241516	147.200000
419.335144	146.680000
419.428802	146.400000
419.522461	146.340000
419.616089	145.580000
419.709747	145.640000
419.803375	145.860000
419.897034	145.820000
419.990662	145.780000
420.084320	146.400000
420.177979	146.300000
420.271606	146.860000
420.365295	147.220000
420.458893	147.220000
420.552582	147.400000
420.646210	147.360000
420.739868	146.740000
420.833496	146.380000
420.927155	146.160000
421.020782	145.420000
421.114471	144.900000
421.208069	144.780000
421.301758	144.740000
421.395386	144.860000
421.489044	145.280000
421.582703	145.460000
421.676361	146.000000
421.769989	145.900000
421.863647	146.240000
421.957306	146.560000
422.050934	146.960000
422.144592	146.780000
422.238251	146.620000
422.331909	146.380000
422.425537	146.180000
422.519196	146.100000
422.612854	145.720000
422.706543	145.500000
422.800140	145.900000
422.893829	145.480000
422.987457	144.840000
423.081146	145.060000
423.174744	145.640000
423.268433	144.980000
423.362061	144.960000
423.455750	145.140000
423.549347	144.940000
423.643036	144.240000
423.736664	145.160000
423.830353	145.540000
423.924011	146.260000
424.017639	146.060000
424.111298	146.460000
424.204956	145.740000
424.298615	145.660000
424.392273	144.780000
424.485931	145.340000
424.579559	145.440000
424.673218	145.300000
424.766876	145.060000
424.860535	145.240000
424.954193	144.560000
425.047882	144.860000
425.141510	144.780000
425.235199	145.080000
425.328796	145.100000
425.422485	145.440000
425.516113	144.620000
425.609802	144.740000
425.703430	144.740000
425.797119	144.960000
425.890747	145.060000
425.984436	145.460000
426.078064	145.720000
426.171753	145.680000
426.265411	145.240000
426.359070	145.320000
426.452728	145.360000
426.546356	145.060000
426.640015	144.800000
426.733673	145.040000
426.827332	144.520000
426.920990	145.120000
427.014648	145.220000
427.108307	145.640000
427.201965	146.040000
427.295624	146.580000
427.389282	145.720000
427.482941	145.520000
427.576630	145.480000
427.670258	144.780000
427.763947	144.420000
427.857574	144.740000
427.951263	144.760000
428.044922	144.240000
428.138611	144.600000
428.232239	145.140000
428.325928	145.660000
428.419556	146.480000
428.513245	146.380000
428.606903	146.300000
428.700562	145.880000
428.794220	145.140000
428.887878	144.200000
428.981537	144.820000
429.075195	145.220000
429.168854	145.600000
429.262512	145.780000
429.356201	145.960000
429.449860	145.500000
429.543518	145.100000
429.637177	145.100000
429.730835	145.180000
429.824493	145.600000
429.918182	145.960000
430.011810	145.480000
430.105530	145.100000
430.199158	145.400000
430.292847	145.120000
430.386475	144.920000
430.480164	145.160000
430.573792	144.900000
430.667511	144.420000
430.761139	144.460000
430.854828	145.120000
430.948456	145.500000
431.042145	145.960000
431.135834	145.760000
431.229492	145.760000
431.323151	145.400000
431.416809	145.100000
431.510468	144.940000
431.604156	144.980000
431.697815	144.940000
431.791473	144.620000
431.885132	144.420000
431.978821	144.820000
432.072479	145.080000
432.166138	145.300000
432.259827	145.140000
432.353485	145.500000
432.447174	145.380000
432.540802	145.240000
432.634491	145.260000
432.728149	145.520000
432.821838	146.000000
432.915466	145.700000
433.009186	145.740000
433.102814	144.980000
433.196503	144.900000
433.290131	144.500000
433.383850	144.680000
433.477509	144.960000
433.571167	146.140000
433.664856	146.520000
433.758514	147.100000
433.852173	147.120000
433.945862	146.740000
434.039520	146.240000
434.133179	145.760000
434.226868	144.760000
434.320526	144.400000
434.414185	145.240000
434.507874	145.040000
434.601562	145.140000
434.695221	145.520000
434.788910	145.740000
434.882538	145.380000
434.976257	145.080000
435.069885	145.180000
435.163574	145.320000
435.257233	144.960000
435.350922	145.020000
435.444580	144.940000
435.538269	144.680000
435.631897	145.060000
435.725616	145.800000
435.819275	146.220000
435.912964	146.760000
436.006622	147.180000
436.100311	146.760000
436.193970	145.600000
436.287628	145.020000
436.381317	144.660000
436.474976	144.120000
436.568665	143.860000
436.662323	144.540000
436.756012	144.420000
436.849670	144.960000
436.943390	145.380000
437.037018	145.380000
437.130737	145.440000
437.224365	145.320000
437.318085	144.800000
437.411713	144.740000
437.505432	145.240000
437.599060	145.540000
437.692780	146.320000
437.786407	146.500000
437.880127	146.340000
437.973755	146.140000
438.067474	145.600000
438.161133	145.060000
438.254822	145.520000
438.348480	145.340000
438.442169	145.540000
438.535828	146.020000
438.629517	145.700000
438.723175	144.800000
438.816864	145.320000
438.910553	144.900000
439.004211	144.720000
439.097900	144.720000
439.191559	145.080000
439.285248	144.780000
439.378906	145.220000
439.472626	144.900000
439.566284	144.700000
439.659973	144.880000
439.753632	144.860000
439.847321	144.980000
439.940979	145.400000
440.034698	145.920000
440.128326	145.400000
440.222046	145.380000
440.315674	144.420000
440.409393	144.440000
440.503082	144.200000
440.596741	144.620000
440.690430	144.600000
440.784088	144.860000
440.877777	144.340000
440.971466	144.260000
441.065125	143.860000
441.158813	143.600000
441.252502	143.820000
441.346161	144.200000
441.439850	144.700000
441.533539	144.860000
441.627197	145.620000
441.720886	145.400000
441.814606	145.500000
441.908234	145.740000
442.001953	145.700000
442.095612	145.420000
442.189301	145.940000
442.282959	146.220000
442.376678	145.220000
442.470306	146.260000
442.564026	146.000000
442.657684	145.720000
442.751404	145.420000
442.845032	146.580000
442.938751	145.600000
443.032440	145.920000
443.126099	145.580000
443.219788	145.800000
443.313477	145.280000
443.407166	145.600000
443.500824	145.500000
443.594513	146.140000
443.688202	145.900000
443.781891	145.320000
443.875549	145.140000
443.969238	145.080000
444.062927	144.700000
444.156647	144.660000
444.250275	145.200000
444.343994	145.080000
444.437653	145.240000
444.531372	145.200000
444.625031	144.960000
444.718719	144.480000
444.812378	144.420000
444.906097	144.160000
444.999756	144.100000
445.093445	144.380000
445.187103	144.580000
445.280823	145.280000
445.374512	145.100000
445.468201	145.300000
445.561859	145.400000
445.655548	145.640000
445.749237	145.040000
445.842926	145.500000
445.936615	146.020000
446.030304	145.460000
446.123962	145.920000
446.217651	145.760000
446.311340	145.360000
446.405029	144.820000
446.498749	144.980000
446.592407	144.440000
446.686096	144.840000
446.779755	145.360000
446.873474	145.420000
446.967133	145.600000
447.060852	145.320000
447.154510	145.220000
447.248230	144.820000
447.341858	144.600000
447.435577	144.400000
447.529236	144.340000
447.622955	144.340000
447.716644	144.480000
447.810333	144.740000
447.904022	145.080000
447.997711	145.140000
448.091400	145.320000
448.185059	145.200000
448.278748	145.420000
448.372437	145.320000
448.466125	145.960000
448.559814	145.820000
448.653503	146.360000
448.747192	146.660000
448.840912	147.040000
448.934570	146.820000
449.028290	147.120000
449.121948	146.520000
449.215637	145.940000
449.309296	145.380000
449.403015	145.460000
449.496674	145.100000
449.590393	145.260000
449.684052	145.120000
449.777771	145.720000
449.871429	145.080000
449.965149	145.440000
450.058838	145.780000
450.152527	146.300000
450.246216	145.920000
450.339905	146.120000
450.433594	145.760000
450.527283	146.340000
450.620972	145.880000
450.714661	145.660000
450.808350	145.940000
450.902039	146.240000
450.995728	145.520000
451.089417	145.140000
451.183105	145.580000
451.276794	146.160000
451.370514	145.520000
451.464172	144.960000
451.557892	145.280000
451.651550	145.220000
451.745270	144.340000
451.838928	144.380000
451.932648	144.820000
452.026306	145.280000
452.120026	145.060000
452.213684	145.560000
452.307404	145.700000
452.401062	145.700000
452.494781	145.760000
452.588470	145.860000
452.682159	145.460000
452.775848	145.580000
452.869537	145.440000
452.963226	145.120000
453.056915	144.800000
453.150604	144.820000
453.244293	144.660000
453.337982	145.280000
453.431671	145.340000
453.525360	146.280000
453.619049	146.420000
453.712769	146.420000
453.806427	145.740000
453.900146	145.420000
453.993805	144.900000
454.087555	145.220000
454.181213	145.560000
454.274933	145.720000
454.368591	145.780000
454.462311	145.540000
454.555969	145.100000
454.649689	145.600000
454.743347	145.460000
454.837067	146.100000
454.930756	146.960000
455.024445	147.020000
455.118134	146.580000
455.211853	146.780000
455.305542	146.300000
455.399231	145.800000
455.492920	145.500000
455.586609	145.300000
455.680298	145.340000
455.773987	145.240000
455.867676	145.080000
455.961365	145.840000
456.055084	145.940000
456.148773	145.900000
456.242493	145.980000
456.336151	146.220000
456.429871	145.960000
456.523529	146.380000
456.617249	146.020000
456.710907	146.400000
456.804626	146.020000
456.898315	145.620000
456.992035	145.240000
457.085693	145.260000
457.179413	144.480000
457.273102	145.540000
457.366791	145.820000
457.460480	146.020000
457.554199	146.520000
457.647888	147.100000
457.741577	146.160000
457.835266	146.020000
457.928955	146.080000
458.022644	146.500000
458.116364	146.580000
458.210052	146.820000
458.303741	147.140000
458.397461	146.500000
458.491119	145.660000
458.584839	145.160000
458.678528	144.460000
458.772247	144.240000
458.865906	144.440000
458.959625	145.100000
459.053284	145.400000
459.147003	145.680000
459.240692	145.880000
459.334412	146.220000
459.428070	145.700000
459.521790	145.500000
459.615479	145.560000
459.709198	145.860000
459.802887	145.360000
459.896576	145.320000
459.990265	145.600000
460.083954	145.740000
460.177673	145.080000
460.271362	145.260000
460.365051	145.240000
460.458740	144.920000
460.552429	144.400000
460.646149	144.280000
460.739838	143.920000
460.833527	143.980000
460.927246	143.720000
461.020905	143.940000
461.114655	144.080000
461.208313	144.560000
461.302032	144.200000
461.395691	144.800000
461.489441	144.920000
461.583099	145.400000
461.676819	145.280000
461.770477	145.920000
461.864197	145.560000
461.957916	145.380000
462.051605	144.760000
462.145294	145.540000
462.238983	145.280000
462.332703	146.020000
462.426392	146.660000
462.520081	146.680000
462.613770	145.840000
462.707489	146.020000
462.801178	145.460000
462.894867	145.220000
462.988556	145.620000
463.082275	145.900000
463.175964	145.360000
463.269684	145.640000
463.363342	145.560000
463.457092	144.820000
463.550751	144.940000
463.644470	145.380000
463.738129	145.120000
463.831879	145.280000
463.925537	146.500000
464.019257	146.400000
464.112946	146.200000
464.206665	145.960000
464.300323	145.880000
464.394043	145.160000
464.487762	145.100000
464.581451	145.220000
464.675140	145.260000
464.768829	145.240000
464.862549	145.400000
464.956238	145.580000
465.049927	145.880000
465.143646	146.300000
465.237335	146.180000
465.331024	146.620000
465.424713	146.400000
465.518433	146.460000
465.612152	146.060000
465.705811	145.920000
465.799561	145.540000
465.893219	145.420000
465.986938	145.120000
466.080597	145.040000
466.174347	145.460000
466.268005	145.520000
466.361725	145.800000
466.455414	145.540000
466.549133	145.440000
466.642792	145.500000
466.736542	145.120000
466.830231	145.080000
466.923920	145.180000
467.017609	145.420000
467.111328	144.840000
467.205017	145.080000
467.298706	145.000000
467.392426	145.160000
467.486115	145.240000
467.579803	145.320000
467.673523	145.320000
467.767212	145.320000
467.860901	145.280000
467.954651	145.300000
468.048309	146.000000
468.142029	145.940000
468.235718	146.000000
468.329437	145.840000
468.423096	145.940000
468.516846	145.040000
468.610504	144.780000
468.704224	144.460000
468.797913	144.120000
468.891632	144.120000
468.985291	144.480000
469.079010	144.520000
469.172729	144.320000
469.266418	145.420000
469.360107	145.360000
469.453827	145.360000
469.547516	145.580000
469.641205	146.100000
469.734924	145.880000
469.828613	146.300000
469.922302	146.420000
470.016022	146.540000
470.109711	146.140000
470.203430	145.620000
470.297150	144.840000
470.390808	144.920000
470.484558	144.620000
470.578217	145.060000
470.671936	145.640000
470.765625	146.340000
470.859344	146.000000
470.953003	146.400000
471.046753	146.120000
471.140411	145.300000
471.234131	145.400000
471.327820	145.840000
471.421539	145.640000
471.515228	145.360000
471.608948	145.680000
471.702637	144.720000
471.796326	144.180000
471.890045	144.400000
471.983734	144.780000
472.077423	144.580000
472.171143	145.080000
472.264832	145.460000
472.358521	145.060000
472.452240	144.940000
472.545929	145.740000
472.639648	145.920000
472.733337	146.080000
472.827057	146.160000
472.920746	146.120000
473.014465	145.940000
473.108124	146.040000
473.201874	145.940000
473.295532	145.740000
473.389252	146.160000
473.482941	146.300000
473.576660	145.840000
473.670319	145.700000
473.764069	146.140000
473.857727	146.140000
473.951477	146.260000
474.045166	146.760000
474.138855	146.660000
474.232574	146.460000
474.326263	146.180000
474.419952	146.100000
474.513672	146.260000
474.607361	146.160000
474.701050	146.260000
474.794769	146.640000
474.888458	146.500000
474.982178	145.960000
475.075867	146.200000
475.169586	146.120000
475.263275	145.600000
475.356995	145.580000
475.450653	145.460000
475.544403	145.060000
475.638062	145.800000
475.731812	145.620000
475.825470	145.240000
475.919189	145.580000
476.012878	145.800000
476.106598	145.020000
476.200256	145.500000
476.294006	145.580000
476.387695	145.480000
476.481384	145.500000
476.575104	145.600000
476.668793	145.000000
476.762512	144.540000
476.856201	145.100000
476.949890	144.800000
477.043610	144.320000
477.137299	144.880000
477.230988	145.600000
477.324707	144.880000
477.418396	145.560000
477.512146	145.800000
477.605804	145.760000
477.699524	145.760000
477.793213	145.820000
477.886932	145.560000
477.980591	145.500000
478.074341	145.380000
478.167999	144.840000
478.261749	145.140000
478.355408	144.700000
478.449127	145.480000
478.542816	146.160000
478.636536	147.060000
478.730225	147.080000
478.823944	147.480000
478.917633	146.960000
479.011322	146.840000
479.105042	146.560000
479.198730	146.580000
479.292450	146.440000
479.386139	146.620000
479.479828	146.340000
479.573547	146.560000
479.667267	146.180000
479.760925	146.200000
479.854675	146.360000
479.948334	146.280000
480.042084	145.640000
480.135742	146.340000
480.229462	146.160000
480.323151	145.960000
480.416870	145.380000
480.510529	145.540000
480.604279	144.520000
480.697937	145.180000
480.791656	144.820000
480.885345	144.700000
480.979065	144.540000
481.072754	145.340000
481.166473	145.440000
481.260132	145.640000
481.353882	146.160000
481.447540	145.840000
481.541260	145.540000
481.635010	144.780000
481.728668	144.580000
481.822388	144.280000
481.916077	144.680000
482.009796	144.740000
482.103485	145.200000
482.197205	145.540000
482.290863	145.980000
482.384613	145.760000
482.478271	145.180000
482.571991	145.000000
482.665680	144.800000
482.759399	145.520000
482.853058	145.980000
482.946808	146.420000
483.040466	146.560000
483.134216	146.580000
483.227875	145.700000
483.321594	145.980000
483.415283	146.180000
483.509003	146.200000
483.602661	145.980000
483.696411	146.060000
483.790070	146.000000
483.883789	145.780000
483.977478	146.040000
484.071198	146.480000
484.164917	146.420000
484.258606	145.740000
484.352325	146.040000
484.445984	145.560000
484.539734	145.060000
484.633392	144.760000
484.727142	145.100000
484.820801	144.700000
484.914520	144.980000
485.008209	145.360000
485.101929	146.040000
485.195587	146.020000
485.289337	146.420000
485.382996	146.460000
485.476715	146.440000
485.570404	146.460000
485.664124	146.320000
485.757782	146.780000
485.851532	146.120000
485.945190	146.000000
486.038910	146.240000
486.132599	146.720000
486.226318	145.940000
486.319977	146.220000
486.413727	146.600000
486.507446	145.820000
486.601105	145.040000
486.694855	145.000000
486.788513	144.680000
486.882233	144.680000
486.975922	144.800000
487.069641	145.040000
487.163300	144.920000
487.257050	146.340000
487.350708	145.620000
487.444427	145.440000
487.538116	145.600000
487.631836	145.720000
487.725494	145.100000
487.819214	145.440000
487.912903	145.600000
488.006622	145.720000
488.100281	145.660000
488.194031	145.360000
488.287689	145.980000
488.381409	146.660000
488.475098	146.540000
488.568817	146.940000
488.662476	146.780000
488.756226	145.800000
488.849945	144.780000
488.943604	144.660000
489.037354	144.600000
489.131012	144.560000
489.224731	144.760000
489.318390	144.780000
489.412140	144.840000
489.505798	144.600000
489.599518	144.400000
489.693207	144.760000
489.786926	144.860000
489.880585	144.880000
489.974335	145.260000
490.067993	146.460000
490.161713	146.520000
490.255371	147.840000
490.349121	147.820000
490.442780	147.620000
490.536499	146.700000
490.630188	146.660000
490.723907	145.540000
490.817566	145.680000
490.911285	145.560000
491.004974	145.640000
491.098694	145.480000
491.192413	146.120000
491.286102	145.620000
491.379822	146.040000
491.473480	146.100000
491.567200	146.000000
491.660889	145.120000
491.754608	145.460000
491.848267	145.200000
491.941986	145.100000
492.035675	145.180000
492.129395	145.560000
492.223053	145.340000
492.316772	145.500000
492.410461	145.380000
492.504181	145.500000
492.597839	145.260000
492.691559	145.540000
492.785248	145.320000
492.878967	145.700000
492.972626	145.080000
493.066345	145.300000
493.160034	145.020000
493.253754	144.940000
493.347412	144.540000
493.441132	145.040000
493.534882	145.340000
493.628540	145.800000
493.722260	145.880000
493.815918	146.320000
493.909668	146.920000
494.003326	147.320000
494.097046	147.020000
494.190704	146.840000
494.284454	146.920000
494.378113	146.700000
494.471832	146.100000
494.565491	145.940000
494.659210	146.000000
494.752899	145.680000
494.846619	145.280000
494.940277	145.480000
495.033997	145.560000
495.127686	145.300000
495.221405	145.020000
495.315063	145.420000
495.408783	145.220000
495.502441	145.260000
495.596191	145.820000
495.689850	145.640000
495.783569	145.600000
495.877228	145.880000
495.970947	145.760000
496.064697	145.540000
496.158356	147.080000
496.252075	146.740000
496.345734	146.300000
496.439453	147.200000
496.533142	147.280000
496.626862	146.660000
496.720520	147.060000
496.814240	147.160000
496.907898	146.480000
497.001617	146.540000
497.095306	145.700000
497.189026	145.260000
497.282684	145.260000
497.376404	145.580000
497.470062	145.340000
497.563782	145.640000
497.657471	145.780000
497.751190	145.660000
497.844849	145.620000
497.938568	145.820000
498.032227	145.920000
498.125946	146.020000
498.219635	145.940000
498.313354	145.940000
498.407074	145.900000
498.500732	146.080000
498.594452	146.200000
498.688110	146.080000
498.781830	145.520000
498.875519	145.280000
498.969238	144.760000
499.062897	144.280000
499.156616	144.520000
499.250275	145.280000
499.343994	144.940000
499.437653	145.160000
499.531372	145.800000
499.625061	146.200000
499.718781	145.880000
499.812439	146.420000
499.906158	146.580000
499.999817	146.080000
500.093536	145.740000
500.187195	145.640000
500.280914	145.280000
500.374573	145.440000
500.468323	145.180000
500.561981	145.680000
500.655701	145.400000
500.749420	145.840000
500.843079	145.800000
500.936798	146.340000
501.030457	146.040000
501.124176	146.480000
501.217834	146.400000
501.311554	146.160000
501.405212	145.480000
501.498962	144.900000
501.592621	144.760000
501.686340	144.660000
501.779999	145.040000
501.873718	145.580000
501.967377	146.180000
502.061096	146.320000
502.154755	146.120000
502.248474	145.860000
502.342133	146.120000
502.435852	145.660000
502.529510	146.180000
502.623230	146.680000
502.716888	146.080000
502.810608	145.880000
502.904266	146.520000
502.997986	145.960000
503.091705	145.480000
503.185364	145.860000
503.279083	145.660000
503.372772	145.700000
503.466492	145.340000
503.560150	145.500000
503.653870	145.660000
503.747528	145.860000
503.841248	145.320000
503.934906	145.540000
504.028625	145.240000
504.122284	145.520000
504.216003	146.020000
504.309662	146.040000
504.403381	146.240000
504.497040	146.400000
504.590759	145.840000
504.684418	145.720000
504.778137	146.140000
504.871796	146.500000
504.965515	146.280000
505.059174	146.540000
505.152893	145.860000
505.246521	145.360000
505.340240	144.760000
505.433899	145.160000
505.527618	145.500000
505.621338	146.100000
505.714996	146.380000
505.808716	146.120000
505.902374	146.380000
505.996094	146.520000
506.089752	146.120000
506.183472	145.840000
506.277130	146.260000
506.370850	146.140000
506.464508	145.440000
506.558228	145.380000
506.651886	145.200000
506.745605	145.020000
506.839264	145.260000
506.932983	145.580000
507.026611	145.320000
507.120331	146.100000
507.213989	145.560000
507.307709	145.340000
507.401367	145.720000
507.495087	146.820000
507.588745	146.060000
507.682465	147.420000
507.776123	147.100000
507.869843	146.600000
507.963531	146.360000
508.057190	146.980000
508.150909	145.720000
508.244568	146.380000
508.338287	146.120000
508.431946	145.280000
508.525665	145.120000
508.619324	145.600000
508.713013	145.220000
508.806671	145.860000
508.900391	146.800000
508.994049	146.740000
509.087769	146.480000
509.181427	146.480000
509.275146	146.100000
509.368774	145.320000
509.462494	145.200000
509.556152	145.240000
509.649872	145.760000
509.743530	146.020000
509.837250	146.300000
509.930878	146.540000
510.024597	146.380000
510.118256	145.520000
510.211975	145.280000
510.305695	145.040000
510.399353	145.440000
510.493042	146.280000
510.586700	146.880000
510.680420	147.380000
510.774078	147.520000
510.867798	146.880000
510.961426	146.180000
511.055145	145.900000
511.148804	145.540000
511.242523	145.880000
511.336151	146.420000
511.429871	146.720000
511.523529	146.500000
511.617249	146.000000
511.710876	145.580000
511.804596	144.720000
511.898254	144.460000
511.991974	145.020000
512.085632	145.180000
512.179321	145.200000
512.272949	145.720000
512.366699	146.180000
512.460327	145.780000
512.554077	146.660000
512.647766	146.660000
512.741394	146.720000
512.835144	146.980000
512.928772	146.820000
513.022461	146.380000
513.116150	146.380000
513.209839	146.500000
513.303467	145.920000
513.397217	145.800000
513.490845	145.180000
513.584595	144.920000
513.678223	144.300000
513.771912	143.700000
513.865601	144.180000
513.959290	144.440000
514.052917	144.440000
514.146667	145.360000
514.240295	146.140000
514.333984	146.220000
514.427673	146.040000
514.521362	146.660000
514.614990	145.860000
514.708740	145.840000
514.802368	145.540000
514.896057	145.880000
514.989746	146.260000
515.083435	146.100000
515.177124	146.100000
515.270752	145.880000
515.364502	145.860000
515.458130	145.520000
515.551819	145.680000
515.645508	145.440000
515.739197	145.340000
515.832825	145.520000
515.926575	145.200000
516.020203	145.480000
516.113892	146.180000
516.207520	146.260000
516.301270	146.160000
516.394897	146.340000
516.488586	146.660000
516.582275	146.200000
516.675964	145.880000
516.769592	145.600000
516.863281	145.960000
516.956970	145.940000
517.050659	145.760000
517.144287	146.140000
517.238037	146.720000
517.331665	145.940000
517.425354	145.820000
517.519043	145.900000
517.612732	146.280000
517.706421	145.640000
517.800049	145.600000
517.893738	145.200000
517.987427	145.380000
518.081116	145.320000
518.174744	145.300000
518.268433	145.440000
518.362122	146.100000
518.455811	145.900000
518.549438	146.320000
518.643127	147.420000
518.736816	147.320000
518.830505	146.760000
518.924133	146.640000
519.017822	146.240000
519.111511	145.540000
519.205200	146.220000
519.298828	146.260000
519.392517	146.060000
519.486206	146.460000
519.579895	146.660000
519.673523	146.060000
519.767212	145.920000
519.860901	146.600000
519.954590	145.900000
520.048279	145.520000
520.141907	145.480000
520.235596	146.440000
520.329224	146.420000
520.422974	146.620000
520.516602	146.380000
520.610291	146.300000
520.703918	145.820000
520.797607	145.400000
520.891296	145.360000
520.984985	145.540000
521.078613	146.060000
521.172302	145.640000
521.265930	146.640000
521.359680	147.280000
521.453308	147.240000
521.546997	147.440000
521.640625	147.540000
521.734314	146.460000
521.827942	146.000000
521.921692	146.340000
522.015320	146.120000
522.109009	145.980000
522.202698	145.860000
522.296326	146.040000
522.390015	146.400000
522.483704	146.400000
522.577393	146.260000
522.671021	146.520000
522.764709	146.140000
522.858337	146.120000
522.952026	146.020000
523.045654	146.840000
523.139404	147.340000
523.233032	147.320000
523.326721	146.820000
523.420349	147.140000
523.514038	146.480000
523.607666	146.440000
523.701355	146.380000
523.795044	146.620000
523.888733	146.520000
523.982361	146.740000
524.076050	146.340000
524.169678	146.500000
524.263367	146.060000
524.356995	145.460000
524.450684	145.160000
524.544373	145.240000
524.638062	145.400000
524.731750	145.880000
524.825378	146.140000
524.919067	145.800000
525.012695	145.720000
525.106384	145.200000
525.200012	145.300000
525.293701	145.220000
525.387329	146.020000
525.481018	145.980000
525.574646	146.300000
525.668396	146.120000
525.762024	146.580000
525.855713	146.880000
525.949341	146.760000
526.043030	147.120000
526.136658	146.640000
526.230347	146.120000
526.323975	145.180000
526.417664	145.140000
526.511292	144.940000
526.604980	145.300000
526.698608	145.380000
526.792297	145.920000
526.885925	146.260000
526.979614	146.320000
527.073303	146.220000
527.166931	146.300000
527.260620	146.480000
527.354309	146.800000
527.447998	146.880000
527.541626	146.860000
527.635315	147.140000
527.728943	147.360000
527.822632	147.440000
527.916260	147.340000
528.009949	147.620000
528.103577	147.180000
528.197266	146.440000
528.290894	146.260000
528.384583	145.880000
528.478210	145.760000
528.571899	146.080000
528.665527	146.580000
528.759216	146.560000
528.852844	147.180000
528.946533	147.280000
529.040161	147.260000
529.133850	146.660000
529.227478	146.700000
529.321167	146.920000
529.414856	147.040000
529.508484	147.120000
529.602173	147.120000
529.695801	147.020000
529.789490	146.740000
529.883057	146.440000
529.976746	146.640000
530.070374	147.300000
530.164062	147.300000
530.257690	147.260000
530.351379	147.200000
530.445007	147.020000
530.538696	146.300000
530.632324	146.220000
530.726013	146.180000
530.819641	146.260000
530.913330	146.120000
531.006958	146.340000
531.100647	146.300000
531.194275	146.040000
531.287964	145.860000
531.381592	145.620000
531.475220	146.000000
531.568848	145.920000
531.662537	145.940000
531.756226	146.580000
531.849854	146.780000
531.943542	146.680000
532.037170	146.260000
532.130859	146.520000
532.224487	145.800000
532.318176	145.560000
532.411804	146.120000
532.505432	146.820000
532.599060	146.400000
532.692749	146.580000
532.786377	147.060000
532.880066	146.040000
532.973694	145.440000
533.067383	145.700000
533.161011	145.780000
533.254639	145.560000
533.348267	145.440000
533.441956	145.820000
533.535583	145.720000
533.629272	145.700000
533.722900	145.160000
533.816589	145.380000
533.910156	145.760000
534.003845	145.280000
534.097534	145.480000
534.191162	146.580000
534.284851	146.920000
534.378479	146.380000
534.472107	146.740000
534.565735	146.460000
534.659424	146.380000
534.753052	146.580000
534.846741	146.380000
534.940369	147.040000
535.033997	147.220000
535.127625	146.660000
535.221313	146.940000
535.314941	147.100000
535.408630	146.020000
535.502197	146.160000
535.595886	146.120000
535.689514	145.480000
535.783203	145.940000
535.876831	146.960000
535.970459	146.860000
536.064087	146.900000
536.157776	146.960000
536.251404	146.780000
536.345093	146.400000
536.438721	146.300000
536.532349	146.520000
536.626038	146.080000
536.719666	146.240000
536.813293	145.760000
536.906921	145.780000
537.000610	145.900000
537.094238	146.020000
537.187866	145.860000
537.281494	146.200000
537.375183	146.320000
537.468811	146.080000
537.562439	146.340000
537.656067	146.160000
537.749756	146.340000
537.843384	146.780000
537.937012	146.760000
538.030640	146.460000
538.124329	146.320000
538.217896	146.400000
538.311584	146.160000
538.405212	146.100000
538.498901	146.500000
538.592468	147.320000
538.686157	146.580000
538.779785	145.840000
538.873413	145.760000
538.967102	145.340000
539.060730	144.440000
539.154358	145.200000
539.247986	145.560000
539.341675	145.440000
539.435242	145.500000
539.528931	146.020000
539.622559	145.200000
539.716187	145.640000
539.809814	145.820000
539.903503	145.640000
539.997070	145.420000
540.090759	145.960000
540.184387	145.340000
540.278015	145.800000
540.371643	146.480000
540.465332	146.440000
540.558899	146.100000
540.652588	146.260000
540.746216	145.660000
540.839844	145.720000
540.933472	145.840000
541.027100	145.800000
541.120728	146.000000
541.214417	146.500000
541.308044	146.360000
541.401672	145.860000
541.495300	145.800000
541.588928	145.620000
541.682617	145.300000
541.776184	144.760000
541.869873	145.240000
541.963440	145.720000
542.057129	145.860000
542.150757	145.780000
542.244385	145.920000
542.338013	145.560000
542.431641	145.340000
542.525269	145.060000
542.618958	145.520000
542.712524	145.640000
542.806213	145.660000
542.899780	145.780000
542.993469	145.620000
543.087036	145.160000
543.180725	144.780000
543.274292	145.180000
543.367981	145.400000
543.461548	146.060000
543.555237	146.060000
543.648926	146.760000
543.742493	147.260000
543.836182	146.980000
543.929749	146.860000
544.023437	147.080000
544.117004	146.900000
544.210693	146.380000
544.304260	146.780000
544.397949	146.460000
544.491516	146.620000
544.585205	146.520000
544.678772	146.060000
544.772461	145.800000
544.866028	145.740000
544.959717	145.700000
545.053284	145.540000
545.146973	146.180000
545.240540	146.420000
545.334229	147.000000
545.427795	147.380000
545.521423	147.780000
545.615051	147.620000
545.708679	147.720000
545.802307	147.400000
545.895935	147.340000
545.989624	148.060000
546.083191	147.980000
546.176880	147.980000
546.270447	147.620000
546.364136	147.700000
546.457703	146.880000
546.551331	146.780000
546.644958	146.700000
546.738586	147.220000
546.832214	146.640000
546.925842	146.500000
547.019409	147.060000
547.113098	146.580000
547.206665	146.220000
547.300354	146.240000
547.393921	146.420000
547.487549	146.160000
547.581177	146.180000
547.674805	145.920000
547.768433	145.240000
547.862061	145.240000
547.955627	144.340000
548.049316	144.800000
548.142883	145.440000
548.236572	146.400000
548.330139	146.500000
548.423767	147.000000
548.517456	146.680000
548.611023	146.540000
548.704651	145.860000
548.798279	145.780000
548.891907	146.160000
548.985474	146.020000
549.079163	146.400000
549.172729	146.300000
549.266357	146.040000
549.359985	146.060000
549.453613	145.700000
549.547180	145.160000
549.640869	145.800000
549.734436	145.840000
549.828064	145.860000
549.921631	146.240000
550.015320	145.940000
550.108887	146.260000
550.202515	146.280000
550.296143	146.080000
550.389771	146.340000
550.483337	146.580000
550.576965	146.140000
550.670593	146.340000
550.764221	146.180000
550.857849	145.820000
550.951477	145.220000
551.045105	144.680000
551.138672	144.700000
551.232300	144.480000
551.325928	144.640000
551.419556	145.360000
551.513123	145.720000
551.606750	145.180000
551.700378	145.660000
551.794006	145.720000
551.887573	145.440000
551.981201	145.760000
552.074768	146.160000
552.168457	145.800000
552.262024	146.560000
552.355652	146.820000
552.449219	147.000000
552.542847	146.900000
552.636475	146.700000
552.730103	145.760000
552.823669	145.060000
552.917297	144.740000
553.010864	144.680000
553.104553	144.940000
553.198181	144.860000
553.291748	145.800000
553.385376	145.940000
553.478943	146.100000
553.572571	146.180000
553.666199	146.340000
553.759827	145.940000
553.853394	145.440000
553.947021	145.340000
554.040588	145.700000
554.134216	145.940000
554.227783	146.460000
554.321411	147.140000
554.415039	147.120000
554.508667	146.460000
554.602234	146.620000
554.695862	145.780000
554.789429	145.500000
554.883057	145.340000
554.976624	145.880000
555.070251	145.760000
555.163818	145.820000
555.257507	145.660000
555.351074	145.800000
555.444702	146.660000
555.538330	146.260000
555.631897	147.160000
555.725525	147.240000
555.819092	147.160000
555.912720	145.720000
556.006287	146.340000
556.099915	145.700000
556.193481	145.760000
556.287109	145.980000
556.380676	146.200000
556.474304	146.000000
556.567871	146.200000
556.661499	145.540000
556.755066	145.580000
556.848694	145.620000
556.942261	145.580000
557.035889	145.820000
557.129517	146.560000
557.223145	146.720000
557.316711	146.860000
557.410339	147.120000
557.503906	146.660000
557.597473	146.600000
557.691040	146.360000
557.784668	146.320000
557.878296	146.100000
557.971863	146.220000
558.065491	146.700000
558.159058	146.400000
558.252686	146.860000
558.346252	147.200000
558.439880	147.020000
558.533447	146.140000
558.627075	146.260000
558.720642	145.780000
558.814270	145.320000
558.907837	145.440000
559.001465	145.180000
559.095032	145.920000
559.188660	145.960000
559.282227	145.580000
559.375854	145.880000
559.469360	146.020000
559.562988	145.760000
559.656555	145.580000
559.750183	145.960000
559.843750	145.880000
559.937378	146.120000
560.030945	145.920000
560.124573	0.000000
560.218140	0.000000
560.311707	0.000000
560.405334	0.000000
560.498901	0.000000
560.592529	0.000000
560.686096	0.000000
560.779724	0.000000
560.873291	0.000000
560.966858	0.000000
561.060425	0.000000
561.154053	0.000000
561.247620	0.000000
561.341248	0.000000
561.434814	0.000000
561.528381	0.000000
561.621948	0.000000
561.715576	0.000000
561.809143	0.000000
561.902771	0.000000
561.996277	0.000000
562.089905	0.000000
562.183472	0.000000
562.277100	0.000000
