Model Number: SPM-002-B   
Serial Number: 70087108
Firmware Version: 004.15.4
Exposure Time: 100000.000000us
Data Taken on: 11-12-2020 19:37:08.454
Wavelength	Amplitude
221.570786	0.000000
221.663406	0.000000
221.756027	0.000000
221.848648	0.000000
221.941269	0.000000
222.033905	0.000000
222.126526	0.000000
222.219162	0.000000
222.311798	0.000000
222.404419	0.000000
222.497055	0.000000
222.589676	0.000000
222.682312	0.000000
222.774933	0.000000
222.867569	0.000000
222.960205	0.000000
223.052841	0.000000
223.145462	0.000000
223.238098	0.000000
223.330734	0.000000
223.423386	0.000000
223.516022	0.000000
223.608658	0.000000
223.701309	0.000000
223.793945	0.000000
223.886581	0.000000
223.979218	0.000000
224.071869	0.000000
224.164505	0.000000
224.257156	0.000000
224.349792	0.000000
224.442444	0.000000
224.535095	0.000000
224.627747	0.000000
224.720398	0.000000
224.813034	0.000000
224.905685	0.000000
224.998337	145.600000
225.090988	145.080000
225.183640	144.880000
225.276291	144.760000
225.368942	145.360000
225.461594	145.920000
225.554245	146.420000
225.646912	146.400000
225.739578	146.980000
225.832230	146.980000
225.924896	146.180000
226.017548	146.640000
226.110199	147.320000
226.202866	146.320000
226.295532	146.280000
226.388184	146.400000
226.480850	145.460000
226.573517	144.740000
226.666168	145.520000
226.758835	145.560000
226.851501	146.200000
226.944183	146.640000
227.036850	146.360000
227.129517	146.380000
227.222183	146.620000
227.314850	146.460000
227.407516	146.360000
227.500198	147.100000
227.592865	146.540000
227.685532	146.140000
227.778214	146.080000
227.870880	146.680000
227.963562	146.960000
228.056229	147.440000
228.148926	147.340000
228.241592	147.940000
228.334274	147.580000
228.426956	147.220000
228.519638	147.220000
228.612305	146.980000
228.704987	146.660000
228.797668	146.700000
228.890350	146.340000
228.983032	145.440000
229.075714	146.320000
229.168396	146.100000
229.261108	145.600000
229.353790	145.800000
229.446472	146.720000
229.539169	146.160000
229.631851	145.920000
229.724533	146.220000
229.817230	146.240000
229.909912	147.040000
230.002609	147.320000
230.095306	147.180000
230.187988	147.320000
230.280685	147.300000
230.373383	146.020000
230.466095	145.800000
230.558792	146.160000
230.651474	145.720000
230.744171	145.620000
230.836868	145.860000
230.929581	145.880000
231.022278	146.060000
231.114975	146.240000
231.207672	146.080000
231.300369	146.460000
231.393082	146.880000
231.485779	146.580000
231.578506	146.620000
231.671204	146.900000
231.763916	146.680000
231.856613	146.540000
231.949326	146.740000
232.042023	146.620000
232.134735	146.720000
232.227448	146.160000
232.320160	146.160000
232.412872	146.240000
232.505585	146.920000
232.598297	147.080000
232.691010	147.760000
232.783722	147.360000
232.876450	147.760000
232.969162	147.480000
233.061874	147.000000
233.154587	146.380000
233.247314	146.900000
233.340027	145.980000
233.432739	146.200000
233.525467	146.040000
233.618179	146.380000
233.710907	145.660000
233.803635	146.280000
233.896347	146.000000
233.989090	146.900000
234.081818	146.960000
234.174545	147.540000
234.267258	146.680000
234.359985	146.680000
234.452713	146.140000
234.545441	145.940000
234.638168	145.740000
234.730896	146.820000
234.823639	146.680000
234.916367	147.240000
235.009094	147.440000
235.101822	147.380000
235.194580	147.040000
235.287308	147.000000
235.380051	146.160000
235.472778	146.260000
235.565521	146.560000
235.658249	145.980000
235.750992	146.280000
235.843719	146.500000
235.936462	146.660000
236.029205	146.120000
236.121948	146.180000
236.214691	146.280000
236.307449	146.840000
236.400192	146.440000
236.492935	146.260000
236.585678	146.600000
236.678421	146.380000
236.771164	146.060000
236.863907	146.600000
236.956665	147.000000
237.049408	148.320000
237.142151	147.860000
237.234909	148.440000
237.327652	148.420000
237.420410	148.280000
237.513153	147.080000
237.605927	147.080000
237.698669	146.580000
237.791428	145.740000
237.884186	146.300000
237.976944	145.920000
238.069702	146.600000
238.162445	145.960000
238.255203	146.280000
238.347961	146.400000
238.440720	146.560000
238.533478	146.320000
238.626266	146.380000
238.719025	146.500000
238.811783	146.220000
238.904541	146.160000
238.997314	145.640000
239.090073	145.460000
239.182831	145.640000
239.275604	146.200000
239.368362	145.940000
239.461136	146.300000
239.553909	146.460000
239.646667	146.260000
239.739441	145.820000
239.832214	146.360000
239.925003	146.640000
240.017761	147.160000
240.110535	147.620000
240.203308	147.300000
240.296082	147.300000
240.388855	146.920000
240.481628	146.900000
240.574417	146.840000
240.667191	147.120000
240.759964	146.840000
240.852737	146.800000
240.945526	146.280000
241.038315	146.000000
241.131088	145.820000
241.223877	145.960000
241.316650	145.900000
241.409439	146.400000
241.502228	146.080000
241.595001	146.760000
241.687790	146.780000
241.780579	146.660000
241.873367	146.860000
241.966141	147.080000
242.058929	146.220000
242.151718	146.300000
242.244507	146.980000
242.337311	146.100000
242.430099	146.660000
242.522903	147.020000
242.615692	146.440000
242.708481	146.140000
242.801270	146.660000
242.894073	146.200000
242.986862	146.240000
243.079651	147.460000
243.172455	147.360000
243.265244	147.840000
243.358063	147.360000
243.450867	147.400000
243.543655	146.560000
243.636459	146.940000
243.729263	146.980000
243.822067	147.460000
243.914856	147.520000
244.007660	147.920000
244.100464	147.760000
244.193268	147.300000
244.286072	147.260000
244.378876	146.880000
244.471680	146.500000
244.564499	146.480000
244.657318	146.860000
244.750122	147.200000
244.842926	146.860000
244.935745	147.280000
245.028549	146.800000
245.121368	146.620000
245.214172	146.380000
245.306992	146.820000
245.399796	146.180000
245.492615	146.360000
245.585434	146.400000
245.678253	146.080000
245.771072	145.840000
245.863892	146.420000
245.956711	147.080000
246.049530	146.740000
246.142349	146.940000
246.235168	147.200000
246.327988	147.500000
246.420807	147.020000
246.513626	147.040000
246.606445	146.800000
246.699280	146.740000
246.792099	146.340000
246.884918	146.100000
246.977753	145.920000
247.070587	145.800000
247.163422	145.860000
247.256241	145.920000
247.349075	146.040000
247.441895	146.000000
247.534729	146.120000
247.627563	145.580000
247.720383	145.920000
247.813217	145.800000
247.906052	145.760000
247.998886	146.020000
248.091736	146.360000
248.184570	145.720000
248.277405	146.160000
248.370239	147.140000
248.463074	147.900000
248.555908	148.300000
248.648743	148.260000
248.741592	148.040000
248.834427	147.320000
248.927261	146.180000
249.020111	146.120000
249.112946	146.920000
249.205795	146.760000
249.298630	146.740000
249.391495	147.040000
249.484344	146.740000
249.577179	146.140000
249.670029	146.660000
249.762878	146.960000
249.855728	146.800000
249.948563	146.800000
250.041412	146.300000
250.134262	146.000000
250.227112	146.280000
250.319962	146.640000
250.412827	146.700000
250.505692	146.620000
250.598541	146.520000
250.691391	145.860000
250.784241	145.880000
250.877106	145.920000
250.969955	146.060000
251.062805	146.640000
251.155670	147.220000
251.248520	146.720000
251.341385	147.040000
251.434235	147.240000
251.527100	146.760000
251.619965	146.400000
251.712814	147.380000
251.805695	147.000000
251.898560	147.040000
251.991425	147.380000
252.084290	147.560000
252.177155	146.700000
252.270020	146.760000
252.362885	146.980000
252.455750	147.020000
252.548615	146.760000
252.641479	146.840000
252.734360	146.980000
252.827240	146.880000
252.920105	146.720000
253.012970	146.800000
253.105850	146.780000
253.198715	146.360000
253.291595	146.140000
253.384460	145.580000
253.477341	145.460000
253.570221	145.760000
253.663086	145.540000
253.755966	145.860000
253.848846	146.340000
253.941727	146.640000
254.034592	146.420000
254.127472	146.300000
254.220367	146.780000
254.313248	146.360000
254.406128	145.840000
254.499008	146.220000
254.591904	147.320000
254.684784	147.460000
254.777664	148.020000
254.870544	147.900000
254.963440	147.700000
255.056335	147.300000
255.149216	146.700000
255.242111	146.900000
255.334991	147.280000
255.427887	147.260000
255.520767	147.320000
255.613663	147.400000
255.706558	146.600000
255.799438	146.200000
255.892334	145.960000
255.985229	145.780000
256.078125	145.500000
256.171021	145.820000
256.263916	146.280000
256.356812	146.640000
256.449707	146.760000
256.542603	146.800000
256.635498	147.300000
256.728394	147.280000
256.821289	146.940000
256.914215	147.140000
257.007080	147.400000
257.100006	147.160000
257.192932	147.640000
257.285828	147.780000
257.378723	147.520000
257.471619	147.280000
257.564545	147.120000
257.657440	147.040000
257.750336	147.640000
257.843262	147.480000
257.936157	148.540000
258.029053	148.720000
258.121979	148.700000
258.214874	147.980000
258.307800	147.900000
258.400696	146.800000
258.493622	146.420000
258.586517	145.520000
258.679443	146.040000
258.772339	145.740000
258.865265	145.320000
258.958160	145.260000
259.051086	146.120000
259.144012	145.880000
259.236938	146.740000
259.329834	147.360000
259.422791	147.160000
259.515717	146.760000
259.608612	146.240000
259.701538	146.500000
259.794464	146.260000
259.887390	146.560000
259.980316	146.440000
260.073212	146.720000
260.166138	145.500000
260.259064	145.860000
260.351990	146.300000
260.444916	146.280000
260.537842	146.660000
260.630768	147.520000
260.723694	147.440000
260.816620	147.320000
260.909546	147.440000
261.002472	146.940000
261.095398	146.340000
261.188354	146.160000
261.281281	145.600000
261.374207	145.640000
261.467133	146.420000
261.560089	146.960000
261.653015	146.620000
261.745972	147.220000
261.838867	147.540000
261.931824	147.580000
262.024780	147.120000
262.117706	147.480000
262.210663	147.360000
262.303589	147.160000
262.396515	146.900000
262.489471	147.760000
262.582397	147.740000
262.675354	147.420000
262.768280	147.380000
262.861237	147.040000
262.954163	146.460000
263.047119	146.700000
263.140045	146.580000
263.233002	146.340000
263.325958	146.280000
263.418884	145.960000
263.511841	145.620000
263.604797	145.860000
263.697723	145.980000
263.790680	146.040000
263.883636	146.520000
263.976593	146.180000
264.069550	146.100000
264.162476	145.920000
264.255463	146.040000
264.348419	145.740000
264.441376	146.740000
264.534332	146.600000
264.627289	146.980000
264.720245	147.400000
264.813202	147.200000
264.906158	146.800000
264.999115	147.440000
265.092072	147.360000
265.185028	147.420000
265.277985	147.920000
265.370941	147.900000
265.463898	147.480000
265.556854	147.200000
265.649811	146.240000
265.742798	146.020000
265.835754	146.160000
265.928711	146.680000
266.021667	146.820000
266.114655	147.260000
266.207611	147.380000
266.300568	146.780000
266.393585	146.100000
266.486511	146.740000
266.579498	145.960000
266.672485	145.800000
266.765442	145.900000
266.858429	146.480000
266.951385	145.500000
267.044342	146.060000
267.137329	146.020000
267.230316	146.520000
267.323273	145.940000
267.416260	146.700000
267.509216	146.580000
267.602203	146.520000
267.695160	146.580000
267.788147	146.860000
267.881134	146.360000
267.974091	146.480000
268.067078	146.340000
268.160065	146.180000
268.253052	145.940000
268.346008	146.520000
268.438995	146.580000
268.531982	146.620000
268.624969	146.360000
268.717987	146.780000
268.810944	146.080000
268.903961	146.280000
268.996948	146.400000
269.089905	147.020000
269.182892	147.100000
269.275879	147.560000
269.368866	146.640000
269.461853	146.820000
269.554871	146.460000
269.647858	146.220000
269.740845	146.520000
269.833832	147.560000
269.926819	147.340000
270.019806	147.460000
270.112793	147.000000
270.205811	146.780000
270.298798	146.460000
270.391785	147.000000
270.484772	146.460000
270.577789	146.800000
270.670776	146.500000
270.763763	146.380000
270.856750	146.380000
270.949768	146.460000
271.042786	146.400000
271.135773	146.360000
271.228790	146.780000
271.321808	146.180000
271.414795	145.880000
271.507782	145.800000
271.600800	145.500000
271.693817	145.600000
271.786804	146.180000
271.879822	146.520000
271.972809	146.560000
272.065826	147.260000
272.158844	146.900000
272.251831	147.480000
272.344849	147.480000
272.437866	147.120000
272.530853	147.260000
272.623871	147.180000
272.716888	145.760000
272.809906	146.000000
272.902893	146.300000
272.995911	145.580000
273.088928	145.840000
273.181946	146.180000
273.274963	145.900000
273.367981	145.800000
273.460999	146.240000
273.554047	146.520000
273.647003	147.300000
273.740051	147.360000
273.833069	147.880000
273.926086	148.200000
274.019135	147.780000
274.112152	147.060000
274.205170	147.000000
274.298187	146.860000
274.391205	145.980000
274.484222	146.080000
274.577240	146.220000
274.670258	146.040000
274.763306	145.980000
274.856323	146.780000
274.949341	146.780000
275.042358	147.120000
275.135406	147.580000
275.228424	147.760000
275.321442	147.500000
275.414490	146.860000
275.507507	147.020000
275.600525	147.320000
275.693573	146.980000
275.786591	146.380000
275.879669	146.960000
275.972656	146.560000
276.065735	146.020000
276.158752	146.600000
276.251801	147.500000
276.344818	147.560000
276.437866	147.420000
276.530884	147.360000
276.623932	146.420000
276.716980	146.540000
276.809998	146.500000
276.903046	146.700000
276.996094	147.560000
277.089111	148.300000
277.182159	148.500000
277.275208	148.520000
277.368256	148.200000
277.461304	147.860000
277.554321	147.160000
277.647369	146.860000
277.740417	146.800000
277.833466	147.040000
277.926514	146.620000
278.019562	147.360000
278.112610	146.860000
278.205688	147.200000
278.298706	147.240000
278.391785	147.280000
278.484833	146.780000
278.577881	146.740000
278.670929	146.820000
278.763977	146.980000
278.857025	147.180000
278.950073	147.460000
279.043121	147.380000
279.136169	147.260000
279.229248	146.820000
279.322296	146.800000
279.415344	146.580000
279.508392	146.700000
279.601440	146.220000
279.694519	145.980000
279.787567	145.680000
279.880615	145.660000
279.973694	145.320000
280.066742	145.560000
280.159790	146.000000
280.252869	146.000000
280.345917	145.920000
280.438995	146.160000
280.532074	146.080000
280.625122	146.280000
280.718201	147.160000
280.811279	147.300000
280.904327	147.520000
280.997406	147.600000
281.090454	147.700000
281.183533	147.040000
281.276581	147.040000
281.369659	146.460000
281.462738	146.800000
281.555786	146.740000
281.648865	146.720000
281.741943	146.620000
281.835022	147.480000
281.928070	146.820000
282.021149	146.460000
282.114227	146.420000
282.207306	146.400000
282.300385	146.320000
282.393433	146.800000
282.486511	146.740000
282.579590	147.180000
282.672668	147.440000
282.765747	147.240000
282.858856	146.820000
282.951904	146.940000
283.045013	146.840000
283.138062	146.800000
283.231171	146.900000
283.324249	147.400000
283.417328	147.700000
283.510406	147.340000
283.603485	147.260000
283.696564	146.880000
283.789642	146.720000
283.882751	146.380000
283.975830	147.080000
284.068909	146.760000
284.161987	147.520000
284.255066	147.120000
284.348175	147.540000
284.441254	146.960000
284.534332	147.360000
284.627441	146.380000
284.720520	146.280000
284.813599	146.280000
284.906708	146.380000
284.999786	145.920000
285.092896	146.160000
285.185974	147.340000
285.279053	146.560000
285.372192	146.700000
285.465240	147.380000
285.558380	147.340000
285.651459	146.560000
285.744568	147.700000
285.837677	147.080000
285.930756	147.160000
286.023865	147.420000
286.116943	147.040000
286.210052	146.800000
286.303162	147.260000
286.396240	146.840000
286.489349	146.560000
286.582458	146.840000
286.675568	146.200000
286.768646	146.180000
286.861755	146.600000
286.954865	147.320000
287.047974	147.320000
287.141083	147.240000
287.234161	147.180000
287.327271	146.920000
287.420380	146.960000
287.513519	146.740000
287.606598	147.060000
287.699738	147.120000
287.792816	146.880000
287.885956	146.500000
287.979034	146.480000
288.072174	146.680000
288.165283	146.800000
288.258392	147.020000
288.351501	146.460000
288.444611	146.700000
288.537720	146.840000
288.630859	146.740000
288.723969	147.080000
288.817078	147.820000
288.910187	147.920000
289.003296	147.320000
289.096436	146.940000
289.189545	146.300000
289.282654	145.800000
289.375763	145.900000
289.468903	146.420000
289.562012	146.760000
289.655121	147.260000
289.748260	147.240000
289.841400	147.520000
289.934509	147.100000
290.027649	147.040000
290.120728	146.720000
290.213898	146.820000
290.306976	146.440000
290.400146	146.660000
290.493256	146.360000
290.586395	146.240000
290.679535	146.600000
290.772644	146.260000
290.865784	145.560000
290.958893	145.720000
291.052032	145.580000
291.145172	145.380000
291.238281	145.280000
291.331421	145.700000
291.424561	146.000000
291.517670	146.140000
291.610809	146.320000
291.703949	146.200000
291.797089	146.500000
291.890228	146.220000
291.983337	146.040000
292.076477	145.740000
292.169617	146.380000
292.262756	146.380000
292.355927	146.480000
292.449036	146.380000
292.542206	146.260000
292.635315	146.240000
292.728485	146.440000
292.821625	145.800000
292.914764	147.000000
293.007904	147.300000
293.101044	147.100000
293.194183	146.760000
293.287323	147.220000
293.380463	146.080000
293.473602	145.700000
293.566742	145.960000
293.659882	146.420000
293.753021	146.780000
293.846191	147.260000
293.939331	147.280000
294.032471	147.160000
294.125610	146.580000
294.218781	146.940000
294.311920	147.240000
294.405060	147.280000
294.498230	147.260000
294.591370	147.400000
294.684540	146.240000
294.777679	145.520000
294.870850	146.020000
294.963959	145.840000
295.057159	145.560000
295.150299	146.020000
295.243469	146.240000
295.336609	145.240000
295.429779	145.180000
295.522919	145.960000
295.616089	146.140000
295.709229	146.840000
295.802399	147.520000
295.895569	147.360000
295.988708	146.780000
296.081879	146.780000
296.175018	145.780000
296.268188	145.800000
296.361359	146.460000
296.454529	146.720000
296.547668	146.580000
296.640839	146.860000
296.734009	146.620000
296.827179	146.740000
296.920319	146.900000
297.013519	146.660000
297.106659	146.900000
297.199860	147.000000
297.292999	146.520000
297.386200	146.280000
297.479309	146.100000
297.572510	145.840000
297.665680	145.780000
297.758850	146.060000
297.852020	145.820000
297.945190	145.740000
298.038361	145.620000
298.131531	146.540000
298.224701	146.160000
298.317871	145.940000
298.411072	145.900000
298.504242	145.840000
298.597412	144.900000
298.690582	145.140000
298.783752	145.500000
298.876923	146.220000
298.970093	146.640000
299.063293	146.980000
299.156464	147.360000
299.249634	147.100000
299.342834	147.060000
299.436005	147.300000
299.529205	147.200000
299.622345	146.940000
299.715576	146.780000
299.808716	146.440000
299.901917	146.200000
299.995117	146.400000
300.088287	146.400000
300.181488	146.160000
300.274658	145.960000
300.367828	145.760000
300.461029	145.720000
300.554199	146.020000
300.647400	146.360000
300.740601	147.220000
300.833771	146.880000
300.926971	146.820000
301.020142	145.940000
301.113342	146.140000
301.206512	145.680000
301.299713	146.500000
301.392914	146.700000
301.486084	147.260000
301.579285	147.320000
301.672516	147.880000
301.765686	147.540000
301.858887	147.260000
301.952057	147.020000
302.045288	146.940000
302.138458	146.600000
302.231659	146.500000
302.324860	146.580000
302.418060	146.740000
302.511261	146.840000
302.604462	146.860000
302.697662	146.960000
302.790863	146.700000
302.884064	146.140000
302.977264	145.860000
303.070465	146.440000
303.163666	146.680000
303.256866	147.140000
303.350067	147.480000
303.443268	147.520000
303.536469	146.920000
303.629669	146.720000
303.722870	146.620000
303.816071	146.540000
303.909271	146.880000
304.002472	146.520000
304.095673	146.320000
304.188934	145.640000
304.282104	146.560000
304.375336	146.280000
304.468506	146.480000
304.561768	146.260000
304.654968	147.120000
304.748169	146.400000
304.841370	146.300000
304.934601	146.440000
305.027802	146.500000
305.121002	145.960000
305.214233	145.860000
305.307434	146.020000
305.400665	146.680000
305.493866	146.660000
305.587097	147.020000
305.680298	146.960000
305.773499	147.600000
305.866730	147.060000
305.959930	147.300000
306.053162	147.300000
306.146393	147.220000
306.239594	146.200000
306.332825	145.900000
306.426025	146.480000
306.519287	146.160000
306.612488	146.220000
306.705719	146.480000
306.798920	146.640000
306.892181	145.860000
306.985352	145.600000
307.078613	145.300000
307.171844	145.460000
307.265045	145.200000
307.358276	144.940000
307.451508	145.460000
307.544739	146.380000
307.637970	146.180000
307.731201	146.060000
307.824402	147.060000
307.917633	147.100000
308.010864	146.800000
308.104095	147.300000
308.197327	147.720000
308.290558	147.400000
308.383789	146.980000
308.477020	146.820000
308.570251	146.340000
308.663483	145.860000
308.756714	145.500000
308.849976	145.700000
308.943176	146.060000
309.036438	146.160000
309.129639	146.180000
309.222900	146.440000
309.316101	146.260000
309.409393	145.840000
309.502625	145.500000
309.595856	145.680000
309.689087	145.860000
309.782318	145.820000
309.875580	145.880000
309.968811	146.120000
310.062042	145.960000
310.155273	145.340000
310.248535	145.880000
310.341766	146.060000
310.434998	145.780000
310.528259	145.960000
310.621490	146.520000
310.714722	145.860000
310.807983	145.640000
310.901215	145.740000
310.994476	145.960000
311.087708	145.760000
311.181000	146.520000
311.274200	146.200000
311.367462	146.460000
311.460693	146.220000
311.553986	146.820000
311.647186	146.920000
311.740479	147.800000
311.833710	147.460000
311.926971	147.440000
312.020203	146.580000
312.113464	145.920000
312.206726	145.180000
312.299957	145.700000
312.393219	145.900000
312.486481	146.080000
312.579712	146.380000
312.672974	146.300000
312.766235	146.040000
312.859497	145.980000
312.952759	145.560000
313.045990	146.360000
313.139252	146.080000
313.232513	146.120000
313.325775	146.000000
313.419037	145.980000
313.512299	144.600000
313.605530	145.360000
313.698822	145.440000
313.792053	145.580000
313.885345	145.480000
313.978577	146.040000
314.071869	145.480000
314.165131	145.620000
314.258392	145.860000
314.351654	146.160000
314.444916	145.400000
314.538177	145.700000
314.631439	145.920000
314.724701	145.700000
314.817993	145.640000
314.911255	146.280000
315.004517	145.980000
315.097778	145.840000
315.191040	146.280000
315.284302	146.680000
315.377594	146.600000
315.470856	146.900000
315.564117	146.260000
315.657379	145.380000
315.750671	144.920000
315.843933	145.340000
315.937195	144.900000
316.030518	145.140000
316.123749	145.460000
316.217041	146.540000
316.310303	146.180000
316.403595	146.540000
316.496857	146.860000
316.590149	146.940000
316.683411	145.900000
316.776703	145.800000
316.869965	145.800000
316.963257	145.440000
317.056519	144.860000
317.149811	145.080000
317.243073	144.980000
317.336365	145.040000
317.429626	145.340000
317.522919	145.980000
317.616180	146.160000
317.709473	146.080000
317.802765	146.220000
317.896027	145.920000
317.989319	146.000000
318.082611	145.660000
318.175873	145.540000
318.269165	145.480000
318.362488	145.760000
318.455750	145.560000
318.549042	146.040000
318.642303	146.620000
318.735626	146.360000
318.828888	146.100000
318.922211	145.700000
319.015472	145.960000
319.108765	145.580000
319.202057	145.320000
319.295349	145.620000
319.388641	145.900000
319.481934	145.520000
319.575226	145.500000
319.668518	146.120000
319.761810	146.280000
319.855103	146.340000
319.948395	146.060000
320.041687	146.180000
320.134979	145.960000
320.228271	145.440000
320.321564	145.360000
320.414856	145.740000
320.508148	145.160000
320.601440	144.920000
320.694763	145.080000
320.788025	145.560000
320.881348	145.560000
320.974640	145.820000
321.067963	145.640000
321.161224	145.780000
321.254547	145.100000
321.347839	145.500000
321.441162	145.340000
321.534454	145.760000
321.627747	145.580000
321.721069	146.540000
321.814362	146.500000
321.907654	146.760000
322.000946	146.620000
322.094269	147.020000
322.187561	146.120000
322.280884	146.120000
322.374176	146.260000
322.467468	146.460000
322.560791	146.620000
322.654083	147.220000
322.747406	147.000000
322.840698	146.840000
322.934021	147.260000
323.027344	147.000000
323.120636	146.740000
323.213959	146.900000
323.307251	146.820000
323.400574	146.520000
323.493866	146.280000
323.587219	146.400000
323.680511	146.400000
323.773834	146.860000
323.867157	146.700000
323.960449	146.620000
324.053772	146.540000
324.147095	146.360000
324.240387	146.320000
324.333710	146.440000
324.427032	146.840000
324.520355	146.800000
324.613647	146.660000
324.706970	146.500000
324.800293	146.320000
324.893616	146.240000
324.986938	146.320000
325.080231	146.000000
325.173553	146.180000
325.266876	146.720000
325.360199	146.700000
325.453522	146.400000
325.546875	146.280000
325.640167	146.540000
325.733521	146.520000
325.826813	146.560000
325.920166	146.360000
326.013489	146.460000
326.106812	145.580000
326.200134	144.900000
326.293457	144.440000
326.386780	144.640000
326.480103	144.420000
326.573425	144.720000
326.666748	145.120000
326.760071	145.640000
326.853424	145.840000
326.946747	146.020000
327.040070	146.540000
327.133392	146.280000
327.226715	145.640000
327.320068	145.220000
327.413391	145.940000
327.506714	145.380000
327.600037	145.340000
327.693390	145.940000
327.786713	145.980000
327.880066	145.660000
327.973358	146.160000
328.066742	146.540000
328.160034	146.720000
328.253418	147.520000
328.346710	147.480000
328.440063	147.100000
328.533417	146.680000
328.626740	146.560000
328.720093	146.260000
328.813416	146.180000
328.906769	146.240000
329.000092	146.640000
329.093445	146.440000
329.186768	145.960000
329.280121	146.240000
329.373444	146.380000
329.466797	146.180000
329.560120	146.400000
329.653473	146.820000
329.746796	146.600000
329.840149	146.560000
329.933502	146.720000
330.026825	146.180000
330.120178	145.800000
330.213562	145.780000
330.306854	145.580000
330.400238	145.360000
330.493561	145.480000
330.586945	146.280000
330.680237	146.460000
330.773621	146.860000
330.866974	147.020000
330.960327	147.380000
331.053680	146.840000
331.147003	146.740000
331.240356	146.960000
331.333710	147.100000
331.427063	146.580000
331.520416	146.420000
331.613770	146.260000
331.707123	145.940000
331.800476	145.960000
331.893829	146.980000
331.987152	146.920000
332.080505	147.060000
332.173859	146.820000
332.267212	146.260000
332.360565	145.620000
332.453918	145.940000
332.547333	145.920000
332.640656	145.940000
332.734039	146.220000
332.827362	146.040000
332.920746	146.400000
333.014069	146.380000
333.107452	146.820000
333.200806	146.820000
333.294159	147.060000
333.387543	146.260000
333.480896	146.040000
333.574249	145.840000
333.667603	145.480000
333.760956	145.800000
333.854340	146.120000
333.947693	146.260000
334.041046	146.360000
334.134430	146.960000
334.227783	146.200000
334.321136	145.920000
334.414520	145.720000
334.507874	145.880000
334.601227	145.600000
334.694611	145.900000
334.787964	146.040000
334.881348	146.200000
334.974701	145.740000
335.068085	145.380000
335.161438	145.800000
335.254822	145.920000
335.348175	146.100000
335.441559	145.860000
335.534943	146.920000
335.628296	146.520000
335.721680	146.420000
335.815033	146.480000
335.908417	146.860000
336.001770	146.640000
336.095154	146.580000
336.188538	146.180000
336.281891	145.740000
336.375275	145.360000
336.468658	144.760000
336.562012	144.860000
336.655396	145.740000
336.748779	146.160000
336.842133	146.620000
336.935516	147.140000
337.028900	146.560000
337.122284	146.280000
337.215637	146.500000
337.309021	146.100000
337.402435	145.560000
337.495789	146.080000
337.589203	145.740000
337.682526	145.220000
337.775940	145.720000
337.869324	145.880000
337.962708	145.380000
338.056091	146.220000
338.149475	146.080000
338.242859	145.940000
338.336243	145.800000
338.429626	146.300000
338.523010	145.820000
338.616394	145.600000
338.709778	145.680000
338.803162	146.280000
338.896545	146.240000
338.989929	145.640000
339.083313	146.180000
339.176697	145.840000
339.270081	145.400000
339.363464	145.680000
339.456848	146.380000
339.550232	145.700000
339.643616	145.700000
339.737030	145.780000
339.830383	145.280000
339.923828	145.320000
340.017181	145.960000
340.110596	146.100000
340.203949	145.960000
340.297363	145.960000
340.390778	145.780000
340.484161	145.440000
340.577545	145.160000
340.670959	145.260000
340.764343	145.500000
340.857727	145.440000
340.951111	145.180000
341.044525	145.640000
341.137909	145.540000
341.231293	145.260000
341.324707	144.940000
341.418091	146.140000
341.511505	145.960000
341.604889	146.080000
341.698303	146.560000
341.791687	146.840000
341.885071	146.180000
341.978485	146.120000
342.071899	146.120000
342.165283	146.220000
342.258698	146.600000
342.352081	146.880000
342.445496	147.280000
342.538879	147.080000
342.632324	146.700000
342.725708	146.400000
342.819122	145.800000
342.912506	145.220000
343.005920	145.420000
343.099335	146.180000
343.192719	146.240000
343.286133	146.460000
343.379547	146.940000
343.472931	147.000000
343.566345	146.180000
343.659760	146.360000
343.753143	146.000000
343.846558	145.540000
343.939972	145.260000
344.033386	145.980000
344.126770	145.840000
344.220184	146.040000
344.313599	146.520000
344.407043	146.940000
344.500427	146.220000
344.593872	146.420000
344.687225	146.320000
344.780670	145.740000
344.874054	145.480000
344.967499	146.200000
345.060913	145.800000
345.154327	145.960000
345.247742	146.040000
345.341156	145.920000
345.434570	145.220000
345.527985	145.420000
345.621399	145.420000
345.714813	145.220000
345.808228	145.540000
345.901642	145.340000
345.995056	144.740000
346.088470	145.200000
346.181885	145.740000
346.275299	145.300000
346.368713	145.400000
346.462128	145.320000
346.555573	144.860000
346.648987	144.980000
346.742401	145.140000
346.835815	145.680000
346.929260	145.740000
347.022644	145.680000
347.116119	145.760000
347.209503	145.980000
347.302948	146.540000
347.396362	147.540000
347.489807	147.940000
347.583221	148.180000
347.676636	147.720000
347.770050	146.780000
347.863495	146.080000
347.956909	146.040000
348.050323	145.000000
348.143768	145.400000
348.237183	145.100000
348.330597	145.760000
348.424042	145.940000
348.517456	146.500000
348.610901	146.660000
348.704315	146.720000
348.797760	145.840000
348.891174	145.100000
348.984619	144.860000
349.078033	144.820000
349.171448	145.380000
349.264923	145.680000
349.358337	145.920000
349.451782	146.020000
349.545197	145.580000
349.638641	144.640000
349.732086	144.300000
349.825500	144.640000
349.918945	144.420000
350.012390	144.820000
350.105804	145.840000
350.199249	146.280000
350.292664	146.620000
350.386108	146.800000
350.479553	147.280000
350.572968	146.940000
350.666412	147.200000
350.759857	146.840000
350.853302	147.380000
350.946716	146.900000
351.040161	146.940000
351.133606	146.820000
351.227081	146.480000
351.320465	146.800000
351.413940	146.820000
351.507355	146.880000
351.600830	146.560000
351.694244	146.300000
351.787720	145.800000
351.881104	145.520000
351.974579	145.460000
352.067993	146.140000
352.161469	146.640000
352.254883	146.040000
352.348358	146.140000
352.441803	145.960000
352.535248	145.740000
352.628693	145.980000
352.722137	146.160000
352.815582	146.400000
352.909027	146.580000
353.002472	146.000000
353.095917	145.640000
353.189362	145.720000
353.282806	145.540000
353.376251	145.320000
353.469696	145.280000
353.563141	146.040000
353.656586	146.380000
353.750061	145.920000
353.843475	145.980000
353.936981	146.560000
354.030396	145.840000
354.123871	145.660000
354.217285	146.440000
354.310760	147.080000
354.404175	146.940000
354.497681	147.060000
354.591095	146.960000
354.684570	146.060000
354.777985	145.620000
354.871490	145.360000
354.964935	145.520000
355.058380	145.840000
355.151855	145.980000
355.245300	146.200000
355.338745	146.720000
355.432220	146.680000
355.525665	145.760000
355.619110	146.400000
355.712585	146.160000
355.806030	145.740000
355.899475	145.400000
355.992950	146.120000
356.086426	146.160000
356.179871	145.980000
356.273346	145.920000
356.366791	146.080000
356.460266	146.220000
356.553711	145.660000
356.647186	145.800000
356.740631	145.620000
356.834106	145.600000
356.927551	145.480000
357.021027	145.560000
357.114471	145.880000
357.207947	146.100000
357.301422	146.100000
357.394867	146.260000
357.488342	146.740000
357.581818	146.660000
357.675262	146.920000
357.768738	146.820000
357.862213	146.180000
357.955658	145.960000
358.049133	145.500000
358.142609	145.740000
358.236053	145.600000
358.329529	145.720000
358.423035	146.220000
358.516449	146.160000
358.609955	146.340000
358.703400	147.020000
358.796906	147.320000
358.890350	146.520000
358.983826	147.100000
359.077271	146.340000
359.170776	145.680000
359.264221	145.680000
359.357727	146.100000
359.451172	146.420000
359.544647	146.560000
359.638123	146.680000
359.731598	147.000000
359.825073	147.400000
359.918549	147.040000
360.012024	147.360000
360.105499	146.920000
360.198975	146.800000
360.292450	146.220000
360.385925	146.120000
360.479401	145.640000
360.572876	146.280000
360.666351	146.400000
360.759857	146.240000
360.853302	146.140000
360.946808	146.020000
361.040253	145.920000
361.133759	145.360000
361.227203	145.780000
361.320709	145.380000
361.414154	145.920000
361.507660	146.140000
361.601105	146.700000
361.694641	147.240000
361.788086	147.660000
361.881592	147.900000
361.975067	147.540000
362.068542	147.800000
362.162018	147.160000
362.255524	146.500000
362.348999	146.020000
362.442474	146.360000
362.535950	145.680000
362.629456	145.500000
362.722931	145.860000
362.816406	146.400000
362.909882	146.500000
363.003387	146.300000
363.096863	146.820000
363.190338	146.880000
363.283875	146.580000
363.377319	146.560000
363.470825	147.360000
363.564301	146.680000
363.657806	146.700000
363.751282	146.100000
363.844788	146.720000
363.938232	146.040000
364.031769	146.680000
364.125214	146.780000
364.218750	147.740000
364.312225	146.300000
364.405731	146.640000
364.499207	146.300000
364.592712	146.260000
364.686188	145.900000
364.779694	146.580000
364.873169	146.300000
364.966675	146.280000
365.060150	146.040000
365.153656	146.320000
365.247131	146.520000
365.340637	146.800000
365.434143	147.200000
365.527618	147.360000
365.621155	146.380000
365.714600	145.940000
365.808136	145.960000
365.901611	145.020000
365.995117	144.980000
366.088593	145.240000
366.182129	145.180000
366.275604	145.320000
366.369110	145.620000
366.462585	145.680000
366.556122	146.340000
366.649567	146.300000
366.743103	146.160000
366.836609	145.840000
366.930115	146.000000
367.023590	145.940000
367.117096	146.140000
367.210602	145.980000
367.304108	147.160000
367.397614	147.740000
367.491119	147.660000
367.584595	147.780000
367.678101	148.020000
367.771606	147.060000
367.865112	146.480000
367.958649	145.840000
368.052124	145.540000
368.145660	145.200000
368.239136	146.060000
368.332672	146.080000
368.426147	146.320000
368.519684	146.280000
368.613159	146.880000
368.706696	146.160000
368.800171	146.240000
368.893707	146.380000
368.987183	146.640000
369.080719	146.420000
369.174225	146.440000
369.267731	146.560000
369.361237	146.580000
369.454742	146.520000
369.548248	146.600000
369.641754	146.280000
369.735260	146.100000
369.828766	145.320000
369.922272	145.940000
370.015808	145.560000
370.109314	145.660000
370.202820	145.380000
370.296356	146.940000
370.389832	146.400000
370.483368	146.200000
370.576874	146.380000
370.670410	146.500000
370.763885	145.200000
370.857422	145.160000
370.950928	145.260000
371.044464	146.020000
371.137939	146.060000
371.231476	146.720000
371.324982	147.480000
371.418518	147.620000
371.512024	146.980000
371.605560	147.120000
371.699066	147.020000
371.792572	146.240000
371.886108	146.500000
371.979614	146.380000
372.073120	146.620000
372.166656	146.420000
372.260162	146.720000
372.353668	146.560000
372.447205	146.540000
372.540710	146.160000
372.634277	145.840000
372.727753	145.700000
372.821320	145.660000
372.914795	145.580000
373.008362	145.640000
373.101837	146.300000
373.195404	146.180000
373.288879	146.100000
373.382446	146.960000
373.475922	147.000000
373.569489	147.200000
373.662964	147.500000
373.756531	147.360000
373.850037	147.200000
373.943573	147.120000
374.037109	146.200000
374.130615	146.260000
374.224152	146.760000
374.317657	146.320000
374.411194	147.200000
374.504730	147.440000
374.598236	146.900000
374.691772	146.240000
374.785309	146.440000
374.878815	145.380000
374.972351	145.920000
375.065887	146.060000
375.159454	146.960000
375.252930	146.740000
375.346497	147.560000
375.440002	147.860000
375.533569	147.980000
375.627045	147.380000
375.720612	147.140000
375.814117	146.920000
375.907684	146.560000
376.001160	145.880000
376.094727	145.580000
376.188232	146.580000
376.281799	146.460000
376.375336	146.280000
376.468872	147.300000
376.562408	147.380000
376.655914	146.880000
376.749451	146.800000
376.842987	147.060000
376.936523	146.860000
377.030060	147.360000
377.123596	147.420000
377.217133	146.820000
377.310669	146.660000
377.404205	146.780000
377.497772	147.040000
377.591278	146.720000
377.684845	147.820000
377.778351	147.980000
377.871918	147.760000
377.965424	146.600000
378.058990	146.620000
378.152496	146.140000
378.246063	146.020000
378.339569	146.280000
378.433136	146.860000
378.526642	147.400000
378.620209	147.040000
378.713745	146.780000
378.807312	146.820000
378.900848	146.920000
378.994385	146.460000
379.087921	146.060000
379.181458	146.400000
379.274994	145.620000
379.368530	145.420000
379.462097	145.520000
379.555634	146.360000
379.649170	145.600000
379.742706	145.740000
379.836273	146.060000
379.929810	145.740000
380.023376	145.160000
380.116882	145.340000
380.210449	145.520000
380.303986	145.040000
380.397552	144.920000
380.491058	145.420000
380.584656	145.720000
380.678162	146.120000
380.771729	146.460000
380.865265	147.340000
380.958832	147.120000
381.052368	147.200000
381.145935	147.340000
381.239471	147.820000
381.333008	147.520000
381.426575	147.700000
381.520111	148.000000
381.613647	147.740000
381.707214	147.260000
381.800751	146.780000
381.894318	146.880000
381.987854	146.140000
382.081421	146.100000
382.174988	145.720000
382.268524	145.680000
382.362091	145.700000
382.455627	146.440000
382.549194	146.120000
382.642731	146.080000
382.736298	145.800000
382.829834	145.320000
382.923401	145.700000
383.016937	145.960000
383.110504	146.140000
383.204041	146.820000
383.297607	147.180000
383.391174	146.400000
383.484741	147.180000
383.578278	146.960000
383.671844	146.260000
383.765411	146.020000
383.858948	146.280000
383.952515	145.580000
384.046051	146.360000
384.139618	147.060000
384.233185	147.040000
384.326721	147.100000
384.420288	147.560000
384.513855	146.900000
384.607422	146.880000
384.700989	147.340000
384.794525	146.920000
384.888123	146.680000
384.981659	147.000000
385.075226	146.580000
385.168762	146.140000
385.262360	146.280000
385.355896	145.460000
385.449463	145.320000
385.542999	145.400000
385.636597	146.040000
385.730164	146.440000
385.823730	146.380000
385.917267	146.160000
386.010834	146.360000
386.104401	145.960000
386.197968	146.000000
386.291534	146.420000
386.385101	146.680000
386.478668	147.040000
386.572235	146.940000
386.665802	146.040000
386.759338	146.060000
386.852905	145.840000
386.946472	145.040000
387.040070	145.100000
387.133606	145.740000
387.227203	145.400000
387.320740	145.980000
387.414337	146.420000
387.507874	146.200000
387.601471	146.040000
387.695007	146.280000
387.788605	145.740000
387.882141	146.000000
387.975739	146.100000
388.069275	145.760000
388.162872	146.080000
388.256439	146.160000
388.350037	145.620000
388.443604	145.780000
388.537170	146.340000
388.630737	146.740000
388.724304	147.060000
388.817871	146.860000
388.911438	146.760000
389.005005	146.900000
389.098602	146.780000
389.192169	146.180000
389.285736	147.060000
389.379333	147.000000
389.472870	146.260000
389.566467	145.800000
389.660034	146.380000
389.753632	145.900000
389.847168	146.440000
389.940765	147.160000
390.034332	147.440000
390.127930	146.840000
390.221466	146.720000
390.315063	146.100000
390.408630	145.200000
390.502228	144.640000
390.595795	144.960000
390.689362	145.320000
390.782959	145.800000
390.876526	146.280000
390.970093	146.360000
391.063690	146.880000
391.157257	146.800000
391.250824	147.020000
391.344421	147.020000
391.437988	147.660000
391.531555	147.560000
391.625153	147.320000
391.718750	147.160000
391.812317	146.940000
391.905914	146.780000
391.999481	146.540000
392.093079	146.740000
392.186615	146.940000
392.280243	147.300000
392.373779	147.200000
392.467407	147.560000
392.560944	147.380000
392.654572	146.960000
392.748108	146.920000
392.841736	146.780000
392.935303	146.420000
393.028900	146.280000
393.122467	146.120000
393.216064	145.860000
393.309631	145.620000
393.403229	145.260000
393.496796	145.360000
393.590393	144.920000
393.683990	145.440000
393.777557	146.080000
393.871155	146.440000
393.964722	147.060000
394.058350	147.620000
394.151917	147.340000
394.245514	146.740000
394.339081	147.040000
394.432678	146.840000
394.526245	146.640000
394.619873	146.140000
394.713409	146.340000
394.807037	145.880000
394.900604	145.900000
394.994202	146.120000
395.087769	146.520000
395.181396	146.180000
395.274994	147.040000
395.368561	146.180000
395.462158	146.280000
395.555756	145.900000
395.649353	146.500000
395.742920	145.860000
395.836517	146.780000
395.930115	146.040000
396.023712	146.720000
396.117279	146.680000
396.210876	146.240000
396.304474	146.320000
396.398071	146.960000
396.491669	147.080000
396.585266	147.060000
396.678833	147.300000
396.772461	147.160000
396.866028	146.960000
396.959656	147.060000
397.053223	147.000000
397.146851	147.460000
397.240417	148.300000
397.334015	149.600000
397.427582	150.320000
397.521210	152.120000
397.614807	154.180000
397.708405	156.220000
397.802002	158.760000
397.895599	162.780000
397.989197	166.940000
398.082794	172.120000
398.176392	178.760000
398.269989	186.920000
398.363586	196.780000
398.457184	209.180000
398.550781	223.760000
398.644379	239.800000
398.737976	257.760000
398.831573	277.200000
398.925201	296.660000
399.018768	316.000000
399.112396	334.760000
399.205963	352.800000
399.299591	369.440000
399.393158	385.740000
399.486786	401.720000
399.580353	417.180000
399.673981	431.100000
399.767578	444.700000
399.861206	457.240000
399.954773	466.400000
400.048401	471.200000
400.141998	472.360000
400.235596	469.560000
400.329193	461.560000
400.422791	451.300000
400.516418	438.840000
400.610016	426.440000
400.703613	411.400000
400.797211	393.120000
400.890808	373.820000
400.984436	354.340000
401.078033	331.700000
401.171631	309.580000
401.265259	290.000000
401.358826	271.400000
401.452484	253.240000
401.546051	237.760000
401.639679	222.520000
401.733246	209.420000
401.826904	196.560000
401.920471	185.900000
402.014099	177.000000
402.107697	170.280000
402.201324	164.520000
402.294891	160.660000
402.388550	157.700000
402.482147	155.140000
402.575745	152.820000
402.669373	150.700000
402.762970	149.460000
402.856567	148.520000
402.950195	147.740000
403.043793	147.340000
403.137390	147.860000
403.231018	146.920000
403.324615	147.360000
403.418243	147.060000
403.511841	147.480000
403.605469	147.040000
403.699066	147.480000
403.792694	147.180000
403.886292	147.600000
403.979919	147.300000
404.073517	147.040000
404.167145	147.340000
404.260712	147.260000
404.354370	146.960000
404.447937	146.920000
404.541595	147.100000
404.635162	147.020000
404.728821	147.380000
404.822418	147.280000
404.916046	147.080000
405.009644	147.480000
405.103271	147.480000
405.196899	146.940000
405.290497	146.960000
405.384125	147.700000
405.477722	147.140000
405.571350	146.680000
405.664948	146.900000
405.758575	146.580000
405.852203	145.660000
405.945801	145.880000
406.039429	146.020000
406.133057	145.800000
406.226654	146.000000
406.320312	146.220000
406.413879	146.260000
406.507538	146.480000
406.601135	146.000000
406.694763	146.260000
406.788361	146.180000
406.882019	145.680000
406.975586	145.960000
407.069244	146.940000
407.162872	146.980000
407.256470	146.900000
407.350098	147.000000
407.443726	146.460000
407.537323	145.840000
407.630951	145.960000
407.724579	145.560000
407.818207	146.140000
407.911804	146.400000
408.005432	146.420000
408.099060	146.520000
408.192688	147.240000
408.286285	146.740000
408.379913	146.560000
408.473572	146.780000
408.567169	145.860000
408.660828	145.740000
408.754395	145.660000
408.848053	145.420000
408.941650	145.400000
409.035309	145.440000
409.128906	145.260000
409.222565	145.380000
409.316132	145.820000
409.409790	145.500000
409.503387	145.860000
409.597046	146.020000
409.690674	146.320000
409.784302	145.980000
409.877930	146.120000
409.971558	146.200000
410.065186	146.300000
410.158783	146.180000
410.252411	146.280000
410.346039	146.280000
410.439667	146.160000
410.533295	146.260000
410.626923	146.380000
410.720551	146.120000
410.814209	146.640000
410.907806	146.600000
411.001465	145.900000
411.095062	145.680000
411.188721	146.040000
411.282318	145.320000
411.375977	145.220000
411.469574	145.640000
411.563232	145.700000
411.656830	145.200000
411.750488	145.380000
411.844086	145.400000
411.937744	145.480000
412.031372	145.400000
412.125000	145.680000
412.218628	145.660000
412.312256	146.280000
412.405884	146.700000
412.499512	146.800000
412.593170	147.100000
412.686798	147.580000
412.780426	146.780000
412.874054	146.880000
412.967682	146.920000
413.061310	147.460000
413.154968	147.380000
413.248566	147.880000
413.342224	147.300000
413.435852	147.360000
413.529510	146.560000
413.623108	145.880000
413.716766	145.860000
413.810364	146.040000
413.904022	145.440000
413.997650	145.300000
414.091309	146.200000
414.184906	145.840000
414.278564	145.520000
414.372192	146.280000
414.465851	146.720000
414.559479	146.180000
414.653107	147.000000
414.746735	147.100000
414.840393	146.920000
414.934021	147.040000
415.027649	146.500000
415.121277	146.460000
415.214935	146.900000
415.308563	146.800000
415.402191	146.140000
415.495850	146.680000
415.589478	146.000000
415.683136	145.460000
415.776733	145.700000
415.870422	146.360000
415.964020	146.000000
416.057678	146.040000
416.151306	146.280000
416.244965	146.200000
416.338562	146.120000
416.432251	146.780000
416.525848	147.800000
416.619507	147.920000
416.713165	148.040000
416.806793	147.740000
416.900421	147.940000
416.994080	146.660000
417.087708	146.600000
417.181366	146.340000
417.274994	146.580000
417.368622	146.600000
417.462280	147.180000
417.555908	146.940000
417.649567	146.720000
417.743195	146.800000
417.836853	146.200000
417.930481	146.640000
418.024170	146.800000
418.117767	147.320000
418.211426	147.540000
418.305054	147.980000
418.398712	147.160000
418.492340	147.420000
418.585999	147.740000
418.679626	147.100000
418.773285	147.160000
418.866913	147.740000
418.960571	147.600000
419.054230	147.380000
419.147858	147.600000
419.241516	147.520000
419.335144	146.920000
419.428802	146.920000
419.522461	146.180000
419.616089	146.060000
419.709747	146.220000
419.803375	146.480000
419.897034	146.040000
419.990662	146.380000
420.084320	147.020000
420.177979	146.940000
420.271606	147.060000
420.365295	147.560000
420.458893	147.720000
420.552582	147.540000
420.646210	147.380000
420.739868	147.020000
420.833496	146.640000
420.927155	146.240000
421.020782	145.620000
421.114471	145.040000
421.208069	145.360000
421.301758	145.880000
421.395386	146.200000
421.489044	146.320000
421.582703	146.580000
421.676361	147.060000
421.769989	146.460000
421.863647	146.980000
421.957306	147.280000
422.050934	147.640000
422.144592	147.220000
422.238251	147.260000
422.331909	146.560000
422.425537	146.380000
422.519196	146.160000
422.612854	145.980000
422.706543	145.800000
422.800140	145.920000
422.893829	145.620000
422.987457	145.460000
423.081146	145.500000
423.174744	146.080000
423.268433	145.820000
423.362061	145.920000
423.455750	145.560000
423.549347	145.520000
423.643036	144.880000
423.736664	145.620000
423.830353	145.660000
423.924011	146.360000
424.017639	146.100000
424.111298	146.460000
424.204956	145.960000
424.298615	146.160000
424.392273	145.780000
424.485931	146.120000
424.579559	146.280000
424.673218	146.240000
424.766876	146.340000
424.860535	146.060000
424.954193	145.780000
425.047882	146.100000
425.141510	146.140000
425.235199	146.040000
425.328796	146.040000
425.422485	146.100000
425.516113	145.380000
425.609802	145.400000
425.703430	145.420000
425.797119	145.540000
425.890747	145.800000
425.984436	145.940000
426.078064	145.980000
426.171753	146.060000
426.265411	145.920000
426.359070	145.560000
426.452728	145.500000
426.546356	145.120000
426.640015	144.940000
426.733673	145.300000
426.827332	145.100000
426.920990	145.900000
427.014648	145.900000
427.108307	145.980000
427.201965	146.340000
427.295624	146.580000
427.389282	145.540000
427.482941	145.980000
427.576630	146.140000
427.670258	145.320000
427.763947	145.360000
427.857574	145.780000
427.951263	145.300000
428.044922	144.800000
428.138611	145.200000
428.232239	145.500000
428.325928	145.700000
428.419556	146.480000
428.513245	146.460000
428.606903	146.360000
428.700562	145.720000
428.794220	144.900000
428.887878	143.880000
428.981537	144.320000
429.075195	144.420000
429.168854	144.980000
429.262512	145.380000
429.356201	146.020000
429.449860	145.700000
429.543518	145.500000
429.637177	145.820000
429.730835	145.900000
429.824493	145.840000
429.918182	146.280000
430.011810	146.240000
430.105530	145.520000
430.199158	145.640000
430.292847	145.420000
430.386475	145.000000
430.480164	144.920000
430.573792	144.960000
430.667511	144.920000
430.761139	144.960000
430.854828	145.620000
430.948456	145.700000
431.042145	146.140000
431.135834	145.960000
431.229492	146.020000
431.323151	145.760000
431.416809	145.740000
431.510468	145.660000
431.604156	145.600000
431.697815	145.700000
431.791473	145.360000
431.885132	145.200000
431.978821	145.600000
432.072479	146.020000
432.166138	146.560000
432.259827	146.380000
432.353485	147.180000
432.447174	146.980000
432.540802	146.480000
432.634491	146.340000
432.728149	146.780000
432.821838	146.820000
432.915466	146.440000
433.009186	146.780000
433.102814	146.160000
433.196503	146.060000
433.290131	145.800000
433.383850	146.120000
433.477509	146.320000
433.571167	147.200000
433.664856	147.520000
433.758514	147.920000
433.852173	147.480000
433.945862	147.180000
434.039520	146.760000
434.133179	146.100000
434.226868	145.320000
434.320526	145.040000
434.414185	145.680000
434.507874	145.060000
434.601562	145.360000
434.695221	145.560000
434.788910	146.360000
434.882538	146.160000
434.976257	146.140000
435.069885	146.180000
435.163574	146.360000
435.257233	145.620000
435.350922	145.360000
435.444580	145.340000
435.538269	145.160000
435.631897	145.620000
435.725616	146.360000
435.819275	146.600000
435.912964	147.220000
436.006622	147.680000
436.100311	147.000000
436.193970	146.240000
436.287628	146.160000
436.381317	146.060000
436.474976	145.300000
436.568665	145.180000
436.662323	145.320000
436.756012	145.220000
436.849670	145.000000
436.943390	145.360000
437.037018	145.340000
437.130737	145.480000
437.224365	145.200000
437.318085	145.300000
437.411713	145.660000
437.505432	146.160000
437.599060	146.640000
437.692780	147.560000
437.786407	147.580000
437.880127	147.360000
437.973755	146.840000
438.067474	146.400000
438.161133	145.960000
438.254822	146.320000
438.348480	146.220000
438.442169	146.980000
438.535828	147.340000
438.629517	146.960000
438.723175	146.280000
438.816864	146.720000
438.910553	146.100000
439.004211	145.860000
439.097900	145.780000
439.191559	146.100000
439.285248	145.300000
439.378906	145.640000
439.472626	145.180000
439.566284	145.160000
439.659973	145.240000
439.753632	145.180000
439.847321	145.440000
439.940979	145.840000
440.034698	146.020000
440.128326	145.380000
440.222046	145.600000
440.315674	144.800000
440.409393	144.920000
440.503082	144.760000
440.596741	145.340000
440.690430	145.540000
440.784088	145.540000
440.877777	144.900000
440.971466	145.080000
441.065125	144.820000
441.158813	144.540000
441.252502	144.960000
441.346161	145.600000
441.439850	145.780000
441.533539	145.740000
441.627197	146.320000
441.720886	145.840000
441.814606	145.960000
441.908234	146.340000
442.001953	146.480000
442.095612	146.300000
442.189301	146.580000
442.282959	146.600000
442.376678	145.640000
442.470306	146.540000
442.564026	146.140000
442.657684	146.640000
442.751404	146.440000
442.845032	147.620000
442.938751	146.660000
443.032440	146.960000
443.126099	146.200000
443.219788	146.760000
443.313477	146.280000
443.407166	146.560000
443.500824	146.680000
443.594513	146.940000
443.688202	146.300000
443.781891	145.660000
443.875549	145.560000
443.969238	145.220000
444.062927	145.580000
444.156647	145.740000
444.250275	146.640000
444.343994	146.600000
444.437653	146.980000
444.531372	146.480000
444.625031	146.460000
444.718719	145.800000
444.812378	145.740000
444.906097	145.600000
444.999756	145.460000
445.093445	145.180000
445.187103	145.300000
445.280823	145.880000
445.374512	145.360000
445.468201	145.760000
445.561859	145.840000
445.655548	145.840000
445.749237	145.120000
445.842926	145.620000
445.936615	146.060000
446.030304	145.860000
446.123962	145.960000
446.217651	145.900000
446.311340	145.880000
446.405029	145.000000
446.498749	145.000000
446.592407	144.660000
446.686096	145.080000
446.779755	145.200000
446.873474	145.700000
446.967133	146.040000
447.060852	146.060000
447.154510	146.240000
447.248230	145.960000
447.341858	145.540000
447.435577	145.260000
447.529236	144.740000
447.622955	144.380000
447.716644	144.580000
447.810333	144.940000
447.904022	145.640000
447.997711	146.040000
448.091400	146.460000
448.185059	146.380000
448.278748	146.820000
448.372437	146.300000
448.466125	146.680000
448.559814	146.180000
448.653503	146.580000
448.747192	146.500000
448.840912	147.080000
448.934570	146.700000
449.028290	147.100000
449.121948	146.460000
449.215637	145.860000
449.309296	145.040000
449.403015	145.600000
449.496674	145.520000
449.590393	145.700000
449.684052	145.460000
449.777771	146.420000
449.871429	145.360000
449.965149	145.300000
450.058838	145.740000
450.152527	146.400000
450.246216	146.020000
450.339905	146.420000
450.433594	146.160000
450.527283	146.560000
450.620972	146.120000
450.714661	146.120000
450.808350	146.440000
450.902039	146.840000
450.995728	146.220000
451.089417	145.940000
451.183105	145.680000
451.276794	146.100000
451.370514	145.400000
451.464172	144.900000
451.557892	145.020000
451.651550	145.280000
451.745270	144.680000
451.838928	144.740000
451.932648	145.260000
452.026306	145.960000
452.120026	145.600000
452.213684	146.000000
452.307404	146.200000
452.401062	146.360000
452.494781	146.380000
452.588470	146.360000
452.682159	146.060000
452.775848	146.260000
452.869537	145.700000
452.963226	145.020000
453.056915	145.180000
453.150604	145.140000
453.244293	145.120000
453.337982	145.720000
453.431671	146.160000
453.525360	146.380000
453.619049	146.560000
453.712769	146.440000
453.806427	145.840000
453.900146	145.560000
453.993805	145.200000
454.087555	145.320000
454.181213	145.180000
454.274933	145.200000
454.368591	145.180000
454.462311	145.220000
454.555969	144.920000
454.649689	145.640000
454.743347	145.520000
454.837067	146.380000
454.930756	146.940000
455.024445	147.240000
455.118134	146.900000
455.211853	147.200000
455.305542	146.520000
455.399231	146.300000
455.492920	146.040000
455.586609	146.020000
455.680298	146.320000
455.773987	146.140000
455.867676	146.220000
455.961365	146.680000
456.055084	146.620000
456.148773	146.080000
456.242493	146.560000
456.336151	146.260000
456.429871	146.320000
456.523529	146.700000
456.617249	146.460000
456.710907	146.860000
456.804626	146.740000
456.898315	145.700000
456.992035	145.460000
457.085693	145.580000
457.179413	144.380000
457.273102	145.460000
457.366791	146.180000
457.460480	146.440000
457.554199	147.260000
457.647888	147.580000
457.741577	146.480000
457.835266	146.500000
457.928955	146.440000
458.022644	146.260000
458.116364	147.040000
458.210052	147.200000
458.303741	147.120000
458.397461	146.460000
458.491119	145.900000
458.584839	145.380000
458.678528	145.100000
458.772247	145.180000
458.865906	145.480000
458.959625	146.460000
459.053284	146.420000
459.147003	146.400000
459.240692	146.820000
459.334412	146.980000
459.428070	146.560000
459.521790	146.420000
459.615479	146.560000
459.709198	146.660000
459.802887	146.300000
459.896576	145.860000
459.990265	146.100000
460.083954	146.260000
460.177673	145.540000
460.271362	145.740000
460.365051	145.720000
460.458740	145.360000
460.552429	144.860000
460.646149	144.940000
460.739838	144.460000
460.833527	144.820000
460.927246	144.840000
461.020905	145.180000
461.114655	145.340000
461.208313	146.020000
461.302032	145.680000
461.395691	145.920000
461.489441	146.000000
461.583099	145.940000
461.676819	145.240000
461.770477	145.860000
461.864197	145.660000
461.957916	145.280000
462.051605	144.720000
462.145294	146.120000
462.238983	145.140000
462.332703	145.620000
462.426392	146.540000
462.520081	146.740000
462.613770	145.700000
462.707489	146.480000
462.801178	146.100000
462.894867	145.500000
462.988556	145.560000
463.082275	145.680000
463.175964	145.140000
463.269684	145.540000
463.363342	145.460000
463.457092	144.980000
463.550751	145.260000
463.644470	145.320000
463.738129	145.080000
463.831879	145.220000
463.925537	146.300000
464.019257	146.260000
464.112946	146.520000
464.206665	146.320000
464.300323	146.280000
464.394043	145.980000
464.487762	145.640000
464.581451	146.180000
464.675140	146.180000
464.768829	146.440000
464.862549	146.440000
464.956238	146.700000
465.049927	146.240000
465.143646	146.300000
465.237335	145.740000
465.331024	146.040000
465.424713	146.080000
465.518433	146.100000
465.612152	146.040000
465.705811	146.440000
465.799561	145.840000
465.893219	145.540000
465.986938	145.540000
466.080597	145.540000
466.174347	145.440000
466.268005	145.680000
466.361725	145.960000
466.455414	145.800000
466.549133	145.600000
466.642792	145.820000
466.736542	145.500000
466.830231	145.140000
466.923920	145.140000
467.017609	145.140000
467.111328	144.780000
467.205017	145.000000
467.298706	145.440000
467.392426	145.780000
467.486115	146.300000
467.579803	145.920000
467.673523	146.460000
467.767212	146.420000
467.860901	146.100000
467.954651	145.760000
468.048309	146.560000
468.142029	146.200000
468.235718	146.140000
468.329437	145.940000
468.423096	145.860000
468.516846	145.920000
468.610504	145.240000
468.704224	144.780000
468.797913	144.980000
468.891632	145.280000
468.985291	144.820000
469.079010	145.540000
469.172729	145.560000
469.266418	145.880000
469.360107	145.900000
469.453827	145.920000
469.547516	145.740000
469.641205	146.120000
469.734924	146.020000
469.828613	146.280000
469.922302	146.500000
470.016022	146.480000
470.109711	146.100000
470.203430	145.460000
470.297150	144.560000
470.390808	144.660000
470.484558	144.440000
470.578217	145.020000
470.671936	145.740000
470.765625	146.680000
470.859344	146.220000
470.953003	146.640000
471.046753	146.280000
471.140411	145.620000
471.234131	145.540000
471.327820	146.400000
471.421539	146.240000
471.515228	146.040000
471.608948	146.580000
471.702637	146.180000
471.796326	145.580000
471.890045	145.920000
471.983734	145.980000
472.077423	145.380000
472.171143	145.300000
472.264832	145.140000
472.358521	144.840000
472.452240	144.820000
472.545929	145.780000
472.639648	146.140000
472.733337	146.760000
472.827057	146.900000
472.920746	147.200000
473.014465	147.040000
473.108124	146.740000
473.201874	146.380000
473.295532	146.200000
473.389252	146.640000
473.482941	146.540000
473.576660	146.440000
473.670319	146.660000
473.764069	146.740000
473.857727	146.440000
473.951477	146.640000
474.045166	147.260000
474.138855	146.820000
474.232574	146.820000
474.326263	146.680000
474.419952	146.840000
474.513672	146.500000
474.607361	146.520000
474.701050	146.820000
474.794769	147.060000
474.888458	146.980000
474.982178	146.920000
475.075867	147.040000
475.169586	146.580000
475.263275	146.200000
475.356995	145.900000
475.450653	145.780000
475.544403	145.260000
475.638062	146.080000
475.731812	145.840000
475.825470	145.800000
475.919189	145.960000
476.012878	146.760000
476.106598	145.840000
476.200256	146.520000
476.294006	146.260000
476.387695	146.360000
476.481384	146.060000
476.575104	146.220000
476.668793	145.660000
476.762512	145.620000
476.856201	145.920000
476.949890	145.740000
477.043610	145.220000
477.137299	145.120000
477.230988	145.260000
477.324707	144.800000
477.418396	145.100000
477.512146	145.340000
477.605804	145.680000
477.699524	145.620000
477.793213	145.580000
477.886932	145.340000
477.980591	145.380000
478.074341	144.900000
478.167999	144.480000
478.261749	144.700000
478.355408	144.440000
478.449127	144.880000
478.542816	145.920000
478.636536	146.860000
478.730225	146.740000
478.823944	147.320000
478.917633	147.300000
479.011322	147.060000
479.105042	146.860000
479.198730	147.200000
479.292450	147.080000
479.386139	146.880000
479.479828	146.840000
479.573547	146.940000
479.667267	146.400000
479.760925	146.720000
479.854675	147.100000
479.948334	146.800000
480.042084	146.220000
480.135742	146.620000
480.229462	145.840000
480.323151	145.600000
480.416870	145.180000
480.510529	145.540000
480.604279	145.180000
480.697937	145.680000
480.791656	144.980000
480.885345	145.000000
480.979065	144.700000
481.072754	145.160000
481.166473	145.620000
481.260132	146.060000
481.353882	146.300000
481.447540	146.500000
481.541260	146.280000
481.635010	145.480000
481.728668	145.560000
481.822388	145.660000
481.916077	145.640000
482.009796	145.600000
482.103485	146.100000
482.197205	146.260000
482.290863	146.240000
482.384613	146.140000
482.478271	145.760000
482.571991	145.700000
482.665680	145.460000
482.759399	146.220000
482.853058	146.660000
482.946808	146.960000
483.040466	146.580000
483.134216	146.660000
483.227875	145.620000
483.321594	146.000000
483.415283	145.780000
483.509003	145.760000
483.602661	145.660000
483.696411	146.520000
483.790070	146.080000
483.883789	146.280000
483.977478	146.520000
484.071198	146.820000
484.164917	146.140000
484.258606	145.640000
484.352325	145.940000
484.445984	145.960000
484.539734	145.860000
484.633392	145.320000
484.727142	145.500000
484.820801	145.260000
484.914520	144.980000
485.008209	145.040000
485.101929	145.960000
485.195587	145.840000
485.289337	145.700000
485.382996	146.260000
485.476715	146.040000
485.570404	146.200000
485.664124	146.280000
485.757782	146.960000
485.851532	146.480000
485.945190	146.560000
486.038910	146.260000
486.132599	146.860000
486.226318	146.060000
486.319977	146.240000
486.413727	146.840000
486.507446	146.660000
486.601105	145.820000
486.694855	145.800000
486.788513	145.240000
486.882233	144.640000
486.975922	144.480000
487.069641	144.600000
487.163300	144.780000
487.257050	145.960000
487.350708	145.560000
487.444427	145.600000
487.538116	145.820000
487.631836	145.740000
487.725494	145.220000
487.819214	145.460000
487.912903	145.440000
488.006622	145.640000
488.100281	145.580000
488.194031	145.640000
488.287689	146.160000
488.381409	146.820000
488.475098	146.680000
488.568817	147.260000
488.662476	146.700000
488.756226	146.140000
488.849945	145.300000
488.943604	145.500000
489.037354	145.260000
489.131012	145.740000
489.224731	145.460000
489.318390	145.580000
489.412140	145.340000
489.505798	145.120000
489.599518	144.420000
489.693207	144.840000
489.786926	144.600000
489.880585	144.280000
489.974335	144.440000
490.067993	145.600000
490.161713	146.020000
490.255371	146.920000
490.349121	147.200000
490.442780	147.120000
490.536499	146.340000
490.630188	146.200000
490.723907	145.840000
490.817566	146.000000
490.911285	145.960000
491.004974	145.820000
491.098694	145.580000
491.192413	146.020000
491.286102	145.940000
491.379822	146.020000
491.473480	146.320000
491.567200	146.300000
491.660889	145.620000
491.754608	145.060000
491.848267	144.920000
491.941986	144.860000
492.035675	145.080000
492.129395	145.380000
492.223053	145.740000
492.316772	146.140000
492.410461	146.020000
492.504181	145.680000
492.597839	145.520000
492.691559	145.840000
492.785248	145.800000
492.878967	145.920000
492.972626	146.000000
493.066345	146.080000
493.160034	145.140000
493.253754	144.760000
493.347412	144.580000
493.441132	144.640000
493.534882	145.160000
493.628540	145.760000
493.722260	146.120000
493.815918	146.640000
493.909668	146.980000
494.003326	146.920000
494.097046	146.940000
494.190704	146.480000
494.284454	146.300000
494.378113	146.320000
494.471832	145.800000
494.565491	145.880000
494.659210	146.160000
494.752899	146.060000
494.846619	145.760000
494.940277	146.020000
495.033997	145.920000
495.127686	145.420000
495.221405	145.480000
495.315063	145.640000
495.408783	145.520000
495.502441	145.320000
495.596191	146.080000
495.689850	145.640000
495.783569	145.820000
495.877228	146.000000
495.970947	146.040000
496.064697	145.660000
496.158356	146.580000
496.252075	146.380000
496.345734	146.120000
496.439453	146.960000
496.533142	147.000000
496.626862	147.020000
496.720520	146.960000
496.814240	146.800000
496.907898	146.300000
497.001617	146.400000
497.095306	145.560000
497.189026	145.560000
497.282684	146.060000
497.376404	146.220000
497.470062	145.900000
497.563782	146.040000
497.657471	146.000000
497.751190	145.780000
497.844849	145.760000
497.938568	146.340000
498.032227	146.540000
498.125946	146.340000
498.219635	146.280000
498.313354	146.180000
498.407074	145.720000
498.500732	145.680000
498.594452	146.160000
498.688110	146.080000
498.781830	145.640000
498.875519	145.440000
498.969238	145.380000
499.062897	144.940000
499.156616	145.260000
499.250275	145.800000
499.343994	145.560000
499.437653	145.620000
499.531372	145.660000
499.625061	145.840000
499.718781	145.660000
499.812439	146.400000
499.906158	146.080000
499.999817	146.380000
500.093536	145.900000
500.187195	145.920000
500.280914	145.880000
500.374573	146.580000
500.468323	145.960000
500.561981	146.200000
500.655701	145.980000
500.749420	146.180000
500.843079	146.160000
500.936798	146.600000
501.030457	146.760000
501.124176	147.220000
501.217834	146.920000
501.311554	146.360000
501.405212	146.120000
501.498962	145.560000
501.592621	145.140000
501.686340	145.460000
501.779999	145.720000
501.873718	146.100000
501.967377	146.300000
502.061096	146.700000
502.154755	146.160000
502.248474	146.140000
502.342133	146.320000
502.435852	146.060000
502.529510	146.520000
502.623230	147.120000
502.716888	146.620000
502.810608	146.460000
502.904266	147.280000
502.997986	146.540000
503.091705	145.820000
503.185364	146.220000
503.279083	145.920000
503.372772	145.420000
503.466492	145.060000
503.560150	145.280000
503.653870	145.320000
503.747528	145.520000
503.841248	145.560000
503.934906	146.000000
504.028625	145.560000
504.122284	145.920000
504.216003	146.480000
504.309662	145.840000
504.403381	145.880000
504.497040	146.140000
504.590759	145.640000
504.684418	145.380000
504.778137	146.280000
504.871796	146.700000
504.965515	146.660000
505.059174	146.800000
505.152893	146.280000
505.246521	145.580000
505.340240	145.340000
505.433899	145.760000
505.527618	146.020000
505.621338	146.560000
505.714996	146.760000
505.808716	146.080000
505.902374	146.280000
505.996094	146.380000
506.089752	145.980000
506.183472	146.320000
506.277130	146.680000
506.370850	146.260000
506.464508	145.780000
506.558228	145.620000
506.651886	145.040000
506.745605	145.120000
506.839264	145.180000
506.932983	145.460000
507.026611	145.280000
507.120331	146.060000
507.213989	145.800000
507.307709	145.840000
507.401367	145.680000
507.495087	146.460000
507.588745	145.860000
507.682465	146.520000
507.776123	146.500000
507.869843	146.660000
507.963531	146.580000
508.057190	146.840000
508.150909	146.180000
508.244568	146.340000
508.338287	145.900000
508.431946	145.340000
508.525665	145.120000
508.619324	145.040000
508.713013	145.180000
508.806671	145.720000
508.900391	146.820000
508.994049	147.220000
509.087769	147.340000
509.181427	147.300000
509.275146	147.100000
509.368774	146.040000
509.462494	145.640000
509.556152	145.560000
509.649872	145.680000
509.743530	145.800000
509.837250	145.980000
509.930878	146.120000
510.024597	146.160000
510.118256	145.800000
510.211975	145.660000
510.305695	145.500000
510.399353	145.780000
510.493042	146.100000
510.586700	146.120000
510.680420	146.600000
510.774078	146.720000
510.867798	146.380000
510.961426	145.940000
511.055145	145.860000
511.148804	145.220000
511.242523	145.640000
511.336151	145.920000
511.429871	146.500000
511.523529	146.660000
511.617249	146.500000
511.710876	145.960000
511.804596	145.520000
511.898254	145.120000
511.991974	145.120000
512.085632	145.020000
512.179321	145.440000
512.272949	145.820000
512.366699	146.380000
512.460327	146.180000
512.554077	147.320000
512.647766	147.140000
512.741394	147.200000
512.835144	147.220000
512.928772	146.960000
513.022461	146.520000
513.116150	146.200000
513.209839	146.640000
513.303467	146.080000
513.397217	146.080000
513.490845	145.580000
513.584595	145.660000
513.678223	144.740000
513.771912	144.300000
513.865601	144.780000
513.959290	144.580000
514.052917	144.720000
514.146667	145.640000
514.240295	146.300000
514.333984	146.540000
514.427673	146.900000
514.521362	147.160000
514.614990	146.340000
514.708740	146.400000
514.802368	145.860000
514.896057	145.720000
514.989746	146.260000
515.083435	146.020000
515.177124	146.220000
515.270752	146.220000
515.364502	146.460000
515.458130	146.100000
515.551819	146.140000
515.645508	145.600000
515.739197	145.580000
515.832825	145.640000
515.926575	145.120000
516.020203	145.660000
516.113892	146.320000
516.207520	146.240000
516.301270	146.260000
516.394897	146.660000
516.488586	146.900000
516.582275	146.420000
516.675964	146.260000
516.769592	145.840000
516.863281	146.280000
516.956970	146.480000
517.050659	146.360000
517.144287	146.740000
517.238037	147.180000
517.331665	146.320000
517.425354	145.940000
517.519043	146.040000
517.612732	146.340000
517.706421	145.960000
517.800049	145.960000
517.893738	145.340000
517.987427	145.080000
518.081116	144.720000
518.174744	144.560000
518.268433	145.080000
518.362122	146.120000
518.455811	146.240000
518.549438	146.960000
518.643127	147.920000
518.736816	147.440000
518.830505	146.580000
518.924133	146.700000
519.017822	146.340000
519.111511	146.100000
519.205200	146.820000
519.298828	146.980000
519.392517	147.100000
519.486206	147.120000
519.579895	147.140000
519.673523	146.500000
519.767212	146.760000
519.860901	146.880000
519.954590	146.620000
520.048279	145.980000
520.141907	145.920000
520.235596	146.660000
520.329224	146.640000
520.422974	146.740000
520.516602	146.980000
520.610291	146.940000
520.703918	146.300000
520.797607	146.020000
520.891296	145.780000
520.984985	145.880000
521.078613	146.580000
521.172302	146.280000
521.265930	147.240000
521.359680	147.800000
521.453308	147.520000
521.546997	147.200000
521.640625	147.400000
521.734314	146.380000
521.827942	145.820000
521.921692	146.400000
522.015320	146.420000
522.109009	145.940000
522.202698	146.180000
522.296326	146.260000
522.390015	146.160000
522.483704	146.180000
522.577393	146.400000
522.671021	146.140000
522.764709	145.760000
522.858337	146.180000
522.952026	145.900000
523.045654	146.420000
523.139404	147.060000
523.233032	147.520000
523.326721	147.300000
523.420349	147.320000
523.514038	146.580000
523.607666	146.720000
523.701355	146.500000
523.795044	146.060000
523.888733	146.280000
523.982361	146.820000
524.076050	146.020000
524.169678	146.660000
524.263367	146.440000
524.356995	146.060000
524.450684	145.760000
524.544373	145.600000
524.638062	145.500000
524.731750	145.800000
524.825378	145.660000
524.919067	145.300000
525.012695	145.740000
525.106384	145.100000
525.200012	145.060000
525.293701	145.100000
525.387329	145.600000
525.481018	145.560000
525.574646	145.860000
525.668396	145.980000
525.762024	146.420000
525.855713	146.480000
525.949341	146.220000
526.043030	146.000000
526.136658	145.800000
526.230347	145.680000
526.323975	145.300000
526.417664	145.180000
526.511292	145.540000
526.604980	145.600000
526.698608	145.680000
526.792297	145.840000
526.885925	146.440000
526.979614	146.500000
527.073303	146.660000
527.166931	146.300000
527.260620	146.560000
527.354309	146.840000
527.447998	146.680000
527.541626	146.200000
527.635315	146.380000
527.728943	146.660000
527.822632	146.420000
527.916260	146.700000
528.009949	147.160000
528.103577	147.120000
528.197266	146.320000
528.290894	145.960000
528.384583	145.640000
528.478210	145.380000
528.571899	145.520000
528.665527	145.920000
528.759216	146.480000
528.852844	147.080000
528.946533	147.160000
529.040161	147.060000
529.133850	146.780000
529.227478	146.860000
529.321167	146.760000
529.414856	146.960000
529.508484	147.520000
529.602173	147.460000
529.695801	146.980000
529.789490	146.580000
529.883057	146.340000
529.976746	145.900000
530.070374	146.600000
530.164062	146.840000
530.257690	146.780000
530.351379	147.180000
530.445007	147.260000
530.538696	146.220000
530.632324	146.260000
530.726013	146.680000
530.819641	146.420000
530.913330	146.580000
531.006958	147.060000
531.100647	146.860000
531.194275	146.720000
531.287964	146.580000
531.381592	146.340000
531.475220	146.580000
531.568848	146.780000
531.662537	146.240000
531.756226	146.700000
531.849854	146.660000
531.943542	146.400000
532.037170	145.780000
532.130859	146.460000
532.224487	145.800000
532.318176	145.660000
532.411804	146.300000
532.505432	146.500000
532.599060	146.080000
532.692749	146.240000
532.786377	146.440000
532.880066	145.580000
532.973694	145.060000
533.067383	145.060000
533.161011	145.040000
533.254639	144.760000
533.348267	144.760000
533.441956	145.500000
533.535583	145.380000
533.629272	145.800000
533.722900	145.620000
533.816589	145.800000
533.910156	146.080000
534.003845	145.840000
534.097534	145.840000
534.191162	146.340000
534.284851	146.800000
534.378479	146.180000
534.472107	146.540000
534.565735	146.300000
534.659424	146.440000
534.753052	146.500000
534.846741	146.600000
534.940369	147.160000
535.033997	146.940000
535.127625	146.980000
535.221313	147.080000
535.314941	146.880000
535.408630	146.000000
535.502197	146.640000
535.595886	146.300000
535.689514	145.880000
535.783203	146.440000
535.876831	146.700000
535.970459	146.380000
536.064087	146.160000
536.157776	145.980000
536.251404	145.740000
536.345093	145.640000
536.438721	145.360000
536.532349	145.700000
536.626038	145.740000
536.719666	146.220000
536.813293	146.080000
536.906921	146.080000
537.000610	146.120000
537.094238	146.260000
537.187866	145.800000
537.281494	145.620000
537.375183	146.080000
537.468811	145.700000
537.562439	145.620000
537.656067	145.720000
537.749756	146.240000
537.843384	146.320000
537.937012	146.500000
538.030640	146.380000
538.124329	146.420000
538.217896	146.560000
538.311584	146.420000
538.405212	146.580000
538.498901	146.740000
538.592468	146.920000
538.686157	146.220000
538.779785	145.480000
538.873413	145.080000
538.967102	144.740000
539.060730	144.060000
539.154358	144.760000
539.247986	145.520000
539.341675	145.840000
539.435242	145.840000
539.528931	146.280000
539.622559	145.720000
539.716187	146.120000
539.809814	145.960000
539.903503	146.180000
539.997070	146.100000
540.090759	146.320000
540.184387	145.780000
540.278015	146.260000
540.371643	146.740000
540.465332	146.700000
540.558899	146.400000
540.652588	146.240000
540.746216	145.760000
540.839844	145.760000
540.933472	145.540000
541.027100	145.680000
541.120728	145.820000
541.214417	146.200000
541.308044	146.280000
541.401672	146.600000
541.495300	146.580000
541.588928	146.340000
541.682617	146.020000
541.776184	145.440000
541.869873	145.600000
541.963440	145.920000
542.057129	146.080000
542.150757	146.080000
542.244385	145.860000
542.338013	145.340000
542.431641	145.220000
542.525269	145.180000
542.618958	145.520000
542.712524	146.280000
542.806213	146.320000
542.899780	146.540000
542.993469	146.340000
543.087036	146.120000
543.180725	145.280000
543.274292	145.640000
543.367981	145.540000
543.461548	146.140000
543.555237	146.060000
543.648926	146.800000
543.742493	147.160000
543.836182	147.260000
543.929749	146.900000
544.023437	146.860000
544.117004	146.460000
544.210693	146.360000
544.304260	146.380000
544.397949	146.360000
544.491516	146.600000
544.585205	146.500000
544.678772	145.920000
544.772461	146.240000
544.866028	145.920000
544.959717	146.040000
545.053284	146.200000
545.146973	146.560000
545.240540	146.400000
545.334229	147.200000
545.427795	147.360000
545.521423	147.280000
545.615051	147.280000
545.708679	147.380000
545.802307	147.040000
545.895935	147.000000
545.989624	147.620000
546.083191	147.260000
546.176880	146.780000
546.270447	146.320000
546.364136	146.400000
546.457703	145.880000
546.551331	146.100000
546.644958	146.340000
546.738586	146.820000
546.832214	146.460000
546.925842	146.520000
547.019409	146.760000
547.113098	146.180000
547.206665	146.020000
547.300354	145.880000
547.393921	145.940000
547.487549	145.920000
547.581177	146.340000
547.674805	145.960000
547.768433	145.560000
547.862061	145.520000
547.955627	144.620000
548.049316	145.020000
548.142883	145.600000
548.236572	146.160000
548.330139	146.040000
548.423767	146.460000
548.517456	146.260000
548.611023	146.340000
548.704651	145.580000
548.798279	145.600000
548.891907	146.040000
548.985474	145.860000
549.079163	146.060000
549.172729	146.480000
549.266357	146.240000
549.359985	145.900000
549.453613	145.280000
549.547180	144.540000
549.640869	144.740000
549.734436	144.480000
549.828064	144.920000
549.921631	145.220000
550.015320	145.120000
550.108887	145.480000
550.202515	145.820000
550.296143	145.420000
550.389771	145.700000
550.483337	145.760000
550.576965	145.500000
550.670593	146.000000
550.764221	146.100000
550.857849	145.900000
550.951477	145.960000
551.045105	145.720000
551.138672	145.520000
551.232300	145.520000
551.325928	145.840000
551.419556	146.200000
551.513123	146.220000
551.606750	146.120000
551.700378	145.940000
551.794006	145.880000
551.887573	145.780000
551.981201	146.420000
552.074768	146.340000
552.168457	146.180000
552.262024	146.920000
552.355652	146.700000
552.449219	146.640000
552.542847	146.640000
552.636475	146.660000
552.730103	145.540000
552.823669	145.260000
552.917297	144.680000
553.010864	144.660000
553.104553	145.280000
553.198181	145.380000
553.291748	146.180000
553.385376	146.440000
553.478943	146.160000
553.572571	145.920000
553.666199	146.380000
553.759827	146.020000
553.853394	145.700000
553.947021	146.200000
554.040588	146.180000
554.134216	145.920000
554.227783	146.180000
554.321411	146.700000
554.415039	146.080000
554.508667	145.920000
554.602234	146.020000
554.695862	145.400000
554.789429	145.200000
554.883057	145.760000
554.976624	145.680000
555.070251	145.520000
555.163818	145.760000
555.257507	145.680000
555.351074	145.560000
555.444702	146.480000
555.538330	146.280000
555.631897	146.920000
555.725525	147.120000
555.819092	146.860000
555.912720	145.900000
556.006287	146.580000
556.099915	145.860000
556.193481	145.820000
556.287109	146.300000
556.380676	146.520000
556.474304	146.500000
556.567871	147.100000
556.661499	146.340000
556.755066	146.260000
556.848694	146.260000
556.942261	145.720000
557.035889	145.760000
557.129517	146.500000
557.223145	146.660000
557.316711	146.980000
557.410339	147.080000
557.503906	146.440000
557.597473	146.320000
557.691040	146.220000
557.784668	146.020000
557.878296	146.200000
557.971863	146.720000
558.065491	146.720000
558.159058	146.320000
558.252686	146.860000
558.346252	147.260000
558.439880	146.740000
558.533447	146.680000
558.627075	146.620000
558.720642	145.880000
558.814270	145.700000
558.907837	145.920000
559.001465	145.480000
559.095032	146.480000
559.188660	146.640000
559.282227	145.900000
559.375854	146.460000
559.469360	146.680000
559.562988	146.280000
559.656555	146.240000
559.750183	146.820000
559.843750	146.480000
559.937378	146.820000
560.030945	146.520000
560.124573	0.000000
560.218140	0.000000
560.311707	0.000000
560.405334	0.000000
560.498901	0.000000
560.592529	0.000000
560.686096	0.000000
560.779724	0.000000
560.873291	0.000000
560.966858	0.000000
561.060425	0.000000
561.154053	0.000000
561.247620	0.000000
561.341248	0.000000
561.434814	0.000000
561.528381	0.000000
561.621948	0.000000
561.715576	0.000000
561.809143	0.000000
561.902771	0.000000
561.996277	0.000000
562.089905	0.000000
562.183472	0.000000
562.277100	0.000000
