Model Number: SPM-002-B   
Serial Number: 70087108
Firmware Version: 004.15.4
Exposure Time: 100000.000000us
Data Taken on: 11-12-2020 19:37:31.089
Wavelength	Amplitude
221.570786	0.000000
221.663406	0.000000
221.756027	0.000000
221.848648	0.000000
221.941269	0.000000
222.033905	0.000000
222.126526	0.000000
222.219162	0.000000
222.311798	0.000000
222.404419	0.000000
222.497055	0.000000
222.589676	0.000000
222.682312	0.000000
222.774933	0.000000
222.867569	0.000000
222.960205	0.000000
223.052841	0.000000
223.145462	0.000000
223.238098	0.000000
223.330734	0.000000
223.423386	0.000000
223.516022	0.000000
223.608658	0.000000
223.701309	0.000000
223.793945	0.000000
223.886581	0.000000
223.979218	0.000000
224.071869	0.000000
224.164505	0.000000
224.257156	0.000000
224.349792	0.000000
224.442444	0.000000
224.535095	0.000000
224.627747	0.000000
224.720398	0.000000
224.813034	0.000000
224.905685	0.000000
224.998337	145.580000
225.090988	145.200000
225.183640	145.000000
225.276291	144.700000
225.368942	145.340000
225.461594	145.620000
225.554245	145.880000
225.646912	146.020000
225.739578	146.880000
225.832230	146.900000
225.924896	146.240000
226.017548	146.580000
226.110199	146.920000
226.202866	145.920000
226.295532	145.720000
226.388184	145.960000
226.480850	145.540000
226.573517	145.120000
226.666168	145.540000
226.758835	145.880000
226.851501	146.520000
226.944183	146.560000
227.036850	146.240000
227.129517	146.380000
227.222183	146.560000
227.314850	146.200000
227.407516	146.560000
227.500198	147.580000
227.592865	146.940000
227.685532	146.640000
227.778214	146.360000
227.870880	146.600000
227.963562	146.540000
228.056229	147.400000
228.148926	147.240000
228.241592	147.960000
228.334274	147.320000
228.426956	147.100000
228.519638	147.100000
228.612305	146.600000
228.704987	146.500000
228.797668	146.820000
228.890350	146.400000
228.983032	145.420000
229.075714	146.280000
229.168396	145.780000
229.261108	145.220000
229.353790	145.300000
229.446472	145.840000
229.539169	145.460000
229.631851	145.300000
229.724533	145.740000
229.817230	146.060000
229.909912	146.760000
230.002609	146.760000
230.095306	146.800000
230.187988	146.640000
230.280685	146.360000
230.373383	145.080000
230.466095	144.940000
230.558792	145.000000
230.651474	145.060000
230.744171	144.880000
230.836868	145.160000
230.929581	145.500000
231.022278	145.980000
231.114975	146.000000
231.207672	146.000000
231.300369	146.540000
231.393082	146.500000
231.485779	146.040000
231.578506	146.020000
231.671204	146.400000
231.763916	146.440000
231.856613	146.560000
231.949326	146.940000
232.042023	146.680000
232.134735	146.400000
232.227448	145.940000
232.320160	146.120000
232.412872	146.060000
232.505585	146.980000
232.598297	147.560000
232.691010	147.820000
232.783722	147.260000
232.876450	147.700000
232.969162	147.060000
233.061874	146.420000
233.154587	145.540000
233.247314	145.940000
233.340027	145.420000
233.432739	145.680000
233.525467	145.540000
233.618179	146.440000
233.710907	145.800000
233.803635	146.260000
233.896347	146.120000
233.989090	146.840000
234.081818	146.560000
234.174545	147.100000
234.267258	146.400000
234.359985	146.320000
234.452713	145.820000
234.545441	145.820000
234.638168	145.640000
234.730896	146.380000
234.823639	146.680000
234.916367	147.300000
235.009094	147.500000
235.101822	147.600000
235.194580	147.440000
235.287308	147.400000
235.380051	146.620000
235.472778	146.760000
235.565521	146.960000
235.658249	146.380000
235.750992	146.460000
235.843719	146.760000
235.936462	146.700000
236.029205	146.100000
236.121948	145.760000
236.214691	145.680000
236.307449	146.280000
236.400192	146.180000
236.492935	146.520000
236.585678	147.060000
236.678421	147.340000
236.771164	146.880000
236.863907	147.360000
236.956665	147.280000
237.049408	148.720000
237.142151	147.840000
237.234909	148.640000
237.327652	148.380000
237.420410	148.140000
237.513153	146.960000
237.605927	147.320000
237.698669	146.640000
237.791428	146.120000
237.884186	146.460000
237.976944	145.980000
238.069702	146.360000
238.162445	146.040000
238.255203	146.240000
238.347961	146.300000
238.440720	146.800000
238.533478	146.400000
238.626266	146.200000
238.719025	146.540000
238.811783	146.520000
238.904541	146.260000
238.997314	146.380000
239.090073	146.120000
239.182831	146.060000
239.275604	146.880000
239.368362	146.720000
239.461136	147.120000
239.553909	147.160000
239.646667	147.060000
239.739441	146.300000
239.832214	146.560000
239.925003	146.220000
240.017761	147.220000
240.110535	147.640000
240.203308	147.320000
240.296082	147.420000
240.388855	147.120000
240.481628	147.040000
240.574417	146.860000
240.667191	147.060000
240.759964	146.760000
240.852737	147.080000
240.945526	146.380000
241.038315	146.240000
241.131088	146.320000
241.223877	146.520000
241.316650	146.140000
241.409439	146.700000
241.502228	146.480000
241.595001	147.080000
241.687790	146.840000
241.780579	146.580000
241.873367	146.660000
241.966141	147.020000
242.058929	146.340000
242.151718	146.540000
242.244507	147.500000
242.337311	146.620000
242.430099	146.780000
242.522903	147.160000
242.615692	146.920000
242.708481	146.740000
242.801270	147.300000
242.894073	147.040000
242.986862	146.900000
243.079651	147.480000
243.172455	147.220000
243.265244	147.380000
243.358063	146.580000
243.450867	146.640000
243.543655	146.540000
243.636459	146.680000
243.729263	146.980000
243.822067	147.840000
243.914856	148.280000
244.007660	148.200000
244.100464	147.660000
244.193268	146.780000
244.286072	146.860000
244.378876	146.200000
244.471680	146.020000
244.564499	146.620000
244.657318	147.620000
244.750122	147.600000
244.842926	147.160000
244.935745	147.440000
245.028549	147.120000
245.121368	146.280000
245.214172	146.000000
245.306992	146.500000
245.399796	145.880000
245.492615	145.900000
245.585434	145.740000
245.678253	145.700000
245.771072	145.640000
245.863892	146.120000
245.956711	146.520000
246.049530	146.740000
246.142349	146.900000
246.235168	147.060000
246.327988	147.480000
246.420807	146.920000
246.513626	146.960000
246.606445	146.780000
246.699280	146.620000
246.792099	146.220000
246.884918	145.860000
246.977753	145.740000
247.070587	145.680000
247.163422	145.680000
247.256241	145.680000
247.349075	146.160000
247.441895	146.140000
247.534729	145.840000
247.627563	145.440000
247.720383	146.060000
247.813217	145.980000
247.906052	145.860000
247.998886	146.140000
248.091736	146.400000
248.184570	145.820000
248.277405	145.880000
248.370239	146.900000
248.463074	148.020000
248.555908	148.200000
248.648743	148.180000
248.741592	148.280000
248.834427	147.380000
248.927261	146.140000
249.020111	146.540000
249.112946	146.800000
249.205795	146.740000
249.298630	147.060000
249.391495	147.120000
249.484344	146.440000
249.577179	146.200000
249.670029	146.460000
249.762878	146.680000
249.855728	146.700000
249.948563	147.240000
250.041412	146.680000
250.134262	146.780000
250.227112	147.000000
250.319962	147.140000
250.412827	146.800000
250.505692	146.860000
250.598541	146.640000
250.691391	146.260000
250.784241	146.540000
250.877106	146.840000
250.969955	146.720000
251.062805	146.880000
251.155670	147.480000
251.248520	147.080000
251.341385	146.920000
251.434235	146.840000
251.527100	146.280000
251.619965	145.300000
251.712814	146.040000
251.805695	146.140000
251.898560	146.680000
251.991425	147.220000
252.084290	147.640000
252.177155	146.940000
252.270020	146.720000
252.362885	146.420000
252.455750	146.380000
252.548615	146.000000
252.641479	146.260000
252.734360	145.980000
252.827240	146.040000
252.920105	145.840000
253.012970	145.940000
253.105850	145.660000
253.198715	145.560000
253.291595	145.760000
253.384460	145.720000
253.477341	145.560000
253.570221	145.780000
253.663086	146.000000
253.755966	146.600000
253.848846	146.860000
253.941727	147.320000
254.034592	147.180000
254.127472	146.680000
254.220367	146.440000
254.313248	146.540000
254.406128	146.260000
254.499008	146.580000
254.591904	147.520000
254.684784	147.760000
254.777664	147.420000
254.870544	147.020000
254.963440	146.440000
255.056335	146.380000
255.149216	145.660000
255.242111	146.120000
255.334991	146.940000
255.427887	147.400000
255.520767	147.400000
255.613663	147.640000
255.706558	146.820000
255.799438	146.100000
255.892334	145.660000
255.985229	145.340000
256.078125	145.360000
256.171021	145.760000
256.263916	146.420000
256.356812	146.620000
256.449707	146.800000
256.542603	146.480000
256.635498	146.880000
256.728394	146.400000
256.821289	146.340000
256.914215	146.480000
257.007080	146.980000
257.100006	146.740000
257.192932	147.420000
257.285828	147.700000
257.378723	147.380000
257.471619	147.020000
257.564545	146.620000
257.657440	146.320000
257.750336	146.600000
257.843262	146.420000
257.936157	147.500000
258.029053	148.000000
258.121979	148.040000
258.214874	147.440000
258.307800	147.500000
258.400696	146.020000
258.493622	145.780000
258.586517	145.260000
258.679443	145.780000
258.772339	145.540000
258.865265	145.800000
258.958160	145.660000
259.051086	146.140000
259.144012	145.860000
259.236938	147.000000
259.329834	147.260000
259.422791	147.220000
259.515717	146.940000
259.608612	146.600000
259.701538	146.160000
259.794464	145.740000
259.887390	145.800000
259.980316	145.600000
260.073212	145.520000
260.166138	144.600000
260.259064	145.300000
260.351990	146.000000
260.444916	145.880000
260.537842	146.400000
260.630768	147.060000
260.723694	146.660000
260.816620	145.940000
260.909546	146.140000
261.002472	145.600000
261.095398	145.400000
261.188354	145.540000
261.281281	145.380000
261.374207	145.660000
261.467133	146.800000
261.560089	147.160000
261.653015	147.120000
261.745972	147.940000
261.838867	148.300000
261.931824	147.980000
262.024780	147.140000
262.117706	147.080000
262.210663	146.800000
262.303589	146.200000
262.396515	146.060000
262.489471	147.300000
262.582397	147.180000
262.675354	146.700000
262.768280	146.880000
262.861237	146.840000
262.954163	146.360000
263.047119	146.760000
263.140045	146.680000
263.233002	146.800000
263.325958	146.680000
263.418884	146.440000
263.511841	146.080000
263.604797	146.340000
263.697723	146.160000
263.790680	145.880000
263.883636	146.380000
263.976593	146.280000
264.069550	146.300000
264.162476	146.180000
264.255463	146.480000
264.348419	146.060000
264.441376	146.640000
264.534332	146.540000
264.627289	146.860000
264.720245	147.060000
264.813202	146.620000
264.906158	146.440000
264.999115	146.500000
265.092072	146.280000
265.185028	146.560000
265.277985	147.200000
265.370941	147.000000
265.463898	147.080000
265.556854	146.980000
265.649811	146.020000
265.742798	145.800000
265.835754	146.020000
265.928711	146.240000
266.021667	146.320000
266.114655	146.880000
266.207611	147.260000
266.300568	146.840000
266.393585	146.460000
266.486511	146.900000
266.579498	146.200000
266.672485	145.720000
266.765442	145.720000
266.858429	146.300000
266.951385	145.720000
267.044342	145.900000
267.137329	145.820000
267.230316	146.240000
267.323273	145.680000
267.416260	146.380000
267.509216	146.380000
267.602203	146.660000
267.695160	146.940000
267.788147	147.200000
267.881134	146.500000
267.974091	146.960000
268.067078	146.980000
268.160065	146.620000
268.253052	146.320000
268.346008	146.180000
268.438995	145.820000
268.531982	146.040000
268.624969	145.980000
268.717987	146.300000
268.810944	146.540000
268.903961	146.800000
268.996948	146.440000
269.089905	146.820000
269.182892	147.040000
269.275879	147.200000
269.368866	146.900000
269.461853	146.960000
269.554871	146.560000
269.647858	146.380000
269.740845	146.800000
269.833832	146.900000
269.926819	146.580000
270.019806	146.460000
270.112793	146.200000
270.205811	145.960000
270.298798	146.000000
270.391785	146.820000
270.484772	146.560000
270.577789	146.660000
270.670776	146.400000
270.763763	146.560000
270.856750	146.080000
270.949768	146.320000
271.042786	146.280000
271.135773	146.260000
271.228790	146.420000
271.321808	146.120000
271.414795	146.040000
271.507782	145.820000
271.600800	145.640000
271.693817	145.520000
271.786804	146.060000
271.879822	146.160000
271.972809	146.220000
272.065826	146.880000
272.158844	146.560000
272.251831	147.080000
272.344849	146.900000
272.437866	146.720000
272.530853	146.480000
272.623871	146.760000
272.716888	145.440000
272.809906	146.020000
272.902893	146.080000
272.995911	145.460000
273.088928	145.380000
273.181946	146.020000
273.274963	145.440000
273.367981	145.580000
273.460999	145.880000
273.554047	146.200000
273.647003	146.860000
273.740051	146.780000
273.833069	147.180000
273.926086	147.240000
274.019135	146.940000
274.112152	146.300000
274.205170	146.720000
274.298187	146.780000
274.391205	146.560000
274.484222	146.500000
274.577240	146.380000
274.670258	146.360000
274.763306	145.860000
274.856323	146.300000
274.949341	146.420000
275.042358	146.620000
275.135406	146.400000
275.228424	146.740000
275.321442	146.640000
275.414490	146.480000
275.507507	146.840000
275.600525	147.440000
275.693573	146.920000
275.786591	146.380000
275.879669	146.600000
275.972656	146.200000
276.065735	145.640000
276.158752	146.660000
276.251801	147.600000
276.344818	147.620000
276.437866	147.940000
276.530884	148.000000
276.623932	146.900000
276.716980	146.960000
276.809998	147.060000
276.903046	146.840000
276.996094	147.460000
277.089111	148.280000
277.182159	148.500000
277.275208	148.220000
277.368256	148.140000
277.461304	147.740000
277.554321	147.000000
277.647369	146.520000
277.740417	146.480000
277.833466	146.400000
277.926514	146.140000
278.019562	146.960000
278.112610	146.600000
278.205688	146.980000
278.298706	147.280000
278.391785	147.180000
278.484833	146.460000
278.577881	146.500000
278.670929	146.500000
278.763977	146.380000
278.857025	146.780000
278.950073	147.020000
279.043121	146.840000
279.136169	146.580000
279.229248	146.320000
279.322296	146.200000
279.415344	145.760000
279.508392	145.540000
279.601440	145.920000
279.694519	146.140000
279.787567	146.380000
279.880615	146.480000
279.973694	146.620000
280.066742	146.300000
280.159790	146.140000
280.252869	145.580000
280.345917	145.960000
280.438995	146.140000
280.532074	145.980000
280.625122	146.120000
280.718201	147.000000
280.811279	147.100000
280.904327	147.060000
280.997406	147.060000
281.090454	147.080000
281.183533	146.260000
281.276581	145.780000
281.369659	145.800000
281.462738	145.920000
281.555786	146.080000
281.648865	146.280000
281.741943	146.400000
281.835022	146.740000
281.928070	146.800000
282.021149	146.480000
282.114227	146.220000
282.207306	146.360000
282.300385	146.400000
282.393433	146.440000
282.486511	146.400000
282.579590	146.780000
282.672668	147.120000
282.765747	146.660000
282.858856	146.240000
282.951904	146.420000
283.045013	146.860000
283.138062	147.100000
283.231171	147.600000
283.324249	147.920000
283.417328	147.840000
283.510406	147.120000
283.603485	146.580000
283.696564	146.380000
283.789642	146.460000
283.882751	146.240000
283.975830	146.960000
284.068909	146.640000
284.161987	147.140000
284.255066	146.780000
284.348175	147.180000
284.441254	146.720000
284.534332	147.400000
284.627441	146.800000
284.720520	146.720000
284.813599	146.620000
284.906708	146.840000
284.999786	145.800000
285.092896	145.820000
285.185974	146.860000
285.279053	146.300000
285.372192	146.160000
285.465240	147.320000
285.558380	147.320000
285.651459	146.720000
285.744568	147.800000
285.837677	147.400000
285.930756	147.220000
286.023865	147.040000
286.116943	146.620000
286.210052	146.140000
286.303162	146.120000
286.396240	145.700000
286.489349	145.620000
286.582458	146.240000
286.675568	146.320000
286.768646	146.680000
286.861755	147.020000
286.954865	147.900000
287.047974	147.220000
287.141083	146.880000
287.234161	146.580000
287.327271	146.380000
287.420380	146.120000
287.513519	146.040000
287.606598	146.320000
287.699738	146.780000
287.792816	146.660000
287.885956	146.640000
287.979034	146.760000
288.072174	146.620000
288.165283	146.400000
288.258392	146.840000
288.351501	146.160000
288.444611	146.580000
288.537720	146.760000
288.630859	146.680000
288.723969	146.600000
288.817078	147.260000
288.910187	146.780000
289.003296	146.320000
289.096436	145.900000
289.189545	145.800000
289.282654	145.240000
289.375763	145.600000
289.468903	146.280000
289.562012	146.760000
289.655121	146.620000
289.748260	146.980000
289.841400	147.340000
289.934509	146.840000
290.027649	146.780000
290.120728	146.620000
290.213898	146.560000
290.306976	146.360000
290.400146	146.680000
290.493256	146.460000
290.586395	146.760000
290.679535	146.940000
290.772644	146.580000
290.865784	145.820000
290.958893	145.720000
291.052032	145.360000
291.145172	145.200000
291.238281	145.040000
291.331421	145.440000
291.424561	146.180000
291.517670	146.180000
291.610809	146.400000
291.703949	146.520000
291.797089	146.580000
291.890228	146.060000
291.983337	146.120000
292.076477	145.480000
292.169617	145.860000
292.262756	146.160000
292.355927	146.160000
292.449036	146.040000
292.542206	146.560000
292.635315	146.660000
292.728485	146.580000
292.821625	146.400000
292.914764	147.620000
293.007904	147.600000
293.101044	147.440000
293.194183	147.180000
293.287323	147.440000
293.380463	146.540000
293.473602	146.440000
293.566742	146.720000
293.659882	147.220000
293.753021	147.320000
293.846191	147.160000
293.939331	146.860000
294.032471	146.560000
294.125610	146.000000
294.218781	146.300000
294.311920	146.740000
294.405060	146.960000
294.498230	146.980000
294.591370	147.480000
294.684540	146.720000
294.777679	146.140000
294.870850	146.440000
294.963959	145.960000
295.057159	145.600000
295.150299	146.180000
295.243469	146.240000
295.336609	145.360000
295.429779	145.440000
295.522919	145.800000
295.616089	145.520000
295.709229	146.080000
295.802399	146.580000
295.895569	146.680000
295.988708	146.600000
296.081879	146.740000
296.175018	146.100000
296.268188	146.180000
296.361359	146.700000
296.454529	146.520000
296.547668	146.280000
296.640839	146.760000
296.734009	146.660000
296.827179	146.500000
296.920319	146.920000
297.013519	146.820000
297.106659	146.860000
297.199860	146.980000
297.292999	146.860000
297.386200	146.500000
297.479309	146.460000
297.572510	146.240000
297.665680	145.820000
297.758850	145.840000
297.852020	145.720000
297.945190	145.760000
298.038361	145.380000
298.131531	146.360000
298.224701	146.160000
298.317871	145.700000
298.411072	145.380000
298.504242	145.600000
298.597412	145.000000
298.690582	145.020000
298.783752	145.420000
298.876923	146.380000
298.970093	146.320000
299.063293	146.620000
299.156464	147.180000
299.249634	147.620000
299.342834	147.260000
299.436005	147.700000
299.529205	147.480000
299.622345	147.420000
299.715576	146.580000
299.808716	146.500000
299.901917	146.420000
299.995117	146.700000
300.088287	146.620000
300.181488	146.900000
300.274658	146.580000
300.367828	146.560000
300.461029	146.300000
300.554199	146.380000
300.647400	146.320000
300.740601	146.980000
300.833771	146.820000
300.926971	146.980000
301.020142	146.420000
301.113342	146.440000
301.206512	145.940000
301.299713	146.080000
301.392914	145.940000
301.486084	146.460000
301.579285	146.500000
301.672516	147.180000
301.765686	147.100000
301.858887	147.280000
301.952057	147.520000
302.045288	147.820000
302.138458	147.420000
302.231659	147.300000
302.324860	146.940000
302.418060	146.220000
302.511261	145.860000
302.604462	146.040000
302.697662	146.020000
302.790863	146.140000
302.884064	146.080000
302.977264	146.100000
303.070465	146.260000
303.163666	146.780000
303.256866	147.200000
303.350067	147.040000
303.443268	147.120000
303.536469	147.040000
303.629669	146.380000
303.722870	146.120000
303.816071	146.320000
303.909271	146.500000
304.002472	145.680000
304.095673	145.700000
304.188934	144.860000
304.282104	145.820000
304.375336	145.680000
304.468506	146.120000
304.561768	146.180000
304.654968	147.040000
304.748169	146.400000
304.841370	146.320000
304.934601	146.740000
305.027802	146.200000
305.121002	145.940000
305.214233	145.920000
305.307434	146.140000
305.400665	146.600000
305.493866	147.020000
305.587097	147.120000
305.680298	146.740000
305.773499	147.040000
305.866730	146.320000
305.959930	146.800000
306.053162	146.940000
306.146393	146.960000
306.239594	146.180000
306.332825	146.180000
306.426025	146.240000
306.519287	145.880000
306.612488	146.300000
306.705719	146.260000
306.798920	146.100000
306.892181	145.560000
306.985352	145.320000
307.078613	144.540000
307.171844	145.040000
307.265045	144.720000
307.358276	144.400000
307.451508	145.000000
307.544739	145.460000
307.637970	145.160000
307.731201	145.340000
307.824402	146.100000
307.917633	146.100000
308.010864	146.660000
308.104095	147.200000
308.197327	147.520000
308.290558	147.640000
308.383789	147.180000
308.477020	146.740000
308.570251	145.920000
308.663483	145.260000
308.756714	144.660000
308.849976	144.840000
308.943176	145.400000
309.036438	145.580000
309.129639	145.840000
309.222900	145.940000
309.316101	145.920000
309.409393	145.260000
309.502625	144.820000
309.595856	145.200000
309.689087	145.240000
309.782318	145.200000
309.875580	145.280000
309.968811	145.780000
310.062042	145.480000
310.155273	145.580000
310.248535	146.220000
310.341766	146.200000
310.434998	146.040000
310.528259	145.920000
310.621490	146.120000
310.714722	145.260000
310.807983	145.120000
310.901215	145.120000
310.994476	145.200000
311.087708	144.680000
311.181000	144.980000
311.274200	144.940000
311.367462	145.180000
311.460693	145.040000
311.553986	145.800000
311.647186	145.960000
311.740479	146.700000
311.833710	146.120000
311.926971	146.120000
312.020203	145.340000
312.113464	145.160000
312.206726	144.380000
312.299957	145.040000
312.393219	145.520000
312.486481	145.800000
312.579712	145.740000
312.672974	146.060000
312.766235	146.100000
312.859497	145.680000
312.952759	145.720000
313.045990	146.620000
313.139252	146.160000
313.232513	146.160000
313.325775	146.600000
313.419037	146.180000
313.512299	145.340000
313.605530	146.020000
313.698822	146.100000
313.792053	145.980000
313.885345	146.120000
313.978577	146.100000
314.071869	145.600000
314.165131	145.660000
314.258392	145.680000
314.351654	145.700000
314.444916	145.480000
314.538177	145.780000
314.631439	145.920000
314.724701	146.000000
314.817993	146.060000
314.911255	146.380000
315.004517	145.960000
315.097778	145.520000
315.191040	145.700000
315.284302	145.920000
315.377594	145.620000
315.470856	145.780000
315.564117	145.540000
315.657379	144.900000
315.750671	144.460000
315.843933	144.940000
315.937195	144.360000
316.030518	144.440000
316.123749	144.560000
316.217041	145.340000
316.310303	145.020000
316.403595	145.500000
316.496857	145.760000
316.590149	146.060000
316.683411	145.280000
316.776703	145.480000
316.869965	145.540000
316.963257	145.420000
317.056519	144.840000
317.149811	145.020000
317.243073	144.760000
317.336365	144.940000
317.429626	145.320000
317.522919	146.040000
317.616180	146.040000
317.709473	145.980000
317.802765	146.060000
317.896027	145.660000
317.989319	145.620000
318.082611	145.600000
318.175873	145.620000
318.269165	145.340000
318.362488	145.360000
318.455750	145.240000
318.549042	145.460000
318.642303	146.180000
318.735626	146.180000
318.828888	146.100000
318.922211	145.720000
319.015472	146.380000
319.108765	145.520000
319.202057	145.300000
319.295349	145.560000
319.388641	145.540000
319.481934	145.160000
319.575226	145.140000
319.668518	145.560000
319.761810	145.720000
319.855103	145.940000
319.948395	145.800000
320.041687	146.100000
320.134979	146.140000
320.228271	146.020000
320.321564	145.860000
320.414856	145.840000
320.508148	145.500000
320.601440	145.320000
320.694763	145.200000
320.788025	146.140000
320.881348	146.220000
320.974640	146.320000
321.067963	145.880000
321.161224	145.780000
321.254547	144.760000
321.347839	145.100000
321.441162	145.100000
321.534454	145.420000
321.627747	145.420000
321.721069	146.160000
321.814362	145.940000
321.907654	146.120000
322.000946	146.180000
322.094269	146.740000
322.187561	146.020000
322.280884	146.360000
322.374176	146.320000
322.467468	146.940000
322.560791	146.640000
322.654083	147.320000
322.747406	147.000000
322.840698	147.360000
322.934021	147.240000
323.027344	147.540000
323.120636	146.920000
323.213959	146.760000
323.307251	146.140000
323.400574	145.580000
323.493866	144.980000
323.587219	145.480000
323.680511	145.880000
323.773834	146.180000
323.867157	146.440000
323.960449	146.540000
324.053772	146.120000
324.147095	145.560000
324.240387	145.700000
324.333710	145.660000
324.427032	145.820000
324.520355	145.800000
324.613647	145.880000
324.706970	145.600000
324.800293	145.620000
324.893616	145.700000
324.986938	146.040000
325.080231	145.800000
325.173553	146.420000
325.266876	147.100000
325.360199	147.100000
325.453522	146.460000
325.546875	146.400000
325.640167	146.280000
325.733521	145.960000
325.826813	145.940000
325.920166	146.140000
326.013489	146.120000
326.106812	145.420000
326.200134	144.820000
326.293457	144.300000
326.386780	144.540000
326.480103	144.920000
326.573425	145.160000
326.666748	145.500000
326.760071	146.220000
326.853424	146.320000
326.946747	146.060000
327.040070	146.520000
327.133392	146.060000
327.226715	145.580000
327.320068	144.880000
327.413391	145.240000
327.506714	144.660000
327.600037	144.760000
327.693390	144.680000
327.786713	145.120000
327.880066	145.120000
327.973358	145.620000
328.066742	145.880000
328.160034	146.260000
328.253418	146.700000
328.346710	146.060000
328.440063	145.600000
328.533417	145.620000
328.626740	145.780000
328.720093	145.200000
328.813416	145.500000
328.906769	145.660000
329.000092	145.940000
329.093445	145.740000
329.186768	145.880000
329.280121	146.200000
329.373444	146.520000
329.466797	146.260000
329.560120	146.180000
329.653473	146.200000
329.746796	146.140000
329.840149	146.040000
329.933502	145.920000
330.026825	145.640000
330.120178	145.560000
330.213562	145.380000
330.306854	145.140000
330.400238	145.160000
330.493561	145.160000
330.586945	145.900000
330.680237	146.320000
330.773621	146.360000
330.866974	146.480000
330.960327	146.780000
331.053680	145.740000
331.147003	145.700000
331.240356	145.840000
331.333710	145.600000
331.427063	145.420000
331.520416	145.700000
331.613770	145.420000
331.707123	145.500000
331.800476	145.900000
331.893829	146.680000
331.987152	147.020000
332.080505	147.060000
332.173859	147.040000
332.267212	146.240000
332.360565	145.360000
332.453918	144.840000
332.547333	144.860000
332.640656	144.760000
332.734039	145.180000
332.827362	144.980000
332.920746	145.660000
333.014069	145.860000
333.107452	146.280000
333.200806	146.420000
333.294159	146.940000
333.387543	146.280000
333.480896	145.620000
333.574249	145.200000
333.667603	144.840000
333.760956	144.840000
333.854340	145.440000
333.947693	145.840000
334.041046	146.060000
334.134430	146.620000
334.227783	146.200000
334.321136	145.640000
334.414520	145.520000
334.507874	145.280000
334.601227	145.120000
334.694611	145.220000
334.787964	145.500000
334.881348	145.540000
334.974701	145.640000
335.068085	145.280000
335.161438	145.840000
335.254822	146.020000
335.348175	146.060000
335.441559	145.780000
335.534943	146.680000
335.628296	146.260000
335.721680	145.940000
335.815033	146.000000
335.908417	146.540000
336.001770	146.320000
336.095154	146.180000
336.188538	145.900000
336.281891	145.520000
336.375275	145.040000
336.468658	144.600000
336.562012	144.820000
336.655396	145.560000
336.748779	146.020000
336.842133	146.260000
336.935516	146.720000
337.028900	146.460000
337.122284	146.060000
337.215637	146.220000
337.309021	145.940000
337.402435	145.460000
337.495789	145.580000
337.589203	145.400000
337.682526	144.880000
337.775940	145.160000
337.869324	145.220000
337.962708	144.940000
338.056091	145.820000
338.149475	145.780000
338.242859	145.900000
338.336243	145.760000
338.429626	146.140000
338.523010	145.520000
338.616394	145.340000
338.709778	145.380000
338.803162	145.540000
338.896545	145.700000
338.989929	145.500000
339.083313	145.980000
339.176697	145.460000
339.270081	145.260000
339.363464	145.340000
339.456848	145.780000
339.550232	145.200000
339.643616	145.300000
339.737030	145.700000
339.830383	145.400000
339.923828	145.360000
340.017181	146.000000
340.110596	145.940000
340.203949	145.740000
340.297363	145.500000
340.390778	145.220000
340.484161	145.000000
340.577545	145.240000
340.670959	145.120000
340.764343	145.440000
340.857727	145.760000
340.951111	145.160000
341.044525	145.200000
341.137909	145.160000
341.231293	145.060000
341.324707	144.380000
341.418091	145.580000
341.511505	145.420000
341.604889	145.760000
341.698303	145.920000
341.791687	146.600000
341.885071	145.880000
341.978485	145.880000
342.071899	145.920000
342.165283	146.240000
342.258698	146.300000
342.352081	146.860000
342.445496	147.420000
342.538879	147.100000
342.632324	146.380000
342.725708	146.260000
342.819122	145.520000
342.912506	144.960000
343.005920	145.180000
343.099335	146.140000
343.192719	146.000000
343.286133	146.040000
343.379547	146.580000
343.472931	146.580000
343.566345	145.940000
343.659760	146.080000
343.753143	146.180000
343.846558	145.480000
343.939972	145.280000
344.033386	145.780000
344.126770	145.560000
344.220184	145.980000
344.313599	146.500000
344.407043	146.440000
344.500427	145.780000
344.593872	146.440000
344.687225	145.980000
344.780670	145.500000
344.874054	145.680000
344.967499	146.240000
345.060913	145.860000
345.154327	145.720000
345.247742	145.640000
345.341156	145.360000
345.434570	144.980000
345.527985	144.740000
345.621399	144.760000
345.714813	144.940000
345.808228	145.400000
345.901642	145.260000
345.995056	145.300000
346.088470	145.680000
346.181885	145.580000
346.275299	144.920000
346.368713	144.680000
346.462128	144.260000
346.555573	144.040000
346.648987	144.360000
346.742401	144.800000
346.835815	145.320000
346.929260	145.420000
347.022644	145.620000
347.116119	145.720000
347.209503	145.720000
347.302948	146.300000
347.396362	146.980000
347.489807	147.020000
347.583221	147.280000
347.676636	147.080000
347.770050	146.120000
347.863495	145.360000
347.956909	145.140000
348.050323	144.660000
348.143768	144.720000
348.237183	144.780000
348.330597	145.300000
348.424042	145.520000
348.517456	145.860000
348.610901	146.140000
348.704315	145.920000
348.797760	145.340000
348.891174	145.220000
348.984619	144.500000
349.078033	144.620000
349.171448	145.460000
349.264923	145.820000
349.358337	145.640000
349.451782	146.060000
349.545197	145.360000
349.638641	144.720000
349.732086	144.280000
349.825500	144.680000
349.918945	144.440000
350.012390	145.180000
350.105804	145.720000
350.199249	146.020000
350.292664	146.340000
350.386108	146.540000
350.479553	146.760000
350.572968	146.260000
350.666412	146.560000
350.759857	146.280000
350.853302	146.700000
350.946716	146.160000
351.040161	146.500000
351.133606	146.240000
351.227081	145.960000
351.320465	146.500000
351.413940	146.840000
351.507355	146.980000
351.600830	147.440000
351.694244	147.460000
351.787720	147.000000
351.881104	146.420000
351.974579	146.120000
352.067993	146.480000
352.161469	146.520000
352.254883	145.940000
352.348358	145.980000
352.441803	146.040000
352.535248	145.600000
352.628693	145.920000
352.722137	145.940000
352.815582	146.340000
352.909027	146.380000
353.002472	145.900000
353.095917	145.500000
353.189362	145.880000
353.282806	145.720000
353.376251	145.560000
353.469696	145.520000
353.563141	146.300000
353.656586	145.980000
353.750061	145.700000
353.843475	145.500000
353.936981	146.140000
354.030396	145.360000
354.123871	145.200000
354.217285	146.000000
354.310760	146.500000
354.404175	146.340000
354.497681	146.140000
354.591095	146.340000
354.684570	145.640000
354.777985	145.200000
354.871490	144.900000
354.964935	145.460000
355.058380	145.580000
355.151855	145.540000
355.245300	145.960000
355.338745	146.220000
355.432220	146.240000
355.525665	145.660000
355.619110	146.180000
355.712585	145.660000
355.806030	145.700000
355.899475	145.360000
355.992950	145.860000
356.086426	145.640000
356.179871	146.020000
356.273346	145.740000
356.366791	145.820000
356.460266	146.120000
356.553711	145.760000
356.647186	145.780000
356.740631	145.820000
356.834106	145.720000
356.927551	145.580000
357.021027	145.960000
357.114471	145.920000
357.207947	146.060000
357.301422	146.740000
357.394867	146.760000
357.488342	146.780000
357.581818	146.940000
357.675262	147.180000
357.768738	146.580000
357.862213	145.860000
357.955658	146.060000
358.049133	145.900000
358.142609	146.340000
358.236053	146.080000
358.329529	146.680000
358.423035	146.780000
358.516449	146.480000
358.609955	146.460000
358.703400	147.380000
358.796906	147.340000
358.890350	146.660000
358.983826	146.840000
359.077271	145.920000
359.170776	145.420000
359.264221	145.540000
359.357727	145.840000
359.451172	146.400000
359.544647	146.700000
359.638123	146.480000
359.731598	146.660000
359.825073	147.140000
359.918549	146.600000
360.012024	146.440000
360.105499	146.060000
360.198975	145.960000
360.292450	145.820000
360.385925	145.980000
360.479401	145.540000
360.572876	146.260000
360.666351	146.420000
360.759857	146.340000
360.853302	146.400000
360.946808	146.680000
361.040253	146.520000
361.133759	145.920000
361.227203	145.720000
361.320709	145.340000
361.414154	145.940000
361.507660	146.400000
361.601105	147.000000
361.694641	147.680000
361.788086	147.540000
361.881592	147.860000
361.975067	147.360000
362.068542	147.400000
362.162018	147.020000
362.255524	146.860000
362.348999	146.520000
362.442474	146.720000
362.535950	146.220000
362.629456	145.840000
362.722931	146.040000
362.816406	146.140000
362.909882	146.480000
363.003387	146.360000
363.096863	146.740000
363.190338	147.120000
363.283875	146.880000
363.377319	146.740000
363.470825	147.440000
363.564301	146.900000
363.657806	146.860000
363.751282	146.860000
363.844788	147.520000
363.938232	146.840000
364.031769	147.640000
364.125214	147.760000
364.218750	148.140000
364.312225	146.680000
364.405731	147.220000
364.499207	146.560000
364.592712	146.120000
364.686188	145.660000
364.779694	146.240000
364.873169	145.780000
364.966675	145.880000
365.060150	146.160000
365.153656	146.680000
365.247131	146.460000
365.340637	146.920000
365.434143	147.360000
365.527618	147.460000
365.621155	146.540000
365.714600	146.660000
365.808136	146.540000
365.901611	145.520000
365.995117	145.200000
366.088593	145.520000
366.182129	145.340000
366.275604	145.140000
366.369110	145.560000
366.462585	145.620000
366.556122	146.140000
366.649567	146.200000
366.743103	146.260000
366.836609	146.020000
366.930115	146.380000
367.023590	146.140000
367.117096	145.820000
367.210602	145.680000
367.304108	146.600000
367.397614	147.040000
367.491119	146.880000
367.584595	147.300000
367.678101	147.900000
367.771606	147.380000
367.865112	146.840000
367.958649	146.660000
368.052124	146.340000
368.145660	145.640000
368.239136	146.220000
368.332672	146.200000
368.426147	146.280000
368.519684	146.320000
368.613159	146.780000
368.706696	145.840000
368.800171	145.760000
368.893707	145.480000
368.987183	145.780000
369.080719	145.560000
369.174225	145.660000
369.267731	145.700000
369.361237	146.000000
369.454742	145.740000
369.548248	146.200000
369.641754	146.280000
369.735260	146.220000
369.828766	145.560000
369.922272	146.200000
370.015808	145.660000
370.109314	145.380000
370.202820	145.080000
370.296356	146.240000
370.389832	145.760000
370.483368	145.600000
370.576874	145.560000
370.670410	146.000000
370.763885	145.040000
370.857422	145.160000
370.950928	145.040000
371.044464	145.740000
371.137939	145.980000
371.231476	146.580000
371.324982	146.800000
371.418518	146.940000
371.512024	146.860000
371.605560	146.340000
371.699066	146.300000
371.792572	145.880000
371.886108	146.300000
371.979614	145.840000
372.073120	146.540000
372.166656	146.420000
372.260162	146.720000
372.353668	146.420000
372.447205	146.520000
372.540710	145.980000
372.634277	145.760000
372.727753	145.860000
372.821320	145.940000
372.914795	145.920000
373.008362	145.940000
373.101837	146.160000
373.195404	145.800000
373.288879	145.520000
373.382446	146.600000
373.475922	146.560000
373.569489	147.020000
373.662964	147.560000
373.756531	147.840000
373.850037	147.480000
373.943573	147.360000
374.037109	146.440000
374.130615	146.560000
374.224152	146.760000
374.317657	146.260000
374.411194	147.020000
374.504730	147.240000
374.598236	146.740000
374.691772	146.380000
374.785309	146.460000
374.878815	145.440000
374.972351	146.100000
375.065887	146.000000
375.159454	146.740000
375.252930	146.440000
375.346497	146.940000
375.440002	147.140000
375.533569	146.960000
375.627045	146.200000
375.720612	146.300000
375.814117	146.460000
375.907684	145.780000
376.001160	145.800000
376.094727	145.360000
376.188232	146.040000
376.281799	145.960000
376.375336	146.020000
376.468872	146.680000
376.562408	147.120000
376.655914	146.600000
376.749451	146.660000
376.842987	146.860000
376.936523	146.380000
377.030060	146.520000
377.123596	146.620000
377.217133	145.920000
377.310669	145.640000
377.404205	146.080000
377.497772	146.420000
377.591278	146.460000
377.684845	147.680000
377.778351	148.040000
377.871918	147.620000
377.965424	147.000000
378.058990	146.700000
378.152496	145.860000
378.246063	146.120000
378.339569	146.740000
378.433136	146.860000
378.526642	146.820000
378.620209	146.920000
378.713745	146.080000
378.807312	145.940000
378.900848	146.020000
378.994385	146.320000
379.087921	145.580000
379.181458	145.960000
379.274994	144.940000
379.368530	144.980000
379.462097	145.140000
379.555634	146.060000
379.649170	145.800000
379.742706	146.280000
379.836273	146.380000
379.929810	146.200000
380.023376	145.640000
380.116882	145.580000
380.210449	145.600000
380.303986	145.080000
380.397552	144.480000
380.491058	145.080000
380.584656	145.000000
380.678162	145.320000
380.771729	145.520000
380.865265	146.580000
380.958832	146.360000
381.052368	146.460000
381.145935	146.580000
381.239471	147.180000
381.333008	146.980000
381.426575	147.060000
381.520111	147.500000
381.613647	147.500000
381.707214	147.040000
381.800751	146.220000
381.894318	146.280000
381.987854	145.940000
382.081421	145.740000
382.174988	145.560000
382.268524	145.400000
382.362091	145.160000
382.455627	145.600000
382.549194	145.140000
382.642731	145.080000
382.736298	145.160000
382.829834	145.040000
382.923401	145.580000
383.016937	146.160000
383.110504	146.400000
383.204041	146.920000
383.297607	147.380000
383.391174	146.460000
383.484741	146.700000
383.578278	146.260000
383.671844	145.920000
383.765411	145.200000
383.858948	145.520000
383.952515	144.920000
384.046051	145.620000
384.139618	146.040000
384.233185	146.600000
384.326721	146.540000
384.420288	147.240000
384.513855	146.880000
384.607422	146.960000
384.700989	147.060000
384.794525	146.480000
384.888123	146.500000
384.981659	146.760000
385.075226	146.120000
385.168762	145.700000
385.262360	145.900000
385.355896	144.680000
385.449463	144.540000
385.542999	144.800000
385.636597	145.500000
385.730164	145.840000
385.823730	146.080000
385.917267	145.860000
386.010834	146.080000
386.104401	145.780000
386.197968	145.960000
386.291534	146.360000
386.385101	146.500000
386.478668	146.860000
386.572235	146.540000
386.665802	145.940000
386.759338	145.560000
386.852905	145.580000
386.946472	145.160000
387.040070	145.480000
387.133606	145.560000
387.227203	145.460000
387.320740	145.460000
387.414337	145.200000
387.507874	145.060000
387.601471	145.440000
387.695007	145.880000
387.788605	145.900000
387.882141	146.440000
387.975739	146.480000
388.069275	145.740000
388.162872	145.860000
388.256439	145.760000
388.350037	145.300000
388.443604	145.320000
388.537170	145.720000
388.630737	145.920000
388.724304	146.120000
388.817871	146.200000
388.911438	146.040000
389.005005	146.460000
389.098602	146.340000
389.192169	145.900000
389.285736	146.400000
389.379333	146.500000
389.472870	145.700000
389.566467	145.720000
389.660034	146.100000
389.753632	145.580000
389.847168	146.180000
389.940765	147.160000
390.034332	147.080000
390.127930	146.560000
390.221466	146.500000
390.315063	145.600000
390.408630	144.680000
390.502228	143.920000
390.595795	144.140000
390.689362	144.180000
390.782959	144.740000
390.876526	145.200000
390.970093	145.740000
391.063690	146.400000
391.157257	146.620000
391.250824	146.680000
391.344421	146.460000
391.437988	146.620000
391.531555	146.500000
391.625153	146.000000
391.718750	146.020000
391.812317	145.860000
391.905914	145.740000
391.999481	145.860000
392.093079	146.380000
392.186615	146.420000
392.280243	146.780000
392.373779	146.820000
392.467407	146.920000
392.560944	146.660000
392.654572	146.480000
392.748108	146.360000
392.841736	146.160000
392.935303	145.420000
393.028900	145.380000
393.122467	145.300000
393.216064	145.340000
393.309631	145.280000
393.403229	145.360000
393.496796	145.340000
393.590393	144.600000
393.683990	144.620000
393.777557	145.280000
393.871155	145.700000
393.964722	146.160000
394.058350	146.620000
394.151917	146.320000
394.245514	145.940000
394.339081	146.200000
394.432678	146.220000
394.526245	146.220000
394.619873	146.140000
394.713409	146.000000
394.807037	145.600000
394.900604	145.620000
394.994202	145.740000
395.087769	146.180000
395.181396	145.600000
395.274994	146.320000
395.368561	145.680000
395.462158	145.980000
395.555756	145.440000
395.649353	146.320000
395.742920	145.760000
395.836517	146.800000
395.930115	146.240000
396.023712	146.820000
396.117279	146.840000
396.210876	146.140000
396.304474	145.560000
396.398071	145.900000
396.491669	146.060000
396.585266	145.780000
396.678833	146.260000
396.772461	146.640000
396.866028	146.660000
396.959656	146.980000
397.053223	147.440000
397.146851	147.680000
397.240417	148.380000
397.334015	149.900000
397.427582	150.960000
397.521210	152.920000
397.614807	155.780000
397.708405	158.920000
397.802002	162.820000
397.895599	168.340000
397.989197	175.200000
398.082794	182.760000
398.176392	192.660000
398.269989	204.040000
398.363586	218.120000
398.457184	234.600000
398.550781	254.240000
398.644379	274.880000
398.737976	298.140000
398.831573	321.560000
398.925201	344.400000
399.018768	367.160000
399.112396	388.960000
399.205963	409.460000
399.299591	428.900000
399.393158	447.640000
399.486786	465.540000
399.580353	482.620000
399.673981	496.680000
399.767578	511.100000
399.861206	522.760000
399.954773	530.120000
400.048401	532.380000
400.141998	530.460000
400.235596	522.320000
400.329193	510.100000
400.422791	495.200000
400.516418	478.620000
400.610016	462.260000
400.703613	443.520000
400.797211	421.720000
400.890808	398.260000
400.984436	373.320000
401.078033	345.900000
401.171631	319.760000
401.265259	296.140000
401.358826	274.720000
401.452484	254.900000
401.546051	238.320000
401.639679	222.060000
401.733246	208.360000
401.826904	195.340000
401.920471	184.600000
402.014099	175.680000
402.107697	169.200000
402.201324	163.800000
402.294891	160.020000
402.388550	157.260000
402.482147	154.700000
402.575745	152.280000
402.669373	149.920000
402.762970	148.860000
402.856567	148.160000
402.950195	147.980000
403.043793	147.400000
403.137390	148.260000
403.231018	147.340000
403.324615	147.380000
403.418243	146.780000
403.511841	147.420000
403.605469	146.940000
403.699066	147.400000
403.792694	147.240000
403.886292	147.380000
403.979919	147.340000
404.073517	147.120000
404.167145	147.100000
404.260712	147.420000
404.354370	147.220000
404.447937	147.180000
404.541595	147.280000
404.635162	147.520000
404.728821	147.460000
404.822418	147.060000
404.916046	146.880000
405.009644	146.880000
405.103271	147.000000
405.196899	146.520000
405.290497	146.860000
405.384125	147.320000
405.477722	147.040000
405.571350	146.640000
405.664948	147.040000
405.758575	147.000000
405.852203	146.380000
405.945801	146.480000
406.039429	146.360000
406.133057	145.760000
406.226654	145.520000
406.320312	145.460000
406.413879	145.700000
406.507538	146.020000
406.601135	146.060000
406.694763	146.620000
406.788361	146.420000
406.882019	145.920000
406.975586	146.160000
407.069244	146.840000
407.162872	146.720000
407.256470	146.740000
407.350098	146.900000
407.443726	146.080000
407.537323	145.420000
407.630951	145.600000
407.724579	145.520000
407.818207	146.040000
407.911804	145.940000
408.005432	145.980000
408.099060	145.920000
408.192688	146.540000
408.286285	145.900000
408.379913	145.980000
408.473572	146.180000
408.567169	145.600000
408.660828	145.760000
408.754395	145.740000
408.848053	145.840000
408.941650	145.900000
409.035309	145.940000
409.128906	145.760000
409.222565	146.200000
409.316132	146.420000
409.409790	145.900000
409.503387	146.060000
409.597046	146.020000
409.690674	146.020000
409.784302	145.880000
409.877930	146.000000
409.971558	146.060000
410.065186	145.780000
410.158783	145.660000
410.252411	145.560000
410.346039	146.000000
410.439667	146.080000
410.533295	146.280000
410.626923	146.660000
410.720551	146.600000
410.814209	147.040000
410.907806	147.060000
411.001465	146.320000
411.095062	146.180000
411.188721	146.640000
411.282318	145.960000
411.375977	145.740000
411.469574	146.320000
411.563232	146.180000
411.656830	145.780000
411.750488	145.960000
411.844086	145.500000
411.937744	145.460000
412.031372	145.100000
412.125000	145.220000
412.218628	144.920000
412.312256	145.900000
412.405884	146.320000
412.499512	146.480000
412.593170	146.860000
412.686798	147.200000
412.780426	146.520000
412.874054	146.420000
412.967682	146.420000
413.061310	146.900000
413.154968	146.980000
413.248566	147.380000
413.342224	147.320000
413.435852	147.400000
413.529510	146.600000
413.623108	146.060000
413.716766	145.600000
413.810364	145.740000
413.904022	145.420000
413.997650	145.360000
414.091309	146.100000
414.184906	146.320000
414.278564	145.800000
414.372192	146.320000
414.465851	146.180000
414.559479	145.800000
414.653107	146.660000
414.746735	146.760000
414.840393	146.540000
414.934021	146.960000
415.027649	146.760000
415.121277	146.360000
415.214935	146.920000
415.308563	146.980000
415.402191	146.400000
415.495850	146.380000
415.589478	146.000000
415.683136	145.500000
415.776733	145.840000
415.870422	146.360000
415.964020	146.180000
416.057678	146.360000
416.151306	146.380000
416.244965	145.960000
416.338562	145.760000
416.432251	146.360000
416.525848	146.960000
416.619507	147.460000
416.713165	147.740000
416.806793	147.600000
416.900421	147.280000
416.994080	146.400000
417.087708	146.100000
417.181366	145.460000
417.274994	145.600000
417.368622	146.020000
417.462280	146.480000
417.555908	146.440000
417.649567	146.620000
417.743195	146.800000
417.836853	146.760000
417.930481	146.820000
418.024170	146.720000
418.117767	147.320000
418.211426	147.660000
418.305054	147.580000
418.398712	146.920000
418.492340	147.040000
418.585999	147.140000
418.679626	146.560000
418.773285	146.660000
418.866913	147.280000
418.960571	147.340000
419.054230	147.120000
419.147858	147.200000
419.241516	147.160000
419.335144	146.560000
419.428802	146.400000
419.522461	145.940000
419.616089	145.780000
419.709747	145.880000
419.803375	146.300000
419.897034	146.060000
419.990662	146.420000
420.084320	147.100000
420.177979	147.020000
420.271606	147.220000
420.365295	147.940000
420.458893	147.860000
420.552582	148.000000
420.646210	147.760000
420.739868	147.380000
420.833496	147.200000
420.927155	147.240000
421.020782	146.660000
421.114471	146.360000
421.208069	146.320000
421.301758	146.420000
421.395386	146.300000
421.489044	146.160000
421.582703	146.400000
421.676361	147.060000
421.769989	146.420000
421.863647	146.620000
421.957306	146.780000
422.050934	147.040000
422.144592	146.440000
422.238251	146.180000
422.331909	145.920000
422.425537	145.700000
422.519196	145.480000
422.612854	145.440000
422.706543	145.640000
422.800140	145.940000
422.893829	145.740000
422.987457	145.380000
423.081146	145.580000
423.174744	146.240000
423.268433	145.840000
423.362061	146.100000
423.455750	146.200000
423.549347	146.060000
423.643036	145.400000
423.736664	145.760000
423.830353	146.080000
423.924011	146.500000
424.017639	146.120000
424.111298	146.480000
424.204956	146.640000
424.298615	146.100000
424.392273	145.620000
424.485931	145.880000
424.579559	145.740000
424.673218	144.960000
424.766876	145.160000
424.860535	145.080000
424.954193	144.840000
425.047882	145.260000
425.141510	145.780000
425.235199	146.040000
425.328796	146.000000
425.422485	146.180000
425.516113	145.400000
425.609802	145.200000
425.703430	145.080000
425.797119	145.200000
425.890747	145.040000
425.984436	145.460000
426.078064	145.500000
426.171753	145.440000
426.265411	145.040000
426.359070	145.560000
426.452728	145.300000
426.546356	145.320000
426.640015	145.280000
426.733673	145.780000
426.827332	145.260000
426.920990	146.140000
427.014648	145.620000
427.108307	145.880000
427.201965	146.360000
427.295624	146.620000
427.389282	145.680000
427.482941	146.360000
427.576630	146.140000
427.670258	145.280000
427.763947	145.380000
427.857574	145.680000
427.951263	145.560000
428.044922	145.300000
428.138611	145.720000
428.232239	146.140000
428.325928	146.380000
428.419556	146.800000
428.513245	146.860000
428.606903	147.000000
428.700562	146.300000
428.794220	145.900000
428.887878	145.080000
428.981537	145.460000
429.075195	145.360000
429.168854	145.960000
429.262512	146.100000
429.356201	146.380000
429.449860	145.940000
429.543518	145.540000
429.637177	145.500000
429.730835	145.360000
429.824493	145.300000
429.918182	145.760000
430.011810	145.760000
430.105530	144.960000
430.199158	145.380000
430.292847	145.320000
430.386475	145.140000
430.480164	145.100000
430.573792	145.140000
430.667511	144.800000
430.761139	144.800000
430.854828	145.020000
430.948456	145.260000
431.042145	145.800000
431.135834	145.520000
431.229492	145.840000
431.323151	145.800000
431.416809	145.860000
431.510468	145.480000
431.604156	145.740000
431.697815	145.680000
431.791473	145.280000
431.885132	144.880000
431.978821	145.740000
432.072479	146.120000
432.166138	146.440000
432.259827	146.280000
432.353485	146.760000
432.447174	145.980000
432.540802	145.640000
432.634491	145.600000
432.728149	146.220000
432.821838	146.580000
432.915466	146.500000
433.009186	146.500000
433.102814	145.760000
433.196503	145.460000
433.290131	145.340000
433.383850	145.580000
433.477509	145.700000
433.571167	146.420000
433.664856	146.920000
433.758514	146.940000
433.852173	146.820000
433.945862	146.520000
434.039520	146.520000
434.133179	145.740000
434.226868	145.520000
434.320526	145.160000
434.414185	145.900000
434.507874	145.800000
434.601562	146.240000
434.695221	145.920000
434.788910	146.520000
434.882538	146.320000
434.976257	145.620000
435.069885	145.640000
435.163574	146.100000
435.257233	145.460000
435.350922	145.580000
435.444580	145.560000
435.538269	145.060000
435.631897	145.560000
435.725616	146.240000
435.819275	146.180000
435.912964	146.920000
436.006622	147.940000
436.100311	147.120000
436.193970	146.540000
436.287628	146.120000
436.381317	145.980000
436.474976	144.940000
436.568665	144.840000
436.662323	144.980000
436.756012	145.060000
436.849670	144.640000
436.943390	144.840000
437.037018	144.780000
437.130737	145.100000
437.224365	144.940000
437.318085	145.380000
437.411713	145.380000
437.505432	145.980000
437.599060	146.500000
437.692780	147.160000
437.786407	147.440000
437.880127	147.600000
437.973755	147.240000
438.067474	146.580000
438.161133	146.300000
438.254822	146.300000
438.348480	146.280000
438.442169	147.000000
438.535828	147.260000
438.629517	146.800000
438.723175	146.300000
438.816864	146.800000
438.910553	146.020000
439.004211	145.760000
439.097900	145.860000
439.191559	146.020000
439.285248	145.260000
439.378906	145.740000
439.472626	145.740000
439.566284	145.920000
439.659973	145.980000
439.753632	145.900000
439.847321	146.200000
439.940979	146.120000
440.034698	146.160000
440.128326	146.020000
440.222046	146.260000
440.315674	145.160000
440.409393	145.520000
440.503082	145.180000
440.596741	144.980000
440.690430	144.980000
440.784088	145.100000
440.877777	144.340000
440.971466	144.520000
441.065125	144.560000
441.158813	144.280000
441.252502	144.320000
441.346161	144.900000
441.439850	145.160000
441.533539	145.020000
441.627197	145.680000
441.720886	146.060000
441.814606	146.440000
441.908234	146.500000
442.001953	146.880000
442.095612	146.740000
442.189301	146.700000
442.282959	146.540000
442.376678	145.740000
442.470306	146.200000
442.564026	146.180000
442.657684	146.400000
442.751404	146.400000
442.845032	147.620000
442.938751	146.880000
443.032440	146.680000
443.126099	146.200000
443.219788	146.520000
443.313477	146.160000
443.407166	146.740000
443.500824	146.780000
443.594513	147.420000
443.688202	146.640000
443.781891	145.940000
443.875549	145.460000
443.969238	145.580000
444.062927	145.320000
444.156647	145.680000
444.250275	146.520000
444.343994	146.780000
444.437653	146.740000
444.531372	146.560000
444.625031	146.400000
444.718719	145.720000
444.812378	145.540000
444.906097	145.400000
444.999756	145.180000
445.093445	144.880000
445.187103	145.080000
445.280823	145.380000
445.374512	144.780000
445.468201	145.000000
445.561859	145.060000
445.655548	145.120000
445.749237	144.520000
445.842926	145.240000
445.936615	145.360000
446.030304	145.380000
446.123962	145.520000
446.217651	145.740000
446.311340	146.080000
446.405029	145.860000
446.498749	145.720000
446.592407	145.460000
446.686096	145.860000
446.779755	145.500000
446.873474	145.780000
446.967133	146.480000
447.060852	146.280000
447.154510	146.140000
447.248230	146.260000
447.341858	146.140000
447.435577	145.480000
447.529236	145.280000
447.622955	145.000000
447.716644	144.860000
447.810333	144.860000
447.904022	145.400000
447.997711	145.600000
448.091400	146.040000
448.185059	145.960000
448.278748	146.000000
448.372437	145.660000
448.466125	145.940000
448.559814	145.660000
448.653503	146.260000
448.747192	146.620000
448.840912	147.080000
448.934570	147.080000
449.028290	147.460000
449.121948	146.880000
449.215637	146.600000
449.309296	146.120000
449.403015	146.060000
449.496674	145.800000
449.590393	145.740000
449.684052	145.200000
449.777771	146.080000
449.871429	145.560000
449.965149	145.600000
450.058838	145.780000
450.152527	146.420000
450.246216	145.820000
450.339905	146.020000
450.433594	145.800000
450.527283	146.900000
450.620972	146.640000
450.714661	146.700000
450.808350	146.940000
450.902039	147.240000
450.995728	146.140000
451.089417	145.680000
451.183105	145.740000
451.276794	146.340000
451.370514	145.680000
451.464172	145.140000
451.557892	145.320000
451.651550	145.440000
451.745270	144.640000
451.838928	144.740000
451.932648	145.520000
452.026306	146.200000
452.120026	145.580000
452.213684	146.000000
452.307404	146.140000
452.401062	146.000000
452.494781	145.840000
452.588470	146.220000
452.682159	145.760000
452.775848	146.000000
452.869537	145.540000
452.963226	145.220000
453.056915	145.120000
453.150604	145.300000
453.244293	145.340000
453.337982	146.160000
453.431671	146.460000
453.525360	146.820000
453.619049	147.020000
453.712769	147.160000
453.806427	146.300000
453.900146	146.000000
453.993805	145.680000
454.087555	145.960000
454.181213	145.500000
454.274933	145.740000
454.368591	145.700000
454.462311	145.760000
454.555969	145.400000
454.649689	145.920000
454.743347	145.900000
454.837067	146.660000
454.930756	147.020000
455.024445	147.460000
455.118134	147.140000
455.211853	147.420000
455.305542	146.840000
455.399231	146.560000
455.492920	145.920000
455.586609	146.060000
455.680298	146.120000
455.773987	145.760000
455.867676	145.720000
455.961365	146.380000
456.055084	146.140000
456.148773	145.820000
456.242493	146.420000
456.336151	146.380000
456.429871	146.160000
456.523529	146.640000
456.617249	146.580000
456.710907	146.860000
456.804626	146.780000
456.898315	146.280000
456.992035	146.020000
457.085693	145.820000
457.179413	144.880000
457.273102	145.680000
457.366791	145.820000
457.460480	145.900000
457.554199	146.840000
457.647888	147.160000
457.741577	146.480000
457.835266	146.760000
457.928955	146.780000
458.022644	146.440000
458.116364	146.760000
458.210052	147.040000
458.303741	147.000000
458.397461	146.560000
458.491119	145.900000
458.584839	145.660000
458.678528	145.020000
458.772247	144.800000
458.865906	145.340000
458.959625	146.520000
459.053284	146.440000
459.147003	146.680000
459.240692	147.260000
459.334412	147.200000
459.428070	146.700000
459.521790	146.540000
459.615479	146.340000
459.709198	146.380000
459.802887	146.100000
459.896576	145.900000
459.990265	146.280000
460.083954	146.480000
460.177673	145.980000
460.271362	145.880000
460.365051	145.800000
460.458740	145.260000
460.552429	145.000000
460.646149	145.100000
460.739838	144.760000
460.833527	144.680000
460.927246	144.740000
461.020905	144.840000
461.114655	144.820000
461.208313	145.620000
461.302032	145.400000
461.395691	146.020000
461.489441	145.900000
461.583099	145.680000
461.676819	145.180000
461.770477	145.740000
461.864197	145.000000
461.957916	145.200000
462.051605	144.820000
462.145294	146.080000
462.238983	145.780000
462.332703	146.520000
462.426392	146.920000
462.520081	147.260000
462.613770	145.880000
462.707489	146.080000
462.801178	145.980000
462.894867	145.660000
462.988556	145.840000
463.082275	146.220000
463.175964	145.840000
463.269684	145.740000
463.363342	145.620000
463.457092	144.980000
463.550751	145.160000
463.644470	145.380000
463.738129	145.080000
463.831879	145.300000
463.925537	146.140000
464.019257	146.060000
464.112946	146.000000
464.206665	146.020000
464.300323	145.780000
464.394043	145.520000
464.487762	145.300000
464.581451	145.720000
464.675140	145.720000
464.768829	145.860000
464.862549	145.900000
464.956238	146.340000
465.049927	146.060000
465.143646	146.160000
465.237335	145.900000
465.331024	146.480000
465.424713	145.900000
465.518433	145.880000
465.612152	145.740000
465.705811	146.000000
465.799561	145.420000
465.893219	145.700000
465.986938	145.820000
466.080597	145.760000
466.174347	145.980000
466.268005	146.220000
466.361725	146.140000
466.455414	145.820000
466.549133	145.720000
466.642792	145.680000
466.736542	145.460000
466.830231	145.740000
466.923920	145.860000
467.017609	146.180000
467.111328	145.660000
467.205017	145.440000
467.298706	145.040000
467.392426	145.220000
467.486115	145.300000
467.579803	145.460000
467.673523	146.020000
467.767212	146.280000
467.860901	146.240000
467.954651	146.360000
468.048309	146.600000
468.142029	146.320000
468.235718	146.220000
468.329437	146.100000
468.423096	145.980000
468.516846	145.980000
468.610504	145.720000
468.704224	145.640000
468.797913	145.540000
468.891632	145.760000
468.985291	145.640000
469.079010	145.760000
469.172729	145.440000
469.266418	146.100000
469.360107	146.220000
469.453827	146.160000
469.547516	146.480000
469.641205	147.320000
469.734924	147.180000
469.828613	147.180000
469.922302	147.420000
470.016022	147.100000
470.109711	146.660000
470.203430	146.140000
470.297150	145.280000
470.390808	145.600000
470.484558	145.720000
470.578217	146.140000
470.671936	146.700000
470.765625	147.860000
470.859344	147.400000
470.953003	147.260000
471.046753	146.640000
471.140411	145.960000
471.234131	145.660000
471.327820	146.240000
471.421539	146.440000
471.515228	146.240000
471.608948	146.500000
471.702637	146.000000
471.796326	145.440000
471.890045	145.720000
471.983734	146.080000
472.077423	145.880000
472.171143	146.020000
472.264832	146.000000
472.358521	145.460000
472.452240	145.380000
472.545929	145.840000
472.639648	146.020000
472.733337	146.300000
472.827057	146.380000
472.920746	146.640000
473.014465	146.740000
473.108124	146.580000
473.201874	146.420000
473.295532	146.600000
473.389252	146.640000
473.482941	146.640000
473.576660	146.340000
473.670319	146.080000
473.764069	146.120000
473.857727	145.880000
473.951477	145.880000
474.045166	146.620000
474.138855	146.720000
474.232574	146.380000
474.326263	146.760000
474.419952	146.960000
474.513672	146.580000
474.607361	146.580000
474.701050	146.780000
474.794769	146.920000
474.888458	147.000000
474.982178	147.200000
475.075867	147.140000
475.169586	147.160000
475.263275	146.660000
475.356995	146.480000
475.450653	146.120000
475.544403	145.900000
475.638062	146.360000
475.731812	146.060000
475.825470	145.780000
475.919189	146.000000
476.012878	146.280000
476.106598	145.800000
476.200256	146.540000
476.294006	146.520000
476.387695	146.560000
476.481384	146.440000
476.575104	146.440000
476.668793	145.860000
476.762512	145.360000
476.856201	145.500000
476.949890	145.300000
477.043610	144.860000
477.137299	144.880000
477.230988	145.380000
477.324707	144.960000
477.418396	145.740000
477.512146	146.040000
477.605804	146.080000
477.699524	146.120000
477.793213	146.200000
477.886932	145.740000
477.980591	145.660000
478.074341	145.500000
478.167999	145.080000
478.261749	145.260000
478.355408	144.980000
478.449127	145.360000
478.542816	146.040000
478.636536	146.900000
478.730225	146.680000
478.823944	147.380000
478.917633	147.180000
479.011322	147.220000
479.105042	146.800000
479.198730	147.320000
479.292450	146.600000
479.386139	146.680000
479.479828	146.380000
479.573547	146.560000
479.667267	146.340000
479.760925	146.720000
479.854675	147.000000
479.948334	146.900000
480.042084	146.460000
480.135742	146.760000
480.229462	146.540000
480.323151	146.440000
480.416870	146.020000
480.510529	146.100000
480.604279	145.300000
480.697937	145.860000
480.791656	145.280000
480.885345	145.280000
480.979065	145.360000
481.072754	146.040000
481.166473	145.940000
481.260132	146.280000
481.353882	146.440000
481.447540	146.040000
481.541260	146.040000
481.635010	145.540000
481.728668	145.640000
481.822388	145.880000
481.916077	146.500000
482.009796	146.380000
482.103485	147.060000
482.197205	147.080000
482.290863	147.100000
482.384613	146.520000
482.478271	145.860000
482.571991	145.640000
482.665680	145.560000
482.759399	146.160000
482.853058	146.700000
482.946808	146.900000
483.040466	146.620000
483.134216	146.660000
483.227875	145.860000
483.321594	146.380000
483.415283	146.500000
483.509003	146.240000
483.602661	145.900000
483.696411	146.180000
483.790070	145.680000
483.883789	145.580000
483.977478	146.000000
484.071198	146.320000
484.164917	145.680000
484.258606	145.120000
484.352325	145.460000
484.445984	145.440000
484.539734	145.400000
484.633392	145.360000
484.727142	146.120000
484.820801	145.680000
484.914520	145.380000
485.008209	145.560000
485.101929	146.360000
485.195587	145.880000
485.289337	146.060000
485.382996	146.420000
485.476715	146.320000
485.570404	146.500000
485.664124	146.520000
485.757782	146.960000
485.851532	146.520000
485.945190	146.300000
486.038910	146.060000
486.132599	146.640000
486.226318	146.100000
486.319977	146.300000
486.413727	146.920000
486.507446	146.400000
486.601105	145.720000
486.694855	145.380000
486.788513	145.360000
486.882233	144.980000
486.975922	144.960000
487.069641	144.840000
487.163300	144.860000
487.257050	146.120000
487.350708	146.140000
487.444427	146.020000
487.538116	146.260000
487.631836	146.620000
487.725494	145.680000
487.819214	145.500000
487.912903	145.800000
488.006622	146.060000
488.100281	146.340000
488.194031	146.320000
488.287689	146.760000
488.381409	147.340000
488.475098	146.780000
488.568817	146.700000
488.662476	146.180000
488.756226	145.260000
488.849945	144.080000
488.943604	144.460000
489.037354	144.620000
489.131012	144.860000
489.224731	145.040000
489.318390	145.940000
489.412140	145.860000
489.505798	145.660000
489.599518	145.500000
489.693207	145.980000
489.786926	145.440000
489.880585	145.380000
489.974335	145.480000
490.067993	146.500000
490.161713	146.700000
490.255371	147.680000
490.349121	147.860000
490.442780	147.860000
490.536499	146.920000
490.630188	146.920000
490.723907	146.000000
490.817566	145.780000
490.911285	145.580000
491.004974	145.640000
491.098694	144.820000
491.192413	145.680000
491.286102	145.540000
491.379822	146.000000
491.473480	146.240000
491.567200	146.700000
491.660889	145.720000
491.754608	145.980000
491.848267	145.600000
491.941986	145.560000
492.035675	145.620000
492.129395	146.300000
492.223053	146.020000
492.316772	146.360000
492.410461	146.200000
492.504181	146.160000
492.597839	145.880000
492.691559	146.200000
492.785248	146.100000
492.878967	146.140000
492.972626	145.820000
493.066345	145.740000
493.160034	145.240000
493.253754	145.300000
493.347412	145.000000
493.441132	145.640000
493.534882	146.160000
493.628540	146.580000
493.722260	146.320000
493.815918	146.760000
493.909668	147.020000
494.003326	146.900000
494.097046	146.760000
494.190704	146.720000
494.284454	146.520000
494.378113	146.380000
494.471832	146.200000
494.565491	146.240000
494.659210	146.500000
494.752899	146.480000
494.846619	145.980000
494.940277	146.120000
495.033997	145.940000
495.127686	145.420000
495.221405	145.460000
495.315063	145.680000
495.408783	145.580000
495.502441	145.880000
495.596191	146.200000
495.689850	146.020000
495.783569	146.200000
495.877228	146.260000
495.970947	146.020000
496.064697	145.840000
496.158356	146.480000
496.252075	146.440000
496.345734	146.360000
496.439453	147.120000
496.533142	147.160000
496.626862	147.180000
496.720520	147.020000
496.814240	147.300000
496.907898	146.920000
497.001617	147.360000
497.095306	146.760000
497.189026	146.700000
497.282684	146.520000
497.376404	146.820000
497.470062	146.120000
497.563782	146.560000
497.657471	146.460000
497.751190	146.220000
497.844849	145.800000
497.938568	146.320000
498.032227	146.220000
498.125946	146.100000
498.219635	146.020000
498.313354	146.080000
498.407074	145.480000
498.500732	145.480000
498.594452	145.840000
498.688110	145.440000
498.781830	145.240000
498.875519	145.560000
498.969238	145.260000
499.062897	145.080000
499.156616	145.860000
499.250275	146.020000
499.343994	145.940000
499.437653	146.200000
499.531372	146.540000
499.625061	146.880000
499.718781	146.740000
499.812439	147.060000
499.906158	146.780000
499.999817	146.220000
500.093536	145.500000
500.187195	145.720000
500.280914	145.800000
500.374573	146.180000
500.468323	146.340000
500.561981	146.680000
500.655701	146.140000
500.749420	145.820000
500.843079	145.840000
500.936798	146.100000
501.030457	146.420000
501.124176	147.160000
501.217834	147.320000
501.311554	147.080000
501.405212	146.700000
501.498962	145.840000
501.592621	145.420000
501.686340	145.580000
501.779999	145.740000
501.873718	146.000000
501.967377	146.280000
502.061096	146.760000
502.154755	146.240000
502.248474	146.180000
502.342133	146.240000
502.435852	146.340000
502.529510	146.640000
502.623230	147.440000
502.716888	147.000000
502.810608	147.120000
502.904266	147.520000
502.997986	146.980000
503.091705	146.180000
503.185364	146.180000
503.279083	146.260000
503.372772	145.780000
503.466492	145.340000
503.560150	145.560000
503.653870	146.080000
503.747528	145.540000
503.841248	145.600000
503.934906	146.000000
504.028625	145.540000
504.122284	145.340000
504.216003	146.380000
504.309662	146.000000
504.403381	146.180000
504.497040	146.700000
504.590759	146.780000
504.684418	146.440000
504.778137	147.220000
504.871796	147.380000
504.965515	147.200000
505.059174	147.160000
505.152893	146.760000
505.246521	146.040000
505.340240	145.540000
505.433899	145.840000
505.527618	146.060000
505.621338	146.420000
505.714996	146.620000
505.808716	146.840000
505.902374	147.240000
505.996094	147.140000
506.089752	146.700000
506.183472	147.080000
506.277130	146.980000
506.370850	146.720000
506.464508	146.740000
506.558228	146.900000
506.651886	146.460000
506.745605	146.700000
506.839264	146.640000
506.932983	146.620000
507.026611	146.480000
507.120331	146.980000
507.213989	146.340000
507.307709	146.520000
507.401367	146.700000
507.495087	147.400000
507.588745	146.760000
507.682465	147.800000
507.776123	147.360000
507.869843	147.120000
507.963531	146.520000
508.057190	147.080000
508.150909	146.240000
508.244568	146.520000
508.338287	146.200000
508.431946	146.040000
508.525665	145.880000
508.619324	145.740000
508.713013	146.020000
508.806671	146.620000
508.900391	147.620000
508.994049	147.980000
509.087769	148.100000
509.181427	147.720000
509.275146	147.400000
509.368774	146.440000
509.462494	145.800000
509.556152	145.840000
509.649872	146.180000
509.743530	146.220000
509.837250	146.360000
509.930878	146.620000
510.024597	146.440000
510.118256	146.140000
510.211975	145.840000
510.305695	145.640000
510.399353	145.920000
510.493042	146.500000
510.586700	146.360000
510.680420	147.060000
510.774078	146.880000
510.867798	146.920000
510.961426	146.500000
511.055145	146.640000
511.148804	146.400000
511.242523	146.740000
511.336151	146.640000
511.429871	147.100000
511.523529	146.800000
511.617249	146.480000
511.710876	146.300000
511.804596	145.720000
511.898254	145.140000
511.991974	145.520000
512.085632	145.340000
512.179321	145.640000
512.272949	146.400000
512.366699	146.900000
512.460327	146.580000
512.554077	147.440000
512.647766	147.120000
512.741394	146.660000
512.835144	146.880000
512.928772	146.900000
513.022461	146.620000
513.116150	146.460000
513.209839	147.000000
513.303467	146.280000
513.397217	146.100000
513.490845	145.860000
513.584595	146.080000
513.678223	145.240000
513.771912	144.920000
513.865601	145.440000
513.959290	145.120000
514.052917	145.180000
514.146667	146.160000
514.240295	146.940000
514.333984	147.020000
514.427673	147.080000
514.521362	147.220000
514.614990	146.380000
514.708740	146.280000
514.802368	146.240000
514.896057	146.300000
514.989746	147.080000
515.083435	147.000000
515.177124	147.120000
515.270752	146.760000
515.364502	146.860000
515.458130	146.700000
515.551819	146.540000
515.645508	146.400000
515.739197	146.420000
515.832825	146.500000
515.926575	145.740000
516.020203	146.280000
516.113892	146.660000
516.207520	146.620000
516.301270	146.500000
516.394897	146.680000
516.488586	146.820000
516.582275	146.320000
516.675964	145.840000
516.769592	145.820000
516.863281	146.360000
516.956970	146.580000
517.050659	146.760000
517.144287	147.360000
517.238037	147.420000
517.331665	146.720000
517.425354	146.100000
517.519043	145.900000
517.612732	146.180000
517.706421	146.200000
517.800049	145.860000
517.893738	145.380000
517.987427	145.320000
518.081116	144.980000
518.174744	144.640000
518.268433	145.200000
518.362122	146.400000
518.455811	146.220000
518.549438	146.540000
518.643127	147.760000
518.736816	147.440000
518.830505	146.600000
518.924133	146.700000
519.017822	147.000000
519.111511	146.400000
519.205200	146.920000
519.298828	147.160000
519.392517	147.180000
519.486206	147.180000
519.579895	147.380000
519.673523	147.160000
519.767212	146.840000
519.860901	147.300000
519.954590	146.600000
520.048279	145.880000
520.141907	145.560000
520.235596	146.580000
520.329224	146.660000
520.422974	146.980000
520.516602	147.180000
520.610291	146.960000
520.703918	146.740000
520.797607	146.380000
520.891296	146.360000
520.984985	146.340000
521.078613	147.320000
521.172302	146.540000
521.265930	147.380000
521.359680	148.020000
521.453308	147.980000
521.546997	147.340000
521.640625	147.860000
521.734314	147.120000
521.827942	146.420000
521.921692	146.800000
522.015320	147.140000
522.109009	146.820000
522.202698	146.800000
522.296326	146.820000
522.390015	146.840000
522.483704	146.760000
522.577393	146.980000
522.671021	146.760000
522.764709	146.520000
522.858337	146.760000
522.952026	146.580000
523.045654	146.880000
523.139404	147.720000
523.233032	147.700000
523.326721	147.300000
523.420349	147.280000
523.514038	146.700000
523.607666	146.660000
523.701355	146.500000
523.795044	146.600000
523.888733	147.100000
523.982361	147.500000
524.076050	146.640000
524.169678	147.220000
524.263367	146.820000
524.356995	146.180000
524.450684	146.060000
524.544373	146.160000
524.638062	145.780000
524.731750	146.040000
524.825378	146.040000
524.919067	145.600000
525.012695	145.740000
525.106384	145.500000
525.200012	145.600000
525.293701	145.700000
525.387329	146.340000
525.481018	146.420000
525.574646	146.860000
525.668396	146.720000
525.762024	146.960000
525.855713	147.100000
525.949341	146.720000
526.043030	146.740000
526.136658	146.520000
526.230347	146.280000
526.323975	145.520000
526.417664	145.460000
526.511292	145.500000
526.604980	146.000000
526.698608	145.960000
526.792297	146.120000
526.885925	146.480000
526.979614	146.580000
527.073303	146.340000
527.166931	146.460000
527.260620	146.740000
527.354309	147.220000
527.447998	147.060000
527.541626	146.840000
527.635315	146.860000
527.728943	147.440000
527.822632	147.480000
527.916260	147.600000
528.009949	147.940000
528.103577	147.900000
528.197266	146.900000
528.290894	146.920000
528.384583	146.280000
528.478210	146.020000
528.571899	146.220000
528.665527	146.960000
528.759216	146.680000
528.852844	147.380000
528.946533	147.380000
529.040161	146.980000
529.133850	146.580000
529.227478	146.640000
529.321167	147.000000
529.414856	147.440000
529.508484	147.820000
529.602173	147.360000
529.695801	147.260000
529.789490	146.980000
529.883057	146.700000
529.976746	146.920000
530.070374	147.700000
530.164062	147.740000
530.257690	147.900000
530.351379	148.140000
530.445007	147.940000
530.538696	147.200000
530.632324	147.240000
530.726013	147.040000
530.819641	146.800000
530.913330	146.900000
531.006958	147.200000
531.100647	147.120000
531.194275	146.900000
531.287964	146.900000
531.381592	146.460000
531.475220	146.660000
531.568848	146.420000
531.662537	146.220000
531.756226	146.500000
531.849854	146.480000
531.943542	146.420000
532.037170	145.980000
532.130859	146.580000
532.224487	146.040000
532.318176	145.900000
532.411804	146.220000
532.505432	146.560000
532.599060	146.020000
532.692749	146.060000
532.786377	146.840000
532.880066	146.280000
532.973694	145.960000
533.067383	146.220000
533.161011	146.220000
533.254639	145.620000
533.348267	145.500000
533.441956	146.080000
533.535583	146.000000
533.629272	146.300000
533.722900	145.860000
533.816589	145.680000
533.910156	145.900000
534.003845	145.220000
534.097534	145.500000
534.191162	146.380000
534.284851	146.680000
534.378479	146.420000
534.472107	146.660000
534.565735	146.000000
534.659424	145.980000
534.753052	146.260000
534.846741	145.980000
534.940369	146.720000
535.033997	146.960000
535.127625	146.880000
535.221313	147.400000
535.314941	147.420000
535.408630	146.820000
535.502197	147.120000
535.595886	146.640000
535.689514	145.980000
535.783203	146.600000
535.876831	147.140000
535.970459	147.120000
536.064087	147.000000
536.157776	147.020000
536.251404	146.660000
536.345093	146.340000
536.438721	146.100000
536.532349	146.740000
536.626038	146.620000
536.719666	146.820000
536.813293	146.620000
536.906921	146.340000
537.000610	146.120000
537.094238	146.440000
537.187866	146.360000
537.281494	146.300000
537.375183	146.620000
537.468811	146.420000
537.562439	146.240000
537.656067	146.260000
537.749756	146.520000
537.843384	146.980000
537.937012	147.240000
538.030640	146.760000
538.124329	146.460000
538.217896	146.900000
538.311584	146.820000
538.405212	146.600000
538.498901	147.100000
538.592468	147.760000
538.686157	147.080000
538.779785	146.320000
538.873413	146.540000
538.967102	146.260000
539.060730	145.760000
539.154358	146.200000
539.247986	146.560000
539.341675	146.460000
539.435242	146.600000
539.528931	146.700000
539.622559	146.220000
539.716187	147.020000
539.809814	147.100000
539.903503	147.040000
539.997070	146.700000
540.090759	147.060000
540.184387	146.380000
540.278015	146.500000
540.371643	146.860000
540.465332	147.240000
540.558899	147.240000
540.652588	147.360000
540.746216	146.920000
540.839844	147.020000
540.933472	146.880000
541.027100	146.660000
541.120728	146.580000
541.214417	146.920000
541.308044	146.980000
541.401672	146.700000
541.495300	146.440000
541.588928	146.180000
541.682617	145.780000
541.776184	145.240000
541.869873	145.600000
541.963440	145.920000
542.057129	146.040000
542.150757	146.180000
542.244385	146.040000
542.338013	145.820000
542.431641	145.860000
542.525269	145.840000
542.618958	146.540000
542.712524	147.160000
542.806213	146.800000
542.899780	146.760000
542.993469	146.520000
543.087036	145.940000
543.180725	145.360000
543.274292	146.280000
543.367981	146.460000
543.461548	146.940000
543.555237	146.880000
543.648926	147.440000
543.742493	147.680000
543.836182	147.520000
543.929749	147.360000
544.023437	147.580000
544.117004	147.620000
544.210693	147.200000
544.304260	147.300000
544.397949	147.440000
544.491516	147.680000
544.585205	147.620000
544.678772	147.200000
544.772461	147.280000
544.866028	146.740000
544.959717	146.760000
545.053284	146.120000
545.146973	146.380000
545.240540	146.400000
545.334229	147.560000
545.427795	147.320000
545.521423	147.700000
545.615051	147.560000
545.708679	147.860000
545.802307	147.320000
545.895935	147.740000
545.989624	148.320000
546.083191	148.160000
546.176880	147.820000
546.270447	147.120000
546.364136	147.160000
546.457703	146.580000
546.551331	146.880000
546.644958	147.040000
546.738586	147.380000
546.832214	146.900000
546.925842	146.900000
547.019409	147.080000
547.113098	146.500000
547.206665	146.380000
547.300354	146.420000
547.393921	146.600000
547.487549	146.520000
547.581177	146.440000
547.674805	146.560000
547.768433	145.920000
547.862061	145.780000
547.955627	145.000000
548.049316	145.260000
548.142883	145.580000
548.236572	146.140000
548.330139	146.300000
548.423767	146.680000
548.517456	146.840000
548.611023	146.820000
548.704651	146.120000
548.798279	145.780000
548.891907	146.300000
548.985474	146.160000
549.079163	146.140000
549.172729	146.640000
549.266357	146.300000
549.359985	145.960000
549.453613	145.380000
549.547180	145.340000
549.640869	145.680000
549.734436	146.020000
549.828064	146.520000
549.921631	146.880000
550.015320	146.540000
550.108887	146.640000
550.202515	146.620000
550.296143	145.940000
550.389771	146.340000
550.483337	146.460000
550.576965	146.100000
550.670593	146.400000
550.764221	146.480000
550.857849	146.080000
550.951477	145.620000
551.045105	145.260000
551.138672	145.160000
551.232300	144.860000
551.325928	145.480000
551.419556	146.000000
551.513123	146.280000
551.606750	145.980000
551.700378	146.340000
551.794006	145.960000
551.887573	145.660000
551.981201	145.980000
552.074768	146.140000
552.168457	145.900000
552.262024	146.760000
552.355652	146.920000
552.449219	147.300000
552.542847	147.320000
552.636475	147.040000
552.730103	145.900000
552.823669	145.740000
552.917297	145.060000
553.010864	144.920000
553.104553	145.560000
553.198181	145.420000
553.291748	145.900000
553.385376	146.120000
553.478943	146.060000
553.572571	145.980000
553.666199	146.240000
553.759827	145.720000
553.853394	145.120000
553.947021	145.140000
554.040588	145.400000
554.134216	145.680000
554.227783	146.480000
554.321411	147.480000
554.415039	147.060000
554.508667	146.720000
554.602234	146.700000
554.695862	145.780000
554.789429	145.460000
554.883057	146.140000
554.976624	145.820000
555.070251	145.620000
555.163818	146.000000
555.257507	145.900000
555.351074	145.660000
555.444702	146.980000
555.538330	146.900000
555.631897	147.360000
555.725525	147.280000
555.819092	147.300000
555.912720	146.220000
556.006287	146.660000
556.099915	146.060000
556.193481	146.220000
556.287109	146.420000
556.380676	146.140000
556.474304	145.860000
556.567871	146.140000
556.661499	145.600000
556.755066	145.500000
556.848694	145.760000
556.942261	145.740000
557.035889	145.920000
557.129517	146.320000
557.223145	146.820000
557.316711	146.860000
557.410339	147.000000
557.503906	146.380000
557.597473	146.680000
557.691040	146.180000
557.784668	146.060000
557.878296	145.720000
557.971863	146.220000
558.065491	146.260000
558.159058	146.220000
558.252686	146.940000
558.346252	147.680000
558.439880	147.100000
558.533447	146.560000
558.627075	146.220000
558.720642	145.620000
558.814270	145.120000
558.907837	145.140000
559.001465	144.940000
559.095032	145.620000
559.188660	145.780000
559.282227	145.380000
559.375854	146.040000
559.469360	146.020000
559.562988	146.340000
559.656555	146.260000
559.750183	146.880000
559.843750	147.040000
559.937378	147.420000
560.030945	147.080000
560.124573	0.000000
560.218140	0.000000
560.311707	0.000000
560.405334	0.000000
560.498901	0.000000
560.592529	0.000000
560.686096	0.000000
560.779724	0.000000
560.873291	0.000000
560.966858	0.000000
561.060425	0.000000
561.154053	0.000000
561.247620	0.000000
561.341248	0.000000
561.434814	0.000000
561.528381	0.000000
561.621948	0.000000
561.715576	0.000000
561.809143	0.000000
561.902771	0.000000
561.996277	0.000000
562.089905	0.000000
562.183472	0.000000
562.277100	0.000000
