Model Number: SPM-002-B   
Serial Number: 70087108
Firmware Version: 004.15.4
Exposure Time: 100000.000000us
Data Taken on: 11-12-2020 19:37:41.708
Wavelength	Amplitude
221.570786	0.000000
221.663406	0.000000
221.756027	0.000000
221.848648	0.000000
221.941269	0.000000
222.033905	0.000000
222.126526	0.000000
222.219162	0.000000
222.311798	0.000000
222.404419	0.000000
222.497055	0.000000
222.589676	0.000000
222.682312	0.000000
222.774933	0.000000
222.867569	0.000000
222.960205	0.000000
223.052841	0.000000
223.145462	0.000000
223.238098	0.000000
223.330734	0.000000
223.423386	0.000000
223.516022	0.000000
223.608658	0.000000
223.701309	0.000000
223.793945	0.000000
223.886581	0.000000
223.979218	0.000000
224.071869	0.000000
224.164505	0.000000
224.257156	0.000000
224.349792	0.000000
224.442444	0.000000
224.535095	0.000000
224.627747	0.000000
224.720398	0.000000
224.813034	0.000000
224.905685	0.000000
224.998337	145.580000
225.090988	145.720000
225.183640	145.660000
225.276291	145.420000
225.368942	145.720000
225.461594	146.440000
225.554245	146.380000
225.646912	146.440000
225.739578	146.900000
225.832230	147.160000
225.924896	146.180000
226.017548	146.260000
226.110199	146.540000
226.202866	145.920000
226.295532	145.640000
226.388184	145.400000
226.480850	145.000000
226.573517	144.540000
226.666168	144.620000
226.758835	145.160000
226.851501	145.980000
226.944183	146.200000
227.036850	145.880000
227.129517	146.340000
227.222183	146.180000
227.314850	146.100000
227.407516	146.100000
227.500198	146.920000
227.592865	146.400000
227.685532	145.940000
227.778214	145.680000
227.870880	146.040000
227.963562	146.440000
228.056229	146.720000
228.148926	146.680000
228.241592	147.400000
228.334274	147.160000
228.426956	146.360000
228.519638	146.480000
228.612305	146.280000
228.704987	145.960000
228.797668	146.300000
228.890350	146.380000
228.983032	145.720000
229.075714	146.520000
229.168396	146.220000
229.261108	145.480000
229.353790	145.600000
229.446472	146.100000
229.539169	145.860000
229.631851	145.840000
229.724533	146.020000
229.817230	146.060000
229.909912	146.980000
230.002609	146.740000
230.095306	146.740000
230.187988	147.120000
230.280685	147.000000
230.373383	145.460000
230.466095	145.800000
230.558792	145.980000
230.651474	145.820000
230.744171	145.560000
230.836868	146.100000
230.929581	145.720000
231.022278	145.960000
231.114975	145.720000
231.207672	145.920000
231.300369	146.140000
231.393082	146.460000
231.485779	146.020000
231.578506	146.120000
231.671204	146.040000
231.763916	145.920000
231.856613	145.840000
231.949326	146.300000
232.042023	146.380000
232.134735	146.480000
232.227448	146.300000
232.320160	146.600000
232.412872	146.240000
232.505585	146.840000
232.598297	147.120000
232.691010	146.980000
232.783722	146.680000
232.876450	147.200000
232.969162	146.620000
233.061874	146.120000
233.154587	146.020000
233.247314	146.140000
233.340027	145.480000
233.432739	145.980000
233.525467	145.940000
233.618179	146.600000
233.710907	146.480000
233.803635	147.200000
233.896347	146.740000
233.989090	147.520000
234.081818	147.200000
234.174545	147.080000
234.267258	146.300000
234.359985	146.460000
234.452713	146.080000
234.545441	146.020000
234.638168	145.860000
234.730896	146.440000
234.823639	146.420000
234.916367	146.640000
235.009094	146.820000
235.101822	147.140000
235.194580	147.020000
235.287308	146.900000
235.380051	146.440000
235.472778	146.500000
235.565521	146.700000
235.658249	146.540000
235.750992	146.520000
235.843719	146.400000
235.936462	146.340000
236.029205	145.880000
236.121948	145.520000
236.214691	146.080000
236.307449	146.860000
236.400192	146.600000
236.492935	146.600000
236.585678	147.120000
236.678421	146.680000
236.771164	146.420000
236.863907	146.980000
236.956665	147.240000
237.049408	148.880000
237.142151	148.560000
237.234909	149.080000
237.327652	148.640000
237.420410	148.300000
237.513153	146.900000
237.605927	146.760000
237.698669	146.120000
237.791428	145.700000
237.884186	146.260000
237.976944	145.440000
238.069702	146.060000
238.162445	145.720000
238.255203	146.040000
238.347961	146.220000
238.440720	146.780000
238.533478	146.400000
238.626266	146.320000
238.719025	146.460000
238.811783	146.140000
238.904541	145.680000
238.997314	145.640000
239.090073	145.300000
239.182831	145.320000
239.275604	145.780000
239.368362	145.820000
239.461136	146.080000
239.553909	146.220000
239.646667	146.200000
239.739441	145.840000
239.832214	146.240000
239.925003	146.300000
240.017761	146.860000
240.110535	147.400000
240.203308	146.500000
240.296082	146.520000
240.388855	146.260000
240.481628	146.220000
240.574417	146.220000
240.667191	147.120000
240.759964	146.680000
240.852737	146.640000
240.945526	146.520000
241.038315	146.380000
241.131088	146.180000
241.223877	146.800000
241.316650	146.620000
241.409439	147.120000
241.502228	146.500000
241.595001	147.100000
241.687790	146.720000
241.780579	146.920000
241.873367	146.720000
241.966141	146.880000
242.058929	146.260000
242.151718	146.860000
242.244507	146.900000
242.337311	146.320000
242.430099	146.780000
242.522903	146.940000
242.615692	146.160000
242.708481	146.440000
242.801270	146.980000
242.894073	146.680000
242.986862	146.540000
243.079651	147.200000
243.172455	147.020000
243.265244	147.180000
243.358063	146.640000
243.450867	146.860000
243.543655	146.420000
243.636459	146.140000
243.729263	146.200000
243.822067	146.780000
243.914856	147.080000
244.007660	147.140000
244.100464	147.360000
244.193268	146.620000
244.286072	146.280000
244.378876	145.640000
244.471680	145.580000
244.564499	145.800000
244.657318	146.560000
244.750122	146.900000
244.842926	146.320000
244.935745	146.600000
245.028549	145.940000
245.121368	145.220000
245.214172	144.880000
245.306992	145.800000
245.399796	145.320000
245.492615	145.880000
245.585434	146.060000
245.678253	146.400000
245.771072	145.840000
245.863892	146.380000
245.956711	146.380000
246.049530	146.200000
246.142349	145.760000
246.235168	146.120000
246.327988	146.420000
246.420807	146.200000
246.513626	146.400000
246.606445	146.440000
246.699280	146.480000
246.792099	146.180000
246.884918	145.960000
246.977753	145.760000
247.070587	145.920000
247.163422	145.520000
247.256241	145.380000
247.349075	145.940000
247.441895	146.060000
247.534729	145.780000
247.627563	145.880000
247.720383	146.420000
247.813217	146.240000
247.906052	146.280000
247.998886	146.660000
248.091736	146.660000
248.184570	146.140000
248.277405	146.040000
248.370239	146.880000
248.463074	147.580000
248.555908	147.940000
248.648743	147.780000
248.741592	147.800000
248.834427	146.940000
248.927261	145.740000
249.020111	146.280000
249.112946	147.160000
249.205795	146.780000
249.298630	146.920000
249.391495	147.240000
249.484344	146.640000
249.577179	146.000000
249.670029	146.460000
249.762878	147.000000
249.855728	147.200000
249.948563	147.180000
250.041412	146.760000
250.134262	146.860000
250.227112	146.440000
250.319962	146.440000
250.412827	146.500000
250.505692	146.360000
250.598541	146.280000
250.691391	146.220000
250.784241	146.180000
250.877106	146.320000
250.969955	146.200000
251.062805	146.640000
251.155670	147.260000
251.248520	147.420000
251.341385	147.280000
251.434235	147.440000
251.527100	146.860000
251.619965	146.340000
251.712814	146.720000
251.805695	146.680000
251.898560	146.900000
251.991425	147.300000
252.084290	147.280000
252.177155	146.360000
252.270020	146.300000
252.362885	146.360000
252.455750	146.360000
252.548615	146.180000
252.641479	146.500000
252.734360	146.280000
252.827240	146.140000
252.920105	146.080000
253.012970	146.160000
253.105850	146.080000
253.198715	145.940000
253.291595	146.060000
253.384460	145.420000
253.477341	145.140000
253.570221	145.440000
253.663086	145.340000
253.755966	145.780000
253.848846	145.920000
253.941727	146.380000
254.034592	146.200000
254.127472	146.000000
254.220367	145.860000
254.313248	146.320000
254.406128	145.800000
254.499008	146.080000
254.591904	147.120000
254.684784	147.680000
254.777664	147.440000
254.870544	147.400000
254.963440	147.160000
255.056335	147.140000
255.149216	146.340000
255.242111	147.020000
255.334991	147.380000
255.427887	147.640000
255.520767	147.500000
255.613663	147.800000
255.706558	147.040000
255.799438	146.820000
255.892334	146.180000
255.985229	145.700000
256.078125	145.300000
256.171021	145.300000
256.263916	145.920000
256.356812	146.520000
256.449707	147.000000
256.542603	147.180000
256.635498	147.540000
256.728394	147.040000
256.821289	146.520000
256.914215	146.560000
257.007080	146.680000
257.100006	146.660000
257.192932	147.060000
257.285828	147.300000
257.378723	147.140000
257.471619	146.980000
257.564545	146.620000
257.657440	146.440000
257.750336	147.140000
257.843262	146.740000
257.936157	147.640000
258.029053	147.960000
258.121979	148.140000
258.214874	147.600000
258.307800	147.620000
258.400696	146.480000
258.493622	146.260000
258.586517	145.500000
258.679443	145.540000
258.772339	145.320000
258.865265	145.200000
258.958160	145.120000
259.051086	146.240000
259.144012	146.140000
259.236938	146.960000
259.329834	147.260000
259.422791	147.080000
259.515717	146.100000
259.608612	146.020000
259.701538	145.840000
259.794464	145.600000
259.887390	145.640000
259.980316	145.920000
260.073212	145.760000
260.166138	144.860000
260.259064	145.420000
260.351990	145.920000
260.444916	145.640000
260.537842	146.100000
260.630768	147.100000
260.723694	147.000000
260.816620	146.720000
260.909546	146.680000
261.002472	146.200000
261.095398	145.480000
261.188354	145.280000
261.281281	144.640000
261.374207	145.080000
261.467133	145.820000
261.560089	146.100000
261.653015	146.100000
261.745972	147.280000
261.838867	147.620000
261.931824	147.600000
262.024780	147.180000
262.117706	147.600000
262.210663	147.280000
262.303589	146.900000
262.396515	146.420000
262.489471	147.460000
262.582397	147.000000
262.675354	146.760000
262.768280	146.620000
262.861237	146.820000
262.954163	146.560000
263.047119	146.580000
263.140045	146.400000
263.233002	146.600000
263.325958	146.440000
263.418884	145.880000
263.511841	146.000000
263.604797	146.240000
263.697723	146.160000
263.790680	146.200000
263.883636	147.100000
263.976593	146.800000
264.069550	146.660000
264.162476	146.580000
264.255463	146.580000
264.348419	146.000000
264.441376	146.580000
264.534332	146.460000
264.627289	146.460000
264.720245	147.000000
264.813202	146.620000
264.906158	146.540000
264.999115	147.180000
265.092072	147.060000
265.185028	147.120000
265.277985	147.640000
265.370941	147.340000
265.463898	146.560000
265.556854	146.500000
265.649811	145.600000
265.742798	145.500000
265.835754	145.680000
265.928711	146.360000
266.021667	146.200000
266.114655	146.440000
266.207611	146.880000
266.300568	146.100000
266.393585	145.400000
266.486511	145.840000
266.579498	145.420000
266.672485	144.980000
266.765442	145.300000
266.858429	146.080000
266.951385	145.800000
267.044342	145.860000
267.137329	145.900000
267.230316	146.120000
267.323273	145.480000
267.416260	146.200000
267.509216	146.460000
267.602203	146.380000
267.695160	146.860000
267.788147	147.040000
267.881134	146.200000
267.974091	146.360000
268.067078	146.220000
268.160065	145.980000
268.253052	145.720000
268.346008	145.860000
268.438995	145.520000
268.531982	145.560000
268.624969	145.140000
268.717987	145.500000
268.810944	145.660000
268.903961	145.920000
268.996948	145.580000
269.089905	146.200000
269.182892	146.180000
269.275879	146.320000
269.368866	145.820000
269.461853	146.260000
269.554871	146.120000
269.647858	146.240000
269.740845	146.560000
269.833832	147.180000
269.926819	146.840000
270.019806	146.800000
270.112793	146.400000
270.205811	145.980000
270.298798	145.840000
270.391785	146.480000
270.484772	145.980000
270.577789	146.160000
270.670776	146.020000
270.763763	145.780000
270.856750	145.500000
270.949768	145.640000
271.042786	145.880000
271.135773	145.820000
271.228790	146.380000
271.321808	146.000000
271.414795	145.780000
271.507782	145.180000
271.600800	145.260000
271.693817	145.000000
271.786804	145.480000
271.879822	145.960000
271.972809	146.360000
272.065826	146.760000
272.158844	146.300000
272.251831	146.900000
272.344849	146.680000
272.437866	146.460000
272.530853	146.240000
272.623871	146.860000
272.716888	145.820000
272.809906	146.220000
272.902893	146.400000
272.995911	146.020000
273.088928	145.940000
273.181946	146.280000
273.274963	145.940000
273.367981	145.860000
273.460999	146.320000
273.554047	146.640000
273.647003	147.160000
273.740051	147.320000
273.833069	147.640000
273.926086	147.560000
274.019135	147.240000
274.112152	146.660000
274.205170	146.580000
274.298187	146.880000
274.391205	146.700000
274.484222	146.540000
274.577240	146.580000
274.670258	146.640000
274.763306	146.380000
274.856323	146.780000
274.949341	146.920000
275.042358	147.380000
275.135406	147.320000
275.228424	147.180000
275.321442	146.880000
275.414490	146.680000
275.507507	146.740000
275.600525	147.040000
275.693573	146.760000
275.786591	146.600000
275.879669	147.080000
275.972656	146.520000
276.065735	146.420000
276.158752	147.040000
276.251801	147.640000
276.344818	147.360000
276.437866	147.760000
276.530884	147.380000
276.623932	146.740000
276.716980	146.580000
276.809998	146.600000
276.903046	146.360000
276.996094	147.480000
277.089111	148.000000
277.182159	148.400000
277.275208	148.000000
277.368256	147.880000
277.461304	147.120000
277.554321	146.520000
277.647369	146.220000
277.740417	146.520000
277.833466	146.260000
277.926514	146.080000
278.019562	146.680000
278.112610	146.100000
278.205688	146.280000
278.298706	146.820000
278.391785	146.400000
278.484833	145.980000
278.577881	145.760000
278.670929	145.820000
278.763977	145.660000
278.857025	146.560000
278.950073	146.620000
279.043121	146.780000
279.136169	146.520000
279.229248	146.340000
279.322296	145.900000
279.415344	145.660000
279.508392	145.760000
279.601440	145.920000
279.694519	145.980000
279.787567	145.840000
279.880615	145.780000
279.973694	145.540000
280.066742	145.540000
280.159790	145.680000
280.252869	145.500000
280.345917	145.580000
280.438995	145.760000
280.532074	145.500000
280.625122	145.760000
280.718201	146.840000
280.811279	147.100000
280.904327	147.340000
280.997406	147.680000
281.090454	147.820000
281.183533	146.620000
281.276581	146.380000
281.369659	145.880000
281.462738	145.940000
281.555786	145.960000
281.648865	146.380000
281.741943	146.480000
281.835022	147.400000
281.928070	146.820000
282.021149	146.180000
282.114227	146.080000
282.207306	146.220000
282.300385	146.100000
282.393433	146.660000
282.486511	146.900000
282.579590	147.180000
282.672668	147.360000
282.765747	146.800000
282.858856	146.280000
282.951904	146.440000
283.045013	146.560000
283.138062	146.560000
283.231171	146.880000
283.324249	147.340000
283.417328	147.400000
283.510406	147.080000
283.603485	146.860000
283.696564	146.980000
283.789642	146.820000
283.882751	146.300000
283.975830	146.760000
284.068909	146.520000
284.161987	146.880000
284.255066	146.260000
284.348175	146.320000
284.441254	146.100000
284.534332	146.540000
284.627441	145.940000
284.720520	146.020000
284.813599	146.360000
284.906708	146.460000
284.999786	145.680000
285.092896	145.360000
285.185974	146.680000
285.279053	146.200000
285.372192	146.320000
285.465240	147.400000
285.558380	147.440000
285.651459	146.720000
285.744568	147.480000
285.837677	146.900000
285.930756	146.460000
286.023865	146.660000
286.116943	146.400000
286.210052	146.500000
286.303162	146.780000
286.396240	146.640000
286.489349	146.260000
286.582458	146.680000
286.675568	146.100000
286.768646	145.800000
286.861755	146.320000
286.954865	147.140000
287.047974	146.660000
287.141083	146.400000
287.234161	146.480000
287.327271	146.200000
287.420380	146.340000
287.513519	146.200000
287.606598	146.460000
287.699738	146.660000
287.792816	146.540000
287.885956	146.180000
287.979034	146.460000
288.072174	146.500000
288.165283	146.180000
288.258392	146.420000
288.351501	145.920000
288.444611	145.820000
288.537720	145.860000
288.630859	145.880000
288.723969	145.600000
288.817078	146.240000
288.910187	146.560000
289.003296	146.100000
289.096436	145.960000
289.189545	145.920000
289.282654	145.280000
289.375763	145.480000
289.468903	146.440000
289.562012	146.900000
289.655121	147.060000
289.748260	147.340000
289.841400	147.620000
289.934509	147.280000
290.027649	147.280000
290.120728	147.000000
290.213898	147.220000
290.306976	146.540000
290.400146	146.500000
290.493256	146.260000
290.586395	146.300000
290.679535	146.280000
290.772644	146.180000
290.865784	145.560000
290.958893	145.280000
291.052032	145.080000
291.145172	145.140000
291.238281	145.100000
291.331421	145.280000
291.424561	145.780000
291.517670	145.980000
291.610809	146.080000
291.703949	145.980000
291.797089	146.300000
291.890228	145.800000
291.983337	145.780000
292.076477	145.380000
292.169617	145.840000
292.262756	145.660000
292.355927	145.600000
292.449036	145.360000
292.542206	145.460000
292.635315	145.420000
292.728485	145.600000
292.821625	145.400000
292.914764	146.600000
293.007904	146.780000
293.101044	146.900000
293.194183	146.920000
293.287323	147.500000
293.380463	146.760000
293.473602	146.320000
293.566742	146.300000
293.659882	146.560000
293.753021	146.640000
293.846191	146.580000
293.939331	146.480000
294.032471	146.300000
294.125610	145.840000
294.218781	146.300000
294.311920	146.860000
294.405060	147.200000
294.498230	147.100000
294.591370	147.280000
294.684540	146.300000
294.777679	145.600000
294.870850	145.940000
294.963959	145.860000
295.057159	145.760000
295.150299	146.280000
295.243469	146.160000
295.336609	145.400000
295.429779	145.480000
295.522919	145.900000
295.616089	145.900000
295.709229	146.600000
295.802399	146.760000
295.895569	146.340000
295.988708	145.980000
296.081879	145.960000
296.175018	145.240000
296.268188	145.420000
296.361359	146.200000
296.454529	146.540000
296.547668	146.640000
296.640839	146.960000
296.734009	146.920000
296.827179	146.720000
296.920319	146.840000
297.013519	146.500000
297.106659	146.860000
297.199860	146.780000
297.292999	146.780000
297.386200	146.260000
297.479309	146.100000
297.572510	145.720000
297.665680	145.420000
297.758850	145.280000
297.852020	145.180000
297.945190	145.060000
298.038361	144.600000
298.131531	145.580000
298.224701	145.360000
298.317871	145.060000
298.411072	144.780000
298.504242	144.920000
298.597412	144.220000
298.690582	144.600000
298.783752	144.820000
298.876923	145.740000
298.970093	146.000000
299.063293	146.620000
299.156464	146.780000
299.249634	146.860000
299.342834	146.860000
299.436005	147.080000
299.529205	146.760000
299.622345	146.580000
299.715576	146.120000
299.808716	145.440000
299.901917	145.480000
299.995117	145.700000
300.088287	145.840000
300.181488	145.940000
300.274658	146.120000
300.367828	145.800000
300.461029	145.700000
300.554199	145.960000
300.647400	146.380000
300.740601	146.740000
300.833771	146.620000
300.926971	146.920000
301.020142	146.000000
301.113342	145.860000
301.206512	145.540000
301.299713	145.760000
301.392914	145.340000
301.486084	146.040000
301.579285	145.940000
301.672516	146.600000
301.765686	146.580000
301.858887	146.560000
301.952057	146.280000
302.045288	146.300000
302.138458	145.980000
302.231659	145.540000
302.324860	145.660000
302.418060	145.440000
302.511261	145.540000
302.604462	145.580000
302.697662	145.480000
302.790863	145.560000
302.884064	145.300000
302.977264	145.480000
303.070465	145.680000
303.163666	146.640000
303.256866	146.580000
303.350067	147.140000
303.443268	147.160000
303.536469	147.020000
303.629669	146.380000
303.722870	146.500000
303.816071	146.000000
303.909271	146.020000
304.002472	145.420000
304.095673	145.340000
304.188934	144.520000
304.282104	145.740000
304.375336	145.760000
304.468506	146.120000
304.561768	146.320000
304.654968	147.100000
304.748169	146.240000
304.841370	145.900000
304.934601	146.140000
305.027802	145.860000
305.121002	145.460000
305.214233	145.820000
305.307434	145.680000
305.400665	146.120000
305.493866	145.960000
305.587097	146.300000
305.680298	145.920000
305.773499	146.420000
305.866730	145.880000
305.959930	146.680000
306.053162	146.620000
306.146393	146.180000
306.239594	145.740000
306.332825	145.640000
306.426025	145.560000
306.519287	145.020000
306.612488	145.380000
306.705719	145.380000
306.798920	145.500000
306.892181	144.980000
306.985352	145.100000
307.078613	144.680000
307.171844	145.200000
307.265045	145.040000
307.358276	144.940000
307.451508	145.280000
307.544739	146.020000
307.637970	145.640000
307.731201	145.520000
307.824402	146.120000
307.917633	146.440000
308.010864	146.600000
308.104095	146.980000
308.197327	147.380000
308.290558	147.340000
308.383789	147.000000
308.477020	146.540000
308.570251	145.920000
308.663483	145.380000
308.756714	145.100000
308.849976	145.060000
308.943176	145.660000
309.036438	145.580000
309.129639	145.520000
309.222900	145.900000
309.316101	145.700000
309.409393	145.020000
309.502625	144.800000
309.595856	145.180000
309.689087	144.740000
309.782318	144.860000
309.875580	145.140000
309.968811	145.620000
310.062042	145.080000
310.155273	145.080000
310.248535	145.340000
310.341766	145.120000
310.434998	145.180000
310.528259	145.560000
310.621490	145.960000
310.714722	145.460000
310.807983	145.560000
310.901215	145.440000
310.994476	145.400000
311.087708	144.880000
311.181000	145.420000
311.274200	145.420000
311.367462	145.420000
311.460693	145.240000
311.553986	146.160000
311.647186	146.160000
311.740479	146.300000
311.833710	146.020000
311.926971	146.260000
312.020203	145.100000
312.113464	144.700000
312.206726	144.440000
312.299957	145.060000
312.393219	145.560000
312.486481	146.200000
312.579712	146.300000
312.672974	146.200000
312.766235	145.820000
312.859497	145.360000
312.952759	145.120000
313.045990	145.780000
313.139252	145.360000
313.232513	145.600000
313.325775	145.560000
313.419037	145.560000
313.512299	144.720000
313.605530	145.480000
313.698822	145.320000
313.792053	145.440000
313.885345	145.280000
313.978577	145.460000
314.071869	144.920000
314.165131	145.260000
314.258392	145.460000
314.351654	145.480000
314.444916	145.160000
314.538177	145.760000
314.631439	145.920000
314.724701	145.780000
314.817993	145.840000
314.911255	146.320000
315.004517	146.040000
315.097778	145.700000
315.191040	145.940000
315.284302	146.380000
315.377594	146.280000
315.470856	146.160000
315.564117	145.800000
315.657379	145.260000
315.750671	144.240000
315.843933	144.520000
315.937195	144.360000
316.030518	144.340000
316.123749	144.500000
316.217041	146.040000
316.310303	145.820000
316.403595	146.180000
316.496857	146.560000
316.590149	146.900000
316.683411	145.860000
316.776703	145.580000
316.869965	145.460000
316.963257	145.200000
317.056519	144.420000
317.149811	144.340000
317.243073	144.480000
317.336365	144.500000
317.429626	144.900000
317.522919	145.500000
317.616180	145.580000
317.709473	145.420000
317.802765	145.240000
317.896027	144.860000
317.989319	145.160000
318.082611	144.960000
318.175873	145.080000
318.269165	145.200000
318.362488	145.140000
318.455750	144.680000
318.549042	145.440000
318.642303	145.760000
318.735626	145.540000
318.828888	145.820000
318.922211	145.520000
319.015472	145.900000
319.108765	145.060000
319.202057	145.040000
319.295349	145.240000
319.388641	145.440000
319.481934	144.720000
319.575226	144.980000
319.668518	145.140000
319.761810	145.300000
319.855103	145.540000
319.948395	145.740000
320.041687	146.200000
320.134979	146.520000
320.228271	146.020000
320.321564	145.780000
320.414856	145.580000
320.508148	145.220000
320.601440	144.860000
320.694763	144.740000
320.788025	145.560000
320.881348	145.820000
320.974640	145.720000
321.067963	145.500000
321.161224	145.860000
321.254547	144.860000
321.347839	145.300000
321.441162	145.440000
321.534454	146.020000
321.627747	145.860000
321.721069	146.620000
321.814362	146.340000
321.907654	146.320000
322.000946	146.100000
322.094269	146.780000
322.187561	146.460000
322.280884	146.480000
322.374176	146.640000
322.467468	147.380000
322.560791	146.840000
322.654083	147.020000
322.747406	147.400000
322.840698	147.460000
322.934021	147.380000
323.027344	147.680000
323.120636	147.440000
323.213959	146.880000
323.307251	146.760000
323.400574	146.200000
323.493866	145.320000
323.587219	145.340000
323.680511	145.540000
323.773834	145.660000
323.867157	145.840000
323.960449	146.440000
324.053772	146.280000
324.147095	146.400000
324.240387	146.600000
324.333710	146.360000
324.427032	146.580000
324.520355	146.660000
324.613647	146.020000
324.706970	145.860000
324.800293	146.080000
324.893616	146.060000
324.986938	146.260000
325.080231	146.360000
325.173553	146.620000
325.266876	146.780000
325.360199	146.860000
325.453522	146.280000
325.546875	146.160000
325.640167	145.980000
325.733521	145.820000
325.826813	145.820000
325.920166	146.060000
326.013489	145.820000
326.106812	145.060000
326.200134	144.780000
326.293457	144.160000
326.386780	144.380000
326.480103	144.900000
326.573425	145.140000
326.666748	145.400000
326.760071	145.860000
326.853424	145.640000
326.946747	145.840000
327.040070	146.740000
327.133392	146.380000
327.226715	145.860000
327.320068	145.900000
327.413391	146.060000
327.506714	145.260000
327.600037	145.440000
327.693390	145.600000
327.786713	145.640000
327.880066	145.140000
327.973358	145.360000
328.066742	145.860000
328.160034	146.360000
328.253418	146.600000
328.346710	146.580000
328.440063	146.580000
328.533417	146.100000
328.626740	145.980000
328.720093	145.800000
328.813416	145.800000
328.906769	145.860000
329.000092	146.040000
329.093445	146.060000
329.186768	146.040000
329.280121	146.720000
329.373444	146.820000
329.466797	146.980000
329.560120	146.800000
329.653473	146.740000
329.746796	146.140000
329.840149	146.040000
329.933502	145.820000
330.026825	145.660000
330.120178	145.620000
330.213562	145.360000
330.306854	145.160000
330.400238	145.120000
330.493561	144.960000
330.586945	145.640000
330.680237	145.860000
330.773621	146.120000
330.866974	146.280000
330.960327	146.900000
331.053680	146.340000
331.147003	146.600000
331.240356	146.900000
331.333710	146.740000
331.427063	146.040000
331.520416	145.880000
331.613770	145.780000
331.707123	145.640000
331.800476	145.620000
331.893829	146.880000
331.987152	146.860000
332.080505	146.540000
332.173859	146.240000
332.267212	145.880000
332.360565	144.840000
332.453918	145.080000
332.547333	145.340000
332.640656	145.420000
332.734039	145.900000
332.827362	146.080000
332.920746	146.260000
333.014069	146.220000
333.107452	146.560000
333.200806	146.480000
333.294159	146.600000
333.387543	145.960000
333.480896	145.620000
333.574249	145.360000
333.667603	145.300000
333.760956	145.340000
333.854340	145.780000
333.947693	146.120000
334.041046	146.060000
334.134430	146.280000
334.227783	145.720000
334.321136	145.600000
334.414520	145.620000
334.507874	145.800000
334.601227	145.680000
334.694611	145.860000
334.787964	145.960000
334.881348	146.040000
334.974701	146.120000
335.068085	145.940000
335.161438	146.420000
335.254822	145.980000
335.348175	145.900000
335.441559	145.320000
335.534943	146.120000
335.628296	145.800000
335.721680	146.020000
335.815033	146.000000
335.908417	146.600000
336.001770	146.120000
336.095154	146.000000
336.188538	145.640000
336.281891	145.560000
336.375275	145.000000
336.468658	144.780000
336.562012	145.100000
336.655396	145.740000
336.748779	145.920000
336.842133	146.220000
336.935516	146.340000
337.028900	145.880000
337.122284	145.700000
337.215637	145.760000
337.309021	145.780000
337.402435	145.380000
337.495789	145.480000
337.589203	145.500000
337.682526	145.060000
337.775940	144.960000
337.869324	145.320000
337.962708	144.940000
338.056091	145.380000
338.149475	145.400000
338.242859	145.580000
338.336243	145.380000
338.429626	145.800000
338.523010	145.580000
338.616394	145.480000
338.709778	145.860000
338.803162	146.120000
338.896545	146.280000
338.989929	146.060000
339.083313	146.280000
339.176697	145.880000
339.270081	145.560000
339.363464	145.920000
339.456848	146.080000
339.550232	145.820000
339.643616	145.580000
339.737030	145.520000
339.830383	145.080000
339.923828	145.280000
340.017181	145.620000
340.110596	145.760000
340.203949	145.980000
340.297363	145.740000
340.390778	145.400000
340.484161	145.440000
340.577545	145.200000
340.670959	145.240000
340.764343	145.520000
340.857727	145.580000
340.951111	145.020000
341.044525	145.320000
341.137909	145.040000
341.231293	144.820000
341.324707	144.480000
341.418091	145.320000
341.511505	145.080000
341.604889	145.600000
341.698303	145.860000
341.791687	145.940000
341.885071	145.340000
341.978485	145.240000
342.071899	145.360000
342.165283	145.300000
342.258698	145.760000
342.352081	146.420000
342.445496	147.000000
342.538879	146.440000
342.632324	146.240000
342.725708	145.920000
342.819122	145.360000
342.912506	144.960000
343.005920	145.160000
343.099335	146.040000
343.192719	146.420000
343.286133	146.460000
343.379547	146.860000
343.472931	146.820000
343.566345	145.840000
343.659760	145.860000
343.753143	145.620000
343.846558	144.960000
343.939972	145.120000
344.033386	146.120000
344.126770	145.940000
344.220184	145.960000
344.313599	146.740000
344.407043	146.580000
344.500427	145.740000
344.593872	146.040000
344.687225	146.140000
344.780670	145.700000
344.874054	145.800000
344.967499	146.320000
345.060913	146.120000
345.154327	146.220000
345.247742	145.920000
345.341156	145.800000
345.434570	145.380000
345.527985	145.460000
345.621399	145.400000
345.714813	145.320000
345.808228	145.300000
345.901642	144.820000
345.995056	144.300000
346.088470	144.740000
346.181885	145.180000
346.275299	145.320000
346.368713	145.840000
346.462128	145.920000
346.555573	145.400000
346.648987	145.340000
346.742401	145.060000
346.835815	145.440000
346.929260	145.160000
347.022644	145.480000
347.116119	145.800000
347.209503	146.240000
347.302948	146.720000
347.396362	147.520000
347.489807	147.580000
347.583221	147.660000
347.676636	147.300000
347.770050	146.020000
347.863495	145.460000
347.956909	145.220000
348.050323	144.840000
348.143768	144.740000
348.237183	145.200000
348.330597	145.980000
348.424042	146.400000
348.517456	146.900000
348.610901	147.380000
348.704315	147.160000
348.797760	146.280000
348.891174	145.760000
348.984619	145.020000
349.078033	145.080000
349.171448	145.940000
349.264923	145.900000
349.358337	145.840000
349.451782	146.140000
349.545197	145.320000
349.638641	144.260000
349.732086	144.060000
349.825500	144.440000
349.918945	143.960000
350.012390	144.700000
350.105804	145.680000
350.199249	145.900000
350.292664	146.200000
350.386108	146.760000
350.479553	147.260000
350.572968	146.840000
350.666412	147.300000
350.759857	147.000000
350.853302	147.200000
350.946716	146.360000
351.040161	146.340000
351.133606	146.180000
351.227081	146.160000
351.320465	146.640000
351.413940	146.780000
351.507355	146.760000
351.600830	146.700000
351.694244	146.380000
351.787720	145.840000
351.881104	145.740000
351.974579	145.660000
352.067993	146.480000
352.161469	146.540000
352.254883	146.140000
352.348358	146.160000
352.441803	146.140000
352.535248	145.580000
352.628693	146.140000
352.722137	146.240000
352.815582	146.380000
352.909027	146.620000
353.002472	146.500000
353.095917	146.020000
353.189362	146.400000
353.282806	146.100000
353.376251	146.100000
353.469696	145.400000
353.563141	145.860000
353.656586	145.420000
353.750061	145.360000
353.843475	145.060000
353.936981	145.960000
354.030396	145.440000
354.123871	145.400000
354.217285	146.260000
354.310760	146.540000
354.404175	146.480000
354.497681	146.200000
354.591095	146.320000
354.684570	145.360000
354.777985	145.060000
354.871490	144.600000
354.964935	145.480000
355.058380	145.580000
355.151855	145.520000
355.245300	145.780000
355.338745	146.420000
355.432220	146.200000
355.525665	145.700000
355.619110	146.480000
355.712585	146.500000
355.806030	146.220000
355.899475	145.600000
355.992950	146.300000
356.086426	146.640000
356.179871	146.420000
356.273346	146.460000
356.366791	147.320000
356.460266	147.380000
356.553711	146.300000
356.647186	146.380000
356.740631	145.980000
356.834106	145.740000
356.927551	145.820000
357.021027	146.020000
357.114471	146.040000
357.207947	146.400000
357.301422	146.540000
357.394867	146.360000
357.488342	146.880000
357.581818	146.740000
357.675262	146.840000
357.768738	146.220000
357.862213	145.440000
357.955658	145.320000
358.049133	145.600000
358.142609	145.700000
358.236053	145.740000
358.329529	146.080000
358.423035	146.400000
358.516449	146.020000
358.609955	146.440000
358.703400	147.260000
358.796906	147.760000
358.890350	147.080000
358.983826	147.460000
359.077271	146.300000
359.170776	145.880000
359.264221	145.360000
359.357727	145.900000
359.451172	146.080000
359.544647	146.900000
359.638123	146.780000
359.731598	147.360000
359.825073	147.280000
359.918549	146.940000
360.012024	146.620000
360.105499	146.280000
360.198975	146.140000
360.292450	145.980000
360.385925	145.900000
360.479401	145.520000
360.572876	145.600000
360.666351	145.660000
360.759857	145.400000
360.853302	145.480000
360.946808	145.440000
361.040253	145.580000
361.133759	145.240000
361.227203	145.860000
361.320709	145.280000
361.414154	145.780000
361.507660	146.020000
361.601105	146.440000
361.694641	146.740000
361.788086	147.400000
361.881592	147.860000
361.975067	147.700000
362.068542	148.080000
362.162018	147.700000
362.255524	147.240000
362.348999	146.920000
362.442474	147.040000
362.535950	146.400000
362.629456	146.000000
362.722931	146.060000
362.816406	146.280000
362.909882	146.420000
363.003387	146.200000
363.096863	146.560000
363.190338	146.560000
363.283875	145.960000
363.377319	145.880000
363.470825	146.460000
363.564301	146.040000
363.657806	146.600000
363.751282	146.360000
363.844788	147.160000
363.938232	146.900000
364.031769	147.420000
364.125214	147.260000
364.218750	148.060000
364.312225	146.600000
364.405731	146.560000
364.499207	145.880000
364.592712	145.960000
364.686188	145.740000
364.779694	146.440000
364.873169	146.320000
364.966675	146.320000
365.060150	146.080000
365.153656	146.520000
365.247131	146.500000
365.340637	146.480000
365.434143	147.200000
365.527618	147.140000
365.621155	146.000000
365.714600	145.960000
365.808136	146.140000
365.901611	145.080000
365.995117	144.740000
366.088593	145.160000
366.182129	144.920000
366.275604	145.020000
366.369110	145.380000
366.462585	145.760000
366.556122	146.380000
366.649567	146.380000
366.743103	146.320000
366.836609	146.060000
366.930115	146.120000
367.023590	146.160000
367.117096	146.020000
367.210602	146.100000
367.304108	147.060000
367.397614	147.820000
367.491119	147.380000
367.584595	147.760000
367.678101	147.940000
367.771606	147.280000
367.865112	146.360000
367.958649	146.020000
368.052124	145.720000
368.145660	145.420000
368.239136	146.220000
368.332672	146.420000
368.426147	146.560000
368.519684	146.820000
368.613159	147.080000
368.706696	146.400000
368.800171	146.380000
368.893707	146.200000
368.987183	146.200000
369.080719	146.060000
369.174225	145.780000
369.267731	146.020000
369.361237	146.400000
369.454742	146.340000
369.548248	146.580000
369.641754	146.600000
369.735260	146.280000
369.828766	145.520000
369.922272	145.800000
370.015808	145.340000
370.109314	145.280000
370.202820	145.160000
370.296356	146.380000
370.389832	145.860000
370.483368	145.660000
370.576874	145.800000
370.670410	145.880000
370.763885	144.780000
370.857422	144.720000
370.950928	144.860000
371.044464	145.560000
371.137939	145.740000
371.231476	146.360000
371.324982	147.040000
371.418518	147.260000
371.512024	146.860000
371.605560	146.560000
371.699066	146.360000
371.792572	145.900000
371.886108	145.900000
371.979614	145.580000
372.073120	146.480000
372.166656	146.280000
372.260162	146.600000
372.353668	146.660000
372.447205	146.660000
372.540710	146.060000
372.634277	146.280000
372.727753	146.440000
372.821320	146.180000
372.914795	146.380000
373.008362	146.120000
373.101837	146.220000
373.195404	145.920000
373.288879	145.920000
373.382446	146.600000
373.475922	146.960000
373.569489	147.360000
373.662964	147.820000
373.756531	147.720000
373.850037	147.560000
373.943573	147.440000
374.037109	146.680000
374.130615	146.540000
374.224152	146.760000
374.317657	146.360000
374.411194	146.980000
374.504730	146.980000
374.598236	146.340000
374.691772	146.040000
374.785309	146.260000
374.878815	145.340000
374.972351	145.840000
375.065887	145.960000
375.159454	146.720000
375.252930	146.180000
375.346497	146.580000
375.440002	146.920000
375.533569	146.960000
375.627045	146.280000
375.720612	146.700000
375.814117	146.640000
375.907684	146.180000
376.001160	146.140000
376.094727	145.800000
376.188232	146.340000
376.281799	146.540000
376.375336	146.360000
376.468872	146.720000
376.562408	147.080000
376.655914	146.180000
376.749451	146.000000
376.842987	146.340000
376.936523	146.140000
377.030060	146.140000
377.123596	146.420000
377.217133	146.140000
377.310669	145.900000
377.404205	146.140000
377.497772	146.460000
377.591278	146.380000
377.684845	147.180000
377.778351	147.260000
377.871918	147.000000
377.965424	146.420000
378.058990	146.580000
378.152496	145.960000
378.246063	146.320000
378.339569	146.640000
378.433136	146.760000
378.526642	146.800000
378.620209	146.960000
378.713745	146.340000
378.807312	146.580000
378.900848	146.660000
378.994385	146.620000
379.087921	145.820000
379.181458	146.160000
379.274994	145.100000
379.368530	144.920000
379.462097	145.060000
379.555634	145.920000
379.649170	145.460000
379.742706	145.700000
379.836273	146.180000
379.929810	145.760000
380.023376	145.280000
380.116882	145.280000
380.210449	145.700000
380.303986	145.500000
380.397552	145.200000
380.491058	145.460000
380.584656	145.620000
380.678162	145.600000
380.771729	145.500000
380.865265	146.380000
380.958832	146.780000
381.052368	147.060000
381.145935	147.540000
381.239471	148.060000
381.333008	147.580000
381.426575	147.440000
381.520111	147.760000
381.613647	147.640000
381.707214	147.240000
381.800751	146.740000
381.894318	146.680000
381.987854	145.960000
382.081421	145.580000
382.174988	145.760000
382.268524	145.880000
382.362091	145.640000
382.455627	146.520000
382.549194	146.260000
382.642731	145.720000
382.736298	145.820000
382.829834	145.680000
382.923401	145.740000
383.016937	146.000000
383.110504	146.580000
383.204041	146.900000
383.297607	147.440000
383.391174	146.760000
383.484741	147.180000
383.578278	146.540000
383.671844	145.980000
383.765411	145.040000
383.858948	145.280000
383.952515	145.080000
384.046051	145.600000
384.139618	146.220000
384.233185	146.780000
384.326721	146.760000
384.420288	147.180000
384.513855	147.200000
384.607422	147.040000
384.700989	147.380000
384.794525	146.980000
384.888123	146.700000
384.981659	146.480000
385.075226	146.080000
385.168762	145.700000
385.262360	145.920000
385.355896	145.060000
385.449463	144.880000
385.542999	145.300000
385.636597	146.020000
385.730164	146.220000
385.823730	146.400000
385.917267	146.400000
386.010834	146.640000
386.104401	146.040000
386.197968	146.080000
386.291534	146.540000
386.385101	146.780000
386.478668	147.060000
386.572235	147.020000
386.665802	146.680000
386.759338	146.400000
386.852905	146.280000
386.946472	145.940000
387.040070	146.160000
387.133606	146.340000
387.227203	146.160000
387.320740	146.580000
387.414337	146.240000
387.507874	146.060000
387.601471	146.000000
387.695007	145.540000
387.788605	145.340000
387.882141	145.600000
387.975739	145.620000
388.069275	145.680000
388.162872	146.480000
388.256439	145.920000
388.350037	145.560000
388.443604	145.400000
388.537170	145.080000
388.630737	145.440000
388.724304	145.780000
388.817871	145.620000
388.911438	145.740000
389.005005	146.260000
389.098602	146.320000
389.192169	146.200000
389.285736	147.240000
389.379333	147.000000
389.472870	146.220000
389.566467	145.860000
389.660034	146.100000
389.753632	145.140000
389.847168	145.980000
389.940765	146.480000
390.034332	146.700000
390.127930	146.100000
390.221466	146.440000
390.315063	145.740000
390.408630	145.100000
390.502228	144.360000
390.595795	145.000000
390.689362	145.120000
390.782959	145.740000
390.876526	146.420000
390.970093	146.260000
391.063690	146.660000
391.157257	146.660000
391.250824	146.520000
391.344421	146.360000
391.437988	146.840000
391.531555	146.560000
391.625153	146.420000
391.718750	146.020000
391.812317	145.820000
391.905914	145.680000
391.999481	145.900000
392.093079	146.060000
392.186615	146.700000
392.280243	146.740000
392.373779	147.040000
392.467407	147.100000
392.560944	146.920000
392.654572	146.360000
392.748108	146.600000
392.841736	146.620000
392.935303	146.000000
393.028900	145.740000
393.122467	146.000000
393.216064	145.680000
393.309631	145.100000
393.403229	145.100000
393.496796	145.040000
393.590393	144.360000
393.683990	144.700000
393.777557	145.120000
393.871155	145.200000
393.964722	145.940000
394.058350	146.060000
394.151917	145.840000
394.245514	145.500000
394.339081	145.660000
394.432678	145.760000
394.526245	145.940000
394.619873	145.700000
394.713409	146.000000
394.807037	145.740000
394.900604	145.560000
394.994202	145.660000
395.087769	146.140000
395.181396	145.580000
395.274994	146.620000
395.368561	146.080000
395.462158	146.380000
395.555756	145.820000
395.649353	146.480000
395.742920	145.520000
395.836517	146.320000
395.930115	145.420000
396.023712	146.100000
396.117279	146.340000
396.210876	146.240000
396.304474	146.060000
396.398071	146.620000
396.491669	146.440000
396.585266	146.360000
396.678833	146.280000
396.772461	146.480000
396.866028	146.380000
396.959656	146.960000
397.053223	147.420000
397.146851	148.160000
397.240417	148.360000
397.334015	150.040000
397.427582	150.720000
397.521210	151.900000
397.614807	154.320000
397.708405	157.160000
397.802002	160.480000
397.895599	165.340000
397.989197	171.080000
398.082794	177.520000
398.176392	186.420000
398.269989	196.440000
398.363586	209.060000
398.457184	224.800000
398.550781	243.540000
398.644379	262.680000
398.737976	284.980000
398.831573	307.840000
398.925201	330.580000
399.018768	353.300000
399.112396	376.400000
399.205963	397.520000
399.299591	418.720000
399.393158	439.220000
399.486786	460.360000
399.580353	480.800000
399.673981	499.220000
399.767578	517.300000
399.861206	533.260000
399.954773	544.040000
400.048401	548.580000
400.141998	548.820000
400.235596	542.920000
400.329193	532.420000
400.422791	518.120000
400.516418	501.880000
400.610016	485.440000
400.703613	467.100000
400.797211	444.740000
400.890808	421.500000
400.984436	397.840000
401.078033	371.680000
401.171631	345.740000
401.265259	322.160000
401.358826	299.360000
401.452484	278.120000
401.546051	259.160000
401.639679	240.440000
401.733246	223.940000
401.826904	208.440000
401.920471	194.860000
402.014099	183.660000
402.107697	175.300000
402.201324	167.940000
402.294891	163.220000
402.388550	159.420000
402.482147	156.240000
402.575745	153.240000
402.669373	151.080000
402.762970	149.600000
402.856567	148.640000
402.950195	148.260000
403.043793	147.800000
403.137390	148.360000
403.231018	147.460000
403.324615	147.920000
403.418243	147.220000
403.511841	147.540000
403.605469	147.180000
403.699066	147.520000
403.792694	147.240000
403.886292	147.620000
403.979919	147.620000
404.073517	147.240000
404.167145	147.220000
404.260712	147.140000
404.354370	146.960000
404.447937	146.740000
404.541595	146.920000
404.635162	147.420000
404.728821	147.720000
404.822418	146.960000
404.916046	147.000000
405.009644	147.360000
405.103271	147.240000
405.196899	146.700000
405.290497	147.080000
405.384125	147.200000
405.477722	146.460000
405.571350	146.180000
405.664948	146.360000
405.758575	146.380000
405.852203	145.820000
405.945801	146.000000
406.039429	146.080000
406.133057	145.680000
406.226654	145.600000
406.320312	145.760000
406.413879	145.840000
406.507538	146.000000
406.601135	146.020000
406.694763	146.660000
406.788361	146.380000
406.882019	146.080000
406.975586	146.080000
407.069244	146.580000
407.162872	146.080000
407.256470	146.180000
407.350098	146.220000
407.443726	145.760000
407.537323	145.120000
407.630951	145.220000
407.724579	145.020000
407.818207	145.740000
407.911804	145.760000
408.005432	145.640000
408.099060	145.840000
408.192688	146.180000
408.286285	145.440000
408.379913	145.360000
408.473572	145.840000
408.567169	145.460000
408.660828	145.500000
408.754395	145.560000
408.848053	145.600000
408.941650	145.680000
409.035309	145.380000
409.128906	145.420000
409.222565	145.480000
409.316132	146.040000
409.409790	145.840000
409.503387	146.220000
409.597046	146.120000
409.690674	146.200000
409.784302	145.780000
409.877930	145.260000
409.971558	145.100000
410.065186	145.100000
410.158783	145.080000
410.252411	144.840000
410.346039	145.540000
410.439667	145.680000
410.533295	145.880000
410.626923	146.060000
410.720551	146.280000
410.814209	146.660000
410.907806	147.020000
411.001465	146.580000
411.095062	146.920000
411.188721	147.000000
411.282318	146.540000
411.375977	146.200000
411.469574	146.440000
411.563232	146.000000
411.656830	145.660000
411.750488	145.560000
411.844086	145.200000
411.937744	145.280000
412.031372	145.340000
412.125000	145.340000
412.218628	145.460000
412.312256	146.460000
412.405884	146.740000
412.499512	146.440000
412.593170	146.960000
412.686798	147.180000
412.780426	146.380000
412.874054	146.340000
412.967682	146.360000
413.061310	146.720000
413.154968	146.720000
413.248566	146.880000
413.342224	146.400000
413.435852	146.480000
413.529510	145.800000
413.623108	144.980000
413.716766	144.980000
413.810364	145.400000
413.904022	145.460000
413.997650	145.300000
414.091309	146.500000
414.184906	146.400000
414.278564	146.160000
414.372192	146.540000
414.465851	147.140000
414.559479	146.460000
414.653107	147.200000
414.746735	147.100000
414.840393	146.860000
414.934021	146.940000
415.027649	146.400000
415.121277	146.120000
415.214935	146.860000
415.308563	146.800000
415.402191	145.940000
415.495850	146.220000
415.589478	145.700000
415.683136	145.040000
415.776733	145.240000
415.870422	145.940000
415.964020	145.360000
416.057678	145.620000
416.151306	145.660000
416.244965	145.600000
416.338562	145.780000
416.432251	147.260000
416.525848	148.000000
416.619507	148.240000
416.713165	148.320000
416.806793	147.580000
416.900421	147.140000
416.994080	146.040000
417.087708	146.140000
417.181366	145.600000
417.274994	145.920000
417.368622	146.000000
417.462280	146.740000
417.555908	146.420000
417.649567	146.700000
417.743195	146.680000
417.836853	146.360000
417.930481	146.440000
418.024170	146.580000
418.117767	147.060000
418.211426	147.200000
418.305054	147.660000
418.398712	146.820000
418.492340	147.060000
418.585999	147.000000
418.679626	147.040000
418.773285	146.860000
418.866913	147.340000
418.960571	147.700000
419.054230	147.820000
419.147858	147.820000
419.241516	147.860000
419.335144	147.620000
419.428802	147.040000
419.522461	146.620000
419.616089	146.240000
419.709747	146.040000
419.803375	146.220000
419.897034	145.920000
419.990662	145.780000
420.084320	146.540000
420.177979	146.940000
420.271606	146.820000
420.365295	147.480000
420.458893	147.520000
420.552582	147.220000
420.646210	146.920000
420.739868	146.740000
420.833496	146.360000
420.927155	146.120000
421.020782	146.080000
421.114471	145.480000
421.208069	146.060000
421.301758	146.440000
421.395386	146.720000
421.489044	146.220000
421.582703	146.720000
421.676361	146.720000
421.769989	146.060000
421.863647	146.360000
421.957306	146.700000
422.050934	147.100000
422.144592	147.000000
422.238251	146.760000
422.331909	146.140000
422.425537	146.080000
422.519196	145.600000
422.612854	145.320000
422.706543	145.420000
422.800140	145.860000
422.893829	145.600000
422.987457	145.300000
423.081146	145.220000
423.174744	145.880000
423.268433	145.420000
423.362061	145.380000
423.455750	145.640000
423.549347	145.940000
423.643036	145.140000
423.736664	145.980000
423.830353	146.180000
423.924011	146.680000
424.017639	145.940000
424.111298	146.040000
424.204956	145.400000
424.298615	145.420000
424.392273	144.940000
424.485931	145.660000
424.579559	145.840000
424.673218	145.800000
424.766876	146.100000
424.860535	145.820000
424.954193	145.360000
425.047882	145.740000
425.141510	146.040000
425.235199	145.660000
425.328796	145.540000
425.422485	145.660000
425.516113	145.180000
425.609802	145.060000
425.703430	145.340000
425.797119	145.280000
425.890747	145.440000
425.984436	145.760000
426.078064	145.860000
426.171753	145.680000
426.265411	146.100000
426.359070	146.300000
426.452728	146.200000
426.546356	146.060000
426.640015	146.080000
426.733673	146.140000
426.827332	145.580000
426.920990	146.240000
427.014648	145.820000
427.108307	145.960000
427.201965	146.160000
427.295624	146.640000
427.389282	145.520000
427.482941	145.800000
427.576630	145.540000
427.670258	144.900000
427.763947	144.500000
427.857574	145.000000
427.951263	144.980000
428.044922	144.980000
428.138611	145.420000
428.232239	146.040000
428.325928	146.340000
428.419556	146.660000
428.513245	146.280000
428.606903	146.420000
428.700562	145.640000
428.794220	144.960000
428.887878	144.460000
428.981537	145.040000
429.075195	145.000000
429.168854	145.400000
429.262512	145.800000
429.356201	146.400000
429.449860	146.220000
429.543518	146.040000
429.637177	146.220000
429.730835	145.860000
429.824493	145.640000
429.918182	145.740000
430.011810	145.320000
430.105530	144.640000
430.199158	145.000000
430.292847	144.960000
430.386475	144.800000
430.480164	145.060000
430.573792	144.900000
430.667511	144.700000
430.761139	144.880000
430.854828	145.360000
430.948456	145.620000
431.042145	146.540000
431.135834	146.440000
431.229492	146.440000
431.323151	146.380000
431.416809	146.240000
431.510468	145.960000
431.604156	145.960000
431.697815	146.120000
431.791473	145.600000
431.885132	145.120000
431.978821	145.380000
432.072479	145.840000
432.166138	145.840000
432.259827	145.840000
432.353485	146.400000
432.447174	146.300000
432.540802	145.880000
432.634491	145.580000
432.728149	146.080000
432.821838	146.420000
432.915466	146.280000
433.009186	146.280000
433.102814	146.020000
433.196503	145.620000
433.290131	145.240000
433.383850	145.440000
433.477509	145.600000
433.571167	146.440000
433.664856	146.920000
433.758514	147.320000
433.852173	147.000000
433.945862	147.080000
434.039520	146.600000
434.133179	145.820000
434.226868	145.360000
434.320526	145.020000
434.414185	145.420000
434.507874	145.060000
434.601562	145.380000
434.695221	145.320000
434.788910	145.980000
434.882538	145.760000
434.976257	145.700000
435.069885	145.960000
435.163574	146.080000
435.257233	145.500000
435.350922	145.260000
435.444580	144.980000
435.538269	144.760000
435.631897	145.020000
435.725616	145.700000
435.819275	146.120000
435.912964	146.900000
436.006622	147.480000
436.100311	147.400000
436.193970	146.300000
436.287628	145.800000
436.381317	145.460000
436.474976	144.800000
436.568665	144.460000
436.662323	145.080000
436.756012	145.420000
436.849670	145.140000
436.943390	145.140000
437.037018	145.200000
437.130737	145.380000
437.224365	144.940000
437.318085	145.140000
437.411713	145.420000
437.505432	145.840000
437.599060	146.080000
437.692780	146.940000
437.786407	146.860000
437.880127	146.620000
437.973755	146.380000
438.067474	145.900000
438.161133	145.560000
438.254822	146.300000
438.348480	146.340000
438.442169	146.500000
438.535828	146.900000
438.629517	146.680000
438.723175	145.960000
438.816864	146.420000
438.910553	146.060000
439.004211	145.920000
439.097900	145.600000
439.191559	145.780000
439.285248	144.940000
439.378906	145.300000
439.472626	145.360000
439.566284	145.400000
439.659973	145.840000
439.753632	146.000000
439.847321	146.300000
439.940979	146.220000
440.034698	146.480000
440.128326	145.800000
440.222046	145.960000
440.315674	145.040000
440.409393	145.120000
440.503082	144.740000
440.596741	145.200000
440.690430	145.240000
440.784088	145.260000
440.877777	144.680000
440.971466	144.860000
441.065125	144.600000
441.158813	144.340000
441.252502	144.760000
441.346161	145.200000
441.439850	145.360000
441.533539	145.260000
441.627197	145.640000
441.720886	145.220000
441.814606	145.380000
441.908234	145.620000
442.001953	145.640000
442.095612	145.520000
442.189301	145.860000
442.282959	146.120000
442.376678	145.540000
442.470306	146.460000
442.564026	146.560000
442.657684	146.700000
442.751404	146.480000
442.845032	147.620000
442.938751	146.540000
443.032440	146.580000
443.126099	146.420000
443.219788	146.720000
443.313477	145.720000
443.407166	146.080000
443.500824	145.840000
443.594513	146.140000
443.688202	145.900000
443.781891	145.760000
443.875549	145.540000
443.969238	145.920000
444.062927	145.920000
444.156647	145.660000
444.250275	146.160000
444.343994	146.180000
444.437653	145.900000
444.531372	145.700000
444.625031	145.620000
444.718719	145.400000
444.812378	145.520000
444.906097	145.420000
444.999756	145.000000
445.093445	145.280000
445.187103	145.280000
445.280823	145.520000
445.374512	145.120000
445.468201	145.320000
445.561859	145.180000
445.655548	145.440000
445.749237	145.360000
445.842926	145.900000
445.936615	146.420000
446.030304	146.240000
446.123962	146.280000
446.217651	145.920000
446.311340	145.980000
446.405029	145.280000
446.498749	145.260000
446.592407	144.700000
446.686096	144.860000
446.779755	145.140000
446.873474	145.640000
446.967133	145.920000
447.060852	146.080000
447.154510	146.140000
447.248230	146.100000
447.341858	146.000000
447.435577	145.520000
447.529236	145.420000
447.622955	145.260000
447.716644	145.180000
447.810333	145.300000
447.904022	146.160000
447.997711	146.160000
448.091400	146.380000
448.185059	146.200000
448.278748	146.180000
448.372437	145.580000
448.466125	146.040000
448.559814	145.980000
448.653503	146.260000
448.747192	146.580000
448.840912	147.180000
448.934570	146.880000
449.028290	147.280000
449.121948	147.020000
449.215637	146.420000
449.309296	145.860000
449.403015	146.120000
449.496674	145.820000
449.590393	145.880000
449.684052	145.980000
449.777771	146.760000
449.871429	146.320000
449.965149	146.040000
450.058838	146.040000
450.152527	146.200000
450.246216	145.780000
450.339905	145.860000
450.433594	145.980000
450.527283	146.640000
450.620972	146.400000
450.714661	146.240000
450.808350	146.420000
450.902039	146.940000
450.995728	146.240000
451.089417	146.360000
451.183105	146.300000
451.276794	146.640000
451.370514	145.900000
451.464172	145.400000
451.557892	145.320000
451.651550	145.860000
451.745270	145.280000
451.838928	144.980000
451.932648	145.520000
452.026306	145.920000
452.120026	145.340000
452.213684	145.860000
452.307404	146.320000
452.401062	146.500000
452.494781	146.600000
452.588470	146.780000
452.682159	146.020000
452.775848	145.940000
452.869537	145.420000
452.963226	144.960000
453.056915	144.680000
453.150604	145.280000
453.244293	145.740000
453.337982	146.420000
453.431671	146.740000
453.525360	147.360000
453.619049	147.140000
453.712769	146.880000
453.806427	146.360000
453.900146	145.880000
453.993805	145.660000
454.087555	146.100000
454.181213	146.460000
454.274933	146.260000
454.368591	146.620000
454.462311	146.300000
454.555969	145.740000
454.649689	146.180000
454.743347	146.220000
454.837067	146.640000
454.930756	147.300000
455.024445	147.700000
455.118134	147.080000
455.211853	147.500000
455.305542	146.880000
455.399231	146.380000
455.492920	146.200000
455.586609	146.240000
455.680298	146.220000
455.773987	145.900000
455.867676	146.000000
455.961365	146.440000
456.055084	146.200000
456.148773	146.200000
456.242493	146.520000
456.336151	146.660000
456.429871	146.540000
456.523529	147.080000
456.617249	146.600000
456.710907	147.040000
456.804626	146.820000
456.898315	146.220000
456.992035	145.700000
457.085693	145.920000
457.179413	145.140000
457.273102	145.980000
457.366791	146.160000
457.460480	146.620000
457.554199	147.360000
457.647888	147.400000
457.741577	146.820000
457.835266	146.940000
457.928955	146.680000
458.022644	146.660000
458.116364	147.320000
458.210052	147.100000
458.303741	147.260000
458.397461	146.740000
458.491119	145.920000
458.584839	145.840000
458.678528	145.380000
458.772247	145.100000
458.865906	145.640000
458.959625	146.580000
459.053284	146.480000
459.147003	146.740000
459.240692	147.500000
459.334412	147.420000
459.428070	146.840000
459.521790	146.660000
459.615479	146.800000
459.709198	146.700000
459.802887	146.360000
459.896576	146.040000
459.990265	146.220000
460.083954	146.380000
460.177673	145.500000
460.271362	146.040000
460.365051	146.000000
460.458740	145.960000
460.552429	145.400000
460.646149	145.660000
460.739838	145.240000
460.833527	145.400000
460.927246	145.140000
461.020905	145.020000
461.114655	145.020000
461.208313	145.100000
461.302032	144.760000
461.395691	145.060000
461.489441	145.680000
461.583099	145.700000
461.676819	145.660000
461.770477	146.420000
461.864197	145.900000
461.957916	145.460000
462.051605	145.120000
462.145294	145.920000
462.238983	145.160000
462.332703	146.080000
462.426392	146.900000
462.520081	147.100000
462.613770	146.200000
462.707489	146.820000
462.801178	146.320000
462.894867	145.800000
462.988556	146.000000
463.082275	146.400000
463.175964	145.720000
463.269684	146.000000
463.363342	146.180000
463.457092	145.680000
463.550751	145.740000
463.644470	146.420000
463.738129	146.200000
463.831879	145.880000
463.925537	146.840000
464.019257	146.740000
464.112946	146.560000
464.206665	146.240000
464.300323	146.100000
464.394043	145.360000
464.487762	145.360000
464.581451	145.840000
464.675140	145.920000
464.768829	146.660000
464.862549	147.240000
464.956238	147.420000
465.049927	147.160000
465.143646	147.380000
465.237335	146.720000
465.331024	146.800000
465.424713	146.500000
465.518433	146.660000
465.612152	146.820000
465.705811	147.120000
465.799561	146.620000
465.893219	146.500000
465.986938	145.840000
466.080597	145.420000
466.174347	145.620000
466.268005	145.820000
466.361725	145.780000
466.455414	146.120000
466.549133	145.900000
466.642792	145.880000
466.736542	145.560000
466.830231	146.060000
466.923920	145.580000
467.017609	145.960000
467.111328	145.380000
467.205017	145.700000
467.298706	145.260000
467.392426	146.020000
467.486115	146.420000
467.579803	146.360000
467.673523	146.520000
467.767212	146.840000
467.860901	146.220000
467.954651	146.040000
468.048309	146.500000
468.142029	146.300000
468.235718	146.020000
468.329437	145.920000
468.423096	145.700000
468.516846	145.460000
468.610504	145.360000
468.704224	145.100000
468.797913	145.000000
468.891632	145.020000
468.985291	145.040000
469.079010	145.020000
469.172729	144.760000
469.266418	145.680000
469.360107	145.580000
469.453827	145.700000
469.547516	145.880000
469.641205	146.760000
469.734924	146.420000
469.828613	147.040000
469.922302	147.180000
470.016022	146.880000
470.109711	146.420000
470.203430	146.060000
470.297150	145.240000
470.390808	145.360000
470.484558	145.200000
470.578217	145.740000
470.671936	146.280000
470.765625	147.000000
470.859344	146.340000
470.953003	146.800000
471.046753	146.080000
471.140411	145.380000
471.234131	145.100000
471.327820	145.900000
471.421539	145.660000
471.515228	145.540000
471.608948	145.680000
471.702637	145.280000
471.796326	144.640000
471.890045	144.860000
471.983734	145.500000
472.077423	145.400000
472.171143	145.680000
472.264832	145.580000
472.358521	145.340000
472.452240	144.880000
472.545929	145.760000
472.639648	145.880000
472.733337	146.360000
472.827057	146.480000
472.920746	146.480000
473.014465	146.240000
473.108124	146.260000
473.201874	146.380000
473.295532	146.540000
473.389252	147.120000
473.482941	146.940000
473.576660	146.400000
473.670319	146.080000
473.764069	146.120000
473.857727	145.880000
473.951477	146.000000
474.045166	146.760000
474.138855	146.800000
474.232574	146.540000
474.326263	146.600000
474.419952	146.820000
474.513672	146.500000
474.607361	146.260000
474.701050	146.480000
474.794769	146.700000
474.888458	146.520000
474.982178	146.680000
475.075867	146.640000
475.169586	146.200000
475.263275	145.940000
475.356995	145.840000
475.450653	145.620000
475.544403	145.680000
475.638062	146.760000
475.731812	146.440000
475.825470	146.060000
475.919189	146.260000
476.012878	146.520000
476.106598	145.580000
476.200256	146.080000
476.294006	146.000000
476.387695	145.760000
476.481384	145.460000
476.575104	145.600000
476.668793	145.080000
476.762512	145.240000
476.856201	145.720000
476.949890	145.760000
477.043610	145.340000
477.137299	145.480000
477.230988	145.860000
477.324707	145.480000
477.418396	146.260000
477.512146	146.580000
477.605804	146.520000
477.699524	146.440000
477.793213	146.280000
477.886932	145.620000
477.980591	145.280000
478.074341	145.100000
478.167999	144.720000
478.261749	145.060000
478.355408	144.880000
478.449127	145.500000
478.542816	146.580000
478.636536	147.280000
478.730225	147.400000
478.823944	147.700000
478.917633	147.620000
479.011322	147.500000
479.105042	147.040000
479.198730	147.180000
479.292450	147.020000
479.386139	147.060000
479.479828	147.100000
479.573547	147.360000
479.667267	146.720000
479.760925	146.680000
479.854675	146.640000
479.948334	146.240000
480.042084	145.740000
480.135742	146.260000
480.229462	146.080000
480.323151	145.980000
480.416870	145.460000
480.510529	145.720000
480.604279	144.900000
480.697937	145.620000
480.791656	145.580000
480.885345	145.400000
480.979065	145.320000
481.072754	146.220000
481.166473	146.240000
481.260132	146.280000
481.353882	146.860000
481.447540	146.960000
481.541260	146.680000
481.635010	145.720000
481.728668	145.520000
481.822388	145.340000
481.916077	145.620000
482.009796	145.640000
482.103485	146.560000
482.197205	146.840000
482.290863	146.860000
482.384613	146.360000
482.478271	146.140000
482.571991	145.760000
482.665680	145.880000
482.759399	146.700000
482.853058	147.160000
482.946808	147.240000
483.040466	147.120000
483.134216	146.980000
483.227875	146.080000
483.321594	146.340000
483.415283	146.260000
483.509003	146.240000
483.602661	145.900000
483.696411	146.140000
483.790070	145.940000
483.883789	146.020000
483.977478	146.460000
484.071198	146.660000
484.164917	146.260000
484.258606	145.780000
484.352325	146.000000
484.445984	145.880000
484.539734	145.740000
484.633392	145.340000
484.727142	145.580000
484.820801	145.340000
484.914520	145.260000
485.008209	145.440000
485.101929	146.480000
485.195587	146.420000
485.289337	146.580000
485.382996	146.340000
485.476715	146.280000
485.570404	146.240000
485.664124	146.040000
485.757782	146.320000
485.851532	146.280000
485.945190	145.880000
486.038910	146.000000
486.132599	146.640000
486.226318	145.920000
486.319977	145.940000
486.413727	146.880000
486.507446	146.080000
486.601105	145.260000
486.694855	145.120000
486.788513	145.080000
486.882233	144.460000
486.975922	144.720000
487.069641	144.680000
487.163300	144.640000
487.257050	145.480000
487.350708	145.280000
487.444427	145.080000
487.538116	145.560000
487.631836	145.940000
487.725494	145.420000
487.819214	145.500000
487.912903	145.560000
488.006622	145.740000
488.100281	146.000000
488.194031	145.780000
488.287689	146.240000
488.381409	147.060000
488.475098	146.760000
488.568817	146.620000
488.662476	146.680000
488.756226	146.140000
488.849945	145.160000
488.943604	145.340000
489.037354	145.480000
489.131012	145.340000
489.224731	145.520000
489.318390	145.520000
489.412140	145.420000
489.505798	145.160000
489.599518	145.140000
489.693207	145.440000
489.786926	145.780000
489.880585	145.560000
489.974335	145.940000
490.067993	147.160000
490.161713	147.380000
490.255371	148.040000
490.349121	148.060000
490.442780	147.800000
490.536499	146.660000
490.630188	146.400000
490.723907	145.800000
490.817566	145.980000
490.911285	146.020000
491.004974	145.920000
491.098694	145.600000
491.192413	146.300000
491.286102	146.360000
491.379822	146.460000
491.473480	146.900000
491.567200	147.080000
491.660889	146.000000
491.754608	146.040000
491.848267	145.660000
491.941986	145.200000
492.035675	145.100000
492.129395	145.500000
492.223053	145.400000
492.316772	145.900000
492.410461	146.260000
492.504181	146.460000
492.597839	146.100000
492.691559	146.240000
492.785248	146.040000
492.878967	146.180000
492.972626	145.620000
493.066345	146.080000
493.160034	145.540000
493.253754	145.720000
493.347412	145.080000
493.441132	145.660000
493.534882	145.920000
493.628540	146.480000
493.722260	146.580000
493.815918	147.020000
493.909668	147.100000
494.003326	147.040000
494.097046	146.800000
494.190704	146.280000
494.284454	146.220000
494.378113	146.340000
494.471832	145.840000
494.565491	146.060000
494.659210	146.180000
494.752899	145.980000
494.846619	145.580000
494.940277	146.000000
495.033997	145.900000
495.127686	145.680000
495.221405	145.700000
495.315063	145.880000
495.408783	145.760000
495.502441	145.820000
495.596191	146.320000
495.689850	146.240000
495.783569	146.640000
495.877228	147.120000
495.970947	146.580000
496.064697	146.100000
496.158356	146.940000
496.252075	146.440000
496.345734	146.060000
496.439453	146.920000
496.533142	147.420000
496.626862	147.420000
496.720520	147.540000
496.814240	147.540000
496.907898	146.820000
497.001617	146.680000
497.095306	145.820000
497.189026	145.800000
497.282684	145.860000
497.376404	146.520000
497.470062	146.140000
497.563782	146.420000
497.657471	146.540000
497.751190	146.340000
497.844849	146.080000
497.938568	146.540000
498.032227	146.480000
498.125946	146.260000
498.219635	146.240000
498.313354	146.300000
498.407074	146.100000
498.500732	146.260000
498.594452	146.320000
498.688110	145.720000
498.781830	145.200000
498.875519	145.260000
498.969238	145.120000
499.062897	144.960000
499.156616	145.680000
499.250275	146.320000
499.343994	145.740000
499.437653	145.680000
499.531372	146.180000
499.625061	146.580000
499.718781	146.140000
499.812439	146.860000
499.906158	147.000000
499.999817	146.440000
500.093536	145.700000
500.187195	146.000000
500.280914	145.920000
500.374573	145.820000
500.468323	145.780000
500.561981	146.240000
500.655701	145.780000
500.749420	145.380000
500.843079	145.700000
500.936798	146.060000
501.030457	146.460000
501.124176	147.020000
501.217834	147.560000
501.311554	147.280000
501.405212	146.980000
501.498962	145.700000
501.592621	145.420000
501.686340	145.500000
501.779999	145.820000
501.873718	146.080000
501.967377	146.840000
502.061096	146.920000
502.154755	146.300000
502.248474	146.080000
502.342133	145.900000
502.435852	145.660000
502.529510	146.400000
502.623230	146.980000
502.716888	146.620000
502.810608	146.820000
502.904266	147.180000
502.997986	146.420000
503.091705	145.820000
503.185364	145.700000
503.279083	145.960000
503.372772	145.640000
503.466492	145.260000
503.560150	145.700000
503.653870	146.000000
503.747528	145.840000
503.841248	145.740000
503.934906	146.400000
504.028625	145.900000
504.122284	146.180000
504.216003	146.900000
504.309662	146.900000
504.403381	146.860000
504.497040	147.300000
504.590759	146.740000
504.684418	146.180000
504.778137	146.780000
504.871796	147.040000
504.965515	146.540000
505.059174	147.040000
505.152893	146.560000
505.246521	145.840000
505.340240	145.200000
505.433899	145.800000
505.527618	145.840000
505.621338	146.260000
505.714996	146.260000
505.808716	146.500000
505.902374	146.540000
505.996094	146.380000
506.089752	146.020000
506.183472	146.260000
506.277130	146.200000
506.370850	145.940000
506.464508	146.020000
506.558228	146.020000
506.651886	145.760000
506.745605	145.900000
506.839264	146.080000
506.932983	146.000000
507.026611	145.700000
507.120331	146.100000
507.213989	145.380000
507.307709	145.220000
507.401367	145.180000
507.495087	146.500000
507.588745	145.920000
507.682465	146.900000
507.776123	147.040000
507.869843	147.180000
507.963531	146.480000
508.057190	147.220000
508.150909	146.480000
508.244568	146.500000
508.338287	146.420000
508.431946	145.960000
508.525665	145.600000
508.619324	145.620000
508.713013	145.580000
508.806671	145.920000
508.900391	146.760000
508.994049	146.880000
509.087769	146.600000
509.181427	146.460000
509.275146	146.060000
509.368774	145.100000
509.462494	144.800000
509.556152	145.360000
509.649872	145.700000
509.743530	145.780000
509.837250	146.160000
509.930878	146.220000
510.024597	145.960000
510.118256	145.720000
510.211975	145.820000
510.305695	145.880000
510.399353	146.600000
510.493042	147.000000
510.586700	147.060000
510.680420	147.400000
510.774078	147.140000
510.867798	146.880000
510.961426	146.260000
511.055145	146.260000
511.148804	145.880000
511.242523	146.680000
511.336151	146.660000
511.429871	147.300000
511.523529	146.980000
511.617249	146.620000
511.710876	145.960000
511.804596	145.400000
511.898254	145.000000
511.991974	145.560000
512.085632	145.500000
512.179321	145.880000
512.272949	146.580000
512.366699	147.040000
512.460327	146.820000
512.554077	147.920000
512.647766	147.500000
512.741394	147.460000
512.835144	148.040000
512.928772	147.580000
513.022461	147.220000
513.116150	147.140000
513.209839	147.480000
513.303467	146.740000
513.397217	146.640000
513.490845	146.140000
513.584595	146.240000
513.678223	145.520000
513.771912	144.820000
513.865601	145.280000
513.959290	145.300000
514.052917	145.120000
514.146667	145.620000
514.240295	146.220000
514.333984	146.620000
514.427673	146.400000
514.521362	146.940000
514.614990	146.320000
514.708740	146.220000
514.802368	145.920000
514.896057	146.220000
514.989746	146.460000
515.083435	146.880000
515.177124	147.020000
515.270752	146.580000
515.364502	146.600000
515.458130	146.560000
515.551819	146.080000
515.645508	145.900000
515.739197	146.120000
515.832825	146.160000
515.926575	145.680000
516.020203	146.180000
516.113892	146.660000
516.207520	146.420000
516.301270	146.440000
516.394897	146.660000
516.488586	146.720000
516.582275	146.580000
516.675964	146.300000
516.769592	146.280000
516.863281	146.760000
516.956970	146.920000
517.050659	146.660000
517.144287	147.200000
517.238037	147.160000
517.331665	146.460000
517.425354	145.860000
517.519043	145.860000
517.612732	146.160000
517.706421	146.020000
517.800049	145.900000
517.893738	145.860000
517.987427	145.880000
518.081116	145.520000
518.174744	145.220000
518.268433	145.300000
518.362122	145.900000
518.455811	146.040000
518.549438	146.620000
518.643127	147.940000
518.736816	148.100000
518.830505	147.520000
518.924133	147.240000
519.017822	147.140000
519.111511	146.560000
519.205200	146.800000
519.298828	147.180000
519.392517	147.180000
519.486206	147.240000
519.579895	147.020000
519.673523	146.760000
519.767212	146.240000
519.860901	146.740000
519.954590	146.280000
520.048279	146.180000
520.141907	146.200000
520.235596	147.440000
520.329224	147.280000
520.422974	147.300000
520.516602	147.560000
520.610291	147.280000
520.703918	146.700000
520.797607	146.180000
520.891296	146.020000
520.984985	145.780000
521.078613	146.280000
521.172302	145.640000
521.265930	146.860000
521.359680	147.560000
521.453308	147.440000
521.546997	147.080000
521.640625	147.440000
521.734314	146.480000
521.827942	146.200000
521.921692	146.700000
522.015320	146.940000
522.109009	146.920000
522.202698	147.140000
522.296326	147.100000
522.390015	146.880000
522.483704	146.900000
522.577393	146.500000
522.671021	146.440000
522.764709	146.020000
522.858337	146.080000
522.952026	145.960000
523.045654	146.760000
523.139404	147.340000
523.233032	147.580000
523.326721	147.420000
523.420349	147.400000
523.514038	146.840000
523.607666	146.900000
523.701355	146.580000
523.795044	146.580000
523.888733	146.700000
523.982361	146.840000
524.076050	145.860000
524.169678	146.520000
524.263367	146.340000
524.356995	146.020000
524.450684	146.080000
524.544373	146.260000
524.638062	146.020000
524.731750	146.300000
524.825378	146.460000
524.919067	146.200000
525.012695	146.600000
525.106384	146.200000
525.200012	145.960000
525.293701	145.680000
525.387329	145.840000
525.481018	145.640000
525.574646	146.080000
525.668396	146.120000
525.762024	146.580000
525.855713	146.980000
525.949341	146.500000
526.043030	146.500000
526.136658	146.200000
526.230347	145.820000
526.323975	145.220000
526.417664	145.600000
526.511292	145.540000
526.604980	146.100000
526.698608	146.260000
526.792297	146.660000
526.885925	146.700000
526.979614	146.700000
527.073303	146.040000
527.166931	146.040000
527.260620	145.920000
527.354309	146.080000
527.447998	146.260000
527.541626	146.560000
527.635315	146.820000
527.728943	147.060000
527.822632	147.240000
527.916260	146.960000
528.009949	147.200000
528.103577	146.700000
528.197266	146.300000
528.290894	146.020000
528.384583	145.880000
528.478210	145.820000
528.571899	146.360000
528.665527	146.700000
528.759216	146.920000
528.852844	147.360000
528.946533	147.400000
529.040161	147.160000
529.133850	146.940000
529.227478	147.140000
529.321167	147.420000
529.414856	147.700000
529.508484	148.340000
529.602173	147.980000
529.695801	147.600000
529.789490	147.180000
529.883057	146.640000
529.976746	146.440000
530.070374	146.860000
530.164062	146.660000
530.257690	146.940000
530.351379	147.240000
530.445007	146.760000
530.538696	146.220000
530.632324	146.660000
530.726013	146.780000
530.819641	146.600000
530.913330	146.900000
531.006958	147.080000
531.100647	146.920000
531.194275	146.460000
531.287964	146.500000
531.381592	145.980000
531.475220	146.280000
531.568848	146.300000
531.662537	146.020000
531.756226	146.340000
531.849854	146.260000
531.943542	146.140000
532.037170	145.520000
532.130859	146.380000
532.224487	145.720000
532.318176	145.900000
532.411804	146.280000
532.505432	146.860000
532.599060	145.880000
532.692749	145.960000
532.786377	146.320000
532.880066	145.580000
532.973694	144.880000
533.067383	145.020000
533.161011	145.160000
533.254639	145.000000
533.348267	145.120000
533.441956	145.520000
533.535583	145.500000
533.629272	145.620000
533.722900	145.100000
533.816589	145.460000
533.910156	146.180000
534.003845	146.020000
534.097534	146.360000
534.191162	147.300000
534.284851	147.240000
534.378479	146.600000
534.472107	146.740000
534.565735	146.400000
534.659424	146.100000
534.753052	146.220000
534.846741	146.020000
534.940369	146.520000
535.033997	146.480000
535.127625	146.600000
535.221313	147.100000
535.314941	147.360000
535.408630	146.860000
535.502197	147.120000
535.595886	146.660000
535.689514	146.020000
535.783203	146.380000
535.876831	146.820000
535.970459	146.660000
536.064087	146.580000
536.157776	146.900000
536.251404	146.680000
536.345093	146.580000
536.438721	146.480000
536.532349	146.780000
536.626038	146.360000
536.719666	146.460000
536.813293	146.100000
536.906921	146.100000
537.000610	146.500000
537.094238	146.680000
537.187866	146.620000
537.281494	146.620000
537.375183	146.820000
537.468811	146.300000
537.562439	146.220000
537.656067	146.180000
537.749756	146.160000
537.843384	146.520000
537.937012	146.780000
538.030640	146.600000
538.124329	146.480000
538.217896	146.980000
538.311584	147.000000
538.405212	146.960000
538.498901	147.480000
538.592468	148.100000
538.686157	147.740000
538.779785	146.880000
538.873413	146.700000
538.967102	146.200000
539.060730	145.500000
539.154358	145.880000
539.247986	146.680000
539.341675	146.660000
539.435242	147.060000
539.528931	147.020000
539.622559	146.640000
539.716187	146.800000
539.809814	146.840000
539.903503	146.660000
539.997070	146.700000
540.090759	146.780000
540.184387	146.300000
540.278015	146.640000
540.371643	146.820000
540.465332	146.960000
540.558899	146.900000
540.652588	147.080000
540.746216	146.880000
540.839844	146.940000
540.933472	146.920000
541.027100	146.760000
541.120728	146.780000
541.214417	147.000000
541.308044	147.040000
541.401672	146.880000
541.495300	146.940000
541.588928	146.820000
541.682617	146.420000
541.776184	146.100000
541.869873	146.340000
541.963440	146.280000
542.057129	146.160000
542.150757	146.400000
542.244385	145.960000
542.338013	145.320000
542.431641	145.160000
542.525269	144.900000
542.618958	145.140000
542.712524	145.760000
542.806213	145.880000
542.899780	146.400000
542.993469	146.560000
543.087036	145.940000
543.180725	145.480000
543.274292	146.000000
543.367981	146.000000
543.461548	146.400000
543.555237	146.760000
543.648926	147.360000
543.742493	147.820000
543.836182	147.700000
543.929749	147.300000
544.023437	147.440000
544.117004	146.980000
544.210693	146.860000
544.304260	146.780000
544.397949	146.940000
544.491516	147.100000
544.585205	147.360000
544.678772	146.740000
544.772461	147.220000
544.866028	146.860000
544.959717	146.760000
545.053284	146.360000
545.146973	146.780000
545.240540	146.760000
545.334229	147.520000
545.427795	147.620000
545.521423	148.080000
545.615051	148.140000
545.708679	148.400000
545.802307	147.980000
545.895935	148.080000
545.989624	148.620000
546.083191	148.400000
546.176880	147.980000
546.270447	147.820000
546.364136	148.000000
546.457703	147.060000
546.551331	146.980000
546.644958	146.900000
546.738586	146.940000
546.832214	146.040000
546.925842	146.140000
547.019409	146.460000
547.113098	145.900000
547.206665	145.520000
547.300354	145.920000
547.393921	146.280000
547.487549	146.380000
547.581177	146.320000
547.674805	146.600000
547.768433	145.880000
547.862061	145.580000
547.955627	144.880000
548.049316	146.100000
548.142883	146.220000
548.236572	146.880000
548.330139	147.400000
548.423767	147.440000
548.517456	146.820000
548.611023	146.960000
548.704651	146.220000
548.798279	145.880000
548.891907	146.600000
548.985474	146.460000
549.079163	146.600000
549.172729	146.820000
549.266357	146.400000
549.359985	145.980000
549.453613	145.780000
549.547180	145.480000
549.640869	146.220000
549.734436	146.280000
549.828064	146.360000
549.921631	146.340000
550.015320	146.000000
550.108887	145.920000
550.202515	146.100000
550.296143	145.920000
550.389771	146.380000
550.483337	146.600000
550.576965	146.280000
550.670593	146.480000
550.764221	146.540000
550.857849	146.100000
550.951477	145.660000
551.045105	145.400000
551.138672	145.300000
551.232300	144.900000
551.325928	145.640000
551.419556	146.320000
551.513123	146.580000
551.606750	146.540000
551.700378	147.100000
551.794006	146.560000
551.887573	146.400000
551.981201	146.540000
552.074768	146.440000
552.168457	145.940000
552.262024	146.880000
552.355652	146.700000
552.449219	147.080000
552.542847	146.960000
552.636475	146.720000
552.730103	145.520000
552.823669	145.500000
552.917297	145.000000
553.010864	145.200000
553.104553	145.900000
553.198181	145.900000
553.291748	146.220000
553.385376	146.780000
553.478943	146.520000
553.572571	146.320000
553.666199	146.680000
553.759827	146.440000
553.853394	145.340000
553.947021	145.420000
554.040588	145.580000
554.134216	145.600000
554.227783	146.320000
554.321411	147.360000
554.415039	147.060000
554.508667	147.000000
554.602234	147.300000
554.695862	146.600000
554.789429	146.300000
554.883057	146.680000
554.976624	146.680000
555.070251	146.080000
555.163818	145.860000
555.257507	145.740000
555.351074	145.740000
555.444702	146.540000
555.538330	146.540000
555.631897	146.780000
555.725525	146.720000
555.819092	146.480000
555.912720	145.000000
556.006287	145.600000
556.099915	145.400000
556.193481	145.700000
556.287109	146.020000
556.380676	146.300000
556.474304	146.240000
556.567871	146.640000
556.661499	146.100000
556.755066	146.000000
556.848694	146.220000
556.942261	145.640000
557.035889	145.620000
557.129517	145.780000
557.223145	146.220000
557.316711	146.380000
557.410339	146.580000
557.503906	146.360000
557.597473	146.480000
557.691040	145.780000
557.784668	145.820000
557.878296	145.700000
557.971863	145.980000
558.065491	146.080000
558.159058	146.020000
558.252686	146.460000
558.346252	147.400000
558.439880	146.780000
558.533447	146.300000
558.627075	146.320000
558.720642	145.660000
558.814270	145.060000
558.907837	145.360000
559.001465	145.600000
559.095032	146.400000
559.188660	146.720000
559.282227	146.320000
559.375854	147.260000
559.469360	146.800000
559.562988	146.940000
559.656555	146.700000
559.750183	146.980000
559.843750	146.600000
559.937378	146.980000
560.030945	146.520000
560.124573	0.000000
560.218140	0.000000
560.311707	0.000000
560.405334	0.000000
560.498901	0.000000
560.592529	0.000000
560.686096	0.000000
560.779724	0.000000
560.873291	0.000000
560.966858	0.000000
561.060425	0.000000
561.154053	0.000000
561.247620	0.000000
561.341248	0.000000
561.434814	0.000000
561.528381	0.000000
561.621948	0.000000
561.715576	0.000000
561.809143	0.000000
561.902771	0.000000
561.996277	0.000000
562.089905	0.000000
562.183472	0.000000
562.277100	0.000000
