Model Number: SPM-002-B   
Serial Number: 70087108
Firmware Version: 004.15.4
Exposure Time: 100000.000000us
Data Taken on: 11-12-2020 19:37:58.210
Wavelength	Amplitude
221.570786	0.000000
221.663406	0.000000
221.756027	0.000000
221.848648	0.000000
221.941269	0.000000
222.033905	0.000000
222.126526	0.000000
222.219162	0.000000
222.311798	0.000000
222.404419	0.000000
222.497055	0.000000
222.589676	0.000000
222.682312	0.000000
222.774933	0.000000
222.867569	0.000000
222.960205	0.000000
223.052841	0.000000
223.145462	0.000000
223.238098	0.000000
223.330734	0.000000
223.423386	0.000000
223.516022	0.000000
223.608658	0.000000
223.701309	0.000000
223.793945	0.000000
223.886581	0.000000
223.979218	0.000000
224.071869	0.000000
224.164505	0.000000
224.257156	0.000000
224.349792	0.000000
224.442444	0.000000
224.535095	0.000000
224.627747	0.000000
224.720398	0.000000
224.813034	0.000000
224.905685	0.000000
224.998337	145.320000
225.090988	145.120000
225.183640	145.040000
225.276291	145.140000
225.368942	145.520000
225.461594	145.820000
225.554245	146.080000
225.646912	145.980000
225.739578	146.640000
225.832230	147.280000
225.924896	146.640000
226.017548	146.820000
226.110199	147.360000
226.202866	146.540000
226.295532	146.140000
226.388184	146.160000
226.480850	145.780000
226.573517	145.400000
226.666168	145.760000
226.758835	146.120000
226.851501	146.680000
226.944183	147.100000
227.036850	146.900000
227.129517	147.020000
227.222183	146.800000
227.314850	146.700000
227.407516	146.840000
227.500198	147.460000
227.592865	146.900000
227.685532	146.680000
227.778214	146.480000
227.870880	146.680000
227.963562	146.900000
228.056229	147.340000
228.148926	147.420000
228.241592	148.100000
228.334274	147.520000
228.426956	147.060000
228.519638	147.220000
228.612305	146.880000
228.704987	146.660000
228.797668	146.800000
228.890350	146.940000
228.983032	146.260000
229.075714	146.800000
229.168396	146.320000
229.261108	145.640000
229.353790	145.580000
229.446472	145.780000
229.539169	145.660000
229.631851	145.740000
229.724533	146.320000
229.817230	146.500000
229.909912	147.280000
230.002609	147.260000
230.095306	147.220000
230.187988	147.020000
230.280685	146.720000
230.373383	145.760000
230.466095	145.820000
230.558792	145.860000
230.651474	146.040000
230.744171	146.100000
230.836868	146.060000
230.929581	146.020000
231.022278	146.000000
231.114975	146.320000
231.207672	146.140000
231.300369	146.500000
231.393082	146.340000
231.485779	146.120000
231.578506	145.680000
231.671204	145.880000
231.763916	146.280000
231.856613	146.340000
231.949326	146.780000
232.042023	146.640000
232.134735	146.460000
232.227448	145.740000
232.320160	145.920000
232.412872	145.920000
232.505585	147.020000
232.598297	147.540000
232.691010	147.820000
232.783722	147.480000
232.876450	147.980000
232.969162	147.060000
233.061874	146.400000
233.154587	146.160000
233.247314	146.560000
233.340027	145.800000
233.432739	146.300000
233.525467	146.260000
233.618179	146.620000
233.710907	146.060000
233.803635	146.620000
233.896347	146.220000
233.989090	146.980000
234.081818	146.900000
234.174545	147.580000
234.267258	146.720000
234.359985	147.040000
234.452713	146.640000
234.545441	146.320000
234.638168	145.760000
234.730896	146.660000
234.823639	146.540000
234.916367	147.000000
235.009094	147.240000
235.101822	147.580000
235.194580	147.260000
235.287308	146.980000
235.380051	146.300000
235.472778	146.760000
235.565521	146.720000
235.658249	146.400000
235.750992	146.480000
235.843719	146.800000
235.936462	146.920000
236.029205	146.460000
236.121948	146.220000
236.214691	146.560000
236.307449	147.160000
236.400192	146.560000
236.492935	146.540000
236.585678	146.840000
236.678421	146.800000
236.771164	146.340000
236.863907	146.760000
236.956665	147.060000
237.049408	148.700000
237.142151	148.000000
237.234909	148.380000
237.327652	148.120000
237.420410	148.040000
237.513153	146.720000
237.605927	147.020000
237.698669	146.480000
237.791428	146.100000
237.884186	146.500000
237.976944	146.100000
238.069702	146.340000
238.162445	145.740000
238.255203	146.040000
238.347961	146.060000
238.440720	146.160000
238.533478	145.880000
238.626266	145.900000
238.719025	146.340000
238.811783	145.880000
238.904541	145.840000
238.997314	146.040000
239.090073	146.040000
239.182831	145.900000
239.275604	146.620000
239.368362	146.740000
239.461136	146.780000
239.553909	146.840000
239.646667	146.360000
239.739441	146.020000
239.832214	146.160000
239.925003	146.480000
240.017761	147.320000
240.110535	148.080000
240.203308	147.540000
240.296082	147.260000
240.388855	146.660000
240.481628	146.520000
240.574417	146.500000
240.667191	147.060000
240.759964	146.960000
240.852737	147.340000
240.945526	146.820000
241.038315	146.460000
241.131088	146.300000
241.223877	146.800000
241.316650	146.160000
241.409439	146.600000
241.502228	146.140000
241.595001	146.700000
241.687790	146.380000
241.780579	146.600000
241.873367	146.560000
241.966141	146.980000
242.058929	146.200000
242.151718	146.720000
242.244507	147.480000
242.337311	146.720000
242.430099	147.300000
242.522903	147.600000
242.615692	146.940000
242.708481	146.800000
242.801270	147.600000
242.894073	146.880000
242.986862	147.340000
243.079651	147.960000
243.172455	147.820000
243.265244	147.900000
243.358063	147.680000
243.450867	147.480000
243.543655	147.420000
243.636459	147.220000
243.729263	147.360000
243.822067	147.860000
243.914856	148.040000
244.007660	147.940000
244.100464	147.860000
244.193268	147.180000
244.286072	147.020000
244.378876	146.780000
244.471680	146.280000
244.564499	146.580000
244.657318	147.380000
244.750122	147.620000
244.842926	147.100000
244.935745	147.540000
245.028549	147.300000
245.121368	146.720000
245.214172	146.460000
245.306992	146.920000
245.399796	146.620000
245.492615	146.520000
245.585434	146.340000
245.678253	146.420000
245.771072	146.520000
245.863892	147.020000
245.956711	147.520000
246.049530	147.520000
246.142349	147.340000
246.235168	146.960000
246.327988	147.100000
246.420807	146.600000
246.513626	146.580000
246.606445	146.400000
246.699280	146.120000
246.792099	145.820000
246.884918	145.760000
246.977753	145.420000
247.070587	145.520000
247.163422	145.660000
247.256241	145.740000
247.349075	146.000000
247.441895	146.380000
247.534729	146.420000
247.627563	146.340000
247.720383	146.820000
247.813217	146.880000
247.906052	146.780000
247.998886	146.900000
248.091736	147.040000
248.184570	146.320000
248.277405	145.920000
248.370239	146.860000
248.463074	147.800000
248.555908	148.040000
248.648743	148.080000
248.741592	148.440000
248.834427	147.560000
248.927261	146.100000
249.020111	146.520000
249.112946	146.980000
249.205795	146.600000
249.298630	146.940000
249.391495	147.220000
249.484344	146.580000
249.577179	146.260000
249.670029	146.500000
249.762878	146.820000
249.855728	147.100000
249.948563	147.240000
250.041412	146.840000
250.134262	147.140000
250.227112	147.140000
250.319962	146.960000
250.412827	147.040000
250.505692	146.840000
250.598541	146.520000
250.691391	145.860000
250.784241	145.920000
250.877106	145.800000
250.969955	146.120000
251.062805	146.720000
251.155670	147.280000
251.248520	147.180000
251.341385	147.680000
251.434235	147.480000
251.527100	147.020000
251.619965	146.520000
251.712814	147.520000
251.805695	147.120000
251.898560	147.340000
251.991425	147.380000
252.084290	147.700000
252.177155	146.620000
252.270020	146.260000
252.362885	146.160000
252.455750	146.260000
252.548615	146.000000
252.641479	146.060000
252.734360	146.180000
252.827240	146.120000
252.920105	146.120000
253.012970	146.020000
253.105850	146.140000
253.198715	145.980000
253.291595	146.300000
253.384460	145.920000
253.477341	145.820000
253.570221	146.000000
253.663086	145.900000
253.755966	146.180000
253.848846	146.320000
253.941727	146.560000
254.034592	146.460000
254.127472	146.260000
254.220367	146.120000
254.313248	146.220000
254.406128	146.060000
254.499008	146.240000
254.591904	147.240000
254.684784	147.760000
254.777664	147.660000
254.870544	147.320000
254.963440	147.080000
255.056335	146.740000
255.149216	145.900000
255.242111	146.400000
255.334991	146.900000
255.427887	147.100000
255.520767	147.260000
255.613663	147.380000
255.706558	146.700000
255.799438	146.480000
255.892334	146.120000
255.985229	146.000000
256.078125	146.020000
256.171021	145.920000
256.263916	146.340000
256.356812	146.500000
256.449707	146.660000
256.542603	146.260000
256.635498	146.900000
256.728394	146.640000
256.821289	146.480000
256.914215	146.500000
257.007080	147.020000
257.100006	147.020000
257.192932	147.520000
257.285828	147.660000
257.378723	147.260000
257.471619	147.100000
257.564545	146.360000
257.657440	146.100000
257.750336	146.820000
257.843262	146.660000
257.936157	147.440000
258.029053	148.020000
258.121979	148.260000
258.214874	147.680000
258.307800	147.780000
258.400696	146.900000
258.493622	146.820000
258.586517	145.960000
258.679443	146.140000
258.772339	145.920000
258.865265	145.800000
258.958160	145.400000
259.051086	146.420000
259.144012	145.940000
259.236938	146.880000
259.329834	147.340000
259.422791	147.500000
259.515717	146.800000
259.608612	146.760000
259.701538	146.280000
259.794464	145.980000
259.887390	146.040000
259.980316	145.880000
260.073212	145.820000
260.166138	145.200000
260.259064	145.420000
260.351990	145.360000
260.444916	145.320000
260.537842	145.960000
260.630768	146.720000
260.723694	146.440000
260.816620	146.740000
260.909546	147.040000
261.002472	146.440000
261.095398	146.140000
261.188354	146.160000
261.281281	145.900000
261.374207	145.980000
261.467133	146.840000
261.560089	146.980000
261.653015	146.840000
261.745972	147.400000
261.838867	147.680000
261.931824	147.620000
262.024780	147.080000
262.117706	147.360000
262.210663	147.240000
262.303589	147.020000
262.396515	146.860000
262.489471	147.940000
262.582397	147.720000
262.675354	146.980000
262.768280	147.180000
262.861237	147.120000
262.954163	146.500000
263.047119	146.840000
263.140045	147.380000
263.233002	147.040000
263.325958	146.800000
263.418884	146.560000
263.511841	146.400000
263.604797	146.080000
263.697723	146.220000
263.790680	146.300000
263.883636	146.840000
263.976593	146.700000
264.069550	146.740000
264.162476	146.700000
264.255463	146.600000
264.348419	146.040000
264.441376	146.620000
264.534332	146.460000
264.627289	146.400000
264.720245	147.040000
264.813202	147.020000
264.906158	146.720000
264.999115	147.220000
265.092072	147.220000
265.185028	147.040000
265.277985	147.380000
265.370941	147.180000
265.463898	146.940000
265.556854	146.920000
265.649811	145.960000
265.742798	145.700000
265.835754	145.920000
265.928711	146.220000
266.021667	146.460000
266.114655	147.120000
266.207611	147.660000
266.300568	147.100000
266.393585	146.540000
266.486511	146.520000
266.579498	145.800000
266.672485	145.700000
266.765442	145.700000
266.858429	146.400000
266.951385	145.740000
267.044342	146.200000
267.137329	145.980000
267.230316	146.580000
267.323273	145.920000
267.416260	147.080000
267.509216	146.920000
267.602203	146.880000
267.695160	147.040000
267.788147	147.580000
267.881134	146.880000
267.974091	146.920000
268.067078	146.840000
268.160065	146.620000
268.253052	146.180000
268.346008	146.180000
268.438995	146.180000
268.531982	146.500000
268.624969	146.320000
268.717987	146.680000
268.810944	146.720000
268.903961	146.920000
268.996948	146.280000
269.089905	146.800000
269.182892	146.540000
269.275879	146.680000
269.368866	146.280000
269.461853	146.860000
269.554871	146.380000
269.647858	146.480000
269.740845	146.780000
269.833832	147.120000
269.926819	146.720000
270.019806	146.820000
270.112793	146.560000
270.205811	146.500000
270.298798	146.280000
270.391785	147.020000
270.484772	146.740000
270.577789	146.980000
270.670776	146.340000
270.763763	146.480000
270.856750	146.260000
270.949768	146.100000
271.042786	146.180000
271.135773	146.420000
271.228790	146.560000
271.321808	146.120000
271.414795	146.080000
271.507782	145.780000
271.600800	145.700000
271.693817	145.980000
271.786804	146.340000
271.879822	146.860000
271.972809	146.940000
272.065826	147.080000
272.158844	146.660000
272.251831	147.180000
272.344849	147.240000
272.437866	146.960000
272.530853	147.220000
272.623871	147.340000
272.716888	146.240000
272.809906	146.280000
272.902893	146.400000
272.995911	145.580000
273.088928	145.640000
273.181946	146.180000
273.274963	146.020000
273.367981	146.040000
273.460999	146.520000
273.554047	146.800000
273.647003	147.280000
273.740051	147.280000
273.833069	147.880000
273.926086	148.380000
274.019135	148.040000
274.112152	147.540000
274.205170	147.620000
274.298187	147.580000
274.391205	146.660000
274.484222	146.900000
274.577240	147.000000
274.670258	146.720000
274.763306	146.460000
274.856323	147.020000
274.949341	146.740000
275.042358	147.000000
275.135406	147.000000
275.228424	147.140000
275.321442	147.040000
275.414490	147.020000
275.507507	147.260000
275.600525	147.800000
275.693573	147.320000
275.786591	146.920000
275.879669	146.980000
275.972656	146.120000
276.065735	145.760000
276.158752	146.400000
276.251801	147.340000
276.344818	147.560000
276.437866	148.080000
276.530884	147.800000
276.623932	147.040000
276.716980	146.780000
276.809998	146.660000
276.903046	146.280000
276.996094	147.060000
277.089111	148.020000
277.182159	148.240000
277.275208	148.020000
277.368256	148.020000
277.461304	147.600000
277.554321	146.520000
277.647369	146.300000
277.740417	146.520000
277.833466	146.660000
277.926514	146.480000
278.019562	147.280000
278.112610	146.780000
278.205688	146.840000
278.298706	146.960000
278.391785	146.780000
278.484833	146.220000
278.577881	146.320000
278.670929	146.720000
278.763977	146.600000
278.857025	147.080000
278.950073	147.440000
279.043121	147.300000
279.136169	146.860000
279.229248	146.840000
279.322296	146.600000
279.415344	146.300000
279.508392	146.480000
279.601440	146.360000
279.694519	146.140000
279.787567	146.100000
279.880615	146.000000
279.973694	145.780000
280.066742	145.740000
280.159790	145.780000
280.252869	145.760000
280.345917	146.220000
280.438995	146.280000
280.532074	146.380000
280.625122	147.180000
280.718201	147.740000
280.811279	147.680000
280.904327	147.820000
280.997406	148.100000
281.090454	147.540000
281.183533	146.940000
281.276581	146.660000
281.369659	146.300000
281.462738	146.120000
281.555786	146.200000
281.648865	146.600000
281.741943	146.540000
281.835022	147.260000
281.928070	147.220000
282.021149	146.920000
282.114227	146.760000
282.207306	146.860000
282.300385	146.900000
282.393433	147.000000
282.486511	147.100000
282.579590	147.460000
282.672668	147.900000
282.765747	147.400000
282.858856	147.040000
282.951904	147.120000
283.045013	146.980000
283.138062	147.240000
283.231171	147.620000
283.324249	147.840000
283.417328	148.060000
283.510406	147.480000
283.603485	147.160000
283.696564	146.880000
283.789642	147.040000
283.882751	146.540000
283.975830	147.180000
284.068909	146.820000
284.161987	147.340000
284.255066	146.820000
284.348175	147.000000
284.441254	146.440000
284.534332	147.020000
284.627441	146.400000
284.720520	146.100000
284.813599	146.320000
284.906708	146.760000
284.999786	145.660000
285.092896	145.600000
285.185974	146.860000
285.279053	146.100000
285.372192	146.140000
285.465240	147.260000
285.558380	147.560000
285.651459	147.000000
285.744568	148.140000
285.837677	147.440000
285.930756	147.140000
286.023865	147.240000
286.116943	146.920000
286.210052	146.720000
286.303162	146.660000
286.396240	146.380000
286.489349	145.800000
286.582458	146.020000
286.675568	145.960000
286.768646	146.460000
286.861755	146.600000
286.954865	147.360000
287.047974	146.600000
287.141083	146.180000
287.234161	146.080000
287.327271	146.160000
287.420380	146.560000
287.513519	146.980000
287.606598	147.060000
287.699738	147.380000
287.792816	147.300000
287.885956	146.960000
287.979034	147.100000
288.072174	147.220000
288.165283	146.600000
288.258392	146.700000
288.351501	146.100000
288.444611	146.520000
288.537720	146.700000
288.630859	146.680000
288.723969	146.560000
288.817078	146.900000
288.910187	146.460000
289.003296	145.980000
289.096436	146.140000
289.189545	146.020000
289.282654	145.560000
289.375763	146.120000
289.468903	146.560000
289.562012	146.880000
289.655121	147.220000
289.748260	147.320000
289.841400	147.440000
289.934509	147.060000
290.027649	147.100000
290.120728	146.720000
290.213898	146.840000
290.306976	146.460000
290.400146	146.720000
290.493256	146.000000
290.586395	146.540000
290.679535	146.940000
290.772644	146.680000
290.865784	146.020000
290.958893	146.320000
291.052032	145.900000
291.145172	145.600000
291.238281	145.280000
291.331421	145.720000
291.424561	146.240000
291.517670	146.140000
291.610809	146.180000
291.703949	146.320000
291.797089	146.620000
291.890228	146.100000
291.983337	145.840000
292.076477	145.880000
292.169617	146.280000
292.262756	146.080000
292.355927	146.160000
292.449036	146.160000
292.542206	146.180000
292.635315	146.340000
292.728485	146.500000
292.821625	146.120000
292.914764	147.200000
293.007904	147.240000
293.101044	147.060000
293.194183	147.140000
293.287323	147.560000
293.380463	146.720000
293.473602	146.580000
293.566742	146.940000
293.659882	147.260000
293.753021	147.520000
293.846191	147.680000
293.939331	147.300000
294.032471	146.960000
294.125610	146.480000
294.218781	146.640000
294.311920	146.960000
294.405060	147.280000
294.498230	147.100000
294.591370	147.160000
294.684540	146.380000
294.777679	145.820000
294.870850	146.140000
294.963959	146.300000
295.057159	146.020000
295.150299	146.440000
295.243469	146.540000
295.336609	145.760000
295.429779	145.460000
295.522919	145.700000
295.616089	145.760000
295.709229	146.440000
295.802399	146.840000
295.895569	146.840000
295.988708	146.880000
296.081879	147.000000
296.175018	146.060000
296.268188	146.280000
296.361359	146.580000
296.454529	146.520000
296.547668	146.200000
296.640839	146.860000
296.734009	146.240000
296.827179	146.400000
296.920319	146.660000
297.013519	146.700000
297.106659	146.320000
297.199860	146.460000
297.292999	146.180000
297.386200	145.820000
297.479309	145.580000
297.572510	145.400000
297.665680	145.220000
297.758850	145.000000
297.852020	145.060000
297.945190	145.100000
298.038361	145.180000
298.131531	146.320000
298.224701	146.500000
298.317871	146.240000
298.411072	145.840000
298.504242	145.680000
298.597412	144.860000
298.690582	144.940000
298.783752	145.280000
298.876923	146.000000
298.970093	146.200000
299.063293	146.800000
299.156464	147.120000
299.249634	147.160000
299.342834	147.120000
299.436005	147.580000
299.529205	147.240000
299.622345	146.920000
299.715576	146.300000
299.808716	146.320000
299.901917	146.160000
299.995117	146.160000
300.088287	146.480000
300.181488	146.420000
300.274658	146.240000
300.367828	146.120000
300.461029	146.280000
300.554199	146.440000
300.647400	146.800000
300.740601	147.120000
300.833771	146.720000
300.926971	146.980000
301.020142	146.100000
301.113342	146.160000
301.206512	145.780000
301.299713	146.220000
301.392914	145.700000
301.486084	146.380000
301.579285	146.160000
301.672516	146.760000
301.765686	146.460000
301.858887	146.440000
301.952057	146.220000
302.045288	146.460000
302.138458	146.140000
302.231659	146.140000
302.324860	145.980000
302.418060	145.840000
302.511261	145.460000
302.604462	146.000000
302.697662	146.080000
302.790863	146.120000
302.884064	145.600000
302.977264	145.800000
303.070465	145.360000
303.163666	145.740000
303.256866	146.320000
303.350067	146.440000
303.443268	146.640000
303.536469	146.640000
303.629669	146.220000
303.722870	146.100000
303.816071	146.180000
303.909271	146.060000
304.002472	145.520000
304.095673	145.580000
304.188934	144.640000
304.282104	145.720000
304.375336	145.840000
304.468506	145.960000
304.561768	145.760000
304.654968	147.120000
304.748169	146.460000
304.841370	146.160000
304.934601	146.440000
305.027802	146.420000
305.121002	145.540000
305.214233	145.440000
305.307434	145.760000
305.400665	146.360000
305.493866	146.340000
305.587097	146.700000
305.680298	146.660000
305.773499	147.320000
305.866730	147.240000
305.959930	147.740000
306.053162	148.100000
306.146393	148.200000
306.239594	146.980000
306.332825	146.620000
306.426025	146.660000
306.519287	146.140000
306.612488	146.080000
306.705719	146.600000
306.798920	146.520000
306.892181	146.060000
306.985352	145.660000
307.078613	145.280000
307.171844	145.460000
307.265045	145.160000
307.358276	144.840000
307.451508	145.380000
307.544739	146.260000
307.637970	145.920000
307.731201	146.040000
307.824402	146.900000
307.917633	146.840000
308.010864	146.900000
308.104095	147.020000
308.197327	147.160000
308.290558	146.960000
308.383789	146.720000
308.477020	145.980000
308.570251	145.460000
308.663483	145.060000
308.756714	144.900000
308.849976	145.260000
308.943176	145.840000
309.036438	146.080000
309.129639	145.940000
309.222900	145.800000
309.316101	145.600000
309.409393	145.240000
309.502625	145.120000
309.595856	145.440000
309.689087	145.680000
309.782318	145.680000
309.875580	146.000000
309.968811	146.180000
310.062042	146.200000
310.155273	146.080000
310.248535	146.460000
310.341766	146.120000
310.434998	145.900000
310.528259	145.900000
310.621490	146.360000
310.714722	145.660000
310.807983	145.660000
310.901215	145.760000
310.994476	145.900000
311.087708	145.420000
311.181000	145.840000
311.274200	145.920000
311.367462	146.160000
311.460693	145.780000
311.553986	146.680000
311.647186	146.820000
311.740479	147.080000
311.833710	146.800000
311.926971	147.020000
312.020203	146.000000
312.113464	145.740000
312.206726	145.240000
312.299957	145.680000
312.393219	146.400000
312.486481	146.560000
312.579712	146.560000
312.672974	146.920000
312.766235	147.000000
312.859497	146.360000
312.952759	146.340000
313.045990	147.260000
313.139252	146.680000
313.232513	146.600000
313.325775	146.760000
313.419037	146.540000
313.512299	145.500000
313.605530	145.920000
313.698822	146.000000
313.792053	145.820000
313.885345	145.320000
313.978577	145.500000
314.071869	145.200000
314.165131	145.260000
314.258392	145.760000
314.351654	146.560000
314.444916	145.980000
314.538177	146.840000
314.631439	146.840000
314.724701	146.520000
314.817993	146.400000
314.911255	146.800000
315.004517	146.080000
315.097778	145.860000
315.191040	146.140000
315.284302	146.140000
315.377594	145.940000
315.470856	145.980000
315.564117	145.680000
315.657379	145.100000
315.750671	144.900000
315.843933	145.420000
315.937195	144.960000
316.030518	144.940000
316.123749	145.460000
316.217041	146.440000
316.310303	146.320000
316.403595	146.920000
316.496857	147.220000
316.590149	146.780000
316.683411	145.920000
316.776703	145.560000
316.869965	145.580000
316.963257	145.300000
317.056519	145.080000
317.149811	144.960000
317.243073	145.260000
317.336365	145.080000
317.429626	145.760000
317.522919	146.180000
317.616180	146.440000
317.709473	146.020000
317.802765	146.180000
317.896027	145.840000
317.989319	146.180000
318.082611	146.060000
318.175873	146.160000
318.269165	146.120000
318.362488	145.980000
318.455750	145.620000
318.549042	145.800000
318.642303	146.240000
318.735626	146.160000
318.828888	146.340000
318.922211	146.060000
319.015472	146.780000
319.108765	146.140000
319.202057	146.020000
319.295349	145.940000
319.388641	146.080000
319.481934	145.400000
319.575226	145.500000
319.668518	145.740000
319.761810	145.920000
319.855103	145.960000
319.948395	145.980000
320.041687	146.580000
320.134979	146.440000
320.228271	146.240000
320.321564	146.280000
320.414856	146.000000
320.508148	145.540000
320.601440	145.480000
320.694763	145.300000
320.788025	145.840000
320.881348	146.100000
320.974640	146.060000
321.067963	145.640000
321.161224	145.680000
321.254547	144.760000
321.347839	145.480000
321.441162	145.140000
321.534454	145.580000
321.627747	145.740000
321.721069	146.660000
321.814362	146.180000
321.907654	146.580000
322.000946	146.260000
322.094269	146.820000
322.187561	146.240000
322.280884	146.300000
322.374176	146.300000
322.467468	147.220000
322.560791	146.760000
322.654083	147.080000
322.747406	146.980000
322.840698	147.200000
322.934021	147.320000
323.027344	147.380000
323.120636	147.180000
323.213959	146.940000
323.307251	146.400000
323.400574	145.620000
323.493866	145.440000
323.587219	145.440000
323.680511	145.980000
323.773834	146.160000
323.867157	146.260000
323.960449	146.240000
324.053772	146.340000
324.147095	146.080000
324.240387	147.040000
324.333710	147.180000
324.427032	147.100000
324.520355	147.120000
324.613647	146.620000
324.706970	146.020000
324.800293	146.080000
324.893616	146.540000
324.986938	146.700000
325.080231	146.820000
325.173553	147.180000
325.266876	147.380000
325.360199	147.320000
325.453522	146.920000
325.546875	146.920000
325.640167	146.780000
325.733521	146.800000
325.826813	147.020000
325.920166	146.600000
326.013489	146.360000
326.106812	145.620000
326.200134	145.380000
326.293457	144.700000
326.386780	145.160000
326.480103	145.260000
326.573425	145.340000
326.666748	145.200000
326.760071	145.820000
326.853424	145.960000
326.946747	146.320000
327.040070	147.280000
327.133392	147.200000
327.226715	146.300000
327.320068	145.900000
327.413391	146.220000
327.506714	145.240000
327.600037	145.260000
327.693390	145.860000
327.786713	145.820000
327.880066	145.560000
327.973358	145.940000
328.066742	146.320000
328.160034	146.340000
328.253418	146.860000
328.346710	146.420000
328.440063	146.220000
328.533417	145.980000
328.626740	146.060000
328.720093	145.760000
328.813416	145.940000
328.906769	146.040000
329.000092	146.140000
329.093445	146.120000
329.186768	145.920000
329.280121	146.260000
329.373444	146.580000
329.466797	146.380000
329.560120	146.400000
329.653473	146.740000
329.746796	146.220000
329.840149	145.820000
329.933502	146.060000
330.026825	145.880000
330.120178	145.760000
330.213562	146.100000
330.306854	146.020000
330.400238	145.900000
330.493561	145.720000
330.586945	146.180000
330.680237	146.540000
330.773621	146.800000
330.866974	146.800000
330.960327	146.980000
331.053680	146.560000
331.147003	146.540000
331.240356	146.920000
331.333710	146.920000
331.427063	146.800000
331.520416	146.420000
331.613770	145.780000
331.707123	145.860000
331.800476	146.120000
331.893829	146.780000
331.987152	147.360000
332.080505	147.560000
332.173859	147.120000
332.267212	146.260000
332.360565	145.480000
332.453918	145.360000
332.547333	145.140000
332.640656	145.220000
332.734039	146.180000
332.827362	146.420000
332.920746	146.720000
333.014069	147.160000
333.107452	147.660000
333.200806	147.060000
333.294159	147.220000
333.387543	146.440000
333.480896	145.800000
333.574249	145.240000
333.667603	145.220000
333.760956	145.300000
333.854340	145.520000
333.947693	145.940000
334.041046	145.960000
334.134430	146.580000
334.227783	146.280000
334.321136	146.360000
334.414520	146.120000
334.507874	146.120000
334.601227	145.760000
334.694611	145.740000
334.787964	145.880000
334.881348	146.240000
334.974701	146.420000
335.068085	146.140000
335.161438	146.740000
335.254822	146.320000
335.348175	146.180000
335.441559	145.720000
335.534943	146.660000
335.628296	145.960000
335.721680	146.340000
335.815033	146.660000
335.908417	146.920000
336.001770	146.320000
336.095154	146.340000
336.188538	145.900000
336.281891	145.520000
336.375275	145.100000
336.468658	144.800000
336.562012	145.100000
336.655396	145.700000
336.748779	145.980000
336.842133	146.460000
336.935516	146.960000
337.028900	146.460000
337.122284	146.320000
337.215637	146.540000
337.309021	146.420000
337.402435	145.780000
337.495789	145.740000
337.589203	145.700000
337.682526	145.220000
337.775940	145.260000
337.869324	145.940000
337.962708	145.880000
338.056091	146.400000
338.149475	146.260000
338.242859	146.560000
338.336243	146.120000
338.429626	146.680000
338.523010	146.380000
338.616394	146.380000
338.709778	146.160000
338.803162	146.460000
338.896545	146.200000
338.989929	145.780000
339.083313	146.220000
339.176697	146.080000
339.270081	146.020000
339.363464	146.320000
339.456848	146.720000
339.550232	145.960000
339.643616	146.040000
339.737030	145.880000
339.830383	145.860000
339.923828	145.980000
340.017181	146.500000
340.110596	146.560000
340.203949	146.720000
340.297363	146.300000
340.390778	146.000000
340.484161	146.120000
340.577545	146.040000
340.670959	146.200000
340.764343	146.540000
340.857727	146.720000
340.951111	146.080000
341.044525	145.940000
341.137909	145.140000
341.231293	144.940000
341.324707	144.460000
341.418091	145.380000
341.511505	145.400000
341.604889	145.980000
341.698303	146.140000
341.791687	146.340000
341.885071	145.820000
341.978485	145.980000
342.071899	146.220000
342.165283	146.460000
342.258698	146.880000
342.352081	147.220000
342.445496	147.660000
342.538879	147.120000
342.632324	146.340000
342.725708	146.260000
342.819122	145.900000
342.912506	145.320000
343.005920	145.380000
343.099335	146.760000
343.192719	146.480000
343.286133	146.560000
343.379547	146.960000
343.472931	147.140000
343.566345	146.180000
343.659760	146.120000
343.753143	145.900000
343.846558	145.560000
343.939972	145.520000
344.033386	146.140000
344.126770	146.260000
344.220184	146.480000
344.313599	147.020000
344.407043	147.240000
344.500427	146.340000
344.593872	146.780000
344.687225	146.600000
344.780670	145.800000
344.874054	145.540000
344.967499	146.200000
345.060913	146.140000
345.154327	146.280000
345.247742	146.240000
345.341156	146.180000
345.434570	145.780000
345.527985	145.480000
345.621399	145.540000
345.714813	145.780000
345.808228	145.960000
345.901642	145.620000
345.995056	145.400000
346.088470	145.500000
346.181885	145.820000
346.275299	145.340000
346.368713	145.440000
346.462128	145.240000
346.555573	145.280000
346.648987	145.360000
346.742401	145.660000
346.835815	146.400000
346.929260	146.340000
347.022644	146.280000
347.116119	146.320000
347.209503	146.520000
347.302948	146.980000
347.396362	147.840000
347.489807	148.040000
347.583221	148.420000
347.676636	148.160000
347.770050	147.160000
347.863495	146.240000
347.956909	145.920000
348.050323	144.980000
348.143768	145.100000
348.237183	144.840000
348.330597	145.680000
348.424042	145.920000
348.517456	146.660000
348.610901	146.820000
348.704315	147.220000
348.797760	146.340000
348.891174	146.000000
348.984619	145.520000
349.078033	145.760000
349.171448	146.080000
349.264923	146.200000
349.358337	146.140000
349.451782	146.320000
349.545197	145.680000
349.638641	145.120000
349.732086	145.020000
349.825500	145.500000
349.918945	144.980000
350.012390	145.620000
350.105804	145.960000
350.199249	146.280000
350.292664	146.540000
350.386108	146.680000
350.479553	146.760000
350.572968	146.640000
350.666412	146.780000
350.759857	146.320000
350.853302	147.080000
350.946716	146.540000
351.040161	146.580000
351.133606	146.400000
351.227081	146.520000
351.320465	146.820000
351.413940	146.840000
351.507355	147.080000
351.600830	147.260000
351.694244	146.760000
351.787720	146.300000
351.881104	146.460000
351.974579	146.380000
352.067993	147.160000
352.161469	147.320000
352.254883	146.800000
352.348358	146.700000
352.441803	146.480000
352.535248	145.880000
352.628693	146.700000
352.722137	146.660000
352.815582	146.920000
352.909027	147.200000
353.002472	146.980000
353.095917	146.420000
353.189362	146.920000
353.282806	146.840000
353.376251	146.780000
353.469696	146.360000
353.563141	146.540000
353.656586	146.100000
353.750061	145.340000
353.843475	145.320000
353.936981	145.920000
354.030396	145.480000
354.123871	145.540000
354.217285	147.120000
354.310760	147.460000
354.404175	147.580000
354.497681	147.520000
354.591095	147.480000
354.684570	146.180000
354.777985	145.420000
354.871490	145.220000
354.964935	145.540000
355.058380	145.820000
355.151855	145.860000
355.245300	146.300000
355.338745	146.400000
355.432220	146.360000
355.525665	145.620000
355.619110	146.460000
355.712585	146.200000
355.806030	145.700000
355.899475	145.400000
355.992950	146.220000
356.086426	146.080000
356.179871	146.180000
356.273346	146.340000
356.366791	146.580000
356.460266	146.680000
356.553711	146.040000
356.647186	146.000000
356.740631	145.920000
356.834106	145.640000
356.927551	145.660000
357.021027	145.660000
357.114471	145.720000
357.207947	146.100000
357.301422	146.280000
357.394867	146.020000
357.488342	146.300000
357.581818	146.580000
357.675262	146.460000
357.768738	146.520000
357.862213	146.220000
357.955658	146.340000
358.049133	146.060000
358.142609	146.480000
358.236053	146.220000
358.329529	146.420000
358.423035	146.580000
358.516449	146.360000
358.609955	146.460000
358.703400	147.260000
358.796906	147.500000
358.890350	146.780000
358.983826	147.120000
359.077271	146.320000
359.170776	145.860000
359.264221	145.400000
359.357727	145.980000
359.451172	146.020000
359.544647	146.280000
359.638123	146.140000
359.731598	146.340000
359.825073	146.440000
359.918549	146.140000
360.012024	146.000000
360.105499	145.780000
360.198975	145.860000
360.292450	145.620000
360.385925	145.720000
360.479401	145.560000
360.572876	146.000000
360.666351	146.460000
360.759857	146.400000
360.853302	146.380000
360.946808	146.060000
361.040253	145.740000
361.133759	145.040000
361.227203	145.240000
361.320709	144.980000
361.414154	145.960000
361.507660	146.440000
361.601105	146.840000
361.694641	147.340000
361.788086	147.760000
361.881592	147.960000
361.975067	147.400000
362.068542	147.720000
362.162018	147.320000
362.255524	146.820000
362.348999	146.520000
362.442474	147.040000
362.535950	146.380000
362.629456	146.380000
362.722931	146.660000
362.816406	146.860000
362.909882	146.800000
363.003387	146.580000
363.096863	146.720000
363.190338	146.580000
363.283875	146.060000
363.377319	145.780000
363.470825	146.220000
363.564301	145.520000
363.657806	145.840000
363.751282	145.460000
363.844788	146.160000
363.938232	145.740000
364.031769	146.740000
364.125214	146.720000
364.218750	147.460000
364.312225	146.360000
364.405731	147.040000
364.499207	146.260000
364.592712	145.880000
364.686188	145.460000
364.779694	145.980000
364.873169	145.620000
364.966675	145.580000
365.060150	145.940000
365.153656	146.720000
365.247131	146.940000
365.340637	146.820000
365.434143	147.640000
365.527618	147.560000
365.621155	146.420000
365.714600	146.020000
365.808136	146.360000
365.901611	145.240000
365.995117	145.060000
366.088593	145.480000
366.182129	145.540000
366.275604	145.700000
366.369110	146.160000
366.462585	146.240000
366.556122	146.660000
366.649567	146.660000
366.743103	146.600000
366.836609	146.020000
366.930115	146.260000
367.023590	146.040000
367.117096	146.000000
367.210602	146.000000
367.304108	146.860000
367.397614	147.400000
367.491119	147.660000
367.584595	147.840000
367.678101	147.760000
367.771606	147.260000
367.865112	146.400000
367.958649	145.680000
368.052124	145.380000
368.145660	145.100000
368.239136	145.760000
368.332672	145.980000
368.426147	146.360000
368.519684	146.440000
368.613159	146.980000
368.706696	146.200000
368.800171	146.140000
368.893707	146.020000
368.987183	146.280000
369.080719	145.920000
369.174225	145.960000
369.267731	146.280000
369.361237	146.340000
369.454742	146.140000
369.548248	146.360000
369.641754	146.320000
369.735260	145.980000
369.828766	145.280000
369.922272	146.020000
370.015808	145.480000
370.109314	145.660000
370.202820	145.580000
370.296356	146.980000
370.389832	146.440000
370.483368	146.380000
370.576874	146.360000
370.670410	146.940000
370.763885	145.680000
370.857422	145.460000
370.950928	145.660000
371.044464	146.300000
371.137939	146.000000
371.231476	146.780000
371.324982	147.400000
371.418518	147.420000
371.512024	147.120000
371.605560	147.020000
371.699066	147.180000
371.792572	146.400000
371.886108	147.080000
371.979614	146.640000
372.073120	147.020000
372.166656	146.660000
372.260162	147.060000
372.353668	146.400000
372.447205	146.480000
372.540710	146.180000
372.634277	146.020000
372.727753	146.140000
372.821320	145.960000
372.914795	145.960000
373.008362	145.820000
373.101837	145.880000
373.195404	145.600000
373.288879	145.620000
373.382446	146.560000
373.475922	146.740000
373.569489	147.420000
373.662964	147.660000
373.756531	147.860000
373.850037	147.260000
373.943573	147.120000
374.037109	145.900000
374.130615	146.040000
374.224152	146.120000
374.317657	145.820000
374.411194	146.500000
374.504730	146.780000
374.598236	146.420000
374.691772	145.980000
374.785309	146.020000
374.878815	145.040000
374.972351	145.880000
375.065887	145.620000
375.159454	146.460000
375.252930	146.400000
375.346497	146.820000
375.440002	146.900000
375.533569	147.040000
375.627045	146.140000
375.720612	146.320000
375.814117	146.480000
375.907684	145.700000
376.001160	145.580000
376.094727	145.640000
376.188232	146.300000
376.281799	146.480000
376.375336	146.540000
376.468872	147.500000
376.562408	148.140000
376.655914	147.360000
376.749451	147.060000
376.842987	147.200000
376.936523	146.560000
377.030060	146.260000
377.123596	146.560000
377.217133	145.820000
377.310669	145.960000
377.404205	146.320000
377.497772	146.840000
377.591278	146.600000
377.684845	147.740000
377.778351	147.840000
377.871918	147.540000
377.965424	146.560000
378.058990	146.600000
378.152496	146.100000
378.246063	146.060000
378.339569	146.380000
378.433136	146.720000
378.526642	146.960000
378.620209	146.820000
378.713745	146.320000
378.807312	146.300000
378.900848	146.160000
378.994385	145.960000
379.087921	145.560000
379.181458	146.080000
379.274994	145.420000
379.368530	145.420000
379.462097	145.680000
379.555634	146.420000
379.649170	145.640000
379.742706	145.700000
379.836273	145.980000
379.929810	145.500000
380.023376	144.940000
380.116882	144.960000
380.210449	144.960000
380.303986	144.740000
380.397552	144.680000
380.491058	145.320000
380.584656	145.640000
380.678162	145.780000
380.771729	145.980000
380.865265	147.180000
380.958832	146.980000
381.052368	147.160000
381.145935	147.640000
381.239471	147.820000
381.333008	146.980000
381.426575	146.800000
381.520111	147.260000
381.613647	147.320000
381.707214	146.740000
381.800751	146.020000
381.894318	146.380000
381.987854	145.380000
382.081421	145.200000
382.174988	145.740000
382.268524	146.060000
382.362091	145.720000
382.455627	147.020000
382.549194	146.680000
382.642731	145.700000
382.736298	145.500000
382.829834	145.460000
382.923401	145.580000
383.016937	145.880000
383.110504	146.900000
383.204041	147.280000
383.297607	147.620000
383.391174	146.460000
383.484741	146.900000
383.578278	146.420000
383.671844	146.020000
383.765411	145.240000
383.858948	145.860000
383.952515	145.600000
384.046051	145.860000
384.139618	146.520000
384.233185	146.920000
384.326721	146.800000
384.420288	147.220000
384.513855	147.100000
384.607422	147.100000
384.700989	147.580000
384.794525	147.000000
384.888123	146.780000
384.981659	146.800000
385.075226	146.480000
385.168762	145.740000
385.262360	145.980000
385.355896	144.800000
385.449463	144.740000
385.542999	144.800000
385.636597	145.820000
385.730164	146.140000
385.823730	146.360000
385.917267	146.360000
386.010834	146.420000
386.104401	146.180000
386.197968	146.400000
386.291534	146.980000
386.385101	146.700000
386.478668	147.040000
386.572235	146.740000
386.665802	146.320000
386.759338	145.920000
386.852905	146.140000
386.946472	145.700000
387.040070	145.700000
387.133606	145.820000
387.227203	145.780000
387.320740	146.300000
387.414337	146.300000
387.507874	145.980000
387.601471	145.940000
387.695007	145.900000
387.788605	145.480000
387.882141	145.800000
387.975739	145.880000
388.069275	145.620000
388.162872	145.980000
388.256439	145.920000
388.350037	145.400000
388.443604	145.420000
388.537170	145.420000
388.630737	145.680000
388.724304	145.860000
388.817871	145.760000
388.911438	145.660000
389.005005	145.920000
389.098602	146.220000
389.192169	145.700000
389.285736	146.460000
389.379333	146.640000
389.472870	146.240000
389.566467	145.900000
389.660034	146.120000
389.753632	145.300000
389.847168	145.620000
389.940765	145.960000
390.034332	146.160000
390.127930	146.000000
390.221466	146.180000
390.315063	145.720000
390.408630	145.160000
390.502228	144.160000
390.595795	144.600000
390.689362	144.640000
390.782959	144.900000
390.876526	145.720000
390.970093	145.920000
391.063690	146.280000
391.157257	146.380000
391.250824	146.520000
391.344421	146.160000
391.437988	146.640000
391.531555	146.240000
391.625153	146.520000
391.718750	146.620000
391.812317	146.720000
391.905914	146.280000
391.999481	146.440000
392.093079	146.440000
392.186615	146.660000
392.280243	146.560000
392.373779	147.160000
392.467407	147.580000
392.560944	147.080000
392.654572	146.500000
392.748108	146.520000
392.841736	146.120000
392.935303	145.660000
393.028900	145.900000
393.122467	145.860000
393.216064	145.700000
393.309631	145.220000
393.403229	144.820000
393.496796	144.900000
393.590393	144.520000
393.683990	144.620000
393.777557	145.520000
393.871155	145.560000
393.964722	145.980000
394.058350	146.280000
394.151917	146.380000
394.245514	145.580000
394.339081	146.140000
394.432678	145.920000
394.526245	146.120000
394.619873	145.800000
394.713409	146.400000
394.807037	146.000000
394.900604	146.120000
394.994202	146.220000
395.087769	146.700000
395.181396	146.260000
395.274994	147.100000
395.368561	146.420000
395.462158	146.660000
395.555756	146.240000
395.649353	146.580000
395.742920	146.060000
395.836517	146.900000
395.930115	146.000000
396.023712	146.140000
396.117279	146.420000
396.210876	146.000000
396.304474	145.540000
396.398071	145.860000
396.491669	146.220000
396.585266	145.760000
396.678833	145.940000
396.772461	146.380000
396.866028	146.660000
396.959656	146.800000
397.053223	147.320000
397.146851	147.260000
397.240417	147.700000
397.334015	149.020000
397.427582	149.920000
397.521210	151.300000
397.614807	153.880000
397.708405	156.700000
397.802002	159.900000
397.895599	164.520000
397.989197	169.480000
398.082794	175.320000
398.176392	182.940000
398.269989	191.700000
398.363586	202.320000
398.457184	216.700000
398.550781	233.300000
398.644379	250.340000
398.737976	270.580000
398.831573	291.560000
398.925201	311.680000
399.018768	332.300000
399.112396	352.620000
399.205963	371.380000
399.299591	389.220000
399.393158	406.580000
399.486786	423.960000
399.580353	440.420000
399.673981	455.780000
399.767578	471.920000
399.861206	485.900000
399.954773	496.900000
400.048401	502.860000
400.141998	504.040000
400.235596	499.600000
400.329193	490.900000
400.422791	477.860000
400.516418	463.140000
400.610016	448.640000
400.703613	432.800000
400.797211	413.780000
400.890808	393.500000
400.984436	373.420000
401.078033	350.780000
401.171631	327.500000
401.265259	305.900000
401.358826	285.740000
401.452484	266.120000
401.546051	248.760000
401.639679	231.460000
401.733246	216.940000
401.826904	202.980000
401.920471	191.020000
402.014099	181.020000
402.107697	173.660000
402.201324	167.580000
402.294891	163.100000
402.388550	159.440000
402.482147	156.260000
402.575745	153.620000
402.669373	151.160000
402.762970	149.400000
402.856567	148.740000
402.950195	148.060000
403.043793	147.300000
403.137390	147.760000
403.231018	146.920000
403.324615	147.080000
403.418243	146.440000
403.511841	147.220000
403.605469	146.840000
403.699066	147.400000
403.792694	147.180000
403.886292	147.500000
403.979919	147.220000
404.073517	146.960000
404.167145	147.580000
404.260712	147.620000
404.354370	147.420000
404.447937	147.280000
404.541595	147.360000
404.635162	147.200000
404.728821	147.540000
404.822418	147.020000
404.916046	147.000000
405.009644	147.180000
405.103271	147.380000
405.196899	146.800000
405.290497	147.400000
405.384125	147.880000
405.477722	147.360000
405.571350	146.660000
405.664948	146.800000
405.758575	146.480000
405.852203	145.660000
405.945801	145.880000
406.039429	145.900000
406.133057	145.440000
406.226654	145.620000
406.320312	145.620000
406.413879	145.680000
406.507538	146.120000
406.601135	146.080000
406.694763	146.400000
406.788361	146.460000
406.882019	145.940000
406.975586	146.080000
407.069244	146.760000
407.162872	146.640000
407.256470	146.700000
407.350098	147.100000
407.443726	146.520000
407.537323	145.980000
407.630951	145.960000
407.724579	145.680000
407.818207	145.980000
407.911804	145.820000
408.005432	145.640000
408.099060	145.740000
408.192688	146.300000
408.286285	146.020000
408.379913	146.080000
408.473572	146.440000
408.567169	145.920000
408.660828	145.720000
408.754395	145.680000
408.848053	145.500000
408.941650	145.660000
409.035309	145.380000
409.128906	145.180000
409.222565	144.960000
409.316132	145.540000
409.409790	145.140000
409.503387	145.640000
409.597046	145.880000
409.690674	146.100000
409.784302	145.660000
409.877930	145.660000
409.971558	145.760000
410.065186	145.800000
410.158783	146.080000
410.252411	146.280000
410.346039	146.460000
410.439667	146.340000
410.533295	146.420000
410.626923	146.500000
410.720551	146.340000
410.814209	146.840000
410.907806	146.900000
411.001465	146.600000
411.095062	146.560000
411.188721	146.740000
411.282318	146.240000
411.375977	146.020000
411.469574	145.900000
411.563232	145.520000
411.656830	145.360000
411.750488	145.120000
411.844086	144.900000
411.937744	144.960000
412.031372	144.800000
412.125000	144.920000
412.218628	145.000000
412.312256	145.940000
412.405884	146.380000
412.499512	146.520000
412.593170	146.680000
412.686798	147.200000
412.780426	146.640000
412.874054	146.700000
412.967682	146.780000
413.061310	147.220000
413.154968	147.240000
413.248566	147.200000
413.342224	146.840000
413.435852	146.800000
413.529510	146.160000
413.623108	145.240000
413.716766	145.280000
413.810364	145.600000
413.904022	145.540000
413.997650	145.260000
414.091309	146.360000
414.184906	146.040000
414.278564	145.620000
414.372192	145.920000
414.465851	146.360000
414.559479	145.920000
414.653107	146.780000
414.746735	146.960000
414.840393	146.960000
414.934021	146.980000
415.027649	146.720000
415.121277	146.420000
415.214935	146.560000
415.308563	146.380000
415.402191	145.920000
415.495850	145.880000
415.589478	145.500000
415.683136	145.460000
415.776733	145.700000
415.870422	146.300000
415.964020	146.120000
416.057678	146.540000
416.151306	146.560000
416.244965	146.440000
416.338562	146.520000
416.432251	147.280000
416.525848	147.820000
416.619507	148.120000
416.713165	148.400000
416.806793	148.180000
416.900421	148.040000
416.994080	147.040000
417.087708	146.900000
417.181366	146.400000
417.274994	146.500000
417.368622	146.720000
417.462280	147.560000
417.555908	147.460000
417.649567	147.420000
417.743195	147.200000
417.836853	147.040000
417.930481	146.600000
418.024170	146.900000
418.117767	147.600000
418.211426	148.180000
418.305054	148.200000
418.398712	147.880000
418.492340	147.460000
418.585999	147.520000
418.679626	147.280000
418.773285	147.140000
418.866913	147.680000
418.960571	147.860000
419.054230	147.460000
419.147858	147.180000
419.241516	147.360000
419.335144	146.980000
419.428802	146.880000
419.522461	146.920000
419.616089	146.680000
419.709747	146.420000
419.803375	146.620000
419.897034	146.420000
419.990662	146.100000
420.084320	146.640000
420.177979	147.080000
420.271606	146.920000
420.365295	147.260000
420.458893	147.600000
420.552582	147.660000
420.646210	147.520000
420.739868	147.540000
420.833496	147.340000
420.927155	146.840000
421.020782	146.400000
421.114471	145.620000
421.208069	145.880000
421.301758	146.300000
421.395386	146.460000
421.489044	146.580000
421.582703	146.880000
421.676361	147.060000
421.769989	146.340000
421.863647	146.940000
421.957306	146.920000
422.050934	147.000000
422.144592	146.820000
422.238251	146.840000
422.331909	146.100000
422.425537	145.780000
422.519196	145.800000
422.612854	145.360000
422.706543	145.120000
422.800140	145.600000
422.893829	145.420000
422.987457	145.240000
423.081146	145.720000
423.174744	146.320000
423.268433	146.060000
423.362061	146.280000
423.455750	146.260000
423.549347	146.080000
423.643036	145.440000
423.736664	146.060000
423.830353	145.880000
423.924011	146.240000
424.017639	145.580000
424.111298	145.900000
424.204956	145.440000
424.298615	145.840000
424.392273	145.520000
424.485931	146.040000
424.579559	146.100000
424.673218	145.920000
424.766876	146.000000
424.860535	146.040000
424.954193	145.800000
425.047882	145.960000
425.141510	146.140000
425.235199	145.880000
425.328796	145.680000
425.422485	145.840000
425.516113	145.360000
425.609802	145.400000
425.703430	145.360000
425.797119	145.180000
425.890747	145.120000
425.984436	145.320000
426.078064	145.200000
426.171753	145.820000
426.265411	145.880000
426.359070	146.240000
426.452728	146.340000
426.546356	146.180000
426.640015	145.780000
426.733673	145.960000
426.827332	145.260000
426.920990	146.060000
427.014648	145.760000
427.108307	145.980000
427.201965	146.820000
427.295624	147.240000
427.389282	146.100000
427.482941	146.340000
427.576630	146.020000
427.670258	145.100000
427.763947	145.180000
427.857574	145.480000
427.951263	145.220000
428.044922	145.180000
428.138611	145.260000
428.232239	145.440000
428.325928	145.900000
428.419556	146.640000
428.513245	146.480000
428.606903	146.880000
428.700562	146.320000
428.794220	145.540000
428.887878	145.200000
428.981537	145.380000
429.075195	145.200000
429.168854	145.840000
429.262512	146.260000
429.356201	146.280000
429.449860	146.240000
429.543518	146.220000
429.637177	146.100000
429.730835	146.180000
429.824493	146.280000
429.918182	146.680000
430.011810	146.040000
430.105530	145.440000
430.199158	145.320000
430.292847	145.020000
430.386475	144.700000
430.480164	145.000000
430.573792	145.000000
430.667511	144.740000
430.761139	144.760000
430.854828	145.080000
430.948456	145.440000
431.042145	146.000000
431.135834	146.220000
431.229492	146.400000
431.323151	146.300000
431.416809	146.380000
431.510468	146.060000
431.604156	146.060000
431.697815	146.000000
431.791473	145.320000
431.885132	144.740000
431.978821	145.220000
432.072479	145.300000
432.166138	145.960000
432.259827	146.420000
432.353485	146.920000
432.447174	146.760000
432.540802	146.440000
432.634491	146.020000
432.728149	146.100000
432.821838	146.400000
432.915466	145.900000
433.009186	146.260000
433.102814	145.800000
433.196503	145.620000
433.290131	145.180000
433.383850	145.640000
433.477509	145.440000
433.571167	146.260000
433.664856	146.740000
433.758514	147.340000
433.852173	147.180000
433.945862	147.100000
434.039520	146.540000
434.133179	145.900000
434.226868	145.340000
434.320526	144.760000
434.414185	145.180000
434.507874	145.100000
434.601562	145.520000
434.695221	145.140000
434.788910	145.760000
434.882538	145.940000
434.976257	145.960000
435.069885	145.960000
435.163574	146.400000
435.257233	145.880000
435.350922	145.600000
435.444580	145.420000
435.538269	144.880000
435.631897	145.220000
435.725616	146.040000
435.819275	146.180000
435.912964	146.580000
436.006622	147.400000
436.100311	147.040000
436.193970	145.940000
436.287628	145.960000
436.381317	145.880000
436.474976	145.320000
436.568665	144.980000
436.662323	145.740000
436.756012	145.580000
436.849670	145.280000
436.943390	145.220000
437.037018	145.360000
437.130737	145.240000
437.224365	145.040000
437.318085	145.240000
437.411713	145.600000
437.505432	146.220000
437.599060	146.940000
437.692780	147.600000
437.786407	147.360000
437.880127	147.320000
437.973755	146.900000
438.067474	146.000000
438.161133	145.860000
438.254822	146.480000
438.348480	146.020000
438.442169	146.640000
438.535828	147.060000
438.629517	146.540000
438.723175	145.800000
438.816864	146.300000
438.910553	145.480000
439.004211	145.000000
439.097900	144.700000
439.191559	144.720000
439.285248	144.060000
439.378906	144.400000
439.472626	144.520000
439.566284	144.760000
439.659973	145.200000
439.753632	145.400000
439.847321	145.680000
439.940979	145.960000
440.034698	146.060000
440.128326	145.720000
440.222046	145.760000
440.315674	145.000000
440.409393	144.940000
440.503082	144.660000
440.596741	144.760000
440.690430	144.940000
440.784088	144.900000
440.877777	144.220000
440.971466	144.500000
441.065125	144.520000
441.158813	144.340000
441.252502	144.820000
441.346161	145.500000
441.439850	145.900000
441.533539	145.780000
441.627197	146.280000
441.720886	146.040000
441.814606	146.400000
441.908234	146.540000
442.001953	146.780000
442.095612	146.720000
442.189301	147.240000
442.282959	146.900000
442.376678	146.060000
442.470306	146.880000
442.564026	146.560000
442.657684	146.440000
442.751404	146.600000
442.845032	147.620000
442.938751	146.580000
443.032440	146.480000
443.126099	146.020000
443.219788	146.180000
443.313477	145.840000
443.407166	146.180000
443.500824	146.380000
443.594513	146.640000
443.688202	146.220000
443.781891	145.580000
443.875549	145.100000
443.969238	145.040000
444.062927	145.100000
444.156647	145.160000
444.250275	145.820000
444.343994	146.320000
444.437653	146.340000
444.531372	146.220000
444.625031	145.940000
444.718719	145.300000
444.812378	144.940000
444.906097	144.940000
444.999756	144.500000
445.093445	145.060000
445.187103	145.240000
445.280823	145.540000
445.374512	145.020000
445.468201	145.480000
445.561859	145.020000
445.655548	145.220000
445.749237	144.840000
445.842926	145.200000
445.936615	145.640000
446.030304	145.460000
446.123962	145.780000
446.217651	145.880000
446.311340	146.240000
446.405029	145.620000
446.498749	145.660000
446.592407	145.060000
446.686096	145.380000
446.779755	145.360000
446.873474	145.600000
446.967133	146.020000
447.060852	145.820000
447.154510	145.840000
447.248230	145.860000
447.341858	145.780000
447.435577	145.340000
447.529236	145.320000
447.622955	144.940000
447.716644	144.880000
447.810333	144.720000
447.904022	145.360000
447.997711	145.540000
448.091400	145.960000
448.185059	145.600000
448.278748	145.860000
448.372437	145.580000
448.466125	145.740000
448.559814	145.620000
448.653503	146.380000
448.747192	146.540000
448.840912	146.940000
448.934570	147.260000
449.028290	147.680000
449.121948	147.060000
449.215637	146.760000
449.309296	146.080000
449.403015	146.080000
449.496674	145.740000
449.590393	145.800000
449.684052	145.640000
449.777771	146.740000
449.871429	146.220000
449.965149	146.260000
450.058838	146.500000
450.152527	147.040000
450.246216	146.220000
450.339905	146.320000
450.433594	145.860000
450.527283	146.400000
450.620972	145.960000
450.714661	146.000000
450.808350	146.300000
450.902039	146.720000
450.995728	146.200000
451.089417	146.140000
451.183105	146.100000
451.276794	146.080000
451.370514	145.600000
451.464172	144.820000
451.557892	144.620000
451.651550	144.740000
451.745270	144.460000
451.838928	144.240000
451.932648	144.900000
452.026306	145.640000
452.120026	145.560000
452.213684	146.080000
452.307404	146.440000
452.401062	146.360000
452.494781	146.480000
452.588470	146.480000
452.682159	145.740000
452.775848	145.960000
452.869537	145.640000
452.963226	145.120000
453.056915	145.220000
453.150604	145.700000
453.244293	145.840000
453.337982	146.880000
453.431671	147.060000
453.525360	147.600000
453.619049	147.660000
453.712769	147.600000
453.806427	146.920000
453.900146	146.840000
453.993805	146.440000
454.087555	146.760000
454.181213	146.860000
454.274933	146.320000
454.368591	146.000000
454.462311	145.760000
454.555969	145.280000
454.649689	145.740000
454.743347	146.040000
454.837067	146.980000
454.930756	147.540000
455.024445	147.680000
455.118134	146.940000
455.211853	147.320000
455.305542	146.820000
455.399231	146.480000
455.492920	146.180000
455.586609	146.420000
455.680298	146.680000
455.773987	146.140000
455.867676	146.140000
455.961365	146.660000
456.055084	146.400000
456.148773	145.720000
456.242493	146.020000
456.336151	145.980000
456.429871	146.180000
456.523529	146.720000
456.617249	146.560000
456.710907	147.160000
456.804626	146.820000
456.898315	146.300000
456.992035	145.960000
457.085693	145.940000
457.179413	145.100000
457.273102	146.140000
457.366791	145.920000
457.460480	146.240000
457.554199	147.160000
457.647888	147.360000
457.741577	146.780000
457.835266	147.300000
457.928955	147.100000
458.022644	147.140000
458.116364	147.540000
458.210052	147.360000
458.303741	147.340000
458.397461	146.920000
458.491119	146.120000
458.584839	146.140000
458.678528	145.680000
458.772247	145.360000
458.865906	145.360000
458.959625	146.640000
459.053284	146.480000
459.147003	146.360000
459.240692	146.780000
459.334412	147.040000
459.428070	146.300000
459.521790	146.100000
459.615479	146.500000
459.709198	146.560000
459.802887	146.320000
459.896576	145.840000
459.990265	146.020000
460.083954	146.200000
460.177673	145.580000
460.271362	145.780000
460.365051	145.980000
460.458740	145.580000
460.552429	145.120000
460.646149	145.280000
460.739838	145.060000
460.833527	145.060000
460.927246	145.200000
461.020905	145.180000
461.114655	145.260000
461.208313	145.780000
461.302032	145.220000
461.395691	145.840000
461.489441	145.980000
461.583099	145.720000
461.676819	145.320000
461.770477	146.140000
461.864197	145.360000
461.957916	145.440000
462.051605	145.320000
462.145294	146.060000
462.238983	145.460000
462.332703	146.160000
462.426392	146.800000
462.520081	146.840000
462.613770	146.020000
462.707489	146.440000
462.801178	145.800000
462.894867	145.160000
462.988556	145.300000
463.082275	145.740000
463.175964	145.280000
463.269684	145.800000
463.363342	145.760000
463.457092	145.360000
463.550751	145.080000
463.644470	145.540000
463.738129	145.180000
463.831879	145.380000
463.925537	146.260000
464.019257	146.620000
464.112946	146.620000
464.206665	146.560000
464.300323	146.500000
464.394043	145.800000
464.487762	145.360000
464.581451	145.680000
464.675140	145.680000
464.768829	145.900000
464.862549	146.320000
464.956238	146.440000
465.049927	146.260000
465.143646	146.580000
465.237335	146.600000
465.331024	147.140000
465.424713	147.220000
465.518433	147.040000
465.612152	146.600000
465.705811	146.480000
465.799561	145.720000
465.893219	145.780000
465.986938	145.700000
466.080597	145.860000
466.174347	145.840000
466.268005	146.220000
466.361725	146.120000
466.455414	146.220000
466.549133	146.120000
466.642792	146.340000
466.736542	145.960000
466.830231	146.200000
466.923920	146.040000
467.017609	146.400000
467.111328	145.880000
467.205017	146.020000
467.298706	145.700000
467.392426	145.960000
467.486115	145.980000
467.579803	146.060000
467.673523	146.480000
467.767212	146.700000
467.860901	146.500000
467.954651	146.680000
468.048309	146.880000
468.142029	146.520000
468.235718	146.620000
468.329437	146.600000
468.423096	146.240000
468.516846	146.200000
468.610504	146.020000
468.704224	145.380000
468.797913	145.280000
468.891632	145.480000
468.985291	145.500000
469.079010	145.720000
469.172729	145.720000
469.266418	146.360000
469.360107	146.300000
469.453827	146.200000
469.547516	146.240000
469.641205	146.880000
469.734924	146.520000
469.828613	146.580000
469.922302	146.700000
470.016022	146.320000
470.109711	145.880000
470.203430	145.460000
470.297150	144.700000
470.390808	144.660000
470.484558	144.420000
470.578217	144.820000
470.671936	145.460000
470.765625	146.260000
470.859344	146.140000
470.953003	146.800000
471.046753	146.460000
471.140411	145.640000
471.234131	145.660000
471.327820	146.180000
471.421539	145.960000
471.515228	145.500000
471.608948	146.000000
471.702637	145.500000
471.796326	145.060000
471.890045	145.580000
471.983734	146.240000
472.077423	145.840000
472.171143	146.140000
472.264832	146.120000
472.358521	145.440000
472.452240	145.100000
472.545929	145.980000
472.639648	146.260000
472.733337	146.420000
472.827057	146.800000
472.920746	146.960000
473.014465	146.880000
473.108124	146.580000
473.201874	146.680000
473.295532	146.180000
473.389252	146.280000
473.482941	146.200000
473.576660	145.920000
473.670319	145.660000
473.764069	145.920000
473.857727	146.240000
473.951477	146.360000
474.045166	146.760000
474.138855	146.620000
474.232574	146.460000
474.326263	146.140000
474.419952	146.100000
474.513672	146.120000
474.607361	146.180000
474.701050	146.860000
474.794769	147.260000
474.888458	147.420000
474.982178	147.560000
475.075867	147.860000
475.169586	147.600000
475.263275	147.400000
475.356995	146.920000
475.450653	146.220000
475.544403	145.600000
475.638062	146.160000
475.731812	145.780000
475.825470	145.780000
475.919189	145.960000
476.012878	146.500000
476.106598	145.660000
476.200256	146.040000
476.294006	146.060000
476.387695	146.320000
476.481384	146.060000
476.575104	146.200000
476.668793	145.820000
476.762512	145.680000
476.856201	146.320000
476.949890	146.220000
477.043610	145.900000
477.137299	146.120000
477.230988	146.360000
477.324707	145.540000
477.418396	146.040000
477.512146	146.120000
477.605804	146.000000
477.699524	146.240000
477.793213	146.220000
477.886932	146.120000
477.980591	146.160000
478.074341	145.760000
478.167999	145.100000
478.261749	145.360000
478.355408	144.920000
478.449127	145.320000
478.542816	146.620000
478.636536	147.580000
478.730225	147.960000
478.823944	148.360000
478.917633	148.320000
479.011322	147.920000
479.105042	147.500000
479.198730	147.220000
479.292450	147.040000
479.386139	146.920000
479.479828	146.980000
479.573547	147.500000
479.667267	147.260000
479.760925	147.300000
479.854675	147.180000
479.948334	146.940000
480.042084	145.920000
480.135742	146.240000
480.229462	145.980000
480.323151	146.220000
480.416870	145.860000
480.510529	146.300000
480.604279	145.740000
480.697937	146.380000
480.791656	145.860000
480.885345	145.640000
480.979065	145.220000
481.072754	146.100000
481.166473	146.280000
481.260132	146.340000
481.353882	146.740000
481.447540	146.700000
481.541260	146.140000
481.635010	145.460000
481.728668	145.580000
481.822388	145.420000
481.916077	145.800000
482.009796	145.720000
482.103485	146.140000
482.197205	146.240000
482.290863	146.420000
482.384613	146.160000
482.478271	145.820000
482.571991	145.520000
482.665680	145.500000
482.759399	145.880000
482.853058	146.360000
482.946808	146.560000
483.040466	146.540000
483.134216	146.460000
483.227875	145.980000
483.321594	146.140000
483.415283	146.440000
483.509003	146.400000
483.602661	146.320000
483.696411	146.600000
483.790070	146.380000
483.883789	146.380000
483.977478	146.960000
484.071198	147.160000
484.164917	146.680000
484.258606	146.240000
484.352325	146.280000
484.445984	145.780000
484.539734	145.800000
484.633392	145.360000
484.727142	146.040000
484.820801	145.780000
484.914520	145.840000
485.008209	145.980000
485.101929	146.840000
485.195587	146.140000
485.289337	146.040000
485.382996	146.120000
485.476715	146.040000
485.570404	146.260000
485.664124	146.580000
485.757782	147.200000
485.851532	146.840000
485.945190	146.520000
486.038910	146.280000
486.132599	146.460000
486.226318	145.880000
486.319977	146.160000
486.413727	146.900000
486.507446	146.440000
486.601105	145.860000
486.694855	145.660000
486.788513	145.380000
486.882233	144.960000
486.975922	145.260000
487.069641	145.360000
487.163300	145.400000
487.257050	146.640000
487.350708	146.340000
487.444427	145.860000
487.538116	145.920000
487.631836	146.140000
487.725494	145.300000
487.819214	145.400000
487.912903	145.460000
488.006622	145.720000
488.100281	145.740000
488.194031	145.940000
488.287689	146.200000
488.381409	147.040000
488.475098	147.000000
488.568817	147.140000
488.662476	146.480000
488.756226	146.280000
488.849945	145.540000
488.943604	145.660000
489.037354	146.000000
489.131012	146.280000
489.224731	146.060000
489.318390	146.120000
489.412140	145.840000
489.505798	145.620000
489.599518	145.260000
489.693207	145.620000
489.786926	145.380000
489.880585	145.420000
489.974335	145.720000
490.067993	146.860000
490.161713	146.980000
490.255371	148.160000
490.349121	148.040000
490.442780	147.440000
490.536499	146.620000
490.630188	146.560000
490.723907	145.560000
490.817566	145.820000
490.911285	145.840000
491.004974	145.740000
491.098694	145.460000
491.192413	146.500000
491.286102	146.420000
491.379822	146.540000
491.473480	146.940000
491.567200	147.140000
491.660889	146.000000
491.754608	145.940000
491.848267	145.600000
491.941986	145.100000
492.035675	145.160000
492.129395	145.680000
492.223053	145.540000
492.316772	146.040000
492.410461	146.120000
492.504181	146.040000
492.597839	145.600000
492.691559	145.940000
492.785248	146.180000
492.878967	146.480000
492.972626	146.520000
493.066345	146.920000
493.160034	146.340000
493.253754	145.820000
493.347412	145.300000
493.441132	145.060000
493.534882	145.460000
493.628540	146.340000
493.722260	146.680000
493.815918	147.160000
493.909668	147.660000
494.003326	147.600000
494.097046	147.000000
494.190704	146.620000
494.284454	146.740000
494.378113	146.680000
494.471832	146.420000
494.565491	146.460000
494.659210	146.660000
494.752899	146.020000
494.846619	145.640000
494.940277	145.700000
495.033997	145.560000
495.127686	145.200000
495.221405	145.200000
495.315063	145.120000
495.408783	144.940000
495.502441	145.140000
495.596191	145.560000
495.689850	145.660000
495.783569	146.020000
495.877228	146.260000
495.970947	145.960000
496.064697	145.780000
496.158356	146.900000
496.252075	146.660000
496.345734	146.440000
496.439453	147.280000
496.533142	147.420000
496.626862	147.060000
496.720520	147.260000
496.814240	147.360000
496.907898	147.000000
497.001617	146.980000
497.095306	146.000000
497.189026	145.960000
497.282684	146.100000
497.376404	146.240000
497.470062	146.020000
497.563782	146.480000
497.657471	146.500000
497.751190	146.040000
497.844849	145.720000
497.938568	146.280000
498.032227	146.520000
498.125946	146.220000
498.219635	146.260000
498.313354	146.480000
498.407074	145.760000
498.500732	145.780000
498.594452	146.340000
498.688110	146.060000
498.781830	145.780000
498.875519	145.760000
498.969238	145.700000
499.062897	145.180000
499.156616	145.700000
499.250275	145.860000
499.343994	145.760000
499.437653	145.640000
499.531372	145.900000
499.625061	146.400000
499.718781	146.540000
499.812439	146.960000
499.906158	146.760000
499.999817	146.700000
500.093536	146.080000
500.187195	146.120000
500.280914	146.220000
500.374573	146.680000
500.468323	146.480000
500.561981	147.080000
500.655701	146.360000
500.749420	146.120000
500.843079	146.020000
500.936798	146.560000
501.030457	146.360000
501.124176	146.900000
501.217834	146.900000
501.311554	146.820000
501.405212	146.080000
501.498962	145.120000
501.592621	145.020000
501.686340	145.600000
501.779999	145.720000
501.873718	145.960000
501.967377	146.700000
502.061096	146.640000
502.154755	146.080000
502.248474	146.240000
502.342133	146.500000
502.435852	146.220000
502.529510	147.360000
502.623230	147.980000
502.716888	147.480000
502.810608	147.460000
502.904266	148.200000
502.997986	147.060000
503.091705	146.080000
503.185364	146.400000
503.279083	146.420000
503.372772	146.040000
503.466492	145.940000
503.560150	146.260000
503.653870	146.480000
503.747528	146.360000
503.841248	146.140000
503.934906	146.400000
504.028625	146.220000
504.122284	146.060000
504.216003	146.560000
504.309662	146.380000
504.403381	146.560000
504.497040	146.760000
504.590759	146.440000
504.684418	146.600000
504.778137	147.220000
504.871796	147.420000
504.965515	147.360000
505.059174	147.600000
505.152893	146.860000
505.246521	146.260000
505.340240	145.780000
505.433899	146.140000
505.527618	146.480000
505.621338	146.780000
505.714996	146.600000
505.808716	146.500000
505.902374	146.860000
505.996094	146.580000
506.089752	146.080000
506.183472	146.680000
506.277130	146.940000
506.370850	146.760000
506.464508	146.360000
506.558228	146.540000
506.651886	146.020000
506.745605	146.160000
506.839264	146.240000
506.932983	146.600000
507.026611	146.480000
507.120331	147.080000
507.213989	146.440000
507.307709	146.340000
507.401367	146.700000
507.495087	147.720000
507.588745	147.180000
507.682465	148.040000
507.776123	147.680000
507.869843	147.140000
507.963531	146.540000
508.057190	147.100000
508.150909	146.220000
508.244568	146.660000
508.338287	146.720000
508.431946	146.420000
508.525665	145.840000
508.619324	145.840000
508.713013	145.980000
508.806671	146.060000
508.900391	146.760000
508.994049	146.980000
509.087769	146.920000
509.181427	146.440000
509.275146	146.340000
509.368774	145.580000
509.462494	145.580000
509.556152	145.920000
509.649872	146.140000
509.743530	146.280000
509.837250	146.360000
509.930878	146.460000
510.024597	146.240000
510.118256	146.140000
510.211975	145.800000
510.305695	145.580000
510.399353	145.800000
510.493042	146.620000
510.586700	146.600000
510.680420	147.280000
510.774078	147.660000
510.867798	147.620000
510.961426	147.020000
511.055145	146.840000
511.148804	146.420000
511.242523	147.120000
511.336151	147.200000
511.429871	147.600000
511.523529	147.620000
511.617249	146.940000
511.710876	146.040000
511.804596	145.500000
511.898254	145.240000
511.991974	145.460000
512.085632	145.800000
512.179321	146.000000
512.272949	146.660000
512.366699	147.080000
512.460327	147.000000
512.554077	148.180000
512.647766	148.040000
512.741394	147.880000
512.835144	147.780000
512.928772	147.780000
513.022461	147.180000
513.116150	147.020000
513.209839	147.320000
513.303467	146.820000
513.397217	146.620000
513.490845	146.520000
513.584595	146.680000
513.678223	145.860000
513.771912	145.340000
513.865601	145.500000
513.959290	145.060000
514.052917	145.100000
514.146667	145.960000
514.240295	146.440000
514.333984	146.780000
514.427673	146.700000
514.521362	146.980000
514.614990	146.060000
514.708740	146.220000
514.802368	146.060000
514.896057	146.240000
514.989746	146.640000
515.083435	146.540000
515.177124	146.820000
515.270752	146.680000
515.364502	146.760000
515.458130	146.520000
515.551819	146.500000
515.645508	146.360000
515.739197	146.000000
515.832825	145.880000
515.926575	145.280000
516.020203	145.500000
516.113892	145.760000
516.207520	145.680000
516.301270	145.800000
516.394897	146.120000
516.488586	146.680000
516.582275	146.460000
516.675964	146.300000
516.769592	146.360000
516.863281	147.020000
516.956970	146.960000
517.050659	146.660000
517.144287	146.920000
517.238037	146.860000
517.331665	145.960000
517.425354	145.620000
517.519043	145.760000
517.612732	146.340000
517.706421	146.400000
517.800049	146.420000
517.893738	146.000000
517.987427	145.900000
518.081116	145.440000
518.174744	145.080000
518.268433	145.360000
518.362122	146.600000
518.455811	146.420000
518.549438	146.980000
518.643127	148.060000
518.736816	147.800000
518.830505	146.780000
518.924133	147.260000
519.017822	147.260000
519.111511	146.640000
519.205200	147.280000
519.298828	147.580000
519.392517	146.940000
519.486206	146.920000
519.579895	147.040000
519.673523	146.580000
519.767212	146.340000
519.860901	147.120000
519.954590	146.760000
520.048279	146.240000
520.141907	146.040000
520.235596	147.100000
520.329224	146.940000
520.422974	146.880000
520.516602	147.180000
520.610291	147.240000
520.703918	146.900000
520.797607	146.680000
520.891296	146.760000
520.984985	146.920000
521.078613	147.260000
521.172302	146.560000
521.265930	147.400000
521.359680	147.720000
521.453308	147.300000
521.546997	147.180000
521.640625	147.280000
521.734314	146.760000
521.827942	146.480000
521.921692	146.960000
522.015320	147.120000
522.109009	146.980000
522.202698	146.880000
522.296326	146.840000
522.390015	146.980000
522.483704	146.840000
522.577393	146.960000
522.671021	147.000000
522.764709	146.620000
522.858337	146.800000
522.952026	146.540000
523.045654	147.400000
523.139404	147.620000
523.233032	147.940000
523.326721	147.480000
523.420349	147.680000
523.514038	146.760000
523.607666	146.940000
523.701355	146.620000
523.795044	146.720000
523.888733	146.860000
523.982361	147.160000
524.076050	146.320000
524.169678	146.960000
524.263367	146.680000
524.356995	146.520000
524.450684	146.340000
524.544373	146.440000
524.638062	146.220000
524.731750	146.540000
524.825378	146.480000
524.919067	146.040000
525.012695	146.100000
525.106384	145.800000
525.200012	145.800000
525.293701	145.620000
525.387329	146.140000
525.481018	146.400000
525.574646	146.800000
525.668396	146.680000
525.762024	146.960000
525.855713	147.400000
525.949341	146.940000
526.043030	146.800000
526.136658	146.500000
526.230347	146.320000
526.323975	145.300000
526.417664	145.420000
526.511292	145.580000
526.604980	145.940000
526.698608	145.720000
526.792297	146.220000
526.885925	146.400000
526.979614	146.360000
527.073303	146.320000
527.166931	146.720000
527.260620	147.060000
527.354309	147.340000
527.447998	147.100000
527.541626	147.000000
527.635315	146.900000
527.728943	147.320000
527.822632	147.360000
527.916260	147.660000
528.009949	148.060000
528.103577	148.020000
528.197266	147.220000
528.290894	146.940000
528.384583	146.840000
528.478210	146.520000
528.571899	146.660000
528.665527	146.860000
528.759216	146.960000
528.852844	147.300000
528.946533	147.120000
529.040161	147.120000
529.133850	146.900000
529.227478	147.040000
529.321167	146.980000
529.414856	147.500000
529.508484	147.740000
529.602173	147.560000
529.695801	147.140000
529.789490	146.900000
529.883057	146.400000
529.976746	146.300000
530.070374	146.760000
530.164062	147.020000
530.257690	147.120000
530.351379	147.520000
530.445007	147.440000
530.538696	146.820000
530.632324	147.040000
530.726013	147.060000
530.819641	146.960000
530.913330	147.080000
531.006958	147.680000
531.100647	147.600000
531.194275	147.540000
531.287964	147.060000
531.381592	146.740000
531.475220	146.680000
531.568848	146.440000
531.662537	146.360000
531.756226	147.180000
531.849854	147.160000
531.943542	146.980000
532.037170	146.380000
532.130859	146.600000
532.224487	145.980000
532.318176	145.760000
532.411804	146.080000
532.505432	146.720000
532.599060	146.320000
532.692749	146.220000
532.786377	146.860000
532.880066	146.380000
532.973694	146.040000
533.067383	146.060000
533.161011	146.080000
533.254639	145.640000
533.348267	145.520000
533.441956	145.960000
533.535583	145.760000
533.629272	145.920000
533.722900	145.640000
533.816589	145.840000
533.910156	145.920000
534.003845	145.860000
534.097534	146.260000
534.191162	147.000000
534.284851	147.240000
534.378479	147.240000
534.472107	147.300000
534.565735	146.900000
534.659424	146.880000
534.753052	146.940000
534.846741	146.520000
534.940369	147.260000
535.033997	147.240000
535.127625	146.800000
535.221313	147.180000
535.314941	147.180000
535.408630	146.420000
535.502197	146.800000
535.595886	146.760000
535.689514	146.240000
535.783203	146.540000
535.876831	147.020000
535.970459	146.840000
536.064087	146.680000
536.157776	146.700000
536.251404	146.600000
536.345093	146.300000
536.438721	146.240000
536.532349	146.580000
536.626038	146.580000
536.719666	147.080000
536.813293	146.900000
536.906921	146.880000
537.000610	146.900000
537.094238	146.720000
537.187866	146.120000
537.281494	146.180000
537.375183	146.140000
537.468811	145.900000
537.562439	146.180000
537.656067	146.440000
537.749756	146.600000
537.843384	147.100000
537.937012	147.260000
538.030640	146.840000
538.124329	146.600000
538.217896	146.920000
538.311584	146.760000
538.405212	146.740000
538.498901	147.040000
538.592468	147.800000
538.686157	147.100000
538.779785	146.440000
538.873413	146.300000
538.967102	146.260000
539.060730	145.220000
539.154358	145.840000
539.247986	146.260000
539.341675	146.560000
539.435242	146.320000
539.528931	147.160000
539.622559	146.640000
539.716187	147.320000
539.809814	147.160000
539.903503	147.100000
539.997070	146.640000
540.090759	147.000000
540.184387	146.220000
540.278015	146.580000
540.371643	147.140000
540.465332	147.320000
540.558899	147.040000
540.652588	147.140000
540.746216	146.780000
540.839844	146.860000
540.933472	146.780000
541.027100	147.120000
541.120728	146.840000
541.214417	147.180000
541.308044	147.220000
541.401672	146.960000
541.495300	146.420000
541.588928	146.600000
541.682617	146.300000
541.776184	145.700000
541.869873	145.860000
541.963440	146.060000
542.057129	146.060000
542.150757	145.980000
542.244385	146.060000
542.338013	146.000000
542.431641	145.960000
542.525269	145.780000
542.618958	146.140000
542.712524	146.400000
542.806213	146.120000
542.899780	146.320000
542.993469	146.140000
543.087036	145.960000
543.180725	145.520000
543.274292	145.960000
543.367981	146.060000
543.461548	146.560000
543.555237	146.120000
543.648926	146.760000
543.742493	147.540000
543.836182	147.620000
543.929749	147.540000
544.023437	147.880000
544.117004	147.860000
544.210693	147.420000
544.304260	147.180000
544.397949	146.960000
544.491516	147.140000
544.585205	146.900000
544.678772	146.320000
544.772461	146.840000
544.866028	146.860000
544.959717	146.920000
545.053284	146.600000
545.146973	147.060000
545.240540	146.980000
545.334229	147.800000
545.427795	147.860000
545.521423	148.440000
545.615051	148.160000
545.708679	148.580000
545.802307	148.280000
545.895935	148.400000
545.989624	148.920000
546.083191	149.180000
546.176880	148.580000
546.270447	147.920000
546.364136	148.280000
546.457703	147.560000
546.551331	147.480000
546.644958	147.880000
546.738586	148.240000
546.832214	147.220000
546.925842	147.060000
547.019409	147.000000
547.113098	146.180000
547.206665	145.940000
547.300354	146.200000
547.393921	146.180000
547.487549	146.340000
547.581177	146.340000
547.674805	146.300000
547.768433	145.800000
547.862061	145.740000
547.955627	145.200000
548.049316	145.720000
548.142883	146.020000
548.236572	146.780000
548.330139	147.060000
548.423767	146.720000
548.517456	146.520000
548.611023	146.440000
548.704651	145.580000
548.798279	145.340000
548.891907	146.260000
548.985474	146.040000
549.079163	146.320000
549.172729	146.500000
549.266357	146.180000
549.359985	145.700000
549.453613	145.440000
549.547180	145.180000
549.640869	145.900000
549.734436	146.200000
549.828064	146.580000
549.921631	146.580000
550.015320	146.160000
550.108887	146.260000
550.202515	146.420000
550.296143	146.260000
550.389771	146.800000
550.483337	147.260000
550.576965	146.840000
550.670593	146.840000
550.764221	146.780000
550.857849	146.460000
550.951477	145.980000
551.045105	145.460000
551.138672	145.680000
551.232300	145.260000
551.325928	145.760000
551.419556	146.080000
551.513123	146.620000
551.606750	146.080000
551.700378	146.360000
551.794006	145.880000
551.887573	145.800000
551.981201	145.900000
552.074768	146.140000
552.168457	146.000000
552.262024	146.940000
552.355652	146.940000
552.449219	147.400000
552.542847	147.380000
552.636475	147.180000
552.730103	145.920000
552.823669	145.740000
552.917297	144.800000
553.010864	144.520000
553.104553	144.880000
553.198181	144.860000
553.291748	145.700000
553.385376	146.180000
553.478943	146.060000
553.572571	146.340000
553.666199	146.740000
553.759827	145.840000
553.853394	145.280000
553.947021	145.680000
554.040588	145.360000
554.134216	145.240000
554.227783	146.220000
554.321411	147.060000
554.415039	146.540000
554.508667	146.560000
554.602234	146.800000
554.695862	145.940000
554.789429	145.740000
554.883057	145.960000
554.976624	145.820000
555.070251	145.660000
555.163818	145.600000
555.257507	145.520000
555.351074	145.960000
555.444702	146.980000
555.538330	146.800000
555.631897	147.640000
555.725525	147.620000
555.819092	147.320000
555.912720	146.360000
556.006287	147.060000
556.099915	146.560000
556.193481	146.800000
556.287109	147.200000
556.380676	147.140000
556.474304	146.960000
556.567871	147.020000
556.661499	146.360000
556.755066	146.360000
556.848694	146.520000
556.942261	146.140000
557.035889	146.180000
557.129517	146.420000
557.223145	146.440000
557.316711	146.580000
557.410339	146.720000
557.503906	146.300000
557.597473	146.680000
557.691040	146.480000
557.784668	146.220000
557.878296	146.380000
557.971863	146.920000
558.065491	147.000000
558.159058	146.880000
558.252686	147.640000
558.346252	148.100000
558.439880	147.440000
558.533447	146.680000
558.627075	146.380000
558.720642	145.880000
558.814270	145.480000
558.907837	145.840000
559.001465	145.980000
559.095032	146.480000
559.188660	146.580000
559.282227	146.020000
559.375854	146.460000
559.469360	146.400000
559.562988	146.620000
559.656555	146.560000
559.750183	147.080000
559.843750	147.100000
559.937378	147.400000
560.030945	147.020000
560.124573	0.000000
560.218140	0.000000
560.311707	0.000000
560.405334	0.000000
560.498901	0.000000
560.592529	0.000000
560.686096	0.000000
560.779724	0.000000
560.873291	0.000000
560.966858	0.000000
561.060425	0.000000
561.154053	0.000000
561.247620	0.000000
561.341248	0.000000
561.434814	0.000000
561.528381	0.000000
561.621948	0.000000
561.715576	0.000000
561.809143	0.000000
561.902771	0.000000
561.996277	0.000000
562.089905	0.000000
562.183472	0.000000
562.277100	0.000000
