Model Number: SPM-002-B   
Serial Number: 70087108
Firmware Version: 004.15.4
Exposure Time: 100000.000000us
Data Taken on: 11-12-2020 19:38:21.632
Wavelength	Amplitude
221.570786	0.000000
221.663406	0.000000
221.756027	0.000000
221.848648	0.000000
221.941269	0.000000
222.033905	0.000000
222.126526	0.000000
222.219162	0.000000
222.311798	0.000000
222.404419	0.000000
222.497055	0.000000
222.589676	0.000000
222.682312	0.000000
222.774933	0.000000
222.867569	0.000000
222.960205	0.000000
223.052841	0.000000
223.145462	0.000000
223.238098	0.000000
223.330734	0.000000
223.423386	0.000000
223.516022	0.000000
223.608658	0.000000
223.701309	0.000000
223.793945	0.000000
223.886581	0.000000
223.979218	0.000000
224.071869	0.000000
224.164505	0.000000
224.257156	0.000000
224.349792	0.000000
224.442444	0.000000
224.535095	0.000000
224.627747	0.000000
224.720398	0.000000
224.813034	0.000000
224.905685	0.000000
224.998337	145.940000
225.090988	145.620000
225.183640	145.380000
225.276291	145.020000
225.368942	145.540000
225.461594	146.320000
225.554245	146.620000
225.646912	146.660000
225.739578	147.440000
225.832230	147.700000
225.924896	146.640000
226.017548	146.740000
226.110199	147.320000
226.202866	146.580000
226.295532	146.240000
226.388184	146.440000
226.480850	146.020000
226.573517	145.320000
226.666168	145.740000
226.758835	146.040000
226.851501	146.220000
226.944183	146.480000
227.036850	146.220000
227.129517	146.040000
227.222183	146.100000
227.314850	146.140000
227.407516	146.100000
227.500198	147.020000
227.592865	146.600000
227.685532	146.120000
227.778214	145.720000
227.870880	145.980000
227.963562	146.380000
228.056229	147.000000
228.148926	146.920000
228.241592	147.800000
228.334274	147.260000
228.426956	146.540000
228.519638	146.600000
228.612305	146.420000
228.704987	146.060000
228.797668	146.340000
228.890350	146.480000
228.983032	145.780000
229.075714	146.660000
229.168396	146.300000
229.261108	146.120000
229.353790	145.800000
229.446472	146.080000
229.539169	145.680000
229.631851	145.560000
229.724533	145.700000
229.817230	145.940000
229.909912	146.840000
230.002609	146.720000
230.095306	146.920000
230.187988	147.020000
230.280685	146.640000
230.373383	145.560000
230.466095	145.440000
230.558792	145.560000
230.651474	145.520000
230.744171	145.760000
230.836868	145.820000
230.929581	146.040000
231.022278	145.920000
231.114975	146.100000
231.207672	146.000000
231.300369	146.360000
231.393082	146.420000
231.485779	146.520000
231.578506	146.300000
231.671204	146.280000
231.763916	146.280000
231.856613	146.140000
231.949326	146.100000
232.042023	145.860000
232.134735	146.140000
232.227448	145.840000
232.320160	146.180000
232.412872	146.300000
232.505585	147.300000
232.598297	147.300000
232.691010	147.100000
232.783722	146.880000
232.876450	147.460000
232.969162	146.880000
233.061874	146.640000
233.154587	146.660000
233.247314	146.720000
233.340027	146.020000
233.432739	146.400000
233.525467	146.340000
233.618179	147.120000
233.710907	146.760000
233.803635	147.420000
233.896347	147.000000
233.989090	147.620000
234.081818	147.120000
234.174545	147.380000
234.267258	146.580000
234.359985	146.740000
234.452713	146.520000
234.545441	146.160000
234.638168	145.800000
234.730896	146.080000
234.823639	145.860000
234.916367	146.140000
235.009094	146.800000
235.101822	147.260000
235.194580	147.360000
235.287308	147.340000
235.380051	146.600000
235.472778	146.400000
235.565521	146.620000
235.658249	146.140000
235.750992	146.460000
235.843719	146.740000
235.936462	146.940000
236.029205	146.480000
236.121948	146.460000
236.214691	146.620000
236.307449	147.120000
236.400192	146.920000
236.492935	146.720000
236.585678	147.000000
236.678421	146.840000
236.771164	146.540000
236.863907	146.860000
236.956665	147.240000
237.049408	148.880000
237.142151	148.040000
237.234909	148.620000
237.327652	148.660000
237.420410	148.360000
237.513153	147.380000
237.605927	147.800000
237.698669	146.940000
237.791428	146.440000
237.884186	147.180000
237.976944	146.540000
238.069702	147.200000
238.162445	146.740000
238.255203	146.480000
238.347961	146.460000
238.440720	146.260000
238.533478	145.620000
238.626266	145.920000
238.719025	146.400000
238.811783	146.080000
238.904541	146.200000
238.997314	146.220000
239.090073	146.260000
239.182831	146.160000
239.275604	146.940000
239.368362	146.640000
239.461136	146.660000
239.553909	146.500000
239.646667	146.320000
239.739441	145.760000
239.832214	146.480000
239.925003	146.760000
240.017761	147.780000
240.110535	148.360000
240.203308	147.760000
240.296082	147.600000
240.388855	147.300000
240.481628	146.640000
240.574417	146.800000
240.667191	147.220000
240.759964	146.580000
240.852737	146.520000
240.945526	146.200000
241.038315	145.580000
241.131088	145.540000
241.223877	146.020000
241.316650	145.760000
241.409439	146.480000
241.502228	146.100000
241.595001	146.220000
241.687790	146.300000
241.780579	146.540000
241.873367	146.400000
241.966141	146.820000
242.058929	146.400000
242.151718	146.340000
242.244507	146.600000
242.337311	145.740000
242.430099	146.180000
242.522903	146.400000
242.615692	146.100000
242.708481	146.060000
242.801270	146.860000
242.894073	146.640000
242.986862	146.620000
243.079651	147.320000
243.172455	147.120000
243.265244	147.120000
243.358063	146.640000
243.450867	147.020000
243.543655	146.600000
243.636459	146.720000
243.729263	146.840000
243.822067	147.280000
243.914856	147.620000
244.007660	147.820000
244.100464	148.080000
244.193268	147.800000
244.286072	147.480000
244.378876	146.300000
244.471680	145.760000
244.564499	145.780000
244.657318	146.380000
244.750122	147.040000
244.842926	146.940000
244.935745	147.420000
245.028549	147.040000
245.121368	146.420000
245.214172	145.960000
245.306992	146.800000
245.399796	146.780000
245.492615	147.000000
245.585434	147.260000
245.678253	147.260000
245.771072	147.180000
245.863892	147.520000
245.956711	147.720000
246.049530	147.460000
246.142349	147.300000
246.235168	147.300000
246.327988	147.520000
246.420807	147.200000
246.513626	147.040000
246.606445	146.960000
246.699280	146.640000
246.792099	146.020000
246.884918	145.620000
246.977753	145.440000
247.070587	145.780000
247.163422	146.020000
247.256241	145.920000
247.349075	146.560000
247.441895	146.900000
247.534729	146.740000
247.627563	146.460000
247.720383	147.360000
247.813217	147.260000
247.906052	147.020000
247.998886	147.120000
248.091736	147.320000
248.184570	146.540000
248.277405	146.500000
248.370239	147.600000
248.463074	148.220000
248.555908	148.380000
248.648743	148.100000
248.741592	148.060000
248.834427	147.340000
248.927261	146.400000
249.020111	146.800000
249.112946	147.520000
249.205795	147.220000
249.298630	147.320000
249.391495	147.480000
249.484344	146.880000
249.577179	146.640000
249.670029	146.880000
249.762878	147.180000
249.855728	147.420000
249.948563	147.500000
250.041412	147.400000
250.134262	147.700000
250.227112	147.180000
250.319962	146.960000
250.412827	146.900000
250.505692	146.260000
250.598541	145.960000
250.691391	146.080000
250.784241	146.140000
250.877106	146.360000
250.969955	146.620000
251.062805	147.040000
251.155670	147.420000
251.248520	147.320000
251.341385	147.340000
251.434235	147.000000
251.527100	146.620000
251.619965	146.000000
251.712814	146.540000
251.805695	146.360000
251.898560	146.800000
251.991425	147.180000
252.084290	147.700000
252.177155	146.860000
252.270020	146.740000
252.362885	146.740000
252.455750	146.800000
252.548615	146.300000
252.641479	146.540000
252.734360	146.320000
252.827240	146.220000
252.920105	145.900000
253.012970	145.960000
253.105850	146.020000
253.198715	146.140000
253.291595	146.240000
253.384460	146.600000
253.477341	146.560000
253.570221	146.620000
253.663086	146.460000
253.755966	147.120000
253.848846	146.800000
253.941727	147.160000
254.034592	147.260000
254.127472	146.980000
254.220367	146.800000
254.313248	146.780000
254.406128	146.160000
254.499008	146.240000
254.591904	147.260000
254.684784	147.620000
254.777664	147.440000
254.870544	147.360000
254.963440	147.040000
255.056335	146.980000
255.149216	146.260000
255.242111	146.700000
255.334991	147.440000
255.427887	147.520000
255.520767	147.260000
255.613663	147.680000
255.706558	147.240000
255.799438	146.480000
255.892334	146.520000
255.985229	146.300000
256.078125	146.100000
256.171021	146.340000
256.263916	147.140000
256.356812	147.300000
256.449707	147.660000
256.542603	147.120000
256.635498	147.520000
256.728394	147.380000
256.821289	147.220000
256.914215	147.260000
257.007080	147.860000
257.100006	147.620000
257.192932	147.780000
257.285828	147.960000
257.378723	147.520000
257.471619	147.240000
257.564545	146.760000
257.657440	146.760000
257.750336	147.080000
257.843262	147.160000
257.936157	148.180000
258.029053	148.240000
258.121979	147.800000
258.214874	147.200000
258.307800	146.820000
258.400696	145.540000
258.493622	146.040000
258.586517	145.740000
258.679443	146.260000
258.772339	146.100000
258.865265	146.340000
258.958160	145.560000
259.051086	146.300000
259.144012	145.900000
259.236938	147.140000
259.329834	147.060000
259.422791	146.980000
259.515717	146.540000
259.608612	146.400000
259.701538	146.160000
259.794464	146.140000
259.887390	146.580000
259.980316	146.260000
260.073212	146.180000
260.166138	144.960000
260.259064	145.480000
260.351990	146.120000
260.444916	146.380000
260.537842	146.900000
260.630768	148.080000
260.723694	147.820000
260.816620	147.340000
260.909546	147.280000
261.002472	146.820000
261.095398	146.300000
261.188354	146.320000
261.281281	145.840000
261.374207	146.220000
261.467133	146.960000
261.560089	147.180000
261.653015	146.780000
261.745972	147.660000
261.838867	147.640000
261.931824	147.580000
262.024780	146.940000
262.117706	147.180000
262.210663	147.360000
262.303589	147.380000
262.396515	147.620000
262.489471	148.980000
262.582397	149.220000
262.675354	148.460000
262.768280	148.340000
262.861237	147.920000
262.954163	147.480000
263.047119	147.480000
263.140045	147.180000
263.233002	147.260000
263.325958	147.140000
263.418884	146.440000
263.511841	146.600000
263.604797	146.780000
263.697723	146.940000
263.790680	146.580000
263.883636	147.260000
263.976593	146.960000
264.069550	147.480000
264.162476	146.820000
264.255463	147.340000
264.348419	146.840000
264.441376	147.060000
264.534332	146.380000
264.627289	146.700000
264.720245	146.880000
264.813202	146.880000
264.906158	146.840000
264.999115	147.440000
265.092072	147.580000
265.185028	147.980000
265.277985	148.260000
265.370941	148.480000
265.463898	147.980000
265.556854	147.640000
265.649811	146.680000
265.742798	146.740000
265.835754	146.540000
265.928711	147.080000
266.021667	147.320000
266.114655	147.480000
266.207611	147.460000
266.300568	146.960000
266.393585	146.480000
266.486511	146.720000
266.579498	146.040000
266.672485	146.160000
266.765442	146.240000
266.858429	146.640000
266.951385	146.040000
267.044342	146.700000
267.137329	146.660000
267.230316	146.900000
267.323273	146.500000
267.416260	147.600000
267.509216	147.340000
267.602203	147.180000
267.695160	147.700000
267.788147	147.820000
267.881134	146.940000
267.974091	147.260000
268.067078	147.200000
268.160065	146.620000
268.253052	146.520000
268.346008	146.740000
268.438995	146.660000
268.531982	146.700000
268.624969	146.580000
268.717987	147.000000
268.810944	146.820000
268.903961	146.880000
268.996948	146.500000
269.089905	147.000000
269.182892	147.160000
269.275879	147.360000
269.368866	146.800000
269.461853	147.240000
269.554871	147.120000
269.647858	147.080000
269.740845	147.440000
269.833832	148.120000
269.926819	147.640000
270.019806	147.680000
270.112793	147.120000
270.205811	146.960000
270.298798	146.620000
270.391785	147.440000
270.484772	147.080000
270.577789	147.440000
270.670776	146.900000
270.763763	147.160000
270.856750	147.020000
270.949768	146.980000
271.042786	147.000000
271.135773	147.180000
271.228790	147.320000
271.321808	146.620000
271.414795	146.200000
271.507782	145.700000
271.600800	145.600000
271.693817	145.520000
271.786804	146.300000
271.879822	146.980000
271.972809	147.260000
272.065826	147.940000
272.158844	147.420000
272.251831	147.560000
272.344849	147.660000
272.437866	147.460000
272.530853	147.320000
272.623871	147.820000
272.716888	146.880000
272.809906	147.040000
272.902893	147.040000
272.995911	146.160000
273.088928	146.220000
273.181946	146.960000
273.274963	146.280000
273.367981	146.220000
273.460999	146.860000
273.554047	146.960000
273.647003	147.080000
273.740051	147.380000
273.833069	147.740000
273.926086	147.580000
274.019135	147.160000
274.112152	146.820000
274.205170	146.760000
274.298187	146.800000
274.391205	146.340000
274.484222	146.440000
274.577240	146.480000
274.670258	146.460000
274.763306	146.220000
274.856323	147.100000
274.949341	147.200000
275.042358	147.440000
275.135406	147.340000
275.228424	147.280000
275.321442	147.100000
275.414490	146.700000
275.507507	146.880000
275.600525	147.220000
275.693573	147.160000
275.786591	146.960000
275.879669	147.220000
275.972656	146.980000
276.065735	146.880000
276.158752	147.400000
276.251801	148.140000
276.344818	148.320000
276.437866	148.260000
276.530884	148.060000
276.623932	147.400000
276.716980	146.900000
276.809998	146.780000
276.903046	146.680000
276.996094	147.580000
277.089111	148.180000
277.182159	148.440000
277.275208	148.100000
277.368256	148.300000
277.461304	147.500000
277.554321	146.760000
277.647369	146.660000
277.740417	146.800000
277.833466	146.580000
277.926514	146.620000
278.019562	147.360000
278.112610	146.680000
278.205688	147.020000
278.298706	147.120000
278.391785	147.020000
278.484833	146.640000
278.577881	146.580000
278.670929	146.840000
278.763977	146.880000
278.857025	147.360000
278.950073	147.520000
279.043121	147.580000
279.136169	147.180000
279.229248	146.800000
279.322296	146.680000
279.415344	146.500000
279.508392	146.720000
279.601440	146.800000
279.694519	146.760000
279.787567	146.540000
279.880615	146.520000
279.973694	146.280000
280.066742	146.260000
280.159790	146.400000
280.252869	146.380000
280.345917	146.320000
280.438995	146.480000
280.532074	146.280000
280.625122	146.920000
280.718201	147.720000
280.811279	148.020000
280.904327	148.180000
280.997406	148.340000
281.090454	148.020000
281.183533	147.060000
281.276581	146.900000
281.369659	146.420000
281.462738	146.540000
281.555786	146.500000
281.648865	146.620000
281.741943	146.340000
281.835022	147.040000
281.928070	146.700000
282.021149	146.360000
282.114227	146.680000
282.207306	146.780000
282.300385	146.880000
282.393433	147.320000
282.486511	147.480000
282.579590	147.600000
282.672668	148.020000
282.765747	147.240000
282.858856	146.700000
282.951904	146.920000
283.045013	146.840000
283.138062	146.780000
283.231171	147.540000
283.324249	148.120000
283.417328	147.960000
283.510406	147.320000
283.603485	147.220000
283.696564	147.080000
283.789642	146.980000
283.882751	146.720000
283.975830	147.740000
284.068909	147.400000
284.161987	147.700000
284.255066	147.120000
284.348175	147.340000
284.441254	146.660000
284.534332	147.140000
284.627441	146.560000
284.720520	146.540000
284.813599	146.560000
284.906708	146.860000
284.999786	146.400000
285.092896	146.240000
285.185974	147.520000
285.279053	147.180000
285.372192	146.720000
285.465240	147.600000
285.558380	147.640000
285.651459	146.740000
285.744568	147.660000
285.837677	147.520000
285.930756	147.020000
286.023865	147.020000
286.116943	146.500000
286.210052	146.240000
286.303162	146.440000
286.396240	146.220000
286.489349	146.300000
286.582458	146.800000
286.675568	146.240000
286.768646	146.300000
286.861755	147.000000
286.954865	147.600000
287.047974	147.220000
287.141083	147.160000
287.234161	146.840000
287.327271	146.280000
287.420380	146.220000
287.513519	146.340000
287.606598	146.300000
287.699738	146.760000
287.792816	146.580000
287.885956	146.200000
287.979034	146.120000
288.072174	146.440000
288.165283	146.380000
288.258392	146.560000
288.351501	146.140000
288.444611	146.800000
288.537720	147.020000
288.630859	146.760000
288.723969	146.840000
288.817078	147.460000
288.910187	147.240000
289.003296	146.940000
289.096436	146.640000
289.189545	146.280000
289.282654	145.640000
289.375763	145.760000
289.468903	146.100000
289.562012	146.460000
289.655121	146.560000
289.748260	146.680000
289.841400	146.740000
289.934509	146.540000
290.027649	146.660000
290.120728	146.620000
290.213898	146.740000
290.306976	146.720000
290.400146	146.800000
290.493256	146.480000
290.586395	146.980000
290.679535	147.600000
290.772644	147.280000
290.865784	146.560000
290.958893	146.680000
291.052032	146.220000
291.145172	145.940000
291.238281	145.700000
291.331421	145.900000
291.424561	146.200000
291.517670	145.860000
291.610809	145.720000
291.703949	145.560000
291.797089	146.000000
291.890228	145.640000
291.983337	146.020000
292.076477	145.900000
292.169617	146.520000
292.262756	146.260000
292.355927	146.180000
292.449036	145.820000
292.542206	146.340000
292.635315	146.180000
292.728485	146.580000
292.821625	146.280000
292.914764	147.380000
293.007904	146.860000
293.101044	146.940000
293.194183	146.600000
293.287323	147.000000
293.380463	146.480000
293.473602	146.380000
293.566742	146.720000
293.659882	147.420000
293.753021	147.740000
293.846191	147.680000
293.939331	147.660000
294.032471	147.020000
294.125610	146.580000
294.218781	146.660000
294.311920	146.820000
294.405060	146.880000
294.498230	147.040000
294.591370	146.860000
294.684540	146.320000
294.777679	145.840000
294.870850	146.200000
294.963959	146.040000
295.057159	146.060000
295.150299	146.400000
295.243469	146.760000
295.336609	146.300000
295.429779	146.440000
295.522919	146.980000
295.616089	147.060000
295.709229	147.340000
295.802399	147.540000
295.895569	147.100000
295.988708	146.660000
296.081879	146.880000
296.175018	146.240000
296.268188	146.300000
296.361359	146.860000
296.454529	146.820000
296.547668	146.560000
296.640839	147.280000
296.734009	146.760000
296.827179	146.880000
296.920319	147.260000
297.013519	147.100000
297.106659	146.920000
297.199860	147.460000
297.292999	147.640000
297.386200	147.260000
297.479309	147.000000
297.572510	146.860000
297.665680	146.320000
297.758850	146.380000
297.852020	146.460000
297.945190	146.500000
298.038361	146.280000
298.131531	147.440000
298.224701	146.800000
298.317871	146.420000
298.411072	146.360000
298.504242	146.180000
298.597412	145.400000
298.690582	145.860000
298.783752	145.960000
298.876923	146.560000
298.970093	146.680000
299.063293	147.100000
299.156464	147.420000
299.249634	147.660000
299.342834	147.520000
299.436005	147.700000
299.529205	147.180000
299.622345	146.860000
299.715576	146.160000
299.808716	145.880000
299.901917	145.920000
299.995117	146.420000
300.088287	146.520000
300.181488	146.620000
300.274658	146.400000
300.367828	146.400000
300.461029	146.440000
300.554199	146.520000
300.647400	146.820000
300.740601	147.560000
300.833771	147.320000
300.926971	147.140000
301.020142	146.340000
301.113342	146.160000
301.206512	145.880000
301.299713	146.280000
301.392914	146.380000
301.486084	147.180000
301.579285	147.360000
301.672516	147.720000
301.765686	147.620000
301.858887	147.640000
301.952057	147.360000
302.045288	147.380000
302.138458	147.280000
302.231659	146.820000
302.324860	146.640000
302.418060	146.340000
302.511261	146.000000
302.604462	146.000000
302.697662	145.980000
302.790863	145.880000
302.884064	145.940000
302.977264	146.100000
303.070465	146.020000
303.163666	147.140000
303.256866	147.480000
303.350067	147.400000
303.443268	147.620000
303.536469	147.560000
303.629669	146.720000
303.722870	146.580000
303.816071	146.720000
303.909271	146.720000
304.002472	146.100000
304.095673	146.080000
304.188934	145.220000
304.282104	146.020000
304.375336	145.900000
304.468506	146.100000
304.561768	145.860000
304.654968	146.840000
304.748169	146.100000
304.841370	146.180000
304.934601	146.720000
305.027802	146.600000
305.121002	146.360000
305.214233	146.440000
305.307434	146.560000
305.400665	146.760000
305.493866	146.700000
305.587097	147.080000
305.680298	146.940000
305.773499	147.200000
305.866730	147.120000
305.959930	148.020000
306.053162	147.980000
306.146393	147.720000
306.239594	146.900000
306.332825	146.500000
306.426025	146.400000
306.519287	145.820000
306.612488	146.040000
306.705719	146.160000
306.798920	146.380000
306.892181	145.880000
306.985352	145.560000
307.078613	145.040000
307.171844	145.500000
307.265045	145.140000
307.358276	144.860000
307.451508	145.320000
307.544739	146.000000
307.637970	145.800000
307.731201	145.740000
307.824402	146.560000
307.917633	146.820000
308.010864	147.200000
308.104095	147.880000
308.197327	148.100000
308.290558	147.720000
308.383789	147.300000
308.477020	146.740000
308.570251	145.680000
308.663483	145.300000
308.756714	145.460000
308.849976	145.540000
308.943176	146.220000
309.036438	146.300000
309.129639	146.420000
309.222900	146.360000
309.316101	146.400000
309.409393	145.740000
309.502625	145.920000
309.595856	146.200000
309.689087	145.960000
309.782318	146.140000
309.875580	146.460000
309.968811	146.720000
310.062042	146.480000
310.155273	146.760000
310.248535	147.000000
310.341766	146.960000
310.434998	146.580000
310.528259	146.520000
310.621490	146.540000
310.714722	145.820000
310.807983	145.580000
310.901215	145.640000
310.994476	145.940000
311.087708	145.560000
311.181000	146.120000
311.274200	146.080000
311.367462	146.180000
311.460693	145.640000
311.553986	146.580000
311.647186	146.460000
311.740479	147.180000
311.833710	146.980000
311.926971	146.940000
312.020203	146.140000
312.113464	146.000000
312.206726	144.940000
312.299957	145.620000
312.393219	146.360000
312.486481	146.600000
312.579712	146.660000
312.672974	146.760000
312.766235	146.220000
312.859497	146.020000
312.952759	145.640000
313.045990	146.420000
313.139252	146.160000
313.232513	146.440000
313.325775	146.480000
313.419037	146.380000
313.512299	145.200000
313.605530	145.920000
313.698822	145.940000
313.792053	146.000000
313.885345	145.980000
313.978577	146.120000
314.071869	145.640000
314.165131	145.460000
314.258392	145.660000
314.351654	145.880000
314.444916	145.660000
314.538177	146.460000
314.631439	146.640000
314.724701	146.260000
314.817993	146.160000
314.911255	146.720000
315.004517	145.980000
315.097778	146.020000
315.191040	146.320000
315.284302	146.500000
315.377594	145.880000
315.470856	145.760000
315.564117	145.220000
315.657379	144.800000
315.750671	144.440000
315.843933	145.200000
315.937195	145.020000
316.030518	145.180000
316.123749	145.360000
316.217041	146.440000
316.310303	146.280000
316.403595	146.920000
316.496857	147.260000
316.590149	147.640000
316.683411	146.560000
316.776703	146.440000
316.869965	146.240000
316.963257	145.920000
317.056519	145.100000
317.149811	145.220000
317.243073	145.440000
317.336365	145.900000
317.429626	146.500000
317.522919	147.020000
317.616180	146.940000
317.709473	146.420000
317.802765	145.880000
317.896027	145.460000
317.989319	145.880000
318.082611	146.000000
318.175873	145.960000
318.269165	146.080000
318.362488	146.140000
318.455750	145.740000
318.549042	146.180000
318.642303	146.900000
318.735626	146.640000
318.828888	146.720000
318.922211	146.060000
319.015472	146.300000
319.108765	145.380000
319.202057	145.240000
319.295349	145.360000
319.388641	145.600000
319.481934	145.380000
319.575226	145.520000
319.668518	146.060000
319.761810	145.920000
319.855103	146.200000
319.948395	145.920000
320.041687	146.120000
320.134979	146.020000
320.228271	145.720000
320.321564	145.440000
320.414856	145.640000
320.508148	145.420000
320.601440	145.280000
320.694763	145.380000
320.788025	146.260000
320.881348	146.120000
320.974640	146.380000
321.067963	145.900000
321.161224	145.780000
321.254547	144.700000
321.347839	145.240000
321.441162	145.120000
321.534454	145.920000
321.627747	145.900000
321.721069	146.940000
321.814362	146.620000
321.907654	146.620000
322.000946	146.200000
322.094269	146.980000
322.187561	146.180000
322.280884	146.320000
322.374176	146.640000
322.467468	147.280000
322.560791	146.800000
322.654083	147.240000
322.747406	147.320000
322.840698	147.340000
322.934021	147.360000
323.027344	147.780000
323.120636	147.440000
323.213959	147.180000
323.307251	146.620000
323.400574	146.140000
323.493866	145.540000
323.587219	146.060000
323.680511	146.280000
323.773834	146.620000
323.867157	146.880000
323.960449	147.160000
324.053772	146.820000
324.147095	146.800000
324.240387	146.860000
324.333710	146.740000
324.427032	146.820000
324.520355	146.620000
324.613647	146.160000
324.706970	146.040000
324.800293	146.060000
324.893616	146.160000
324.986938	146.600000
325.080231	146.640000
325.173553	147.140000
325.266876	147.680000
325.360199	147.540000
325.453522	146.900000
325.546875	146.920000
325.640167	147.000000
325.733521	146.860000
325.826813	147.160000
325.920166	147.280000
326.013489	147.100000
326.106812	146.040000
326.200134	145.640000
326.293457	144.940000
326.386780	145.140000
326.480103	144.960000
326.573425	145.020000
326.666748	144.920000
326.760071	145.260000
326.853424	145.220000
326.946747	145.600000
327.040070	146.720000
327.133392	146.640000
327.226715	146.120000
327.320068	145.860000
327.413391	146.400000
327.506714	145.700000
327.600037	145.720000
327.693390	146.160000
327.786713	146.260000
327.880066	145.940000
327.973358	146.360000
328.066742	146.820000
328.160034	146.980000
328.253418	147.540000
328.346710	147.180000
328.440063	146.640000
328.533417	146.220000
328.626740	146.580000
328.720093	146.400000
328.813416	146.640000
328.906769	146.820000
329.000092	146.980000
329.093445	146.540000
329.186768	146.440000
329.280121	146.780000
329.373444	146.920000
329.466797	147.220000
329.560120	147.340000
329.653473	147.360000
329.746796	147.100000
329.840149	146.940000
329.933502	146.640000
330.026825	146.220000
330.120178	146.100000
330.213562	146.120000
330.306854	146.240000
330.400238	146.200000
330.493561	146.180000
330.586945	146.880000
330.680237	146.960000
330.773621	147.240000
330.866974	147.380000
330.960327	147.720000
331.053680	147.000000
331.147003	147.080000
331.240356	147.240000
331.333710	147.380000
331.427063	147.220000
331.520416	147.440000
331.613770	147.200000
331.707123	147.140000
331.800476	147.020000
331.893829	147.800000
331.987152	147.840000
332.080505	147.840000
332.173859	147.440000
332.267212	146.960000
332.360565	145.980000
332.453918	145.640000
332.547333	145.640000
332.640656	145.920000
332.734039	146.520000
332.827362	146.740000
332.920746	147.220000
333.014069	147.680000
333.107452	148.060000
333.200806	147.760000
333.294159	148.060000
333.387543	147.460000
333.480896	146.760000
333.574249	146.300000
333.667603	146.220000
333.760956	146.120000
333.854340	146.320000
333.947693	146.380000
334.041046	146.200000
334.134430	146.540000
334.227783	146.240000
334.321136	145.940000
334.414520	145.780000
334.507874	145.760000
334.601227	145.580000
334.694611	145.560000
334.787964	145.880000
334.881348	146.140000
334.974701	146.280000
335.068085	146.060000
335.161438	146.600000
335.254822	146.260000
335.348175	146.400000
335.441559	146.120000
335.534943	146.800000
335.628296	146.480000
335.721680	146.800000
335.815033	146.960000
335.908417	147.380000
336.001770	147.080000
336.095154	146.720000
336.188538	146.400000
336.281891	145.680000
336.375275	145.060000
336.468658	144.360000
336.562012	144.440000
336.655396	144.820000
336.748779	145.580000
336.842133	145.840000
336.935516	146.420000
337.028900	146.640000
337.122284	146.520000
337.215637	146.420000
337.309021	146.400000
337.402435	145.940000
337.495789	145.760000
337.589203	145.680000
337.682526	145.340000
337.775940	145.720000
337.869324	146.160000
337.962708	146.200000
338.056091	146.920000
338.149475	146.820000
338.242859	146.520000
338.336243	146.280000
338.429626	146.420000
338.523010	145.840000
338.616394	145.760000
338.709778	146.120000
338.803162	146.360000
338.896545	146.400000
338.989929	146.080000
339.083313	146.380000
339.176697	145.920000
339.270081	145.600000
339.363464	145.680000
339.456848	146.140000
339.550232	145.680000
339.643616	145.660000
339.737030	145.920000
339.830383	145.700000
339.923828	145.660000
340.017181	145.700000
340.110596	145.900000
340.203949	145.620000
340.297363	145.580000
340.390778	145.700000
340.484161	145.980000
340.577545	145.880000
340.670959	146.220000
340.764343	145.960000
340.857727	145.900000
340.951111	145.520000
341.044525	145.440000
341.137909	144.920000
341.231293	145.140000
341.324707	144.620000
341.418091	145.580000
341.511505	145.780000
341.604889	146.400000
341.698303	146.580000
341.791687	146.620000
341.885071	145.740000
341.978485	145.540000
342.071899	145.420000
342.165283	145.660000
342.258698	146.240000
342.352081	146.920000
342.445496	147.600000
342.538879	147.460000
342.632324	147.260000
342.725708	147.160000
342.819122	146.680000
342.912506	146.080000
343.005920	146.000000
343.099335	146.520000
343.192719	146.400000
343.286133	146.420000
343.379547	147.000000
343.472931	147.140000
343.566345	146.420000
343.659760	146.880000
343.753143	146.740000
343.846558	146.020000
343.939972	146.060000
344.033386	146.760000
344.126770	145.960000
344.220184	146.140000
344.313599	146.940000
344.407043	146.820000
344.500427	146.060000
344.593872	146.940000
344.687225	146.420000
344.780670	145.440000
344.874054	145.380000
344.967499	145.900000
345.060913	145.580000
345.154327	146.060000
345.247742	146.220000
345.341156	146.240000
345.434570	145.920000
345.527985	145.820000
345.621399	145.780000
345.714813	145.680000
345.808228	145.800000
345.901642	145.700000
345.995056	145.640000
346.088470	146.280000
346.181885	146.460000
346.275299	146.160000
346.368713	145.780000
346.462128	145.640000
346.555573	145.320000
346.648987	145.580000
346.742401	145.680000
346.835815	146.460000
346.929260	146.180000
347.022644	146.220000
347.116119	146.300000
347.209503	146.560000
347.302948	147.340000
347.396362	147.920000
347.489807	147.920000
347.583221	148.160000
347.676636	147.880000
347.770050	146.420000
347.863495	146.140000
347.956909	146.100000
348.050323	145.620000
348.143768	145.580000
348.237183	145.840000
348.330597	146.180000
348.424042	146.200000
348.517456	146.760000
348.610901	146.860000
348.704315	146.920000
348.797760	146.280000
348.891174	145.620000
348.984619	145.100000
349.078033	145.440000
349.171448	145.920000
349.264923	146.260000
349.358337	146.800000
349.451782	146.660000
349.545197	146.180000
349.638641	145.380000
349.732086	145.140000
349.825500	145.380000
349.918945	145.060000
350.012390	145.480000
350.105804	146.360000
350.199249	146.460000
350.292664	146.540000
350.386108	146.800000
350.479553	147.000000
350.572968	146.800000
350.666412	147.080000
350.759857	146.940000
350.853302	147.660000
350.946716	147.360000
351.040161	147.180000
351.133606	147.040000
351.227081	146.740000
351.320465	147.140000
351.413940	147.220000
351.507355	147.400000
351.600830	147.740000
351.694244	147.480000
351.787720	146.980000
351.881104	146.920000
351.974579	146.380000
352.067993	146.840000
352.161469	146.900000
352.254883	146.120000
352.348358	145.980000
352.441803	146.260000
352.535248	145.440000
352.628693	146.060000
352.722137	146.140000
352.815582	146.240000
352.909027	146.280000
353.002472	146.160000
353.095917	145.800000
353.189362	146.400000
353.282806	146.420000
353.376251	146.460000
353.469696	146.100000
353.563141	146.920000
353.656586	146.900000
353.750061	146.640000
353.843475	146.160000
353.936981	147.140000
354.030396	146.140000
354.123871	146.040000
354.217285	146.800000
354.310760	147.420000
354.404175	147.100000
354.497681	146.840000
354.591095	147.000000
354.684570	146.080000
354.777985	146.120000
354.871490	145.800000
354.964935	146.540000
355.058380	146.240000
355.151855	146.440000
355.245300	146.260000
355.338745	146.560000
355.432220	146.440000
355.525665	146.160000
355.619110	146.160000
355.712585	146.220000
355.806030	145.900000
355.899475	145.360000
355.992950	145.660000
356.086426	146.400000
356.179871	146.260000
356.273346	146.480000
356.366791	146.900000
356.460266	147.000000
356.553711	146.100000
356.647186	146.260000
356.740631	146.040000
356.834106	145.740000
356.927551	145.700000
357.021027	145.900000
357.114471	145.680000
357.207947	146.020000
357.301422	146.400000
357.394867	146.660000
357.488342	146.920000
357.581818	146.900000
357.675262	147.000000
357.768738	146.660000
357.862213	145.920000
357.955658	145.740000
358.049133	145.540000
358.142609	145.520000
358.236053	145.720000
358.329529	145.860000
358.423035	145.980000
358.516449	146.060000
358.609955	146.320000
358.703400	146.560000
358.796906	146.920000
358.890350	146.580000
358.983826	146.960000
359.077271	146.440000
359.170776	146.080000
359.264221	145.740000
359.357727	146.220000
359.451172	146.440000
359.544647	146.540000
359.638123	146.300000
359.731598	146.760000
359.825073	146.980000
359.918549	146.740000
360.012024	146.900000
360.105499	147.020000
360.198975	147.000000
360.292450	146.660000
360.385925	146.320000
360.479401	145.820000
360.572876	146.220000
360.666351	146.280000
360.759857	146.240000
360.853302	146.500000
360.946808	146.240000
361.040253	146.100000
361.133759	145.640000
361.227203	145.920000
361.320709	145.640000
361.414154	146.100000
361.507660	146.420000
361.601105	146.900000
361.694641	147.240000
361.788086	147.300000
361.881592	147.880000
361.975067	147.660000
362.068542	147.820000
362.162018	147.360000
362.255524	147.120000
362.348999	146.740000
362.442474	146.600000
362.535950	146.080000
362.629456	145.720000
362.722931	145.720000
362.816406	146.000000
362.909882	146.600000
363.003387	146.240000
363.096863	146.700000
363.190338	146.660000
363.283875	146.400000
363.377319	145.580000
363.470825	146.300000
363.564301	145.820000
363.657806	146.440000
363.751282	146.000000
363.844788	147.120000
363.938232	146.520000
364.031769	146.980000
364.125214	146.700000
364.218750	147.660000
364.312225	146.300000
364.405731	146.800000
364.499207	146.320000
364.592712	146.360000
364.686188	145.760000
364.779694	146.440000
364.873169	146.060000
364.966675	145.980000
365.060150	145.840000
365.153656	146.380000
365.247131	146.380000
365.340637	146.600000
365.434143	147.160000
365.527618	147.340000
365.621155	146.480000
365.714600	146.240000
365.808136	146.160000
365.901611	145.300000
365.995117	144.800000
366.088593	144.700000
366.182129	144.520000
366.275604	144.780000
366.369110	145.140000
366.462585	145.340000
366.556122	146.080000
366.649567	146.500000
366.743103	146.440000
366.836609	146.580000
366.930115	147.240000
367.023590	147.360000
367.117096	147.100000
367.210602	147.240000
367.304108	147.740000
367.397614	147.740000
367.491119	147.720000
367.584595	147.960000
367.678101	147.940000
367.771606	147.580000
367.865112	147.040000
367.958649	146.040000
368.052124	145.720000
368.145660	145.560000
368.239136	146.020000
368.332672	146.340000
368.426147	146.840000
368.519684	146.720000
368.613159	147.000000
368.706696	146.620000
368.800171	146.260000
368.893707	146.260000
368.987183	146.380000
369.080719	146.320000
369.174225	146.000000
369.267731	146.300000
369.361237	146.140000
369.454742	146.000000
369.548248	146.100000
369.641754	145.960000
369.735260	145.720000
369.828766	145.240000
369.922272	145.900000
370.015808	145.400000
370.109314	145.300000
370.202820	145.160000
370.296356	146.380000
370.389832	145.900000
370.483368	145.660000
370.576874	145.720000
370.670410	146.120000
370.763885	145.200000
370.857422	145.440000
370.950928	145.660000
371.044464	146.400000
371.137939	146.200000
371.231476	146.540000
371.324982	146.980000
371.418518	147.220000
371.512024	146.900000
371.605560	147.200000
371.699066	147.400000
371.792572	146.820000
371.886108	146.940000
371.979614	147.060000
372.073120	147.200000
372.166656	147.040000
372.260162	147.480000
372.353668	147.200000
372.447205	146.840000
372.540710	146.700000
372.634277	146.760000
372.727753	146.580000
372.821320	146.880000
372.914795	147.100000
373.008362	146.760000
373.101837	146.940000
373.195404	146.620000
373.288879	146.220000
373.382446	146.820000
373.475922	146.960000
373.569489	147.280000
373.662964	147.640000
373.756531	147.880000
373.850037	147.700000
373.943573	147.680000
374.037109	146.760000
374.130615	146.880000
374.224152	147.080000
374.317657	146.720000
374.411194	147.440000
374.504730	147.300000
374.598236	146.820000
374.691772	146.460000
374.785309	146.500000
374.878815	145.500000
374.972351	146.060000
375.065887	145.960000
375.159454	146.700000
375.252930	146.560000
375.346497	147.020000
375.440002	147.540000
375.533569	147.580000
375.627045	146.940000
375.720612	146.860000
375.814117	147.040000
375.907684	146.460000
376.001160	146.400000
376.094727	146.140000
376.188232	147.000000
376.281799	147.200000
376.375336	147.240000
376.468872	147.840000
376.562408	148.120000
376.655914	147.480000
376.749451	147.180000
376.842987	147.100000
376.936523	146.780000
377.030060	147.060000
377.123596	147.260000
377.217133	146.680000
377.310669	146.740000
377.404205	147.080000
377.497772	147.080000
377.591278	146.660000
377.684845	147.460000
377.778351	147.800000
377.871918	147.540000
377.965424	146.920000
378.058990	147.020000
378.152496	146.840000
378.246063	146.660000
378.339569	146.780000
378.433136	146.920000
378.526642	147.140000
378.620209	146.760000
378.713745	146.500000
378.807312	146.980000
378.900848	147.240000
378.994385	147.320000
379.087921	147.040000
379.181458	147.420000
379.274994	146.440000
379.368530	146.260000
379.462097	146.060000
379.555634	146.440000
379.649170	145.660000
379.742706	145.960000
379.836273	146.220000
379.929810	146.100000
380.023376	145.780000
380.116882	146.100000
380.210449	146.040000
380.303986	145.420000
380.397552	145.120000
380.491058	145.500000
380.584656	145.320000
380.678162	145.500000
380.771729	145.780000
380.865265	146.700000
380.958832	146.860000
381.052368	147.320000
381.145935	147.420000
381.239471	147.540000
381.333008	147.220000
381.426575	147.120000
381.520111	147.280000
381.613647	147.400000
381.707214	147.160000
381.800751	146.660000
381.894318	146.780000
381.987854	146.080000
382.081421	145.880000
382.174988	146.180000
382.268524	146.120000
382.362091	146.200000
382.455627	147.420000
382.549194	146.960000
382.642731	146.360000
382.736298	146.300000
382.829834	145.680000
382.923401	145.540000
383.016937	146.080000
383.110504	146.480000
383.204041	146.520000
383.297607	147.000000
383.391174	146.480000
383.484741	147.200000
383.578278	146.900000
383.671844	146.740000
383.765411	146.180000
383.858948	146.500000
383.952515	145.560000
384.046051	146.200000
384.139618	146.740000
384.233185	147.040000
384.326721	146.860000
384.420288	147.820000
384.513855	147.500000
384.607422	147.520000
384.700989	147.760000
384.794525	147.160000
384.888123	146.720000
384.981659	147.060000
385.075226	146.560000
385.168762	146.020000
385.262360	146.040000
385.355896	145.140000
385.449463	145.060000
385.542999	145.260000
385.636597	146.200000
385.730164	146.600000
385.823730	146.360000
385.917267	145.860000
386.010834	146.040000
386.104401	145.820000
386.197968	146.160000
386.291534	146.740000
386.385101	147.160000
386.478668	147.440000
386.572235	147.260000
386.665802	146.680000
386.759338	146.460000
386.852905	146.140000
386.946472	145.660000
387.040070	145.720000
387.133606	145.680000
387.227203	145.720000
387.320740	145.940000
387.414337	145.780000
387.507874	145.520000
387.601471	145.720000
387.695007	145.680000
387.788605	145.400000
387.882141	145.520000
387.975739	145.500000
388.069275	145.360000
388.162872	145.620000
388.256439	145.540000
388.350037	145.540000
388.443604	145.460000
388.537170	145.440000
388.630737	146.000000
388.724304	146.220000
388.817871	146.220000
388.911438	146.480000
389.005005	146.700000
389.098602	146.560000
389.192169	146.260000
389.285736	146.720000
389.379333	146.640000
389.472870	146.160000
389.566467	145.780000
389.660034	146.340000
389.753632	145.740000
389.847168	146.060000
389.940765	146.700000
390.034332	146.780000
390.127930	146.080000
390.221466	146.400000
390.315063	145.640000
390.408630	144.800000
390.502228	144.340000
390.595795	144.680000
390.689362	144.560000
390.782959	145.220000
390.876526	145.900000
390.970093	145.720000
391.063690	146.300000
391.157257	146.500000
391.250824	146.620000
391.344421	146.460000
391.437988	147.040000
391.531555	146.840000
391.625153	146.760000
391.718750	146.760000
391.812317	146.780000
391.905914	146.600000
391.999481	146.540000
392.093079	146.500000
392.186615	146.520000
392.280243	146.600000
392.373779	146.540000
392.467407	146.820000
392.560944	146.780000
392.654572	146.340000
392.748108	145.920000
392.841736	146.160000
392.935303	145.600000
393.028900	145.540000
393.122467	145.540000
393.216064	145.400000
393.309631	144.600000
393.403229	144.220000
393.496796	144.140000
393.590393	143.820000
393.683990	144.240000
393.777557	145.300000
393.871155	145.920000
393.964722	146.640000
394.058350	147.060000
394.151917	147.280000
394.245514	146.760000
394.339081	147.120000
394.432678	146.900000
394.526245	147.040000
394.619873	146.380000
394.713409	146.360000
394.807037	145.940000
394.900604	145.820000
394.994202	145.700000
395.087769	146.240000
395.181396	145.880000
395.274994	146.520000
395.368561	146.000000
395.462158	146.040000
395.555756	145.660000
395.649353	146.460000
395.742920	145.900000
395.836517	146.580000
395.930115	145.760000
396.023712	146.100000
396.117279	146.160000
396.210876	145.920000
396.304474	145.900000
396.398071	146.560000
396.491669	146.840000
396.585266	146.480000
396.678833	146.640000
396.772461	146.660000
396.866028	146.580000
396.959656	146.780000
397.053223	147.340000
397.146851	147.340000
397.240417	147.860000
397.334015	149.520000
397.427582	150.020000
397.521210	151.200000
397.614807	153.140000
397.708405	155.000000
397.802002	157.240000
397.895599	161.480000
397.989197	166.040000
398.082794	171.300000
398.176392	178.160000
398.269989	186.440000
398.363586	196.200000
398.457184	208.460000
398.550781	223.540000
398.644379	239.200000
398.737976	256.580000
398.831573	275.120000
398.925201	293.680000
399.018768	312.020000
399.112396	330.840000
399.205963	348.880000
399.299591	364.940000
399.393158	380.400000
399.486786	396.220000
399.580353	411.340000
399.673981	424.720000
399.767578	440.020000
399.861206	454.000000
399.954773	465.500000
400.048401	471.740000
400.141998	474.400000
400.235596	471.140000
400.329193	463.460000
400.422791	451.100000
400.516418	437.360000
400.610016	423.460000
400.703613	408.860000
400.797211	391.260000
400.890808	373.040000
400.984436	354.740000
401.078033	333.540000
401.171631	312.160000
401.265259	292.160000
401.358826	273.400000
401.452484	255.460000
401.546051	240.320000
401.639679	224.460000
401.733246	211.340000
401.826904	198.520000
401.920471	187.660000
402.014099	178.220000
402.107697	171.600000
402.201324	165.640000
402.294891	161.920000
402.388550	158.520000
402.482147	155.720000
402.575745	153.260000
402.669373	151.380000
402.762970	149.640000
402.856567	148.860000
402.950195	148.280000
403.043793	147.700000
403.137390	147.780000
403.231018	147.160000
403.324615	147.080000
403.418243	146.560000
403.511841	146.880000
403.605469	146.580000
403.699066	147.020000
403.792694	147.180000
403.886292	147.180000
403.979919	147.160000
404.073517	147.320000
404.167145	147.280000
404.260712	147.200000
404.354370	147.320000
404.447937	147.460000
404.541595	147.180000
404.635162	147.460000
404.728821	147.860000
404.822418	147.480000
404.916046	146.960000
405.009644	147.480000
405.103271	147.520000
405.196899	146.820000
405.290497	146.980000
405.384125	147.380000
405.477722	146.700000
405.571350	146.280000
405.664948	146.540000
405.758575	146.480000
405.852203	145.960000
405.945801	146.340000
406.039429	146.580000
406.133057	146.300000
406.226654	146.520000
406.320312	146.780000
406.413879	146.860000
406.507538	147.180000
406.601135	146.900000
406.694763	147.080000
406.788361	147.020000
406.882019	146.500000
406.975586	146.460000
407.069244	147.140000
407.162872	147.100000
407.256470	146.840000
407.350098	146.800000
407.443726	146.400000
407.537323	146.100000
407.630951	146.300000
407.724579	146.220000
407.818207	146.900000
407.911804	147.140000
408.005432	146.900000
408.099060	146.740000
408.192688	147.260000
408.286285	146.820000
408.379913	146.040000
408.473572	146.480000
408.567169	146.220000
408.660828	145.760000
408.754395	145.620000
408.848053	145.940000
408.941650	145.780000
409.035309	145.580000
409.128906	145.740000
409.222565	146.160000
409.316132	146.420000
409.409790	146.220000
409.503387	146.460000
409.597046	146.500000
409.690674	146.400000
409.784302	146.260000
409.877930	146.180000
409.971558	146.200000
410.065186	146.200000
410.158783	145.820000
410.252411	145.840000
410.346039	146.100000
410.439667	145.960000
410.533295	146.160000
410.626923	146.760000
410.720551	146.660000
410.814209	147.000000
410.907806	147.300000
411.001465	146.900000
411.095062	146.860000
411.188721	147.200000
411.282318	146.980000
411.375977	146.840000
411.469574	146.780000
411.563232	146.320000
411.656830	145.980000
411.750488	145.780000
411.844086	145.580000
411.937744	145.980000
412.031372	146.000000
412.125000	146.100000
412.218628	146.280000
412.312256	147.020000
412.405884	147.420000
412.499512	147.460000
412.593170	147.640000
412.686798	147.640000
412.780426	147.040000
412.874054	146.900000
412.967682	147.100000
413.061310	147.580000
413.154968	147.500000
413.248566	147.520000
413.342224	147.180000
413.435852	147.120000
413.529510	146.520000
413.623108	145.980000
413.716766	145.760000
413.810364	146.140000
413.904022	145.640000
413.997650	145.400000
414.091309	146.140000
414.184906	146.060000
414.278564	145.340000
414.372192	146.040000
414.465851	146.160000
414.559479	145.740000
414.653107	146.740000
414.746735	146.960000
414.840393	147.020000
414.934021	147.300000
415.027649	147.080000
415.121277	146.620000
415.214935	146.780000
415.308563	146.440000
415.402191	145.640000
415.495850	145.820000
415.589478	145.460000
415.683136	145.080000
415.776733	145.340000
415.870422	146.180000
415.964020	145.620000
416.057678	145.580000
416.151306	145.760000
416.244965	145.440000
416.338562	145.300000
416.432251	146.440000
416.525848	147.720000
416.619507	148.300000
416.713165	149.000000
416.806793	148.840000
416.900421	148.720000
416.994080	147.260000
417.087708	146.700000
417.181366	145.940000
417.274994	145.980000
417.368622	145.940000
417.462280	146.720000
417.555908	146.860000
417.649567	146.800000
417.743195	146.820000
417.836853	146.700000
417.930481	146.740000
418.024170	146.920000
418.117767	147.460000
418.211426	147.720000
418.305054	147.880000
418.398712	147.080000
418.492340	147.020000
418.585999	147.200000
418.679626	147.080000
418.773285	146.640000
418.866913	147.340000
418.960571	147.580000
419.054230	147.320000
419.147858	147.280000
419.241516	147.580000
419.335144	147.280000
419.428802	146.960000
419.522461	146.820000
419.616089	146.560000
419.709747	146.600000
419.803375	146.620000
419.897034	146.160000
419.990662	145.880000
420.084320	146.380000
420.177979	146.640000
420.271606	146.900000
420.365295	147.820000
420.458893	148.080000
420.552582	148.280000
420.646210	148.360000
420.739868	147.980000
420.833496	147.540000
420.927155	147.440000
421.020782	146.880000
421.114471	146.020000
421.208069	146.080000
421.301758	146.220000
421.395386	146.480000
421.489044	146.480000
421.582703	146.900000
421.676361	147.560000
421.769989	147.280000
421.863647	147.120000
421.957306	147.320000
422.050934	147.300000
422.144592	146.380000
422.238251	146.260000
422.331909	146.220000
422.425537	146.080000
422.519196	146.060000
422.612854	146.300000
422.706543	146.140000
422.800140	146.560000
422.893829	146.340000
422.987457	146.100000
423.081146	146.100000
423.174744	146.760000
423.268433	146.180000
423.362061	146.320000
423.455750	146.280000
423.549347	146.520000
423.643036	145.780000
423.736664	146.500000
423.830353	146.440000
423.924011	147.000000
424.017639	146.500000
424.111298	146.820000
424.204956	146.260000
424.298615	146.240000
424.392273	145.740000
424.485931	145.980000
424.579559	145.820000
424.673218	145.660000
424.766876	145.660000
424.860535	145.560000
424.954193	145.240000
425.047882	145.820000
425.141510	146.300000
425.235199	146.360000
425.328796	146.320000
425.422485	146.520000
425.516113	145.740000
425.609802	145.520000
425.703430	145.840000
425.797119	145.680000
425.890747	145.660000
425.984436	146.220000
426.078064	145.940000
426.171753	145.700000
426.265411	145.780000
426.359070	146.300000
426.452728	146.000000
426.546356	146.060000
426.640015	145.800000
426.733673	145.820000
426.827332	145.140000
426.920990	145.880000
427.014648	145.940000
427.108307	146.440000
427.201965	147.060000
427.295624	147.120000
427.389282	146.480000
427.482941	146.560000
427.576630	146.240000
427.670258	145.780000
427.763947	145.820000
427.857574	145.780000
427.951263	145.680000
428.044922	145.340000
428.138611	145.460000
428.232239	145.880000
428.325928	146.260000
428.419556	146.640000
428.513245	146.640000
428.606903	146.760000
428.700562	146.420000
428.794220	145.580000
428.887878	144.980000
428.981537	145.300000
429.075195	145.420000
429.168854	145.900000
429.262512	146.500000
429.356201	146.700000
429.449860	146.480000
429.543518	146.320000
429.637177	146.180000
429.730835	146.180000
429.824493	146.260000
429.918182	146.600000
430.011810	146.240000
430.105530	145.480000
430.199158	145.480000
430.292847	145.380000
430.386475	145.180000
430.480164	144.900000
430.573792	145.040000
430.667511	145.060000
430.761139	144.960000
430.854828	145.420000
430.948456	145.980000
431.042145	146.580000
431.135834	146.260000
431.229492	146.540000
431.323151	146.620000
431.416809	146.300000
431.510468	145.940000
431.604156	145.920000
431.697815	145.860000
431.791473	145.360000
431.885132	145.420000
431.978821	146.000000
432.072479	146.260000
432.166138	146.800000
432.259827	146.800000
432.353485	146.880000
432.447174	146.700000
432.540802	146.420000
432.634491	146.260000
432.728149	146.760000
432.821838	147.460000
432.915466	147.040000
433.009186	147.480000
433.102814	146.680000
433.196503	146.080000
433.290131	145.640000
433.383850	146.040000
433.477509	145.940000
433.571167	147.120000
433.664856	147.660000
433.758514	148.020000
433.852173	147.860000
433.945862	147.340000
434.039520	146.900000
434.133179	146.140000
434.226868	145.580000
434.320526	145.120000
434.414185	146.260000
434.507874	145.880000
434.601562	146.540000
434.695221	146.360000
434.788910	146.840000
434.882538	146.340000
434.976257	146.140000
435.069885	146.140000
435.163574	146.660000
435.257233	146.260000
435.350922	145.840000
435.444580	145.740000
435.538269	145.360000
435.631897	145.320000
435.725616	145.880000
435.819275	146.560000
435.912964	147.120000
436.006622	147.660000
436.100311	147.580000
436.193970	146.980000
436.287628	146.560000
436.381317	146.260000
436.474976	145.680000
436.568665	145.180000
436.662323	145.580000
436.756012	145.680000
436.849670	145.520000
436.943390	145.580000
437.037018	145.700000
437.130737	145.620000
437.224365	145.240000
437.318085	145.420000
437.411713	145.580000
437.505432	146.020000
437.599060	146.300000
437.692780	146.920000
437.786407	146.860000
437.880127	146.840000
437.973755	146.720000
438.067474	146.220000
438.161133	146.000000
438.254822	146.600000
438.348480	146.500000
438.442169	146.780000
438.535828	147.380000
438.629517	147.120000
438.723175	146.220000
438.816864	146.720000
438.910553	146.300000
439.004211	145.900000
439.097900	146.040000
439.191559	146.180000
439.285248	145.480000
439.378906	145.720000
439.472626	145.520000
439.566284	144.800000
439.659973	145.340000
439.753632	145.360000
439.847321	145.780000
439.940979	145.980000
440.034698	146.640000
440.128326	146.040000
440.222046	146.080000
440.315674	145.080000
440.409393	145.100000
440.503082	145.020000
440.596741	145.520000
440.690430	145.520000
440.784088	145.940000
440.877777	145.520000
440.971466	145.780000
441.065125	145.120000
441.158813	145.000000
441.252502	145.040000
441.346161	145.240000
441.439850	145.320000
441.533539	145.540000
441.627197	145.940000
441.720886	145.840000
441.814606	146.240000
441.908234	146.540000
442.001953	146.580000
442.095612	146.960000
442.189301	147.160000
442.282959	147.040000
442.376678	146.100000
442.470306	146.760000
442.564026	146.140000
442.657684	146.160000
442.751404	146.080000
442.845032	147.080000
442.938751	146.360000
443.032440	146.460000
443.126099	146.200000
443.219788	146.600000
443.313477	146.140000
443.407166	146.660000
443.500824	146.680000
443.594513	147.040000
443.688202	146.920000
443.781891	146.580000
443.875549	146.140000
443.969238	146.380000
444.062927	146.160000
444.156647	145.960000
444.250275	146.600000
444.343994	146.800000
444.437653	147.080000
444.531372	147.100000
444.625031	146.980000
444.718719	146.540000
444.812378	146.860000
444.906097	146.160000
444.999756	145.640000
445.093445	145.900000
445.187103	145.900000
445.280823	146.020000
445.374512	146.140000
445.468201	146.720000
445.561859	146.460000
445.655548	146.620000
445.749237	145.860000
445.842926	145.840000
445.936615	146.160000
446.030304	146.180000
446.123962	146.280000
446.217651	146.420000
446.311340	146.540000
446.405029	146.060000
446.498749	145.960000
446.592407	145.460000
446.686096	145.660000
446.779755	145.660000
446.873474	145.580000
446.967133	145.940000
447.060852	145.980000
447.154510	145.780000
447.248230	145.980000
447.341858	146.020000
447.435577	145.300000
447.529236	145.180000
447.622955	145.280000
447.716644	145.060000
447.810333	145.400000
447.904022	146.340000
447.997711	146.540000
448.091400	146.800000
448.185059	146.800000
448.278748	146.780000
448.372437	146.140000
448.466125	146.560000
448.559814	146.380000
448.653503	146.820000
448.747192	146.920000
448.840912	147.440000
448.934570	147.200000
449.028290	147.860000
449.121948	147.200000
449.215637	146.800000
449.309296	146.420000
449.403015	146.500000
449.496674	145.880000
449.590393	146.060000
449.684052	146.160000
449.777771	146.860000
449.871429	146.300000
449.965149	146.360000
450.058838	146.660000
450.152527	146.980000
450.246216	146.540000
450.339905	146.800000
450.433594	146.460000
450.527283	146.820000
450.620972	146.280000
450.714661	146.420000
450.808350	146.620000
450.902039	147.100000
450.995728	146.780000
451.089417	146.820000
451.183105	146.540000
451.276794	146.840000
451.370514	146.340000
451.464172	145.760000
451.557892	145.560000
451.651550	145.660000
451.745270	145.200000
451.838928	144.900000
451.932648	145.140000
452.026306	145.880000
452.120026	145.420000
452.213684	145.900000
452.307404	146.420000
452.401062	146.740000
452.494781	146.720000
452.588470	146.780000
452.682159	145.940000
452.775848	145.880000
452.869537	145.120000
452.963226	144.840000
453.056915	145.060000
453.150604	145.620000
453.244293	145.800000
453.337982	146.680000
453.431671	146.960000
453.525360	147.360000
453.619049	147.100000
453.712769	147.080000
453.806427	146.480000
453.900146	145.980000
453.993805	145.560000
454.087555	145.960000
454.181213	145.980000
454.274933	146.080000
454.368591	146.140000
454.462311	146.100000
454.555969	145.840000
454.649689	146.340000
454.743347	146.180000
454.837067	146.940000
454.930756	147.700000
455.024445	147.840000
455.118134	147.240000
455.211853	147.860000
455.305542	147.160000
455.399231	146.780000
455.492920	146.580000
455.586609	146.760000
455.680298	146.600000
455.773987	146.400000
455.867676	146.120000
455.961365	146.740000
456.055084	146.780000
456.148773	146.700000
456.242493	147.060000
456.336151	147.240000
456.429871	147.080000
456.523529	147.340000
456.617249	147.040000
456.710907	147.520000
456.804626	147.400000
456.898315	146.740000
456.992035	146.400000
457.085693	146.120000
457.179413	145.140000
457.273102	146.040000
457.366791	146.460000
457.460480	146.760000
457.554199	147.440000
457.647888	147.700000
457.741577	146.720000
457.835266	146.580000
457.928955	146.500000
458.022644	146.760000
458.116364	147.040000
458.210052	147.160000
458.303741	147.180000
458.397461	146.300000
458.491119	145.440000
458.584839	145.280000
458.678528	144.820000
458.772247	144.480000
458.865906	144.980000
458.959625	146.120000
459.053284	145.900000
459.147003	146.240000
459.240692	146.920000
459.334412	147.080000
459.428070	146.340000
459.521790	146.480000
459.615479	146.520000
459.709198	146.660000
459.802887	146.060000
459.896576	145.920000
459.990265	146.140000
460.083954	146.060000
460.177673	145.400000
460.271362	145.640000
460.365051	145.660000
460.458740	145.360000
460.552429	144.860000
460.646149	145.080000
460.739838	145.080000
460.833527	145.000000
460.927246	144.840000
461.020905	145.200000
461.114655	145.220000
461.208313	145.260000
461.302032	145.180000
461.395691	145.440000
461.489441	145.380000
461.583099	145.080000
461.676819	145.080000
461.770477	145.380000
461.864197	145.300000
461.957916	145.480000
462.051605	145.100000
462.145294	145.840000
462.238983	145.400000
462.332703	145.760000
462.426392	146.160000
462.520081	146.460000
462.613770	145.800000
462.707489	146.280000
462.801178	146.040000
462.894867	145.580000
462.988556	145.780000
463.082275	146.120000
463.175964	145.400000
463.269684	145.560000
463.363342	145.720000
463.457092	145.300000
463.550751	145.180000
463.644470	145.620000
463.738129	145.780000
463.831879	145.980000
463.925537	146.580000
464.019257	146.780000
464.112946	147.000000
464.206665	146.500000
464.300323	146.280000
464.394043	146.140000
464.487762	145.780000
464.581451	146.020000
464.675140	146.020000
464.768829	146.340000
464.862549	146.460000
464.956238	146.880000
465.049927	146.540000
465.143646	146.700000
465.237335	146.480000
465.331024	146.720000
465.424713	146.400000
465.518433	146.520000
465.612152	146.180000
465.705811	146.020000
465.799561	145.820000
465.893219	145.800000
465.986938	145.800000
466.080597	145.980000
466.174347	146.460000
466.268005	146.340000
466.361725	146.240000
466.455414	146.260000
466.549133	146.020000
466.642792	145.960000
466.736542	145.640000
466.830231	145.700000
466.923920	145.740000
467.017609	145.840000
467.111328	145.080000
467.205017	145.460000
467.298706	145.540000
467.392426	145.400000
467.486115	145.880000
467.579803	145.880000
467.673523	146.280000
467.767212	146.480000
467.860901	146.500000
467.954651	146.580000
468.048309	147.180000
468.142029	146.780000
468.235718	146.520000
468.329437	146.320000
468.423096	146.100000
468.516846	145.540000
468.610504	145.600000
468.704224	145.320000
468.797913	145.560000
468.891632	145.740000
468.985291	146.120000
469.079010	146.120000
469.172729	146.260000
469.266418	146.720000
469.360107	146.620000
469.453827	146.720000
469.547516	146.620000
469.641205	146.980000
469.734924	146.820000
469.828613	147.180000
469.922302	147.140000
470.016022	147.140000
470.109711	146.860000
470.203430	146.200000
470.297150	145.500000
470.390808	145.700000
470.484558	145.640000
470.578217	146.200000
470.671936	147.020000
470.765625	147.880000
470.859344	147.620000
470.953003	148.000000
471.046753	147.180000
471.140411	146.380000
471.234131	146.120000
471.327820	146.660000
471.421539	146.640000
471.515228	146.500000
471.608948	146.720000
471.702637	146.280000
471.796326	145.580000
471.890045	145.780000
471.983734	146.440000
472.077423	145.880000
472.171143	146.180000
472.264832	146.300000
472.358521	145.800000
472.452240	145.300000
472.545929	146.260000
472.639648	146.040000
472.733337	146.300000
472.827057	146.280000
472.920746	146.540000
473.014465	146.380000
473.108124	146.320000
473.201874	146.380000
473.295532	146.360000
473.389252	146.660000
473.482941	146.960000
473.576660	146.540000
473.670319	146.180000
473.764069	146.280000
473.857727	146.400000
473.951477	146.220000
474.045166	147.200000
474.138855	147.320000
474.232574	147.460000
474.326263	147.120000
474.419952	147.440000
474.513672	146.980000
474.607361	146.900000
474.701050	146.760000
474.794769	147.200000
474.888458	147.060000
474.982178	147.280000
475.075867	147.360000
475.169586	147.240000
475.263275	146.920000
475.356995	146.720000
475.450653	146.180000
475.544403	145.860000
475.638062	146.660000
475.731812	146.180000
475.825470	145.820000
475.919189	146.080000
476.012878	146.380000
476.106598	145.600000
476.200256	146.060000
476.294006	146.320000
476.387695	146.400000
476.481384	146.260000
476.575104	146.340000
476.668793	145.880000
476.762512	145.740000
476.856201	146.240000
476.949890	146.180000
477.043610	145.500000
477.137299	145.940000
477.230988	145.960000
477.324707	145.420000
477.418396	145.820000
477.512146	146.380000
477.605804	146.140000
477.699524	146.180000
477.793213	146.340000
477.886932	146.220000
477.980591	146.120000
478.074341	145.920000
478.167999	145.600000
478.261749	145.380000
478.355408	145.200000
478.449127	145.540000
478.542816	146.480000
478.636536	147.460000
478.730225	147.640000
478.823944	147.960000
478.917633	147.980000
479.011322	147.580000
479.105042	147.360000
479.198730	147.380000
479.292450	147.440000
479.386139	147.600000
479.479828	147.660000
479.573547	147.500000
479.667267	147.220000
479.760925	146.880000
479.854675	146.600000
479.948334	146.740000
480.042084	146.260000
480.135742	146.900000
480.229462	146.500000
480.323151	146.760000
480.416870	145.840000
480.510529	146.100000
480.604279	145.320000
480.697937	146.000000
480.791656	145.400000
480.885345	145.480000
480.979065	145.280000
481.072754	146.280000
481.166473	146.420000
481.260132	146.500000
481.353882	146.700000
481.447540	146.640000
481.541260	146.080000
481.635010	145.260000
481.728668	145.420000
481.822388	145.400000
481.916077	145.600000
482.009796	145.740000
482.103485	146.580000
482.197205	146.680000
482.290863	146.940000
482.384613	146.700000
482.478271	146.420000
482.571991	146.100000
482.665680	145.880000
482.759399	146.620000
482.853058	147.140000
482.946808	147.120000
483.040466	146.900000
483.134216	146.920000
483.227875	146.360000
483.321594	146.680000
483.415283	146.580000
483.509003	146.640000
483.602661	146.700000
483.696411	146.800000
483.790070	146.620000
483.883789	146.740000
483.977478	147.000000
484.071198	147.220000
484.164917	146.740000
484.258606	146.180000
484.352325	146.480000
484.445984	146.360000
484.539734	146.320000
484.633392	146.080000
484.727142	146.380000
484.820801	146.080000
484.914520	146.160000
485.008209	146.180000
485.101929	146.780000
485.195587	146.740000
485.289337	146.800000
485.382996	146.760000
485.476715	146.800000
485.570404	147.160000
485.664124	146.980000
485.757782	147.560000
485.851532	147.380000
485.945190	147.160000
486.038910	146.840000
486.132599	147.360000
486.226318	146.380000
486.319977	146.460000
486.413727	147.140000
486.507446	146.560000
486.601105	145.840000
486.694855	145.940000
486.788513	145.620000
486.882233	144.880000
486.975922	145.380000
487.069641	145.480000
487.163300	145.540000
487.257050	146.720000
487.350708	146.720000
487.444427	146.600000
487.538116	146.660000
487.631836	146.700000
487.725494	146.220000
487.819214	146.200000
487.912903	146.120000
488.006622	146.460000
488.100281	146.680000
488.194031	146.460000
488.287689	147.200000
488.381409	147.740000
488.475098	147.380000
488.568817	147.480000
488.662476	147.080000
488.756226	145.880000
488.849945	145.040000
488.943604	145.200000
489.037354	145.160000
489.131012	145.300000
489.224731	145.880000
489.318390	145.920000
489.412140	146.080000
489.505798	146.120000
489.599518	145.780000
489.693207	146.000000
489.786926	145.840000
489.880585	145.540000
489.974335	145.880000
490.067993	146.840000
490.161713	146.780000
490.255371	147.900000
490.349121	148.020000
490.442780	147.680000
490.536499	147.000000
490.630188	147.020000
490.723907	146.280000
490.817566	146.380000
490.911285	146.100000
491.004974	145.940000
491.098694	145.800000
491.192413	146.540000
491.286102	146.300000
491.379822	146.440000
491.473480	146.680000
491.567200	146.220000
491.660889	145.460000
491.754608	145.440000
491.848267	145.300000
491.941986	145.240000
492.035675	145.680000
492.129395	146.120000
492.223053	146.000000
492.316772	146.180000
492.410461	146.180000
492.504181	145.880000
492.597839	145.080000
492.691559	145.180000
492.785248	145.400000
492.878967	145.600000
492.972626	145.700000
493.066345	146.120000
493.160034	145.760000
493.253754	145.320000
493.347412	144.880000
493.441132	145.100000
493.534882	145.520000
493.628540	146.200000
493.722260	146.720000
493.815918	147.200000
493.909668	147.340000
494.003326	147.600000
494.097046	147.300000
494.190704	146.740000
494.284454	146.660000
494.378113	146.700000
494.471832	146.000000
494.565491	145.880000
494.659210	146.080000
494.752899	146.120000
494.846619	145.960000
494.940277	146.260000
495.033997	146.260000
495.127686	146.020000
495.221405	145.760000
495.315063	145.720000
495.408783	145.720000
495.502441	145.920000
495.596191	146.140000
495.689850	146.180000
495.783569	146.380000
495.877228	146.520000
495.970947	146.360000
496.064697	146.140000
496.158356	146.840000
496.252075	146.760000
496.345734	146.520000
496.439453	147.280000
496.533142	147.480000
496.626862	147.240000
496.720520	147.240000
496.814240	147.240000
496.907898	146.820000
497.001617	147.040000
497.095306	146.520000
497.189026	146.460000
497.282684	146.480000
497.376404	146.580000
497.470062	146.120000
497.563782	146.220000
497.657471	146.140000
497.751190	145.900000
497.844849	145.700000
497.938568	146.080000
498.032227	146.320000
498.125946	146.440000
498.219635	146.380000
498.313354	146.540000
498.407074	146.180000
498.500732	146.040000
498.594452	146.120000
498.688110	145.860000
498.781830	145.740000
498.875519	145.780000
498.969238	145.780000
499.062897	145.640000
499.156616	146.340000
499.250275	146.300000
499.343994	145.920000
499.437653	145.900000
499.531372	146.020000
499.625061	146.260000
499.718781	146.220000
499.812439	147.160000
499.906158	147.260000
499.999817	146.860000
500.093536	146.340000
500.187195	146.240000
500.280914	145.700000
500.374573	145.840000
500.468323	145.920000
500.561981	146.220000
500.655701	146.220000
500.749420	146.580000
500.843079	146.500000
500.936798	146.700000
501.030457	147.000000
501.124176	147.300000
501.217834	146.780000
501.311554	146.660000
501.405212	146.340000
501.498962	145.580000
501.592621	145.380000
501.686340	145.900000
501.779999	146.200000
501.873718	146.500000
501.967377	146.960000
502.061096	147.440000
502.154755	147.080000
502.248474	146.720000
502.342133	146.840000
502.435852	146.740000
502.529510	147.060000
502.623230	147.720000
502.716888	147.360000
502.810608	147.300000
502.904266	147.620000
502.997986	147.100000
503.091705	146.260000
503.185364	146.440000
503.279083	146.640000
503.372772	146.120000
503.466492	145.700000
503.560150	145.980000
503.653870	146.220000
503.747528	146.120000
503.841248	146.280000
503.934906	146.620000
504.028625	146.460000
504.122284	146.740000
504.216003	147.260000
504.309662	147.080000
504.403381	147.100000
504.497040	147.220000
504.590759	146.780000
504.684418	146.520000
504.778137	146.800000
504.871796	147.180000
504.965515	146.880000
505.059174	147.040000
505.152893	146.460000
505.246521	146.140000
505.340240	145.600000
505.433899	145.940000
505.527618	146.220000
505.621338	146.620000
505.714996	146.700000
505.808716	146.700000
505.902374	147.180000
505.996094	146.960000
506.089752	146.720000
506.183472	146.660000
506.277130	146.620000
506.370850	146.460000
506.464508	146.100000
506.558228	146.300000
506.651886	145.980000
506.745605	146.100000
506.839264	146.000000
506.932983	146.440000
507.026611	146.220000
507.120331	146.820000
507.213989	146.600000
507.307709	146.660000
507.401367	146.780000
507.495087	147.540000
507.588745	147.040000
507.682465	147.720000
507.776123	147.440000
507.869843	147.420000
507.963531	146.920000
508.057190	147.640000
508.150909	146.780000
508.244568	147.160000
508.338287	146.820000
508.431946	146.480000
508.525665	146.160000
508.619324	146.240000
508.713013	146.120000
508.806671	146.560000
508.900391	147.460000
508.994049	147.360000
509.087769	147.180000
509.181427	147.280000
509.275146	146.760000
509.368774	145.820000
509.462494	145.900000
509.556152	146.240000
509.649872	146.300000
509.743530	146.540000
509.837250	146.900000
509.930878	146.700000
510.024597	146.580000
510.118256	146.080000
510.211975	145.920000
510.305695	145.860000
510.399353	146.180000
510.493042	146.660000
510.586700	146.940000
510.680420	147.600000
510.774078	147.580000
510.867798	148.020000
510.961426	147.480000
511.055145	147.580000
511.148804	147.160000
511.242523	147.500000
511.336151	147.300000
511.429871	147.860000
511.523529	147.740000
511.617249	147.500000
511.710876	147.000000
511.804596	146.400000
511.898254	145.980000
511.991974	146.240000
512.085632	146.100000
512.179321	146.200000
512.272949	146.680000
512.366699	147.020000
512.460327	146.800000
512.554077	147.600000
512.647766	147.480000
512.741394	147.360000
512.835144	147.340000
512.928772	146.860000
513.022461	146.820000
513.116150	146.400000
513.209839	146.520000
513.303467	146.460000
513.397217	146.660000
513.490845	146.080000
513.584595	146.500000
513.678223	145.940000
513.771912	145.060000
513.865601	145.020000
513.959290	145.060000
514.052917	145.120000
514.146667	146.020000
514.240295	146.820000
514.333984	147.160000
514.427673	146.920000
514.521362	147.240000
514.614990	146.440000
514.708740	146.560000
514.802368	146.760000
514.896057	146.920000
514.989746	147.360000
515.083435	147.220000
515.177124	147.240000
515.270752	146.820000
515.364502	146.880000
515.458130	146.720000
515.551819	146.880000
515.645508	146.800000
515.739197	146.840000
515.832825	146.920000
515.926575	146.440000
516.020203	146.800000
516.113892	147.000000
516.207520	147.220000
516.301270	147.460000
516.394897	147.880000
516.488586	148.260000
516.582275	147.920000
516.675964	147.160000
516.769592	146.880000
516.863281	146.980000
516.956970	147.060000
517.050659	146.980000
517.144287	147.460000
517.238037	147.420000
517.331665	147.020000
517.425354	146.260000
517.519043	146.120000
517.612732	146.500000
517.706421	146.360000
517.800049	146.240000
517.893738	146.280000
517.987427	146.620000
518.081116	146.220000
518.174744	145.980000
518.268433	146.140000
518.362122	146.680000
518.455811	146.340000
518.549438	146.920000
518.643127	148.000000
518.736816	147.720000
518.830505	147.000000
518.924133	147.220000
519.017822	147.040000
519.111511	146.620000
519.205200	147.320000
519.298828	147.800000
519.392517	147.580000
519.486206	147.980000
519.579895	147.760000
519.673523	147.340000
519.767212	147.300000
519.860901	147.840000
519.954590	147.200000
520.048279	147.020000
520.141907	146.500000
520.235596	147.120000
520.329224	147.160000
520.422974	147.060000
520.516602	147.060000
520.610291	147.100000
520.703918	146.620000
520.797607	146.040000
520.891296	146.240000
520.984985	146.580000
521.078613	147.220000
521.172302	146.720000
521.265930	147.700000
521.359680	148.200000
521.453308	147.940000
521.546997	147.600000
521.640625	147.860000
521.734314	147.000000
521.827942	146.680000
521.921692	147.100000
522.015320	147.220000
522.109009	147.080000
522.202698	147.040000
522.296326	146.800000
522.390015	146.840000
522.483704	146.860000
522.577393	146.580000
522.671021	146.700000
522.764709	146.200000
522.858337	146.380000
522.952026	146.480000
523.045654	147.400000
523.139404	147.840000
523.233032	148.280000
523.326721	147.960000
523.420349	147.760000
523.514038	147.280000
523.607666	147.280000
523.701355	146.900000
523.795044	146.700000
523.888733	146.760000
523.982361	146.620000
524.076050	146.380000
524.169678	146.780000
524.263367	146.700000
524.356995	146.520000
524.450684	146.600000
524.544373	146.240000
524.638062	146.300000
524.731750	146.460000
524.825378	146.660000
524.919067	146.160000
525.012695	146.440000
525.106384	146.120000
525.200012	146.280000
525.293701	146.160000
525.387329	146.720000
525.481018	146.960000
525.574646	147.440000
525.668396	147.220000
525.762024	147.680000
525.855713	147.760000
525.949341	147.380000
526.043030	147.520000
526.136658	147.500000
526.230347	147.000000
526.323975	146.640000
526.417664	146.340000
526.511292	146.220000
526.604980	146.460000
526.698608	146.340000
526.792297	146.740000
526.885925	147.500000
526.979614	147.540000
527.073303	147.380000
527.166931	147.620000
527.260620	147.580000
527.354309	147.360000
527.447998	147.140000
527.541626	146.660000
527.635315	146.740000
527.728943	147.300000
527.822632	147.260000
527.916260	147.260000
528.009949	148.100000
528.103577	147.560000
528.197266	146.840000
528.290894	146.900000
528.384583	146.780000
528.478210	146.420000
528.571899	147.020000
528.665527	147.200000
528.759216	147.320000
528.852844	147.920000
528.946533	147.720000
529.040161	147.200000
529.133850	146.880000
529.227478	146.980000
529.321167	147.040000
529.414856	147.520000
529.508484	148.180000
529.602173	148.220000
529.695801	147.860000
529.789490	147.360000
529.883057	147.160000
529.976746	147.260000
530.070374	147.640000
530.164062	147.520000
530.257690	147.740000
530.351379	147.880000
530.445007	147.600000
530.538696	147.040000
530.632324	147.480000
530.726013	147.620000
530.819641	147.720000
530.913330	147.860000
531.006958	147.800000
531.100647	147.760000
531.194275	147.380000
531.287964	146.960000
531.381592	146.480000
531.475220	146.960000
531.568848	146.760000
531.662537	146.740000
531.756226	147.260000
531.849854	147.500000
531.943542	147.240000
532.037170	146.900000
532.130859	147.600000
532.224487	146.980000
532.318176	146.420000
532.411804	147.000000
532.505432	147.440000
532.599060	146.720000
532.692749	146.680000
532.786377	147.540000
532.880066	146.660000
532.973694	145.900000
533.067383	145.760000
533.161011	145.960000
533.254639	145.640000
533.348267	145.740000
533.441956	146.280000
533.535583	146.220000
533.629272	146.360000
533.722900	145.900000
533.816589	146.080000
533.910156	146.560000
534.003845	146.260000
534.097534	146.400000
534.191162	147.320000
534.284851	147.400000
534.378479	146.660000
534.472107	147.220000
534.565735	146.700000
534.659424	146.500000
534.753052	146.820000
534.846741	146.700000
534.940369	147.100000
535.033997	147.260000
535.127625	146.940000
535.221313	147.060000
535.314941	147.280000
535.408630	146.580000
535.502197	146.920000
535.595886	146.600000
535.689514	146.140000
535.783203	146.500000
535.876831	146.960000
535.970459	146.920000
536.064087	147.300000
536.157776	147.380000
536.251404	147.160000
536.345093	146.820000
536.438721	146.660000
536.532349	146.720000
536.626038	146.420000
536.719666	146.880000
536.813293	147.020000
536.906921	146.900000
537.000610	147.200000
537.094238	147.540000
537.187866	146.960000
537.281494	146.780000
537.375183	146.940000
537.468811	146.540000
537.562439	146.620000
537.656067	146.780000
537.749756	146.940000
537.843384	147.260000
537.937012	147.320000
538.030640	147.020000
538.124329	147.120000
538.217896	147.300000
538.311584	147.260000
538.405212	147.100000
538.498901	147.400000
538.592468	148.000000
538.686157	147.620000
538.779785	146.780000
538.873413	146.800000
538.967102	146.320000
539.060730	145.460000
539.154358	145.760000
539.247986	146.340000
539.341675	146.600000
539.435242	146.760000
539.528931	147.260000
539.622559	146.860000
539.716187	147.200000
539.809814	147.060000
539.903503	146.940000
539.997070	146.440000
540.090759	146.820000
540.184387	146.340000
540.278015	146.680000
540.371643	147.100000
540.465332	147.300000
540.558899	146.740000
540.652588	146.820000
540.746216	146.440000
540.839844	146.580000
540.933472	146.540000
541.027100	146.800000
541.120728	147.020000
541.214417	147.280000
541.308044	147.240000
541.401672	147.180000
541.495300	146.960000
541.588928	146.600000
541.682617	146.200000
541.776184	145.820000
541.869873	146.020000
541.963440	146.420000
542.057129	146.420000
542.150757	146.560000
542.244385	146.360000
542.338013	145.920000
542.431641	145.680000
542.525269	145.720000
542.618958	146.200000
542.712524	146.640000
542.806213	146.620000
542.899780	147.020000
542.993469	146.700000
543.087036	146.180000
543.180725	145.960000
543.274292	146.340000
543.367981	146.580000
543.461548	147.260000
543.555237	147.200000
543.648926	147.720000
543.742493	148.260000
543.836182	147.900000
543.929749	147.620000
544.023437	147.640000
544.117004	147.280000
544.210693	146.940000
544.304260	146.880000
544.397949	146.760000
544.491516	146.980000
544.585205	146.960000
544.678772	146.500000
544.772461	146.700000
544.866028	146.980000
544.959717	146.920000
545.053284	146.620000
545.146973	147.040000
545.240540	147.100000
545.334229	147.640000
545.427795	147.860000
545.521423	148.240000
545.615051	148.200000
545.708679	148.720000
545.802307	148.240000
545.895935	148.520000
545.989624	149.240000
546.083191	149.020000
546.176880	148.780000
546.270447	148.140000
546.364136	148.140000
546.457703	147.420000
546.551331	147.520000
546.644958	147.220000
546.738586	147.780000
546.832214	147.340000
546.925842	147.120000
547.019409	147.480000
547.113098	147.400000
547.206665	147.220000
547.300354	147.180000
547.393921	147.700000
547.487549	147.620000
547.581177	147.480000
547.674805	147.340000
547.768433	146.820000
547.862061	146.480000
547.955627	145.740000
548.049316	146.060000
548.142883	146.560000
548.236572	147.300000
548.330139	147.400000
548.423767	147.420000
548.517456	147.280000
548.611023	147.180000
548.704651	146.560000
548.798279	146.540000
548.891907	147.140000
548.985474	146.860000
549.079163	146.720000
549.172729	146.660000
549.266357	146.260000
549.359985	146.220000
549.453613	146.140000
549.547180	146.120000
549.640869	146.640000
549.734436	146.820000
549.828064	147.200000
549.921631	147.260000
550.015320	147.140000
550.108887	147.420000
550.202515	147.340000
550.296143	146.600000
550.389771	146.640000
550.483337	146.680000
550.576965	146.400000
550.670593	146.920000
550.764221	147.260000
550.857849	147.020000
550.951477	146.420000
551.045105	146.240000
551.138672	145.800000
551.232300	145.720000
551.325928	146.340000
551.419556	147.120000
551.513123	147.080000
551.606750	146.880000
551.700378	146.880000
551.794006	146.580000
551.887573	146.180000
551.981201	146.420000
552.074768	146.680000
552.168457	146.260000
552.262024	147.000000
552.355652	147.360000
552.449219	147.940000
552.542847	147.840000
552.636475	147.720000
552.730103	146.880000
552.823669	146.340000
552.917297	145.720000
553.010864	145.680000
553.104553	146.140000
553.198181	146.000000
553.291748	146.720000
553.385376	146.700000
553.478943	146.660000
553.572571	146.600000
553.666199	147.000000
553.759827	146.520000
553.853394	145.960000
553.947021	146.200000
554.040588	146.400000
554.134216	146.660000
554.227783	147.360000
554.321411	148.200000
554.415039	147.780000
554.508667	147.540000
554.602234	147.260000
554.695862	146.520000
554.789429	146.140000
554.883057	146.600000
554.976624	146.700000
555.070251	146.600000
555.163818	146.700000
555.257507	146.820000
555.351074	146.700000
555.444702	147.660000
555.538330	147.300000
555.631897	147.700000
555.725525	147.540000
555.819092	147.300000
555.912720	146.240000
556.006287	146.860000
556.099915	146.240000
556.193481	146.320000
556.287109	146.800000
556.380676	146.620000
556.474304	146.780000
556.567871	147.300000
556.661499	147.120000
556.755066	146.820000
556.848694	147.080000
556.942261	146.480000
557.035889	146.660000
557.129517	147.020000
557.223145	147.560000
557.316711	147.940000
557.410339	148.220000
557.503906	147.620000
557.597473	147.760000
557.691040	147.000000
557.784668	146.860000
557.878296	146.720000
557.971863	147.440000
558.065491	147.280000
558.159058	147.500000
558.252686	147.940000
558.346252	148.480000
558.439880	147.620000
558.533447	147.200000
558.627075	146.840000
558.720642	146.140000
558.814270	146.020000
558.907837	146.220000
559.001465	146.100000
559.095032	147.020000
559.188660	147.220000
559.282227	146.700000
559.375854	147.200000
559.469360	146.900000
559.562988	146.760000
559.656555	146.740000
559.750183	146.860000
559.843750	146.560000
559.937378	147.340000
560.030945	147.200000
560.124573	0.000000
560.218140	0.000000
560.311707	0.000000
560.405334	0.000000
560.498901	0.000000
560.592529	0.000000
560.686096	0.000000
560.779724	0.000000
560.873291	0.000000
560.966858	0.000000
561.060425	0.000000
561.154053	0.000000
561.247620	0.000000
561.341248	0.000000
561.434814	0.000000
561.528381	0.000000
561.621948	0.000000
561.715576	0.000000
561.809143	0.000000
561.902771	0.000000
561.996277	0.000000
562.089905	0.000000
562.183472	0.000000
562.277100	0.000000
