Model Number: SPM-002-B   
Serial Number: 70087108
Firmware Version: 004.15.4
Exposure Time: 100000.000000us
Data Taken on: 11-12-2020 19:38:06.254
Wavelength	Amplitude
221.570786	0.000000
221.663406	0.000000
221.756027	0.000000
221.848648	0.000000
221.941269	0.000000
222.033905	0.000000
222.126526	0.000000
222.219162	0.000000
222.311798	0.000000
222.404419	0.000000
222.497055	0.000000
222.589676	0.000000
222.682312	0.000000
222.774933	0.000000
222.867569	0.000000
222.960205	0.000000
223.052841	0.000000
223.145462	0.000000
223.238098	0.000000
223.330734	0.000000
223.423386	0.000000
223.516022	0.000000
223.608658	0.000000
223.701309	0.000000
223.793945	0.000000
223.886581	0.000000
223.979218	0.000000
224.071869	0.000000
224.164505	0.000000
224.257156	0.000000
224.349792	0.000000
224.442444	0.000000
224.535095	0.000000
224.627747	0.000000
224.720398	0.000000
224.813034	0.000000
224.905685	0.000000
224.998337	145.700000
225.090988	145.440000
225.183640	144.980000
225.276291	144.660000
225.368942	145.320000
225.461594	145.740000
225.554245	146.180000
225.646912	146.380000
225.739578	146.720000
225.832230	146.880000
225.924896	145.920000
226.017548	146.260000
226.110199	146.820000
226.202866	146.360000
226.295532	145.840000
226.388184	146.180000
226.480850	145.600000
226.573517	145.100000
226.666168	145.620000
226.758835	146.260000
226.851501	146.660000
226.944183	146.960000
227.036850	146.420000
227.129517	146.260000
227.222183	146.220000
227.314850	146.180000
227.407516	146.160000
227.500198	147.200000
227.592865	146.640000
227.685532	146.060000
227.778214	145.860000
227.870880	146.080000
227.963562	146.020000
228.056229	146.580000
228.148926	146.700000
228.241592	147.200000
228.334274	146.800000
228.426956	146.340000
228.519638	146.340000
228.612305	146.220000
228.704987	145.960000
228.797668	146.080000
228.890350	146.040000
228.983032	145.620000
229.075714	146.100000
229.168396	146.100000
229.261108	145.760000
229.353790	145.840000
229.446472	146.420000
229.539169	146.080000
229.631851	145.340000
229.724533	145.780000
229.817230	146.080000
229.909912	146.740000
230.002609	146.820000
230.095306	146.900000
230.187988	146.760000
230.280685	146.620000
230.373383	145.120000
230.466095	145.040000
230.558792	145.940000
230.651474	146.040000
230.744171	145.760000
230.836868	146.180000
230.929581	146.280000
231.022278	146.000000
231.114975	146.100000
231.207672	145.680000
231.300369	146.000000
231.393082	146.420000
231.485779	146.140000
231.578506	145.560000
231.671204	146.340000
231.763916	146.340000
231.856613	146.060000
231.949326	146.400000
232.042023	146.680000
232.134735	146.160000
232.227448	145.960000
232.320160	145.860000
232.412872	145.720000
232.505585	146.480000
232.598297	147.060000
232.691010	146.840000
232.783722	146.560000
232.876450	147.080000
232.969162	146.580000
233.061874	146.000000
233.154587	146.020000
233.247314	146.380000
233.340027	145.760000
233.432739	146.220000
233.525467	146.260000
233.618179	146.600000
233.710907	145.980000
233.803635	146.440000
233.896347	146.480000
233.989090	147.100000
234.081818	146.740000
234.174545	147.460000
234.267258	146.660000
234.359985	146.160000
234.452713	145.980000
234.545441	145.960000
234.638168	145.520000
234.730896	146.180000
234.823639	145.980000
234.916367	146.160000
235.009094	146.580000
235.101822	146.900000
235.194580	146.580000
235.287308	146.940000
235.380051	146.260000
235.472778	146.200000
235.565521	146.540000
235.658249	146.120000
235.750992	145.900000
235.843719	146.460000
235.936462	146.820000
236.029205	146.160000
236.121948	146.240000
236.214691	146.500000
236.307449	146.600000
236.400192	146.060000
236.492935	145.900000
236.585678	146.080000
236.678421	146.040000
236.771164	145.820000
236.863907	146.240000
236.956665	146.760000
237.049408	148.260000
237.142151	147.540000
237.234909	148.260000
237.327652	148.100000
237.420410	147.620000
237.513153	146.800000
237.605927	147.040000
237.698669	146.340000
237.791428	145.700000
237.884186	146.540000
237.976944	145.980000
238.069702	146.540000
238.162445	146.280000
238.255203	146.700000
238.347961	146.560000
238.440720	146.420000
238.533478	145.900000
238.626266	145.680000
238.719025	146.140000
238.811783	145.700000
238.904541	145.920000
238.997314	146.040000
239.090073	145.800000
239.182831	145.460000
239.275604	146.400000
239.368362	145.880000
239.461136	145.600000
239.553909	145.760000
239.646667	145.440000
239.739441	144.860000
239.832214	145.440000
239.925003	145.620000
240.017761	146.200000
240.110535	146.760000
240.203308	146.240000
240.296082	146.120000
240.388855	145.980000
240.481628	146.000000
240.574417	146.200000
240.667191	146.640000
240.759964	146.300000
240.852737	146.680000
240.945526	146.120000
241.038315	145.560000
241.131088	145.600000
241.223877	145.920000
241.316650	145.380000
241.409439	145.780000
241.502228	145.460000
241.595001	145.680000
241.687790	145.640000
241.780579	145.900000
241.873367	146.040000
241.966141	146.600000
242.058929	145.880000
242.151718	146.140000
242.244507	146.440000
242.337311	145.740000
242.430099	146.020000
242.522903	146.500000
242.615692	145.900000
242.708481	145.820000
242.801270	146.640000
242.894073	146.140000
242.986862	145.740000
243.079651	146.320000
243.172455	146.080000
243.265244	145.940000
243.358063	145.560000
243.450867	146.080000
243.543655	145.800000
243.636459	146.040000
243.729263	146.160000
243.822067	146.480000
243.914856	146.980000
244.007660	146.960000
244.100464	146.920000
244.193268	146.700000
244.286072	146.920000
244.378876	145.900000
244.471680	145.900000
244.564499	146.020000
244.657318	146.520000
244.750122	146.600000
244.842926	146.560000
244.935745	146.980000
245.028549	146.940000
245.121368	146.540000
245.214172	146.380000
245.306992	146.980000
245.399796	146.520000
245.492615	146.260000
245.585434	146.100000
245.678253	146.020000
245.771072	145.820000
245.863892	146.400000
245.956711	146.680000
246.049530	146.440000
246.142349	146.580000
246.235168	146.540000
246.327988	146.640000
246.420807	146.600000
246.513626	146.880000
246.606445	146.180000
246.699280	146.060000
246.792099	145.820000
246.884918	145.280000
246.977753	144.900000
247.070587	145.460000
247.163422	145.360000
247.256241	145.340000
247.349075	145.820000
247.441895	146.060000
247.534729	146.180000
247.627563	145.960000
247.720383	146.420000
247.813217	146.320000
247.906052	146.120000
247.998886	146.000000
248.091736	146.600000
248.184570	146.040000
248.277405	146.160000
248.370239	147.260000
248.463074	148.100000
248.555908	147.860000
248.648743	147.780000
248.741592	147.760000
248.834427	146.740000
248.927261	145.680000
249.020111	146.180000
249.112946	146.640000
249.205795	146.380000
249.298630	146.540000
249.391495	146.680000
249.484344	146.140000
249.577179	145.820000
249.670029	145.980000
249.762878	146.680000
249.855728	146.620000
249.948563	146.520000
250.041412	146.080000
250.134262	146.520000
250.227112	146.540000
250.319962	147.040000
250.412827	147.020000
250.505692	146.980000
250.598541	146.860000
250.691391	146.040000
250.784241	145.820000
250.877106	146.020000
250.969955	146.000000
251.062805	146.300000
251.155670	147.000000
251.248520	146.700000
251.341385	146.840000
251.434235	146.880000
251.527100	146.360000
251.619965	146.000000
251.712814	147.100000
251.805695	146.840000
251.898560	147.040000
251.991425	147.300000
252.084290	147.300000
252.177155	146.000000
252.270020	145.960000
252.362885	145.640000
252.455750	145.480000
252.548615	145.420000
252.641479	145.480000
252.734360	145.340000
252.827240	145.500000
252.920105	145.460000
253.012970	144.880000
253.105850	145.380000
253.198715	145.480000
253.291595	145.560000
253.384460	145.360000
253.477341	145.720000
253.570221	145.600000
253.663086	145.720000
253.755966	146.360000
253.848846	145.960000
253.941727	146.160000
254.034592	146.020000
254.127472	145.360000
254.220367	145.400000
254.313248	145.820000
254.406128	145.260000
254.499008	145.760000
254.591904	146.780000
254.684784	146.640000
254.777664	146.840000
254.870544	146.560000
254.963440	146.000000
255.056335	146.100000
255.149216	145.860000
255.242111	146.440000
255.334991	147.200000
255.427887	147.480000
255.520767	147.100000
255.613663	147.120000
255.706558	146.260000
255.799438	146.040000
255.892334	145.860000
255.985229	145.520000
256.078125	145.260000
256.171021	145.460000
256.263916	145.800000
256.356812	146.080000
256.449707	146.500000
256.542603	146.400000
256.635498	146.800000
256.728394	146.700000
256.821289	145.980000
256.914215	145.900000
257.007080	146.260000
257.100006	146.220000
257.192932	146.440000
257.285828	147.280000
257.378723	146.960000
257.471619	146.580000
257.564545	146.100000
257.657440	146.100000
257.750336	146.060000
257.843262	146.060000
257.936157	147.360000
258.029053	147.560000
258.121979	147.640000
258.214874	147.440000
258.307800	147.180000
258.400696	145.880000
258.493622	145.920000
258.586517	145.120000
258.679443	145.620000
258.772339	145.580000
258.865265	145.560000
258.958160	145.280000
259.051086	146.060000
259.144012	145.240000
259.236938	146.440000
259.329834	146.580000
259.422791	146.240000
259.515717	145.820000
259.608612	145.880000
259.701538	145.500000
259.794464	145.420000
259.887390	145.600000
259.980316	145.140000
260.073212	144.940000
260.166138	144.120000
260.259064	144.360000
260.351990	145.040000
260.444916	145.200000
260.537842	145.820000
260.630768	146.740000
260.723694	146.560000
260.816620	146.300000
260.909546	146.460000
261.002472	145.880000
261.095398	144.880000
261.188354	145.100000
261.281281	144.600000
261.374207	144.720000
261.467133	145.680000
261.560089	146.360000
261.653015	145.980000
261.745972	147.000000
261.838867	147.240000
261.931824	147.100000
262.024780	146.500000
262.117706	146.760000
262.210663	146.640000
262.303589	146.380000
262.396515	146.040000
262.489471	147.300000
262.582397	147.180000
262.675354	146.440000
262.768280	146.500000
262.861237	146.380000
262.954163	145.680000
263.047119	146.040000
263.140045	146.020000
263.233002	145.820000
263.325958	145.620000
263.418884	145.220000
263.511841	145.160000
263.604797	145.240000
263.697723	145.440000
263.790680	145.540000
263.883636	146.180000
263.976593	145.860000
264.069550	145.900000
264.162476	145.480000
264.255463	145.620000
264.348419	144.980000
264.441376	145.360000
264.534332	145.220000
264.627289	145.720000
264.720245	145.960000
264.813202	146.040000
264.906158	146.060000
264.999115	146.500000
265.092072	146.300000
265.185028	146.740000
265.277985	147.000000
265.370941	146.680000
265.463898	146.420000
265.556854	146.180000
265.649811	145.540000
265.742798	145.640000
265.835754	145.560000
265.928711	146.040000
266.021667	146.300000
266.114655	146.060000
266.207611	146.220000
266.300568	145.820000
266.393585	145.180000
266.486511	145.780000
266.579498	145.300000
266.672485	144.780000
266.765442	145.120000
266.858429	145.600000
266.951385	144.780000
267.044342	145.380000
267.137329	145.520000
267.230316	145.620000
267.323273	145.200000
267.416260	145.760000
267.509216	145.380000
267.602203	145.620000
267.695160	146.000000
267.788147	146.340000
267.881134	145.840000
267.974091	146.360000
268.067078	145.940000
268.160065	145.660000
268.253052	145.280000
268.346008	145.480000
268.438995	145.360000
268.531982	145.740000
268.624969	145.440000
268.717987	145.940000
268.810944	145.640000
268.903961	145.580000
268.996948	145.140000
269.089905	145.740000
269.182892	145.560000
269.275879	146.580000
269.368866	146.200000
269.461853	146.440000
269.554871	146.520000
269.647858	146.560000
269.740845	146.460000
269.833832	147.220000
269.926819	146.900000
270.019806	146.680000
270.112793	146.480000
270.205811	146.480000
270.298798	145.780000
270.391785	146.680000
270.484772	146.380000
270.577789	146.380000
270.670776	145.780000
270.763763	145.920000
270.856750	145.680000
270.949768	145.620000
271.042786	145.700000
271.135773	145.580000
271.228790	145.880000
271.321808	145.260000
271.414795	144.920000
271.507782	144.840000
271.600800	144.880000
271.693817	144.880000
271.786804	145.420000
271.879822	146.040000
271.972809	145.900000
272.065826	146.440000
272.158844	145.860000
272.251831	146.200000
272.344849	146.220000
272.437866	145.780000
272.530853	145.840000
272.623871	146.380000
272.716888	145.580000
272.809906	145.720000
272.902893	146.280000
272.995911	145.460000
273.088928	145.720000
273.181946	146.140000
273.274963	145.740000
273.367981	145.460000
273.460999	145.980000
273.554047	146.120000
273.647003	146.500000
273.740051	146.800000
273.833069	147.360000
273.926086	147.540000
274.019135	147.260000
274.112152	146.720000
274.205170	146.640000
274.298187	146.660000
274.391205	145.920000
274.484222	145.980000
274.577240	146.020000
274.670258	145.720000
274.763306	145.200000
274.856323	146.060000
274.949341	146.040000
275.042358	146.200000
275.135406	146.280000
275.228424	146.420000
275.321442	145.900000
275.414490	145.680000
275.507507	145.920000
275.600525	146.220000
275.693573	146.080000
275.786591	145.600000
275.879669	145.440000
275.972656	145.500000
276.065735	145.460000
276.158752	146.000000
276.251801	147.340000
276.344818	147.420000
276.437866	147.120000
276.530884	147.200000
276.623932	146.320000
276.716980	145.960000
276.809998	146.280000
276.903046	146.380000
276.996094	146.440000
277.089111	147.660000
277.182159	147.940000
277.275208	147.340000
277.368256	147.380000
277.461304	147.100000
277.554321	145.800000
277.647369	145.360000
277.740417	145.440000
277.833466	145.140000
277.926514	145.320000
278.019562	146.420000
278.112610	145.780000
278.205688	146.160000
278.298706	146.240000
278.391785	145.840000
278.484833	145.080000
278.577881	145.380000
278.670929	145.540000
278.763977	145.920000
278.857025	146.480000
278.950073	146.680000
279.043121	146.720000
279.136169	146.360000
279.229248	145.560000
279.322296	145.380000
279.415344	145.300000
279.508392	144.820000
279.601440	145.060000
279.694519	145.360000
279.787567	145.100000
279.880615	145.360000
279.973694	145.500000
280.066742	145.320000
280.159790	145.580000
280.252869	145.400000
280.345917	145.220000
280.438995	145.600000
280.532074	145.440000
280.625122	145.500000
280.718201	146.560000
280.811279	146.480000
280.904327	146.200000
280.997406	146.520000
281.090454	146.320000
281.183533	145.480000
281.276581	145.660000
281.369659	145.680000
281.462738	145.460000
281.555786	145.700000
281.648865	145.860000
281.741943	145.700000
281.835022	146.400000
281.928070	146.560000
282.021149	146.120000
282.114227	146.220000
282.207306	146.240000
282.300385	146.020000
282.393433	146.160000
282.486511	146.300000
282.579590	146.780000
282.672668	147.240000
282.765747	146.680000
282.858856	146.120000
282.951904	146.480000
283.045013	146.400000
283.138062	146.560000
283.231171	147.000000
283.324249	147.640000
283.417328	147.660000
283.510406	147.080000
283.603485	146.560000
283.696564	146.220000
283.789642	146.320000
283.882751	146.020000
283.975830	146.620000
284.068909	146.480000
284.161987	147.220000
284.255066	146.140000
284.348175	146.320000
284.441254	145.860000
284.534332	146.160000
284.627441	145.560000
284.720520	145.760000
284.813599	145.500000
284.906708	145.820000
284.999786	145.440000
285.092896	145.240000
285.185974	146.500000
285.279053	145.920000
285.372192	145.540000
285.465240	145.980000
285.558380	146.060000
285.651459	145.240000
285.744568	146.460000
285.837677	146.180000
285.930756	146.260000
286.023865	146.400000
286.116943	146.080000
286.210052	145.520000
286.303162	145.980000
286.396240	145.720000
286.489349	145.380000
286.582458	146.000000
286.675568	145.900000
286.768646	145.460000
286.861755	145.700000
286.954865	146.700000
287.047974	146.060000
287.141083	146.080000
287.234161	146.140000
287.327271	145.800000
287.420380	146.120000
287.513519	146.300000
287.606598	146.060000
287.699738	146.340000
287.792816	146.420000
287.885956	145.720000
287.979034	145.740000
288.072174	146.140000
288.165283	145.340000
288.258392	145.560000
288.351501	144.920000
288.444611	145.180000
288.537720	145.880000
288.630859	146.520000
288.723969	146.120000
288.817078	146.520000
288.910187	146.400000
289.003296	145.320000
289.096436	145.100000
289.189545	145.280000
289.282654	144.820000
289.375763	145.120000
289.468903	145.880000
289.562012	146.020000
289.655121	146.320000
289.748260	146.700000
289.841400	146.620000
289.934509	146.400000
290.027649	146.760000
290.120728	146.260000
290.213898	146.500000
290.306976	146.540000
290.400146	146.100000
290.493256	145.900000
290.586395	146.240000
290.679535	146.140000
290.772644	145.940000
290.865784	145.480000
290.958893	144.940000
291.052032	144.760000
291.145172	144.700000
291.238281	144.060000
291.331421	144.740000
291.424561	145.200000
291.517670	144.940000
291.610809	145.260000
291.703949	145.580000
291.797089	145.540000
291.890228	145.320000
291.983337	145.300000
292.076477	144.760000
292.169617	145.100000
292.262756	145.120000
292.355927	144.800000
292.449036	145.000000
292.542206	145.280000
292.635315	145.120000
292.728485	145.380000
292.821625	145.500000
292.914764	146.340000
293.007904	146.560000
293.101044	146.520000
293.194183	146.000000
293.287323	146.640000
293.380463	145.760000
293.473602	145.540000
293.566742	146.180000
293.659882	146.700000
293.753021	146.440000
293.846191	146.580000
293.939331	146.000000
294.032471	145.500000
294.125610	145.180000
294.218781	145.600000
294.311920	146.000000
294.405060	146.720000
294.498230	146.660000
294.591370	146.620000
294.684540	145.820000
294.777679	145.040000
294.870850	145.280000
294.963959	145.140000
295.057159	145.100000
295.150299	145.420000
295.243469	145.640000
295.336609	144.740000
295.429779	144.660000
295.522919	145.180000
295.616089	145.220000
295.709229	145.840000
295.802399	146.520000
295.895569	146.400000
295.988708	146.140000
296.081879	146.300000
296.175018	145.440000
296.268188	145.160000
296.361359	145.920000
296.454529	145.860000
296.547668	145.380000
296.640839	146.240000
296.734009	146.140000
296.827179	145.780000
296.920319	146.020000
297.013519	146.020000
297.106659	145.700000
297.199860	145.800000
297.292999	145.640000
297.386200	145.200000
297.479309	145.300000
297.572510	145.100000
297.665680	144.680000
297.758850	144.960000
297.852020	145.320000
297.945190	145.200000
298.038361	144.940000
298.131531	146.180000
298.224701	145.920000
298.317871	145.460000
298.411072	145.320000
298.504242	145.120000
298.597412	144.640000
298.690582	145.000000
298.783752	145.260000
298.876923	145.740000
298.970093	146.180000
299.063293	146.080000
299.156464	146.560000
299.249634	146.600000
299.342834	146.300000
299.436005	146.800000
299.529205	146.740000
299.622345	146.100000
299.715576	145.960000
299.808716	146.140000
299.901917	145.820000
299.995117	146.120000
300.088287	146.600000
300.181488	146.160000
300.274658	146.420000
300.367828	146.520000
300.461029	146.020000
300.554199	146.200000
300.647400	146.540000
300.740601	146.680000
300.833771	146.520000
300.926971	146.700000
301.020142	145.680000
301.113342	145.580000
301.206512	145.260000
301.299713	145.480000
301.392914	145.560000
301.486084	146.100000
301.579285	145.860000
301.672516	146.820000
301.765686	146.540000
301.858887	146.360000
301.952057	146.300000
302.045288	146.860000
302.138458	145.860000
302.231659	145.960000
302.324860	145.900000
302.418060	145.520000
302.511261	145.240000
302.604462	145.380000
302.697662	145.140000
302.790863	145.360000
302.884064	145.300000
302.977264	145.240000
303.070465	145.640000
303.163666	146.200000
303.256866	146.300000
303.350067	146.580000
303.443268	146.620000
303.536469	146.340000
303.629669	145.520000
303.722870	145.520000
303.816071	145.380000
303.909271	145.680000
304.002472	145.000000
304.095673	145.000000
304.188934	144.280000
304.282104	145.120000
304.375336	144.880000
304.468506	145.360000
304.561768	145.520000
304.654968	146.200000
304.748169	145.600000
304.841370	145.600000
304.934601	145.480000
305.027802	145.300000
305.121002	144.940000
305.214233	144.720000
305.307434	144.560000
305.400665	145.240000
305.493866	145.100000
305.587097	145.320000
305.680298	145.220000
305.773499	145.980000
305.866730	145.540000
305.959930	146.340000
306.053162	146.280000
306.146393	146.360000
306.239594	145.520000
306.332825	144.980000
306.426025	144.880000
306.519287	144.620000
306.612488	144.720000
306.705719	145.100000
306.798920	145.780000
306.892181	145.220000
306.985352	145.400000
307.078613	144.740000
307.171844	144.740000
307.265045	144.280000
307.358276	144.220000
307.451508	144.320000
307.544739	145.380000
307.637970	145.200000
307.731201	144.840000
307.824402	145.920000
307.917633	146.180000
308.010864	146.060000
308.104095	146.280000
308.197327	146.860000
308.290558	146.340000
308.383789	146.060000
308.477020	145.700000
308.570251	144.920000
308.663483	144.780000
308.756714	144.560000
308.849976	144.560000
308.943176	145.100000
309.036438	145.160000
309.129639	144.940000
309.222900	145.160000
309.316101	145.000000
309.409393	144.260000
309.502625	144.680000
309.595856	144.760000
309.689087	144.600000
309.782318	144.820000
309.875580	145.140000
309.968811	144.940000
310.062042	145.040000
310.155273	144.900000
310.248535	145.180000
310.341766	145.220000
310.434998	145.300000
310.528259	144.820000
310.621490	145.580000
310.714722	144.620000
310.807983	144.620000
310.901215	144.880000
310.994476	145.380000
311.087708	144.560000
311.181000	145.340000
311.274200	145.060000
311.367462	144.760000
311.460693	144.900000
311.553986	145.680000
311.647186	145.600000
311.740479	146.420000
311.833710	146.560000
311.926971	146.020000
312.020203	145.420000
312.113464	144.940000
312.206726	144.200000
312.299957	144.720000
312.393219	145.680000
312.486481	145.540000
312.579712	146.140000
312.672974	146.340000
312.766235	145.920000
312.859497	145.660000
312.952759	145.680000
313.045990	146.080000
313.139252	145.780000
313.232513	145.880000
313.325775	145.720000
313.419037	145.820000
313.512299	145.060000
313.605530	145.740000
313.698822	145.960000
313.792053	146.120000
313.885345	145.560000
313.978577	145.800000
314.071869	145.020000
314.165131	144.900000
314.258392	145.200000
314.351654	145.700000
314.444916	144.960000
314.538177	145.520000
314.631439	145.660000
314.724701	145.140000
314.817993	145.400000
314.911255	145.900000
315.004517	145.260000
315.097778	145.100000
315.191040	145.380000
315.284302	145.420000
315.377594	145.260000
315.470856	145.420000
315.564117	144.700000
315.657379	144.320000
315.750671	143.920000
315.843933	144.440000
315.937195	144.340000
316.030518	144.560000
316.123749	144.660000
316.217041	145.520000
316.310303	145.260000
316.403595	145.460000
316.496857	146.100000
316.590149	146.300000
316.683411	145.560000
316.776703	145.580000
316.869965	145.500000
316.963257	144.840000
317.056519	144.300000
317.149811	144.080000
317.243073	143.920000
317.336365	144.160000
317.429626	144.700000
317.522919	145.200000
317.616180	145.480000
317.709473	145.560000
317.802765	145.300000
317.896027	145.080000
317.989319	145.480000
318.082611	145.200000
318.175873	145.120000
318.269165	145.200000
318.362488	145.200000
318.455750	144.760000
318.549042	145.440000
318.642303	145.840000
318.735626	145.540000
318.828888	145.680000
318.922211	144.960000
319.015472	144.960000
319.108765	144.340000
319.202057	144.460000
319.295349	144.800000
319.388641	145.260000
319.481934	144.980000
319.575226	145.140000
319.668518	145.580000
319.761810	145.060000
319.855103	145.140000
319.948395	145.360000
320.041687	145.720000
320.134979	145.780000
320.228271	145.920000
320.321564	145.940000
320.414856	145.880000
320.508148	145.300000
320.601440	145.040000
320.694763	144.900000
320.788025	145.820000
320.881348	145.680000
320.974640	145.840000
321.067963	145.360000
321.161224	145.340000
321.254547	144.540000
321.347839	145.040000
321.441162	144.640000
321.534454	145.380000
321.627747	145.360000
321.721069	145.880000
321.814362	145.820000
321.907654	146.000000
322.000946	145.800000
322.094269	146.640000
322.187561	145.800000
322.280884	145.780000
322.374176	146.520000
322.467468	146.820000
322.560791	146.480000
322.654083	147.400000
322.747406	147.360000
322.840698	146.880000
322.934021	147.040000
323.027344	146.960000
323.120636	146.360000
323.213959	146.560000
323.307251	146.500000
323.400574	145.740000
323.493866	145.560000
323.587219	145.880000
323.680511	145.760000
323.773834	145.820000
323.867157	146.320000
323.960449	146.420000
324.053772	146.260000
324.147095	146.200000
324.240387	146.860000
324.333710	146.720000
324.427032	146.740000
324.520355	146.540000
324.613647	146.320000
324.706970	145.840000
324.800293	145.640000
324.893616	145.700000
324.986938	146.120000
325.080231	145.840000
325.173553	146.440000
325.266876	146.960000
325.360199	146.900000
325.453522	146.220000
325.546875	146.100000
325.640167	145.980000
325.733521	145.880000
325.826813	146.000000
325.920166	146.000000
326.013489	145.980000
326.106812	144.920000
326.200134	144.740000
326.293457	144.420000
326.386780	145.020000
326.480103	145.020000
326.573425	145.460000
326.666748	145.460000
326.760071	145.740000
326.853424	145.600000
326.946747	145.620000
327.040070	146.240000
327.133392	146.420000
327.226715	145.660000
327.320068	144.900000
327.413391	145.720000
327.506714	144.800000
327.600037	144.300000
327.693390	144.960000
327.786713	145.240000
327.880066	144.640000
327.973358	145.240000
328.066742	145.800000
328.160034	145.580000
328.253418	145.980000
328.346710	145.780000
328.440063	145.240000
328.533417	145.280000
328.626740	145.860000
328.720093	145.420000
328.813416	145.320000
328.906769	145.560000
329.000092	145.340000
329.093445	145.140000
329.186768	145.340000
329.280121	146.000000
329.373444	146.260000
329.466797	146.100000
329.560120	145.800000
329.653473	146.180000
329.746796	145.720000
329.840149	145.380000
329.933502	145.520000
330.026825	145.500000
330.120178	144.920000
330.213562	145.000000
330.306854	145.060000
330.400238	144.820000
330.493561	144.560000
330.586945	145.460000
330.680237	145.720000
330.773621	146.240000
330.866974	146.240000
330.960327	146.420000
331.053680	145.820000
331.147003	145.880000
331.240356	145.740000
331.333710	146.020000
331.427063	145.980000
331.520416	145.800000
331.613770	145.480000
331.707123	145.720000
331.800476	145.620000
331.893829	146.760000
331.987152	147.080000
332.080505	147.240000
332.173859	146.720000
332.267212	146.300000
332.360565	145.000000
332.453918	145.040000
332.547333	144.920000
332.640656	144.920000
332.734039	145.620000
332.827362	145.800000
332.920746	145.660000
333.014069	145.900000
333.107452	146.660000
333.200806	146.360000
333.294159	146.400000
333.387543	146.160000
333.480896	145.400000
333.574249	144.800000
333.667603	144.360000
333.760956	144.660000
333.854340	144.740000
333.947693	145.120000
334.041046	144.820000
334.134430	145.480000
334.227783	145.100000
334.321136	144.780000
334.414520	144.500000
334.507874	144.800000
334.601227	144.600000
334.694611	144.840000
334.787964	145.100000
334.881348	145.460000
334.974701	145.340000
335.068085	145.060000
335.161438	145.200000
335.254822	145.180000
335.348175	145.220000
335.441559	144.720000
335.534943	145.700000
335.628296	145.580000
335.721680	145.880000
335.815033	145.920000
335.908417	146.720000
336.001770	146.120000
336.095154	145.720000
336.188538	145.280000
336.281891	144.520000
336.375275	144.020000
336.468658	143.660000
336.562012	143.720000
336.655396	144.200000
336.748779	144.960000
336.842133	144.820000
336.935516	145.260000
337.028900	145.160000
337.122284	144.900000
337.215637	145.200000
337.309021	145.160000
337.402435	144.680000
337.495789	144.860000
337.589203	144.700000
337.682526	144.300000
337.775940	145.080000
337.869324	145.320000
337.962708	145.020000
338.056091	145.540000
338.149475	145.100000
338.242859	144.640000
338.336243	144.420000
338.429626	144.580000
338.523010	144.240000
338.616394	144.360000
338.709778	144.300000
338.803162	144.360000
338.896545	144.700000
338.989929	144.600000
339.083313	144.620000
339.176697	144.700000
339.270081	144.620000
339.363464	144.800000
339.456848	145.100000
339.550232	144.880000
339.643616	144.840000
339.737030	145.020000
339.830383	144.560000
339.923828	144.360000
340.017181	144.940000
340.110596	144.940000
340.203949	145.020000
340.297363	144.960000
340.390778	144.980000
340.484161	144.600000
340.577545	144.700000
340.670959	144.880000
340.764343	144.980000
340.857727	145.500000
340.951111	145.380000
341.044525	145.500000
341.137909	145.040000
341.231293	145.180000
341.324707	144.480000
341.418091	145.520000
341.511505	145.460000
341.604889	145.860000
341.698303	145.840000
341.791687	146.180000
341.885071	145.240000
341.978485	145.000000
342.071899	145.040000
342.165283	145.100000
342.258698	145.280000
342.352081	145.700000
342.445496	146.140000
342.538879	146.180000
342.632324	146.140000
342.725708	145.880000
342.819122	145.620000
342.912506	145.260000
343.005920	144.960000
343.099335	145.840000
343.192719	145.740000
343.286133	145.720000
343.379547	145.900000
343.472931	145.960000
343.566345	144.880000
343.659760	145.200000
343.753143	145.000000
343.846558	144.700000
343.939972	144.640000
344.033386	145.260000
344.126770	144.980000
344.220184	145.600000
344.313599	146.240000
344.407043	146.300000
344.500427	145.860000
344.593872	146.480000
344.687225	145.940000
344.780670	145.540000
344.874054	145.120000
344.967499	145.340000
345.060913	145.140000
345.154327	145.040000
345.247742	144.580000
345.341156	144.720000
345.434570	144.360000
345.527985	144.080000
345.621399	144.780000
345.714813	144.920000
345.808228	145.300000
345.901642	145.240000
345.995056	144.880000
346.088470	144.580000
346.181885	144.940000
346.275299	144.500000
346.368713	144.480000
346.462128	144.400000
346.555573	144.400000
346.648987	144.300000
346.742401	144.640000
346.835815	145.280000
346.929260	145.320000
347.022644	145.500000
347.116119	145.460000
347.209503	145.740000
347.302948	146.420000
347.396362	147.100000
347.489807	147.080000
347.583221	147.920000
347.676636	147.080000
347.770050	145.620000
347.863495	145.040000
347.956909	144.900000
348.050323	143.700000
348.143768	144.200000
348.237183	144.360000
348.330597	144.820000
348.424042	145.240000
348.517456	145.960000
348.610901	146.000000
348.704315	145.800000
348.797760	145.160000
348.891174	144.400000
348.984619	144.080000
349.078033	144.480000
349.171448	145.380000
349.264923	145.700000
349.358337	145.600000
349.451782	145.680000
349.545197	145.000000
349.638641	144.220000
349.732086	143.660000
349.825500	144.660000
349.918945	144.160000
350.012390	144.560000
350.105804	145.160000
350.199249	145.640000
350.292664	145.420000
350.386108	145.780000
350.479553	146.140000
350.572968	146.040000
350.666412	146.300000
350.759857	145.940000
350.853302	146.340000
350.946716	145.820000
351.040161	145.700000
351.133606	145.520000
351.227081	145.580000
351.320465	146.040000
351.413940	146.040000
351.507355	146.560000
351.600830	146.800000
351.694244	146.380000
351.787720	145.940000
351.881104	145.940000
351.974579	145.040000
352.067993	145.700000
352.161469	146.040000
352.254883	145.380000
352.348358	145.300000
352.441803	145.520000
352.535248	144.900000
352.628693	145.280000
352.722137	145.420000
352.815582	145.300000
352.909027	145.660000
353.002472	145.340000
353.095917	144.960000
353.189362	145.560000
353.282806	145.560000
353.376251	145.000000
353.469696	144.960000
353.563141	145.740000
353.656586	145.340000
353.750061	145.260000
353.843475	145.420000
353.936981	145.880000
354.030396	145.100000
354.123871	145.200000
354.217285	145.960000
354.310760	146.400000
354.404175	146.220000
354.497681	146.020000
354.591095	146.160000
354.684570	145.380000
354.777985	144.740000
354.871490	144.420000
354.964935	144.540000
355.058380	144.620000
355.151855	144.660000
355.245300	145.160000
355.338745	145.180000
355.432220	145.700000
355.525665	144.880000
355.619110	145.280000
355.712585	145.520000
355.806030	145.640000
355.899475	144.820000
355.992950	145.460000
356.086426	145.960000
356.179871	145.460000
356.273346	145.500000
356.366791	146.020000
356.460266	146.140000
356.553711	145.840000
356.647186	146.100000
356.740631	145.640000
356.834106	145.220000
356.927551	145.300000
357.021027	144.900000
357.114471	145.020000
357.207947	145.420000
357.301422	145.780000
357.394867	145.820000
357.488342	146.020000
357.581818	145.680000
357.675262	146.100000
357.768738	146.000000
357.862213	145.200000
357.955658	145.300000
358.049133	145.300000
358.142609	145.140000
358.236053	144.940000
358.329529	145.140000
358.423035	145.240000
358.516449	145.320000
358.609955	145.600000
358.703400	146.440000
358.796906	146.800000
358.890350	146.120000
358.983826	146.300000
359.077271	145.680000
359.170776	144.900000
359.264221	144.480000
359.357727	145.240000
359.451172	145.500000
359.544647	145.860000
359.638123	146.160000
359.731598	146.760000
359.825073	146.640000
359.918549	146.580000
360.012024	146.300000
360.105499	145.440000
360.198975	145.240000
360.292450	144.800000
360.385925	144.260000
360.479401	144.220000
360.572876	144.900000
360.666351	145.100000
360.759857	145.220000
360.853302	145.380000
360.946808	144.780000
361.040253	145.100000
361.133759	144.460000
361.227203	144.620000
361.320709	144.520000
361.414154	145.400000
361.507660	145.300000
361.601105	146.240000
361.694641	146.940000
361.788086	146.780000
361.881592	147.200000
361.975067	147.080000
362.068542	146.780000
362.162018	146.420000
362.255524	146.360000
362.348999	145.860000
362.442474	146.200000
362.535950	145.900000
362.629456	145.440000
362.722931	145.680000
362.816406	145.920000
362.909882	145.660000
363.003387	145.500000
363.096863	145.740000
363.190338	145.620000
363.283875	145.320000
363.377319	145.140000
363.470825	145.680000
363.564301	145.320000
363.657806	145.720000
363.751282	145.660000
363.844788	146.480000
363.938232	145.680000
364.031769	146.420000
364.125214	146.280000
364.218750	146.600000
364.312225	145.480000
364.405731	146.480000
364.499207	145.960000
364.592712	145.600000
364.686188	145.440000
364.779694	145.940000
364.873169	145.040000
364.966675	145.120000
365.060150	145.200000
365.153656	145.340000
365.247131	145.040000
365.340637	145.440000
365.434143	145.560000
365.527618	145.600000
365.621155	145.100000
365.714600	145.220000
365.808136	145.260000
365.901611	144.600000
365.995117	144.580000
366.088593	144.500000
366.182129	144.740000
366.275604	144.980000
366.369110	145.400000
366.462585	145.540000
366.556122	146.460000
366.649567	146.320000
366.743103	146.240000
366.836609	145.940000
366.930115	146.440000
367.023590	146.460000
367.117096	146.220000
367.210602	146.200000
367.304108	146.940000
367.397614	146.820000
367.491119	146.860000
367.584595	147.020000
367.678101	147.180000
367.771606	146.540000
367.865112	146.060000
367.958649	145.300000
368.052124	145.400000
368.145660	145.220000
368.239136	145.820000
368.332672	146.180000
368.426147	146.380000
368.519684	146.240000
368.613159	146.600000
368.706696	146.200000
368.800171	145.840000
368.893707	145.640000
368.987183	145.440000
369.080719	145.100000
369.174225	145.040000
369.267731	145.300000
369.361237	145.360000
369.454742	145.560000
369.548248	145.760000
369.641754	145.580000
369.735260	145.760000
369.828766	145.240000
369.922272	145.860000
370.015808	145.480000
370.109314	145.380000
370.202820	144.680000
370.296356	146.260000
370.389832	145.580000
370.483368	145.300000
370.576874	145.580000
370.670410	145.980000
370.763885	144.440000
370.857422	144.420000
370.950928	144.460000
371.044464	144.980000
371.137939	145.300000
371.231476	146.020000
371.324982	146.600000
371.418518	146.880000
371.512024	146.600000
371.605560	145.960000
371.699066	146.200000
371.792572	145.720000
371.886108	146.500000
371.979614	146.180000
372.073120	146.800000
372.166656	146.080000
372.260162	146.580000
372.353668	145.600000
372.447205	145.580000
372.540710	145.440000
372.634277	145.560000
372.727753	145.140000
372.821320	145.500000
372.914795	145.360000
373.008362	144.980000
373.101837	145.360000
373.195404	145.240000
373.288879	144.960000
373.382446	146.020000
373.475922	146.300000
373.569489	146.440000
373.662964	146.840000
373.756531	146.940000
373.850037	146.300000
373.943573	146.320000
374.037109	145.640000
374.130615	145.580000
374.224152	145.800000
374.317657	145.460000
374.411194	145.860000
374.504730	146.100000
374.598236	145.880000
374.691772	145.720000
374.785309	146.320000
374.878815	145.520000
374.972351	145.820000
375.065887	145.860000
375.159454	146.400000
375.252930	145.940000
375.346497	146.720000
375.440002	147.180000
375.533569	147.280000
375.627045	146.620000
375.720612	146.680000
375.814117	146.380000
375.907684	145.900000
376.001160	145.500000
376.094727	145.140000
376.188232	145.860000
376.281799	145.820000
376.375336	145.800000
376.468872	146.860000
376.562408	146.980000
376.655914	146.380000
376.749451	146.640000
376.842987	146.820000
376.936523	145.900000
377.030060	146.220000
377.123596	146.520000
377.217133	145.720000
377.310669	145.720000
377.404205	146.280000
377.497772	146.500000
377.591278	146.300000
377.684845	147.380000
377.778351	147.080000
377.871918	146.980000
377.965424	146.300000
378.058990	146.040000
378.152496	145.680000
378.246063	145.980000
378.339569	145.900000
378.433136	146.200000
378.526642	146.400000
378.620209	146.300000
378.713745	145.900000
378.807312	146.200000
378.900848	146.040000
378.994385	146.140000
379.087921	145.540000
379.181458	145.920000
379.274994	145.360000
379.368530	145.240000
379.462097	145.400000
379.555634	145.840000
379.649170	145.140000
379.742706	145.020000
379.836273	145.520000
379.929810	145.060000
380.023376	144.920000
380.116882	145.300000
380.210449	145.120000
380.303986	144.420000
380.397552	144.280000
380.491058	144.440000
380.584656	144.100000
380.678162	144.680000
380.771729	145.240000
380.865265	146.040000
380.958832	146.060000
381.052368	146.720000
381.145935	146.940000
381.239471	147.440000
381.333008	146.880000
381.426575	146.760000
381.520111	146.940000
381.613647	146.880000
381.707214	146.380000
381.800751	146.180000
381.894318	146.380000
381.987854	145.420000
382.081421	145.460000
382.174988	145.140000
382.268524	144.860000
382.362091	144.800000
382.455627	145.820000
382.549194	145.360000
382.642731	145.360000
382.736298	145.360000
382.829834	145.140000
382.923401	145.480000
383.016937	145.920000
383.110504	146.220000
383.204041	146.640000
383.297607	147.000000
383.391174	146.020000
383.484741	146.460000
383.578278	146.140000
383.671844	146.020000
383.765411	145.620000
383.858948	146.140000
383.952515	145.540000
384.046051	146.460000
384.139618	146.920000
384.233185	147.100000
384.326721	146.880000
384.420288	147.260000
384.513855	146.540000
384.607422	146.800000
384.700989	147.020000
384.794525	146.560000
384.888123	146.520000
384.981659	146.880000
385.075226	145.860000
385.168762	145.840000
385.262360	145.920000
385.355896	145.100000
385.449463	145.080000
385.542999	145.300000
385.636597	145.900000
385.730164	146.400000
385.823730	146.440000
385.917267	145.920000
386.010834	146.440000
386.104401	145.880000
386.197968	145.840000
386.291534	146.160000
386.385101	146.380000
386.478668	146.260000
386.572235	146.440000
386.665802	145.900000
386.759338	145.300000
386.852905	145.140000
386.946472	144.880000
387.040070	144.600000
387.133606	144.920000
387.227203	145.060000
387.320740	145.460000
387.414337	145.420000
387.507874	145.560000
387.601471	145.480000
387.695007	145.780000
387.788605	145.240000
387.882141	145.360000
387.975739	145.220000
388.069275	144.980000
388.162872	144.920000
388.256439	145.300000
388.350037	145.000000
388.443604	144.760000
388.537170	145.160000
388.630737	145.960000
388.724304	145.880000
388.817871	146.180000
388.911438	146.460000
389.005005	146.720000
389.098602	146.560000
389.192169	145.920000
389.285736	146.200000
389.379333	146.300000
389.472870	145.580000
389.566467	145.180000
389.660034	145.860000
389.753632	145.420000
389.847168	145.600000
389.940765	146.100000
390.034332	146.180000
390.127930	145.820000
390.221466	145.980000
390.315063	145.360000
390.408630	144.660000
390.502228	144.000000
390.595795	144.480000
390.689362	144.420000
390.782959	145.120000
390.876526	145.920000
390.970093	146.020000
391.063690	146.340000
391.157257	146.100000
391.250824	145.960000
391.344421	145.740000
391.437988	146.260000
391.531555	146.000000
391.625153	146.800000
391.718750	146.840000
391.812317	146.500000
391.905914	146.360000
391.999481	146.640000
392.093079	146.080000
392.186615	146.480000
392.280243	146.500000
392.373779	146.300000
392.467407	146.540000
392.560944	146.560000
392.654572	145.780000
392.748108	146.080000
392.841736	146.300000
392.935303	145.880000
393.028900	146.340000
393.122467	146.600000
393.216064	146.380000
393.309631	146.060000
393.403229	145.600000
393.496796	144.780000
393.590393	144.340000
393.683990	144.560000
393.777557	145.020000
393.871155	145.620000
393.964722	146.460000
394.058350	146.520000
394.151917	146.580000
394.245514	146.360000
394.339081	146.300000
394.432678	146.220000
394.526245	146.380000
394.619873	145.960000
394.713409	146.220000
394.807037	145.840000
394.900604	145.680000
394.994202	146.120000
395.087769	146.360000
395.181396	145.660000
395.274994	146.600000
395.368561	146.020000
395.462158	145.820000
395.555756	145.620000
395.649353	146.240000
395.742920	145.320000
395.836517	146.260000
395.930115	145.480000
396.023712	145.860000
396.117279	146.340000
396.210876	146.020000
396.304474	145.860000
396.398071	146.620000
396.491669	146.660000
396.585266	145.760000
396.678833	145.940000
396.772461	145.980000
396.866028	145.800000
396.959656	146.120000
397.053223	146.760000
397.146851	146.900000
397.240417	147.580000
397.334015	148.900000
397.427582	149.680000
397.521210	151.560000
397.614807	154.140000
397.708405	156.280000
397.802002	159.340000
397.895599	163.700000
397.989197	168.400000
398.082794	174.460000
398.176392	182.320000
398.269989	190.880000
398.363586	201.560000
398.457184	214.860000
398.550781	229.820000
398.644379	245.820000
398.737976	263.800000
398.831573	282.720000
398.925201	301.960000
399.018768	321.220000
399.112396	340.360000
399.205963	359.300000
399.299591	377.440000
399.393158	394.400000
399.486786	412.140000
399.580353	428.360000
399.673981	442.200000
399.767578	457.020000
399.861206	469.840000
399.954773	479.300000
400.048401	485.540000
400.141998	487.640000
400.235596	483.960000
400.329193	476.620000
400.422791	465.220000
400.516418	451.940000
400.610016	439.520000
400.703613	425.000000
400.797211	406.580000
400.890808	387.480000
400.984436	367.300000
401.078033	344.140000
401.171631	321.340000
401.265259	300.640000
401.358826	281.320000
401.452484	263.200000
401.546051	246.920000
401.639679	230.100000
401.733246	216.400000
401.826904	202.700000
401.920471	190.240000
402.014099	180.460000
402.107697	173.480000
402.201324	166.740000
402.294891	162.280000
402.388550	158.760000
402.482147	155.540000
402.575745	152.760000
402.669373	150.600000
402.762970	148.980000
402.856567	148.400000
402.950195	147.840000
403.043793	147.340000
403.137390	148.000000
403.231018	147.040000
403.324615	147.020000
403.418243	146.600000
403.511841	146.960000
403.605469	146.340000
403.699066	147.040000
403.792694	146.780000
403.886292	146.620000
403.979919	146.640000
404.073517	146.420000
404.167145	146.380000
404.260712	146.480000
404.354370	146.720000
404.447937	146.620000
404.541595	146.720000
404.635162	146.780000
404.728821	146.980000
404.822418	146.720000
404.916046	146.440000
405.009644	146.600000
405.103271	147.160000
405.196899	146.640000
405.290497	146.680000
405.384125	147.380000
405.477722	146.760000
405.571350	145.640000
405.664948	145.780000
405.758575	145.500000
405.852203	144.500000
405.945801	144.980000
406.039429	145.480000
406.133057	145.080000
406.226654	145.140000
406.320312	145.180000
406.413879	145.260000
406.507538	145.400000
406.601135	145.180000
406.694763	145.760000
406.788361	145.900000
406.882019	145.320000
406.975586	145.400000
407.069244	146.360000
407.162872	146.120000
407.256470	145.780000
407.350098	146.220000
407.443726	145.800000
407.537323	145.060000
407.630951	145.320000
407.724579	145.160000
407.818207	145.380000
407.911804	145.480000
408.005432	145.780000
408.099060	145.660000
408.192688	146.700000
408.286285	146.180000
408.379913	145.980000
408.473572	146.320000
408.567169	145.600000
408.660828	144.780000
408.754395	145.060000
408.848053	144.660000
408.941650	144.300000
409.035309	144.500000
409.128906	144.800000
409.222565	144.500000
409.316132	145.460000
409.409790	145.500000
409.503387	145.560000
409.597046	145.660000
409.690674	145.740000
409.784302	145.480000
409.877930	145.180000
409.971558	145.480000
410.065186	145.320000
410.158783	145.460000
410.252411	145.280000
410.346039	146.100000
410.439667	146.040000
410.533295	146.100000
410.626923	146.340000
410.720551	146.300000
410.814209	146.300000
410.907806	146.460000
411.001465	146.400000
411.095062	146.340000
411.188721	146.460000
411.282318	145.900000
411.375977	145.500000
411.469574	145.300000
411.563232	145.120000
411.656830	145.340000
411.750488	145.260000
411.844086	145.400000
411.937744	145.640000
412.031372	145.460000
412.125000	145.160000
412.218628	145.140000
412.312256	145.760000
412.405884	146.240000
412.499512	146.160000
412.593170	146.380000
412.686798	146.880000
412.780426	146.020000
412.874054	145.840000
412.967682	146.020000
413.061310	146.700000
413.154968	146.220000
413.248566	146.780000
413.342224	146.660000
413.435852	146.960000
413.529510	146.440000
413.623108	145.860000
413.716766	145.420000
413.810364	145.680000
413.904022	145.280000
413.997650	144.860000
414.091309	146.000000
414.184906	146.100000
414.278564	145.480000
414.372192	145.880000
414.465851	146.440000
414.559479	145.800000
414.653107	146.440000
414.746735	146.700000
414.840393	146.540000
414.934021	146.480000
415.027649	146.360000
415.121277	145.840000
415.214935	145.980000
415.308563	146.000000
415.402191	145.280000
415.495850	145.680000
415.589478	145.540000
415.683136	145.220000
415.776733	145.540000
415.870422	146.440000
415.964020	145.880000
416.057678	146.160000
416.151306	146.260000
416.244965	145.620000
416.338562	145.200000
416.432251	145.880000
416.525848	146.480000
416.619507	147.060000
416.713165	147.740000
416.806793	147.760000
416.900421	147.940000
416.994080	147.060000
417.087708	146.340000
417.181366	145.840000
417.274994	145.740000
417.368622	145.780000
417.462280	146.680000
417.555908	146.760000
417.649567	146.680000
417.743195	147.080000
417.836853	146.800000
417.930481	146.620000
418.024170	146.920000
418.117767	147.480000
418.211426	147.300000
418.305054	147.380000
418.398712	146.440000
418.492340	146.280000
418.585999	146.260000
418.679626	146.100000
418.773285	146.000000
418.866913	146.780000
418.960571	147.100000
419.054230	146.960000
419.147858	147.380000
419.241516	147.420000
419.335144	146.700000
419.428802	146.740000
419.522461	146.760000
419.616089	145.700000
419.709747	146.020000
419.803375	146.540000
419.897034	145.740000
419.990662	145.520000
420.084320	146.360000
420.177979	146.200000
420.271606	146.400000
420.365295	146.900000
420.458893	147.020000
420.552582	147.080000
420.646210	147.120000
420.739868	146.780000
420.833496	147.140000
420.927155	146.560000
421.020782	146.260000
421.114471	145.880000
421.208069	145.920000
421.301758	145.580000
421.395386	146.080000
421.489044	146.140000
421.582703	146.040000
421.676361	146.440000
421.769989	146.100000
421.863647	146.340000
421.957306	146.740000
422.050934	146.880000
422.144592	146.360000
422.238251	146.240000
422.331909	145.800000
422.425537	145.220000
422.519196	145.280000
422.612854	145.160000
422.706543	144.940000
422.800140	145.360000
422.893829	144.940000
422.987457	144.260000
423.081146	144.620000
423.174744	145.460000
423.268433	144.860000
423.362061	145.100000
423.455750	145.500000
423.549347	145.340000
423.643036	144.640000
423.736664	145.300000
423.830353	145.500000
423.924011	146.080000
424.017639	145.700000
424.111298	145.960000
424.204956	145.680000
424.298615	145.500000
424.392273	144.760000
424.485931	145.400000
424.579559	145.340000
424.673218	145.000000
424.766876	145.280000
424.860535	145.220000
424.954193	144.580000
425.047882	145.340000
425.141510	145.580000
425.235199	145.320000
425.328796	145.220000
425.422485	145.580000
425.516113	144.540000
425.609802	144.720000
425.703430	144.960000
425.797119	145.100000
425.890747	145.240000
425.984436	145.520000
426.078064	145.080000
426.171753	145.120000
426.265411	145.060000
426.359070	144.900000
426.452728	144.960000
426.546356	145.200000
426.640015	145.020000
426.733673	145.300000
426.827332	144.900000
426.920990	145.520000
427.014648	145.200000
427.108307	145.080000
427.201965	145.340000
427.295624	145.860000
427.389282	144.960000
427.482941	145.440000
427.576630	145.720000
427.670258	145.120000
427.763947	144.800000
427.857574	145.020000
427.951263	144.700000
428.044922	144.360000
428.138611	144.900000
428.232239	145.000000
428.325928	145.520000
428.419556	146.020000
428.513245	145.940000
428.606903	145.460000
428.700562	145.460000
428.794220	144.660000
428.887878	143.860000
428.981537	144.580000
429.075195	144.820000
429.168854	145.000000
429.262512	145.620000
429.356201	146.300000
429.449860	145.780000
429.543518	145.880000
429.637177	145.920000
429.730835	145.580000
429.824493	145.320000
429.918182	145.540000
430.011810	145.180000
430.105530	144.940000
430.199158	145.500000
430.292847	145.560000
430.386475	145.460000
430.480164	145.520000
430.573792	145.020000
430.667511	144.920000
430.761139	144.840000
430.854828	145.180000
430.948456	145.660000
431.042145	146.340000
431.135834	145.780000
431.229492	145.920000
431.323151	145.880000
431.416809	145.420000
431.510468	145.320000
431.604156	145.440000
431.697815	145.500000
431.791473	145.120000
431.885132	144.860000
431.978821	145.180000
432.072479	145.520000
432.166138	145.800000
432.259827	145.620000
432.353485	146.240000
432.447174	146.280000
432.540802	146.040000
432.634491	145.920000
432.728149	146.360000
432.821838	146.660000
432.915466	146.280000
433.009186	146.580000
433.102814	145.720000
433.196503	145.860000
433.290131	145.460000
433.383850	145.500000
433.477509	145.540000
433.571167	146.840000
433.664856	146.960000
433.758514	147.580000
433.852173	147.640000
433.945862	147.280000
434.039520	146.900000
434.133179	146.380000
434.226868	145.720000
434.320526	145.320000
434.414185	145.660000
434.507874	145.420000
434.601562	145.700000
434.695221	145.640000
434.788910	145.900000
434.882538	146.200000
434.976257	145.920000
435.069885	145.900000
435.163574	146.080000
435.257233	145.760000
435.350922	145.360000
435.444580	145.360000
435.538269	144.880000
435.631897	144.980000
435.725616	145.660000
435.819275	145.940000
435.912964	146.440000
436.006622	147.160000
436.100311	146.960000
436.193970	146.000000
436.287628	145.940000
436.381317	145.400000
436.474976	144.800000
436.568665	144.740000
436.662323	145.080000
436.756012	144.860000
436.849670	144.940000
436.943390	144.780000
437.037018	144.700000
437.130737	144.940000
437.224365	144.640000
437.318085	144.840000
437.411713	145.120000
437.505432	145.440000
437.599060	145.860000
437.692780	146.640000
437.786407	146.260000
437.880127	146.200000
437.973755	146.060000
438.067474	145.340000
438.161133	144.740000
438.254822	145.560000
438.348480	145.320000
438.442169	145.820000
438.535828	146.480000
438.629517	146.300000
438.723175	145.420000
438.816864	145.840000
438.910553	145.320000
439.004211	144.560000
439.097900	144.760000
439.191559	145.220000
439.285248	144.800000
439.378906	145.200000
439.472626	145.620000
439.566284	145.200000
439.659973	145.480000
439.753632	145.520000
439.847321	145.620000
439.940979	145.800000
440.034698	146.060000
440.128326	145.160000
440.222046	145.060000
440.315674	144.160000
440.409393	143.900000
440.503082	143.860000
440.596741	144.500000
440.690430	144.780000
440.784088	145.140000
440.877777	144.840000
440.971466	144.940000
441.065125	144.560000
441.158813	144.300000
441.252502	144.000000
441.346161	144.320000
441.439850	144.680000
441.533539	144.380000
441.627197	144.800000
441.720886	144.840000
441.814606	145.160000
441.908234	145.380000
442.001953	145.860000
442.095612	145.480000
442.189301	145.880000
442.282959	146.000000
442.376678	144.980000
442.470306	145.700000
442.564026	145.860000
442.657684	145.720000
442.751404	145.420000
442.845032	146.500000
442.938751	145.520000
443.032440	145.680000
443.126099	145.340000
443.219788	145.480000
443.313477	145.220000
443.407166	145.800000
443.500824	145.880000
443.594513	146.520000
443.688202	146.360000
443.781891	145.820000
443.875549	145.700000
443.969238	145.540000
444.062927	145.000000
444.156647	145.340000
444.250275	145.780000
444.343994	145.660000
444.437653	145.780000
444.531372	146.100000
444.625031	145.760000
444.718719	145.400000
444.812378	145.440000
444.906097	145.400000
444.999756	144.940000
445.093445	145.160000
445.187103	145.480000
445.280823	146.140000
445.374512	145.580000
445.468201	146.120000
445.561859	146.180000
445.655548	146.020000
445.749237	144.940000
445.842926	145.500000
445.936615	145.700000
446.030304	145.160000
446.123962	145.460000
446.217651	145.700000
446.311340	145.740000
446.405029	145.160000
446.498749	144.920000
446.592407	144.320000
446.686096	144.620000
446.779755	144.620000
446.873474	145.100000
446.967133	145.840000
447.060852	145.840000
447.154510	145.760000
447.248230	145.620000
447.341858	145.220000
447.435577	144.620000
447.529236	144.540000
447.622955	144.100000
447.716644	144.400000
447.810333	144.780000
447.904022	145.540000
447.997711	145.900000
448.091400	146.520000
448.185059	146.300000
448.278748	146.160000
448.372437	145.560000
448.466125	145.520000
448.559814	145.260000
448.653503	145.840000
448.747192	146.260000
448.840912	146.740000
448.934570	147.040000
449.028290	147.280000
449.121948	146.500000
449.215637	145.940000
449.309296	145.440000
449.403015	145.320000
449.496674	145.240000
449.590393	145.440000
449.684052	145.220000
449.777771	146.100000
449.871429	145.440000
449.965149	145.280000
450.058838	145.760000
450.152527	146.320000
450.246216	145.560000
450.339905	145.980000
450.433594	145.640000
450.527283	145.740000
450.620972	145.580000
450.714661	145.840000
450.808350	146.080000
450.902039	146.840000
450.995728	146.640000
451.089417	146.180000
451.183105	146.160000
451.276794	146.540000
451.370514	145.900000
451.464172	145.240000
451.557892	145.200000
451.651550	145.240000
451.745270	144.560000
451.838928	144.160000
451.932648	144.280000
452.026306	145.000000
452.120026	144.760000
452.213684	145.100000
452.307404	145.580000
452.401062	145.980000
452.494781	145.680000
452.588470	146.020000
452.682159	145.360000
452.775848	145.240000
452.869537	144.900000
452.963226	144.880000
453.056915	144.360000
453.150604	144.700000
453.244293	144.780000
453.337982	145.240000
453.431671	145.680000
453.525360	146.300000
453.619049	146.580000
453.712769	146.740000
453.806427	146.480000
453.900146	145.700000
453.993805	145.560000
454.087555	145.800000
454.181213	145.980000
454.274933	145.840000
454.368591	146.100000
454.462311	145.760000
454.555969	145.240000
454.649689	145.640000
454.743347	145.300000
454.837067	146.180000
454.930756	146.920000
455.024445	147.040000
455.118134	146.720000
455.211853	147.160000
455.305542	146.140000
455.399231	145.900000
455.492920	145.820000
455.586609	145.780000
455.680298	146.100000
455.773987	146.260000
455.867676	146.020000
455.961365	146.340000
456.055084	145.620000
456.148773	145.000000
456.242493	145.260000
456.336151	145.280000
456.429871	145.440000
456.523529	146.080000
456.617249	145.900000
456.710907	146.260000
456.804626	146.360000
456.898315	145.820000
456.992035	145.820000
457.085693	146.080000
457.179413	145.280000
457.273102	145.980000
457.366791	146.200000
457.460480	146.380000
457.554199	147.000000
457.647888	147.200000
457.741577	146.360000
457.835266	146.360000
457.928955	146.480000
458.022644	146.600000
458.116364	146.740000
458.210052	146.760000
458.303741	146.760000
458.397461	146.320000
458.491119	145.340000
458.584839	145.200000
458.678528	145.000000
458.772247	144.920000
458.865906	144.920000
458.959625	145.840000
459.053284	146.200000
459.147003	145.980000
459.240692	146.240000
459.334412	146.480000
459.428070	145.780000
459.521790	145.300000
459.615479	145.400000
459.709198	145.840000
459.802887	145.220000
459.896576	145.440000
459.990265	145.800000
460.083954	146.160000
460.177673	145.820000
460.271362	146.280000
460.365051	146.140000
460.458740	145.980000
460.552429	145.700000
460.646149	145.160000
460.739838	144.660000
460.833527	144.920000
460.927246	144.260000
461.020905	144.400000
461.114655	144.640000
461.208313	144.800000
461.302032	144.580000
461.395691	145.280000
461.489441	145.340000
461.583099	145.300000
461.676819	145.320000
461.770477	145.420000
461.864197	145.320000
461.957916	145.000000
462.051605	144.280000
462.145294	145.240000
462.238983	145.100000
462.332703	145.240000
462.426392	146.200000
462.520081	146.660000
462.613770	145.840000
462.707489	146.320000
462.801178	145.940000
462.894867	145.300000
462.988556	145.660000
463.082275	145.840000
463.175964	145.040000
463.269684	145.760000
463.363342	145.680000
463.457092	144.660000
463.550751	144.980000
463.644470	145.340000
463.738129	144.920000
463.831879	145.280000
463.925537	146.660000
464.019257	146.540000
464.112946	146.600000
464.206665	146.120000
464.300323	146.000000
464.394043	145.780000
464.487762	145.680000
464.581451	145.960000
464.675140	146.660000
464.768829	146.660000
464.862549	146.340000
464.956238	146.740000
465.049927	146.820000
465.143646	146.760000
465.237335	146.480000
465.331024	146.820000
465.424713	146.440000
465.518433	146.500000
465.612152	146.100000
465.705811	146.080000
465.799561	146.000000
465.893219	145.760000
465.986938	145.120000
466.080597	145.280000
466.174347	145.620000
466.268005	145.500000
466.361725	145.720000
466.455414	146.160000
466.549133	145.600000
466.642792	145.860000
466.736542	145.700000
466.830231	145.600000
466.923920	145.460000
467.017609	145.840000
467.111328	145.000000
467.205017	144.880000
467.298706	144.800000
467.392426	144.920000
467.486115	145.520000
467.579803	145.480000
467.673523	145.860000
467.767212	146.040000
467.860901	145.900000
467.954651	145.380000
468.048309	145.700000
468.142029	145.380000
468.235718	145.360000
468.329437	145.020000
468.423096	145.260000
468.516846	145.000000
468.610504	145.120000
468.704224	144.540000
468.797913	144.500000
468.891632	144.860000
468.985291	144.860000
469.079010	144.800000
469.172729	144.960000
469.266418	145.740000
469.360107	145.220000
469.453827	145.480000
469.547516	145.840000
469.641205	146.020000
469.734924	145.980000
469.828613	146.240000
469.922302	146.220000
470.016022	145.980000
470.109711	145.840000
470.203430	145.100000
470.297150	144.740000
470.390808	145.240000
470.484558	145.040000
470.578217	145.620000
470.671936	146.340000
470.765625	146.800000
470.859344	146.260000
470.953003	146.820000
471.046753	146.340000
471.140411	145.560000
471.234131	145.580000
471.327820	146.020000
471.421539	146.100000
471.515228	145.980000
471.608948	146.180000
471.702637	145.980000
471.796326	145.160000
471.890045	144.880000
471.983734	145.400000
472.077423	145.400000
472.171143	145.280000
472.264832	145.680000
472.358521	145.480000
472.452240	145.140000
472.545929	145.980000
472.639648	146.260000
472.733337	146.620000
472.827057	147.040000
472.920746	147.120000
473.014465	146.780000
473.108124	146.820000
473.201874	146.760000
473.295532	146.240000
473.389252	146.760000
473.482941	146.820000
473.576660	146.160000
473.670319	146.020000
473.764069	146.360000
473.857727	146.060000
473.951477	146.340000
474.045166	147.060000
474.138855	147.020000
474.232574	146.920000
474.326263	147.020000
474.419952	146.760000
474.513672	146.660000
474.607361	146.480000
474.701050	146.360000
474.794769	146.540000
474.888458	146.660000
474.982178	146.600000
475.075867	147.160000
475.169586	147.220000
475.263275	146.940000
475.356995	147.000000
475.450653	146.480000
475.544403	145.840000
475.638062	146.560000
475.731812	145.840000
475.825470	145.320000
475.919189	145.720000
476.012878	146.060000
476.106598	145.300000
476.200256	146.060000
476.294006	145.980000
476.387695	145.920000
476.481384	145.620000
476.575104	145.340000
476.668793	144.600000
476.762512	144.640000
476.856201	145.140000
476.949890	145.020000
477.043610	144.960000
477.137299	145.500000
477.230988	145.740000
477.324707	145.520000
477.418396	146.180000
477.512146	146.480000
477.605804	146.360000
477.699524	146.340000
477.793213	145.900000
477.886932	145.600000
477.980591	145.420000
478.074341	145.260000
478.167999	144.800000
478.261749	144.940000
478.355408	144.780000
478.449127	145.460000
478.542816	146.340000
478.636536	147.000000
478.730225	147.360000
478.823944	147.540000
478.917633	147.360000
479.011322	147.460000
479.105042	147.320000
479.198730	147.040000
479.292450	147.060000
479.386139	146.940000
479.479828	146.520000
479.573547	147.000000
479.667267	146.700000
479.760925	146.600000
479.854675	146.880000
479.948334	146.580000
480.042084	145.800000
480.135742	146.440000
480.229462	145.860000
480.323151	145.240000
480.416870	144.920000
480.510529	145.260000
480.604279	144.380000
480.697937	145.440000
480.791656	145.600000
480.885345	145.600000
480.979065	145.560000
481.072754	146.340000
481.166473	146.260000
481.260132	146.140000
481.353882	146.240000
481.447540	145.820000
481.541260	146.100000
481.635010	145.300000
481.728668	145.080000
481.822388	145.260000
481.916077	145.720000
482.009796	145.120000
482.103485	146.020000
482.197205	146.000000
482.290863	146.140000
482.384613	145.920000
482.478271	145.580000
482.571991	144.780000
482.665680	145.160000
482.759399	145.360000
482.853058	145.460000
482.946808	145.900000
483.040466	145.980000
483.134216	145.820000
483.227875	145.300000
483.321594	145.840000
483.415283	145.900000
483.509003	145.820000
483.602661	145.460000
483.696411	145.940000
483.790070	145.540000
483.883789	145.300000
483.977478	145.780000
484.071198	146.480000
484.164917	145.980000
484.258606	145.480000
484.352325	146.000000
484.445984	145.820000
484.539734	145.500000
484.633392	145.240000
484.727142	145.620000
484.820801	145.160000
484.914520	145.380000
485.008209	145.700000
485.101929	146.380000
485.195587	146.540000
485.289337	146.500000
485.382996	146.260000
485.476715	146.240000
485.570404	146.480000
485.664124	146.040000
485.757782	146.720000
485.851532	146.400000
485.945190	145.980000
486.038910	146.000000
486.132599	146.660000
486.226318	145.760000
486.319977	146.100000
486.413727	146.780000
486.507446	146.160000
486.601105	145.320000
486.694855	145.740000
486.788513	145.500000
486.882233	145.420000
486.975922	145.580000
487.069641	145.740000
487.163300	145.260000
487.257050	146.400000
487.350708	145.720000
487.444427	145.560000
487.538116	145.600000
487.631836	145.600000
487.725494	145.160000
487.819214	145.220000
487.912903	145.420000
488.006622	146.080000
488.100281	146.140000
488.194031	145.740000
488.287689	146.580000
488.381409	147.320000
488.475098	146.800000
488.568817	147.200000
488.662476	146.860000
488.756226	145.960000
488.849945	144.820000
488.943604	144.960000
489.037354	144.980000
489.131012	145.200000
489.224731	145.480000
489.318390	145.760000
489.412140	145.960000
489.505798	145.720000
489.599518	145.340000
489.693207	145.480000
489.786926	145.440000
489.880585	144.940000
489.974335	145.540000
490.067993	146.860000
490.161713	147.080000
490.255371	148.080000
490.349121	148.220000
490.442780	147.840000
490.536499	146.760000
490.630188	146.580000
490.723907	145.560000
490.817566	145.700000
490.911285	145.780000
491.004974	145.800000
491.098694	145.700000
491.192413	146.380000
491.286102	146.480000
491.379822	146.840000
491.473480	146.840000
491.567200	146.700000
491.660889	146.080000
491.754608	145.740000
491.848267	145.280000
491.941986	145.460000
492.035675	145.780000
492.129395	146.240000
492.223053	146.260000
492.316772	146.420000
492.410461	146.220000
492.504181	146.240000
492.597839	145.860000
492.691559	145.740000
492.785248	145.580000
492.878967	145.880000
492.972626	145.380000
493.066345	145.320000
493.160034	145.180000
493.253754	145.180000
493.347412	144.940000
493.441132	145.340000
493.534882	145.540000
493.628540	146.300000
493.722260	146.500000
493.815918	146.680000
493.909668	147.140000
494.003326	147.620000
494.097046	146.860000
494.190704	146.680000
494.284454	146.740000
494.378113	146.260000
494.471832	145.840000
494.565491	146.080000
494.659210	145.980000
494.752899	145.660000
494.846619	145.680000
494.940277	145.460000
495.033997	145.340000
495.127686	145.240000
495.221405	145.200000
495.315063	145.440000
495.408783	145.940000
495.502441	146.240000
495.596191	146.480000
495.689850	146.180000
495.783569	146.040000
495.877228	145.720000
495.970947	145.280000
496.064697	144.960000
496.158356	146.080000
496.252075	146.000000
496.345734	145.940000
496.439453	147.100000
496.533142	147.160000
496.626862	147.220000
496.720520	147.160000
496.814240	147.180000
496.907898	146.620000
497.001617	146.980000
497.095306	146.000000
497.189026	145.840000
497.282684	146.300000
497.376404	146.380000
497.470062	146.020000
497.563782	146.500000
497.657471	146.540000
497.751190	145.800000
497.844849	145.560000
497.938568	145.960000
498.032227	145.860000
498.125946	146.020000
498.219635	145.920000
498.313354	146.280000
498.407074	145.960000
498.500732	146.400000
498.594452	146.360000
498.688110	146.640000
498.781830	146.240000
498.875519	146.280000
498.969238	145.900000
499.062897	145.580000
499.156616	145.700000
499.250275	145.760000
499.343994	145.180000
499.437653	145.260000
499.531372	145.740000
499.625061	146.320000
499.718781	146.380000
499.812439	147.120000
499.906158	146.880000
499.999817	146.360000
500.093536	145.740000
500.187195	145.720000
500.280914	145.600000
500.374573	146.080000
500.468323	146.320000
500.561981	146.640000
500.655701	146.420000
500.749420	146.500000
500.843079	146.380000
500.936798	146.460000
501.030457	146.660000
501.124176	147.040000
501.217834	146.880000
501.311554	146.500000
501.405212	146.240000
501.498962	145.120000
501.592621	144.700000
501.686340	144.880000
501.779999	145.340000
501.873718	145.660000
501.967377	146.200000
502.061096	146.780000
502.154755	146.320000
502.248474	145.940000
502.342133	146.180000
502.435852	146.140000
502.529510	146.100000
502.623230	147.020000
502.716888	146.420000
502.810608	146.140000
502.904266	146.680000
502.997986	146.140000
503.091705	145.140000
503.185364	145.560000
503.279083	145.380000
503.372772	145.160000
503.466492	145.140000
503.560150	145.340000
503.653870	145.620000
503.747528	145.920000
503.841248	145.560000
503.934906	145.760000
504.028625	145.940000
504.122284	146.040000
504.216003	146.260000
504.309662	146.280000
504.403381	146.720000
504.497040	146.460000
504.590759	146.200000
504.684418	146.400000
504.778137	146.880000
504.871796	146.840000
504.965515	146.880000
505.059174	147.020000
505.152893	146.380000
505.246521	145.740000
505.340240	145.360000
505.433899	145.720000
505.527618	145.800000
505.621338	146.000000
505.714996	145.940000
505.808716	145.680000
505.902374	145.840000
505.996094	145.880000
506.089752	145.640000
506.183472	146.060000
506.277130	146.460000
506.370850	146.280000
506.464508	145.760000
506.558228	145.980000
506.651886	145.980000
506.745605	145.960000
506.839264	146.200000
506.932983	146.700000
507.026611	146.220000
507.120331	146.640000
507.213989	145.960000
507.307709	145.780000
507.401367	145.720000
507.495087	146.800000
507.588745	145.840000
507.682465	147.040000
507.776123	147.140000
507.869843	146.880000
507.963531	146.800000
508.057190	147.480000
508.150909	146.600000
508.244568	146.700000
508.338287	146.700000
508.431946	145.780000
508.525665	145.500000
508.619324	145.400000
508.713013	145.220000
508.806671	145.740000
508.900391	146.920000
508.994049	146.840000
509.087769	147.160000
509.181427	147.160000
509.275146	146.980000
509.368774	146.160000
509.462494	146.100000
509.556152	145.780000
509.649872	146.380000
509.743530	146.540000
509.837250	146.520000
509.930878	146.920000
510.024597	146.900000
510.118256	146.040000
510.211975	145.960000
510.305695	145.700000
510.399353	145.860000
510.493042	146.740000
510.586700	147.040000
510.680420	147.160000
510.774078	147.480000
510.867798	147.540000
510.961426	146.720000
511.055145	146.740000
511.148804	146.400000
511.242523	146.760000
511.336151	146.660000
511.429871	147.000000
511.523529	146.660000
511.617249	146.460000
511.710876	145.980000
511.804596	145.460000
511.898254	145.480000
511.991974	146.280000
512.085632	146.080000
512.179321	146.340000
512.272949	146.860000
512.366699	147.080000
512.460327	146.480000
512.554077	147.660000
512.647766	147.300000
512.741394	147.020000
512.835144	147.340000
512.928772	147.020000
513.022461	146.800000
513.116150	146.540000
513.209839	146.920000
513.303467	146.420000
513.397217	146.240000
513.490845	145.380000
513.584595	145.480000
513.678223	144.980000
513.771912	144.160000
513.865601	144.840000
513.959290	144.860000
514.052917	144.820000
514.146667	145.680000
514.240295	146.340000
514.333984	146.220000
514.427673	146.460000
514.521362	147.040000
514.614990	146.000000
514.708740	146.060000
514.802368	146.140000
514.896057	146.260000
514.989746	146.760000
515.083435	146.800000
515.177124	146.920000
515.270752	146.520000
515.364502	146.320000
515.458130	146.080000
515.551819	146.200000
515.645508	145.880000
515.739197	145.940000
515.832825	146.140000
515.926575	145.740000
516.020203	145.920000
516.113892	146.640000
516.207520	146.600000
516.301270	146.500000
516.394897	146.980000
516.488586	147.140000
516.582275	146.640000
516.675964	146.120000
516.769592	146.080000
516.863281	146.000000
516.956970	146.340000
517.050659	146.240000
517.144287	146.620000
517.238037	146.780000
517.331665	146.300000
517.425354	145.620000
517.519043	145.620000
517.612732	146.020000
517.706421	145.840000
517.800049	145.680000
517.893738	145.260000
517.987427	145.360000
518.081116	145.280000
518.174744	144.900000
518.268433	145.200000
518.362122	146.680000
518.455811	146.820000
518.549438	147.140000
518.643127	148.140000
518.736816	148.020000
518.830505	147.060000
518.924133	147.080000
519.017822	146.960000
519.111511	146.600000
519.205200	147.160000
519.298828	147.140000
519.392517	146.560000
519.486206	146.940000
519.579895	146.920000
519.673523	146.380000
519.767212	146.260000
519.860901	146.860000
519.954590	146.100000
520.048279	145.580000
520.141907	145.380000
520.235596	146.520000
520.329224	146.960000
520.422974	147.360000
520.516602	147.600000
520.610291	147.420000
520.703918	147.040000
520.797607	146.380000
520.891296	146.340000
520.984985	146.800000
521.078613	147.660000
521.172302	146.960000
521.265930	147.780000
521.359680	148.280000
521.453308	148.040000
521.546997	147.680000
521.640625	147.680000
521.734314	147.080000
521.827942	146.340000
521.921692	146.040000
522.015320	146.000000
522.109009	145.980000
522.202698	145.720000
522.296326	145.820000
522.390015	146.120000
522.483704	146.160000
522.577393	146.040000
522.671021	145.940000
522.764709	145.460000
522.858337	145.860000
522.952026	145.620000
523.045654	146.320000
523.139404	146.920000
523.233032	147.340000
523.326721	146.840000
523.420349	147.140000
523.514038	146.480000
523.607666	146.760000
523.701355	146.600000
523.795044	146.660000
523.888733	146.780000
523.982361	147.160000
524.076050	146.540000
524.169678	146.900000
524.263367	146.880000
524.356995	146.600000
524.450684	146.380000
524.544373	146.680000
524.638062	146.380000
524.731750	146.360000
524.825378	146.320000
524.919067	145.760000
525.012695	145.320000
525.106384	145.400000
525.200012	145.160000
525.293701	144.860000
525.387329	145.960000
525.481018	146.140000
525.574646	146.240000
525.668396	146.720000
525.762024	147.280000
525.855713	147.140000
525.949341	146.780000
526.043030	147.000000
526.136658	146.700000
526.230347	146.380000
526.323975	145.840000
526.417664	146.020000
526.511292	146.100000
526.604980	146.220000
526.698608	146.120000
526.792297	146.360000
526.885925	146.780000
526.979614	146.460000
527.073303	146.480000
527.166931	146.460000
527.260620	146.440000
527.354309	146.760000
527.447998	146.720000
527.541626	146.200000
527.635315	146.560000
527.728943	147.060000
527.822632	146.740000
527.916260	147.100000
528.009949	147.680000
528.103577	146.940000
528.197266	146.260000
528.290894	146.060000
528.384583	145.680000
528.478210	145.920000
528.571899	146.720000
528.665527	146.980000
528.759216	147.240000
528.852844	147.640000
528.946533	147.500000
529.040161	147.460000
529.133850	147.080000
529.227478	147.020000
529.321167	147.500000
529.414856	147.680000
529.508484	147.760000
529.602173	147.720000
529.695801	147.240000
529.789490	146.480000
529.883057	146.000000
529.976746	146.000000
530.070374	146.400000
530.164062	146.920000
530.257690	147.260000
530.351379	147.480000
530.445007	147.280000
530.538696	146.780000
530.632324	146.560000
530.726013	146.380000
530.819641	146.540000
530.913330	146.820000
531.006958	147.420000
531.100647	147.420000
531.194275	147.340000
531.287964	147.140000
531.381592	146.960000
531.475220	146.640000
531.568848	146.840000
531.662537	146.440000
531.756226	146.940000
531.849854	147.100000
531.943542	147.420000
532.037170	146.700000
532.130859	147.620000
532.224487	146.840000
532.318176	146.180000
532.411804	146.740000
532.505432	147.340000
532.599060	146.320000
532.692749	146.600000
532.786377	147.020000
532.880066	146.240000
532.973694	145.700000
533.067383	146.220000
533.161011	145.980000
533.254639	145.960000
533.348267	145.880000
533.441956	146.060000
533.535583	145.840000
533.629272	145.860000
533.722900	145.360000
533.816589	145.640000
533.910156	146.220000
534.003845	145.600000
534.097534	146.060000
534.191162	146.600000
534.284851	146.560000
534.378479	146.200000
534.472107	146.920000
534.565735	146.520000
534.659424	146.860000
534.753052	147.340000
534.846741	146.820000
534.940369	147.620000
535.033997	147.560000
535.127625	147.220000
535.221313	147.340000
535.314941	147.680000
535.408630	146.200000
535.502197	146.700000
535.595886	146.740000
535.689514	145.880000
535.783203	146.320000
535.876831	147.200000
535.970459	146.740000
536.064087	146.780000
536.157776	146.700000
536.251404	146.400000
536.345093	146.420000
536.438721	146.560000
536.532349	146.320000
536.626038	146.580000
536.719666	146.860000
536.813293	146.520000
536.906921	146.800000
537.000610	147.180000
537.094238	146.820000
537.187866	146.560000
537.281494	146.560000
537.375183	146.320000
537.468811	145.980000
537.562439	146.200000
537.656067	146.160000
537.749756	146.340000
537.843384	146.760000
537.937012	146.920000
538.030640	146.980000
538.124329	146.920000
538.217896	147.220000
538.311584	147.380000
538.405212	147.260000
538.498901	147.480000
538.592468	148.100000
538.686157	147.200000
538.779785	146.140000
538.873413	146.340000
538.967102	146.060000
539.060730	145.420000
539.154358	146.040000
539.247986	146.640000
539.341675	146.300000
539.435242	146.340000
539.528931	146.400000
539.622559	145.820000
539.716187	146.040000
539.809814	146.000000
539.903503	146.000000
539.997070	146.040000
540.090759	146.100000
540.184387	145.460000
540.278015	146.260000
540.371643	146.420000
540.465332	146.120000
540.558899	146.540000
540.652588	146.760000
540.746216	146.020000
540.839844	146.260000
540.933472	146.800000
541.027100	146.580000
541.120728	146.780000
541.214417	146.800000
541.308044	146.820000
541.401672	146.520000
541.495300	146.360000
541.588928	146.200000
541.682617	146.020000
541.776184	145.420000
541.869873	145.580000
541.963440	146.120000
542.057129	145.920000
542.150757	146.000000
542.244385	146.140000
542.338013	145.760000
542.431641	145.220000
542.525269	145.480000
542.618958	146.060000
542.712524	146.080000
542.806213	145.860000
542.899780	146.460000
542.993469	145.940000
543.087036	145.640000
543.180725	145.220000
543.274292	145.820000
543.367981	145.740000
543.461548	146.380000
543.555237	146.000000
543.648926	146.760000
543.742493	147.140000
543.836182	146.680000
543.929749	146.560000
544.023437	146.920000
544.117004	146.540000
544.210693	146.420000
544.304260	146.880000
544.397949	146.540000
544.491516	146.720000
544.585205	146.760000
544.678772	146.100000
544.772461	146.400000
544.866028	146.600000
544.959717	146.380000
545.053284	146.180000
545.146973	146.620000
545.240540	146.440000
545.334229	147.080000
545.427795	147.220000
545.521423	147.300000
545.615051	147.240000
545.708679	147.200000
545.802307	146.600000
545.895935	146.900000
545.989624	147.680000
546.083191	147.460000
546.176880	147.640000
546.270447	147.340000
546.364136	147.300000
546.457703	147.040000
546.551331	147.000000
546.644958	146.860000
546.738586	147.280000
546.832214	146.980000
546.925842	146.280000
547.019409	146.840000
547.113098	146.560000
547.206665	146.420000
547.300354	146.620000
547.393921	147.060000
547.487549	146.820000
547.581177	146.700000
547.674805	146.400000
547.768433	145.480000
547.862061	145.340000
547.955627	144.820000
548.049316	145.220000
548.142883	145.520000
548.236572	146.280000
548.330139	146.400000
548.423767	146.340000
548.517456	146.100000
548.611023	146.420000
548.704651	145.900000
548.798279	146.280000
548.891907	146.880000
548.985474	146.760000
549.079163	146.500000
549.172729	146.560000
549.266357	145.980000
549.359985	145.880000
549.453613	145.140000
549.547180	145.240000
549.640869	145.620000
549.734436	145.260000
549.828064	145.420000
549.921631	145.900000
550.015320	145.300000
550.108887	145.460000
550.202515	145.900000
550.296143	145.360000
550.389771	145.820000
550.483337	145.820000
550.576965	145.240000
550.670593	145.700000
550.764221	146.040000
550.857849	145.880000
550.951477	145.840000
551.045105	145.820000
551.138672	145.560000
551.232300	145.280000
551.325928	145.420000
551.419556	145.960000
551.513123	146.300000
551.606750	145.880000
551.700378	146.060000
551.794006	146.140000
551.887573	146.020000
551.981201	146.300000
552.074768	146.400000
552.168457	145.840000
552.262024	146.160000
552.355652	146.200000
552.449219	146.640000
552.542847	146.560000
552.636475	146.860000
552.730103	145.960000
552.823669	145.680000
552.917297	144.940000
553.010864	144.860000
553.104553	145.440000
553.198181	145.320000
553.291748	145.860000
553.385376	145.780000
553.478943	146.060000
553.572571	145.700000
553.666199	146.000000
553.759827	145.720000
553.853394	145.460000
553.947021	145.140000
554.040588	145.140000
554.134216	145.220000
554.227783	145.700000
554.321411	146.640000
554.415039	146.780000
554.508667	146.440000
554.602234	146.720000
554.695862	146.100000
554.789429	145.600000
554.883057	145.520000
554.976624	145.680000
555.070251	145.460000
555.163818	145.420000
555.257507	145.280000
555.351074	145.480000
555.444702	146.860000
555.538330	146.580000
555.631897	146.960000
555.725525	147.340000
555.819092	147.080000
555.912720	145.480000
556.006287	146.380000
556.099915	145.860000
556.193481	145.540000
556.287109	146.080000
556.380676	145.980000
556.474304	145.340000
556.567871	146.160000
556.661499	145.780000
556.755066	145.480000
556.848694	146.060000
556.942261	146.020000
557.035889	145.600000
557.129517	146.120000
557.223145	146.340000
557.316711	146.200000
557.410339	146.680000
557.503906	146.380000
557.597473	146.400000
557.691040	146.440000
557.784668	146.680000
557.878296	146.120000
557.971863	146.440000
558.065491	146.140000
558.159058	145.640000
558.252686	145.900000
558.346252	146.720000
558.439880	146.160000
558.533447	146.120000
558.627075	145.840000
558.720642	145.320000
558.814270	145.020000
558.907837	145.200000
559.001465	145.060000
559.095032	146.100000
559.188660	146.260000
559.282227	145.120000
559.375854	145.740000
559.469360	145.660000
559.562988	145.340000
559.656555	145.360000
559.750183	146.240000
559.843750	146.060000
559.937378	146.460000
560.030945	146.100000
560.124573	0.000000
560.218140	0.000000
560.311707	0.000000
560.405334	0.000000
560.498901	0.000000
560.592529	0.000000
560.686096	0.000000
560.779724	0.000000
560.873291	0.000000
560.966858	0.000000
561.060425	0.000000
561.154053	0.000000
561.247620	0.000000
561.341248	0.000000
561.434814	0.000000
561.528381	0.000000
561.621948	0.000000
561.715576	0.000000
561.809143	0.000000
561.902771	0.000000
561.996277	0.000000
562.089905	0.000000
562.183472	0.000000
562.277100	0.000000
