Model Number: SPM-002-B   
Serial Number: 70087108
Firmware Version: 004.15.4
Exposure Time: 100000.000000us
Data Taken on: 11-12-2020 19:38:16.685
Wavelength	Amplitude
221.570786	0.000000
221.663406	0.000000
221.756027	0.000000
221.848648	0.000000
221.941269	0.000000
222.033905	0.000000
222.126526	0.000000
222.219162	0.000000
222.311798	0.000000
222.404419	0.000000
222.497055	0.000000
222.589676	0.000000
222.682312	0.000000
222.774933	0.000000
222.867569	0.000000
222.960205	0.000000
223.052841	0.000000
223.145462	0.000000
223.238098	0.000000
223.330734	0.000000
223.423386	0.000000
223.516022	0.000000
223.608658	0.000000
223.701309	0.000000
223.793945	0.000000
223.886581	0.000000
223.979218	0.000000
224.071869	0.000000
224.164505	0.000000
224.257156	0.000000
224.349792	0.000000
224.442444	0.000000
224.535095	0.000000
224.627747	0.000000
224.720398	0.000000
224.813034	0.000000
224.905685	0.000000
224.998337	145.820000
225.090988	145.240000
225.183640	145.380000
225.276291	145.460000
225.368942	145.920000
225.461594	146.560000
225.554245	147.040000
225.646912	146.860000
225.739578	147.200000
225.832230	147.440000
225.924896	146.340000
226.017548	146.720000
226.110199	147.340000
226.202866	146.620000
226.295532	146.240000
226.388184	146.340000
226.480850	145.520000
226.573517	144.820000
226.666168	145.440000
226.758835	146.020000
226.851501	146.520000
226.944183	146.960000
227.036850	146.780000
227.129517	147.020000
227.222183	146.780000
227.314850	146.720000
227.407516	146.740000
227.500198	147.560000
227.592865	146.760000
227.685532	146.480000
227.778214	146.320000
227.870880	146.740000
227.963562	146.800000
228.056229	147.500000
228.148926	147.380000
228.241592	148.040000
228.334274	147.420000
228.426956	147.040000
228.519638	146.980000
228.612305	146.760000
228.704987	146.340000
228.797668	146.500000
228.890350	146.500000
228.983032	146.060000
229.075714	146.960000
229.168396	146.800000
229.261108	146.420000
229.353790	146.400000
229.446472	146.540000
229.539169	145.880000
229.631851	145.680000
229.724533	146.080000
229.817230	146.440000
229.909912	147.280000
230.002609	147.380000
230.095306	147.420000
230.187988	147.460000
230.280685	147.200000
230.373383	146.020000
230.466095	145.880000
230.558792	146.040000
230.651474	145.880000
230.744171	145.560000
230.836868	145.740000
230.929581	146.200000
231.022278	146.400000
231.114975	146.560000
231.207672	146.560000
231.300369	147.020000
231.393082	147.020000
231.485779	146.680000
231.578506	146.660000
231.671204	146.900000
231.763916	146.840000
231.856613	146.780000
231.949326	147.300000
232.042023	146.940000
232.134735	146.820000
232.227448	146.460000
232.320160	146.460000
232.412872	146.080000
232.505585	147.040000
232.598297	147.460000
232.691010	147.420000
232.783722	147.100000
232.876450	147.680000
232.969162	147.040000
233.061874	146.480000
233.154587	146.240000
233.247314	146.460000
233.340027	145.720000
233.432739	145.960000
233.525467	145.720000
233.618179	146.180000
233.710907	145.660000
233.803635	146.200000
233.896347	145.920000
233.989090	146.900000
234.081818	146.760000
234.174545	147.500000
234.267258	147.060000
234.359985	147.480000
234.452713	147.080000
234.545441	147.020000
234.638168	146.840000
234.730896	147.160000
234.823639	146.840000
234.916367	147.020000
235.009094	147.040000
235.101822	146.860000
235.194580	146.760000
235.287308	146.840000
235.380051	146.140000
235.472778	146.320000
235.565521	147.040000
235.658249	146.700000
235.750992	146.660000
235.843719	146.840000
235.936462	147.220000
236.029205	146.160000
236.121948	146.140000
236.214691	146.440000
236.307449	147.180000
236.400192	146.840000
236.492935	147.060000
236.585678	147.260000
236.678421	147.160000
236.771164	146.860000
236.863907	146.960000
236.956665	147.000000
237.049408	148.600000
237.142151	148.040000
237.234909	148.300000
237.327652	148.520000
237.420410	148.220000
237.513153	146.880000
237.605927	147.040000
237.698669	146.540000
237.791428	145.660000
237.884186	146.360000
237.976944	145.740000
238.069702	146.000000
238.162445	145.520000
238.255203	145.940000
238.347961	146.000000
238.440720	146.400000
238.533478	146.160000
238.626266	146.160000
238.719025	146.320000
238.811783	146.160000
238.904541	145.700000
238.997314	145.620000
239.090073	145.660000
239.182831	146.100000
239.275604	146.820000
239.368362	146.780000
239.461136	147.100000
239.553909	147.200000
239.646667	146.560000
239.739441	145.760000
239.832214	146.360000
239.925003	146.300000
240.017761	147.140000
240.110535	147.920000
240.203308	147.780000
240.296082	148.000000
240.388855	147.880000
240.481628	147.620000
240.574417	147.220000
240.667191	147.260000
240.759964	146.820000
240.852737	146.760000
240.945526	146.320000
241.038315	146.140000
241.131088	146.020000
241.223877	146.380000
241.316650	146.080000
241.409439	146.620000
241.502228	146.100000
241.595001	146.880000
241.687790	146.360000
241.780579	146.700000
241.873367	146.600000
241.966141	147.620000
242.058929	146.840000
242.151718	147.280000
242.244507	147.620000
242.337311	147.000000
242.430099	146.560000
242.522903	146.800000
242.615692	146.260000
242.708481	145.860000
242.801270	146.500000
242.894073	146.540000
242.986862	146.560000
243.079651	147.180000
243.172455	147.100000
243.265244	146.900000
243.358063	146.420000
243.450867	146.580000
243.543655	146.320000
243.636459	146.440000
243.729263	146.740000
243.822067	147.300000
243.914856	147.380000
244.007660	147.460000
244.100464	147.460000
244.193268	146.960000
244.286072	146.600000
244.378876	146.180000
244.471680	146.180000
244.564499	146.340000
244.657318	147.020000
244.750122	147.480000
244.842926	147.220000
244.935745	147.300000
245.028549	146.920000
245.121368	146.360000
245.214172	146.300000
245.306992	146.880000
245.399796	146.760000
245.492615	146.980000
245.585434	146.720000
245.678253	146.440000
245.771072	146.180000
245.863892	146.480000
245.956711	146.800000
246.049530	147.000000
246.142349	146.700000
246.235168	146.940000
246.327988	147.280000
246.420807	147.020000
246.513626	147.180000
246.606445	147.320000
246.699280	147.100000
246.792099	146.420000
246.884918	146.020000
246.977753	145.540000
247.070587	145.700000
247.163422	145.800000
247.256241	145.900000
247.349075	146.460000
247.441895	146.920000
247.534729	146.980000
247.627563	146.840000
247.720383	147.580000
247.813217	147.600000
247.906052	147.400000
247.998886	147.240000
248.091736	147.160000
248.184570	146.760000
248.277405	146.680000
248.370239	147.360000
248.463074	148.320000
248.555908	148.700000
248.648743	148.340000
248.741592	148.200000
248.834427	147.640000
248.927261	146.540000
249.020111	146.740000
249.112946	147.440000
249.205795	147.120000
249.298630	147.240000
249.391495	147.420000
249.484344	147.140000
249.577179	146.540000
249.670029	146.880000
249.762878	147.220000
249.855728	147.080000
249.948563	147.020000
250.041412	146.820000
250.134262	146.820000
250.227112	146.800000
250.319962	147.040000
250.412827	147.060000
250.505692	146.760000
250.598541	146.840000
250.691391	146.280000
250.784241	146.420000
250.877106	146.320000
250.969955	146.240000
251.062805	146.640000
251.155670	147.220000
251.248520	146.760000
251.341385	147.080000
251.434235	147.120000
251.527100	146.520000
251.619965	146.080000
251.712814	147.060000
251.805695	146.920000
251.898560	147.140000
251.991425	147.580000
252.084290	147.900000
252.177155	146.780000
252.270020	146.720000
252.362885	146.860000
252.455750	146.620000
252.548615	146.160000
252.641479	146.120000
252.734360	145.660000
252.827240	145.260000
252.920105	145.180000
253.012970	145.060000
253.105850	145.340000
253.198715	145.420000
253.291595	145.580000
253.384460	145.640000
253.477341	145.660000
253.570221	145.940000
253.663086	145.580000
253.755966	146.340000
253.848846	146.240000
253.941727	146.560000
254.034592	146.320000
254.127472	146.240000
254.220367	146.060000
254.313248	146.240000
254.406128	145.620000
254.499008	146.000000
254.591904	147.240000
254.684784	147.480000
254.777664	147.540000
254.870544	147.600000
254.963440	147.580000
255.056335	147.260000
255.149216	146.800000
255.242111	147.160000
255.334991	147.720000
255.427887	147.520000
255.520767	147.400000
255.613663	147.700000
255.706558	147.100000
255.799438	146.820000
255.892334	146.620000
255.985229	146.580000
256.078125	146.400000
256.171021	146.200000
256.263916	146.600000
256.356812	146.820000
256.449707	147.020000
256.542603	146.780000
256.635498	147.540000
256.728394	147.200000
256.821289	146.880000
256.914215	147.080000
257.007080	147.240000
257.100006	147.040000
257.192932	147.320000
257.285828	147.660000
257.378723	147.160000
257.471619	146.880000
257.564545	146.600000
257.657440	146.700000
257.750336	147.120000
257.843262	146.940000
257.936157	148.200000
258.029053	148.120000
258.121979	147.900000
258.214874	147.320000
258.307800	147.400000
258.400696	145.980000
258.493622	146.300000
258.586517	145.780000
258.679443	146.360000
258.772339	146.100000
258.865265	146.080000
258.958160	145.720000
259.051086	146.760000
259.144012	146.420000
259.236938	147.280000
259.329834	147.700000
259.422791	147.640000
259.515717	147.020000
259.608612	146.540000
259.701538	146.560000
259.794464	146.460000
259.887390	146.500000
259.980316	146.200000
260.073212	146.240000
260.166138	145.060000
260.259064	145.440000
260.351990	146.060000
260.444916	146.320000
260.537842	146.960000
260.630768	148.000000
260.723694	147.700000
260.816620	147.320000
260.909546	147.440000
261.002472	146.980000
261.095398	146.280000
261.188354	146.100000
261.281281	145.700000
261.374207	145.700000
261.467133	146.320000
261.560089	146.640000
261.653015	146.660000
261.745972	147.240000
261.838867	147.400000
261.931824	147.500000
262.024780	146.980000
262.117706	146.940000
262.210663	147.060000
262.303589	146.960000
262.396515	146.700000
262.489471	147.640000
262.582397	147.980000
262.675354	147.120000
262.768280	147.080000
262.861237	147.060000
262.954163	146.620000
263.047119	146.720000
263.140045	146.980000
263.233002	147.020000
263.325958	146.600000
263.418884	146.360000
263.511841	146.360000
263.604797	146.260000
263.697723	145.980000
263.790680	146.020000
263.883636	146.240000
263.976593	145.620000
264.069550	146.100000
264.162476	146.060000
264.255463	146.180000
264.348419	146.060000
264.441376	146.680000
264.534332	146.120000
264.627289	146.320000
264.720245	146.760000
264.813202	146.680000
264.906158	146.620000
264.999115	147.160000
265.092072	147.280000
265.185028	147.780000
265.277985	147.840000
265.370941	147.840000
265.463898	147.520000
265.556854	147.180000
265.649811	146.020000
265.742798	146.300000
265.835754	146.040000
265.928711	146.500000
266.021667	146.580000
266.114655	147.020000
266.207611	147.140000
266.300568	146.860000
266.393585	146.340000
266.486511	146.620000
266.579498	145.840000
266.672485	145.780000
266.765442	145.900000
266.858429	146.620000
266.951385	146.220000
267.044342	146.520000
267.137329	146.600000
267.230316	146.820000
267.323273	146.000000
267.416260	146.660000
267.509216	146.840000
267.602203	146.520000
267.695160	147.080000
267.788147	147.460000
267.881134	146.900000
267.974091	146.740000
268.067078	146.580000
268.160065	146.180000
268.253052	146.100000
268.346008	146.060000
268.438995	146.300000
268.531982	146.520000
268.624969	146.220000
268.717987	146.400000
268.810944	146.480000
268.903961	146.380000
268.996948	146.120000
269.089905	146.640000
269.182892	146.640000
269.275879	147.060000
269.368866	146.620000
269.461853	147.120000
269.554871	146.640000
269.647858	146.460000
269.740845	146.640000
269.833832	147.120000
269.926819	146.440000
270.019806	146.420000
270.112793	146.300000
270.205811	146.260000
270.298798	146.220000
270.391785	147.200000
270.484772	146.960000
270.577789	147.120000
270.670776	146.700000
270.763763	146.720000
270.856750	146.620000
270.949768	146.660000
271.042786	146.680000
271.135773	146.660000
271.228790	146.980000
271.321808	146.320000
271.414795	146.120000
271.507782	145.960000
271.600800	145.700000
271.693817	145.460000
271.786804	145.780000
271.879822	146.300000
271.972809	146.220000
272.065826	146.780000
272.158844	146.140000
272.251831	146.860000
272.344849	146.720000
272.437866	146.500000
272.530853	146.500000
272.623871	147.040000
272.716888	145.860000
272.809906	146.380000
272.902893	146.580000
272.995911	146.120000
273.088928	146.140000
273.181946	146.640000
273.274963	145.960000
273.367981	145.980000
273.460999	146.180000
273.554047	146.480000
273.647003	146.820000
273.740051	146.980000
273.833069	147.420000
273.926086	147.680000
274.019135	147.320000
274.112152	146.920000
274.205170	147.080000
274.298187	147.180000
274.391205	146.620000
274.484222	146.700000
274.577240	146.820000
274.670258	146.600000
274.763306	146.200000
274.856323	146.640000
274.949341	146.900000
275.042358	147.240000
275.135406	147.380000
275.228424	147.400000
275.321442	147.140000
275.414490	146.540000
275.507507	146.640000
275.600525	146.880000
275.693573	146.460000
275.786591	146.380000
275.879669	146.840000
275.972656	146.240000
276.065735	145.920000
276.158752	146.460000
276.251801	147.140000
276.344818	147.020000
276.437866	147.420000
276.530884	147.340000
276.623932	146.700000
276.716980	146.560000
276.809998	146.640000
276.903046	146.600000
276.996094	147.360000
277.089111	148.100000
277.182159	148.360000
277.275208	147.860000
277.368256	147.520000
277.461304	147.080000
277.554321	146.580000
277.647369	146.420000
277.740417	146.680000
277.833466	146.720000
277.926514	146.540000
278.019562	147.200000
278.112610	146.340000
278.205688	146.640000
278.298706	146.900000
278.391785	146.760000
278.484833	146.120000
278.577881	146.400000
278.670929	146.560000
278.763977	146.440000
278.857025	147.020000
278.950073	147.180000
279.043121	147.000000
279.136169	146.960000
279.229248	146.720000
279.322296	146.360000
279.415344	146.420000
279.508392	146.560000
279.601440	146.440000
279.694519	146.160000
279.787567	146.280000
279.880615	146.140000
279.973694	146.140000
280.066742	146.120000
280.159790	146.480000
280.252869	145.900000
280.345917	146.060000
280.438995	146.200000
280.532074	146.040000
280.625122	146.360000
280.718201	147.700000
280.811279	147.680000
280.904327	147.520000
280.997406	147.640000
281.090454	147.320000
281.183533	146.200000
281.276581	145.980000
281.369659	145.960000
281.462738	145.920000
281.555786	146.080000
281.648865	146.420000
281.741943	146.500000
281.835022	147.140000
281.928070	147.080000
282.021149	147.280000
282.114227	147.320000
282.207306	147.300000
282.300385	147.360000
282.393433	147.520000
282.486511	147.060000
282.579590	147.340000
282.672668	147.400000
282.765747	146.440000
282.858856	146.080000
282.951904	146.420000
283.045013	146.560000
283.138062	147.180000
283.231171	147.680000
283.324249	148.040000
283.417328	148.100000
283.510406	147.480000
283.603485	146.880000
283.696564	147.020000
283.789642	147.080000
283.882751	146.700000
283.975830	147.180000
284.068909	147.060000
284.161987	147.460000
284.255066	147.080000
284.348175	147.480000
284.441254	147.240000
284.534332	147.580000
284.627441	146.820000
284.720520	146.600000
284.813599	146.060000
284.906708	146.120000
284.999786	145.580000
285.092896	145.680000
285.185974	146.820000
285.279053	146.600000
285.372192	146.460000
285.465240	147.420000
285.558380	147.500000
285.651459	146.940000
285.744568	148.420000
285.837677	148.220000
285.930756	147.860000
286.023865	147.980000
286.116943	147.680000
286.210052	147.160000
286.303162	147.420000
286.396240	147.160000
286.489349	147.000000
286.582458	146.900000
286.675568	146.580000
286.768646	146.480000
286.861755	146.840000
286.954865	147.380000
287.047974	147.080000
287.141083	146.840000
287.234161	146.600000
287.327271	146.500000
287.420380	146.720000
287.513519	146.900000
287.606598	146.980000
287.699738	147.340000
287.792816	146.840000
287.885956	146.240000
287.979034	146.400000
288.072174	146.500000
288.165283	146.320000
288.258392	146.920000
288.351501	146.360000
288.444611	146.740000
288.537720	146.680000
288.630859	146.680000
288.723969	146.520000
288.817078	147.260000
288.910187	146.880000
289.003296	146.920000
289.096436	146.700000
289.189545	146.620000
289.282654	146.040000
289.375763	146.640000
289.468903	146.740000
289.562012	146.940000
289.655121	146.860000
289.748260	147.000000
289.841400	146.880000
289.934509	146.680000
290.027649	146.900000
290.120728	146.540000
290.213898	146.520000
290.306976	146.140000
290.400146	145.940000
290.493256	145.600000
290.586395	146.060000
290.679535	146.420000
290.772644	146.360000
290.865784	146.040000
290.958893	145.820000
291.052032	145.560000
291.145172	145.220000
291.238281	145.180000
291.331421	145.700000
291.424561	146.380000
291.517670	146.080000
291.610809	146.400000
291.703949	146.020000
291.797089	145.920000
291.890228	145.480000
291.983337	145.900000
292.076477	145.840000
292.169617	146.520000
292.262756	146.600000
292.355927	146.580000
292.449036	146.160000
292.542206	146.100000
292.635315	146.060000
292.728485	146.160000
292.821625	145.720000
292.914764	147.060000
293.007904	147.080000
293.101044	146.980000
293.194183	146.960000
293.287323	147.620000
293.380463	146.820000
293.473602	146.720000
293.566742	147.020000
293.659882	147.260000
293.753021	147.360000
293.846191	147.320000
293.939331	146.860000
294.032471	146.520000
294.125610	146.300000
294.218781	146.400000
294.311920	146.500000
294.405060	146.860000
294.498230	146.900000
294.591370	146.900000
294.684540	146.060000
294.777679	145.720000
294.870850	146.000000
294.963959	145.760000
295.057159	145.580000
295.150299	146.080000
295.243469	146.240000
295.336609	145.640000
295.429779	145.860000
295.522919	146.240000
295.616089	146.600000
295.709229	147.000000
295.802399	147.220000
295.895569	146.880000
295.988708	146.580000
296.081879	146.480000
296.175018	145.960000
296.268188	146.300000
296.361359	147.000000
296.454529	146.920000
296.547668	146.820000
296.640839	147.380000
296.734009	147.020000
296.827179	146.900000
296.920319	147.320000
297.013519	146.960000
297.106659	146.920000
297.199860	146.800000
297.292999	146.660000
297.386200	146.280000
297.479309	146.140000
297.572510	145.540000
297.665680	145.340000
297.758850	145.540000
297.852020	145.580000
297.945190	145.560000
298.038361	145.220000
298.131531	146.460000
298.224701	145.880000
298.317871	145.680000
298.411072	145.660000
298.504242	145.940000
298.597412	145.220000
298.690582	145.700000
298.783752	145.720000
298.876923	146.280000
298.970093	146.620000
299.063293	146.760000
299.156464	146.820000
299.249634	147.360000
299.342834	147.140000
299.436005	147.480000
299.529205	147.480000
299.622345	147.420000
299.715576	146.500000
299.808716	146.380000
299.901917	146.180000
299.995117	146.480000
300.088287	146.580000
300.181488	146.840000
300.274658	146.780000
300.367828	146.820000
300.461029	146.460000
300.554199	146.700000
300.647400	146.840000
300.740601	147.280000
300.833771	146.860000
300.926971	147.320000
301.020142	146.580000
301.113342	146.540000
301.206512	146.140000
301.299713	146.620000
301.392914	146.500000
301.486084	147.380000
301.579285	147.480000
301.672516	148.140000
301.765686	147.500000
301.858887	147.220000
301.952057	146.680000
302.045288	146.740000
302.138458	146.300000
302.231659	146.440000
302.324860	146.300000
302.418060	146.180000
302.511261	146.080000
302.604462	146.580000
302.697662	146.640000
302.790863	146.540000
302.884064	146.120000
302.977264	146.220000
303.070465	146.100000
303.163666	146.820000
303.256866	147.240000
303.350067	147.720000
303.443268	147.780000
303.536469	147.700000
303.629669	147.180000
303.722870	147.340000
303.816071	146.940000
303.909271	146.660000
304.002472	145.900000
304.095673	145.420000
304.188934	144.720000
304.282104	145.880000
304.375336	146.320000
304.468506	146.380000
304.561768	146.480000
304.654968	147.100000
304.748169	146.140000
304.841370	145.680000
304.934601	146.120000
305.027802	146.280000
305.121002	145.880000
305.214233	146.240000
305.307434	146.200000
305.400665	146.980000
305.493866	146.720000
305.587097	146.800000
305.680298	146.420000
305.773499	146.880000
305.866730	146.120000
305.959930	147.080000
306.053162	147.400000
306.146393	147.000000
306.239594	146.200000
306.332825	146.080000
306.426025	146.060000
306.519287	145.700000
306.612488	146.080000
306.705719	146.320000
306.798920	146.540000
306.892181	145.920000
306.985352	145.520000
307.078613	145.260000
307.171844	145.720000
307.265045	145.240000
307.358276	144.700000
307.451508	145.160000
307.544739	145.940000
307.637970	145.720000
307.731201	145.780000
307.824402	146.800000
307.917633	146.900000
308.010864	147.260000
308.104095	147.900000
308.197327	147.920000
308.290558	147.420000
308.383789	146.760000
308.477020	145.840000
308.570251	145.160000
308.663483	145.060000
308.756714	144.920000
308.849976	145.320000
308.943176	145.740000
309.036438	145.600000
309.129639	145.480000
309.222900	145.740000
309.316101	145.760000
309.409393	145.140000
309.502625	145.040000
309.595856	145.220000
309.689087	145.300000
309.782318	145.440000
309.875580	146.000000
309.968811	146.200000
310.062042	146.120000
310.155273	146.040000
310.248535	146.380000
310.341766	146.080000
310.434998	145.780000
310.528259	145.580000
310.621490	145.940000
310.714722	145.220000
310.807983	145.320000
310.901215	145.380000
310.994476	145.940000
311.087708	145.420000
311.181000	145.860000
311.274200	145.520000
311.367462	145.820000
311.460693	145.440000
311.553986	146.380000
311.647186	146.500000
311.740479	147.280000
311.833710	146.760000
311.926971	146.920000
312.020203	145.880000
312.113464	145.540000
312.206726	145.140000
312.299957	145.700000
312.393219	146.160000
312.486481	146.400000
312.579712	146.420000
312.672974	146.220000
312.766235	146.200000
312.859497	145.700000
312.952759	145.840000
313.045990	146.540000
313.139252	146.220000
313.232513	146.420000
313.325775	146.380000
313.419037	146.160000
313.512299	145.380000
313.605530	146.320000
313.698822	146.360000
313.792053	146.720000
313.885345	146.320000
313.978577	146.640000
314.071869	145.920000
314.165131	145.620000
314.258392	145.820000
314.351654	146.180000
314.444916	145.580000
314.538177	146.180000
314.631439	146.560000
314.724701	145.940000
314.817993	146.140000
314.911255	146.680000
315.004517	146.000000
315.097778	145.840000
315.191040	146.480000
315.284302	146.680000
315.377594	146.360000
315.470856	146.600000
315.564117	146.220000
315.657379	145.500000
315.750671	144.860000
315.843933	145.060000
315.937195	144.720000
316.030518	144.600000
316.123749	144.760000
316.217041	145.640000
316.310303	145.460000
316.403595	145.760000
316.496857	146.020000
316.590149	146.440000
316.683411	145.560000
316.776703	145.660000
316.869965	145.660000
316.963257	145.580000
317.056519	144.780000
317.149811	144.960000
317.243073	145.120000
317.336365	145.180000
317.429626	145.480000
317.522919	146.320000
317.616180	146.540000
317.709473	146.280000
317.802765	146.320000
317.896027	146.140000
317.989319	146.020000
318.082611	145.920000
318.175873	145.760000
318.269165	145.880000
318.362488	146.080000
318.455750	146.140000
318.549042	146.400000
318.642303	147.060000
318.735626	146.820000
318.828888	146.980000
318.922211	146.720000
319.015472	147.160000
319.108765	146.420000
319.202057	146.100000
319.295349	145.960000
319.388641	145.960000
319.481934	145.380000
319.575226	145.440000
319.668518	145.740000
319.761810	145.800000
319.855103	145.800000
319.948395	145.940000
320.041687	146.220000
320.134979	146.320000
320.228271	146.400000
320.321564	146.240000
320.414856	146.260000
320.508148	145.900000
320.601440	145.580000
320.694763	144.880000
320.788025	145.860000
320.881348	145.560000
320.974640	145.760000
321.067963	145.600000
321.161224	145.840000
321.254547	144.660000
321.347839	145.440000
321.441162	145.400000
321.534454	145.680000
321.627747	145.660000
321.721069	146.460000
321.814362	146.360000
321.907654	146.440000
322.000946	146.440000
322.094269	147.240000
322.187561	146.760000
322.280884	146.640000
322.374176	146.640000
322.467468	147.180000
322.560791	146.620000
322.654083	147.200000
322.747406	147.060000
322.840698	147.060000
322.934021	147.060000
323.027344	147.260000
323.120636	146.620000
323.213959	146.400000
323.307251	145.960000
323.400574	145.640000
323.493866	145.120000
323.587219	145.500000
323.680511	145.920000
323.773834	146.300000
323.867157	146.240000
323.960449	146.520000
324.053772	146.380000
324.147095	146.060000
324.240387	146.580000
324.333710	146.640000
324.427032	146.760000
324.520355	146.420000
324.613647	145.940000
324.706970	145.600000
324.800293	145.460000
324.893616	145.520000
324.986938	146.060000
325.080231	146.200000
325.173553	146.500000
325.266876	147.140000
325.360199	147.080000
325.453522	146.460000
325.546875	146.340000
325.640167	146.160000
325.733521	146.020000
325.826813	146.120000
325.920166	146.420000
326.013489	146.460000
326.106812	145.800000
326.200134	145.400000
326.293457	145.120000
326.386780	145.460000
326.480103	145.520000
326.573425	145.920000
326.666748	146.140000
326.760071	146.620000
326.853424	146.500000
326.946747	146.500000
327.040070	147.060000
327.133392	146.600000
327.226715	145.800000
327.320068	145.120000
327.413391	145.360000
327.506714	144.800000
327.600037	144.800000
327.693390	145.220000
327.786713	145.580000
327.880066	145.380000
327.973358	145.720000
328.066742	146.220000
328.160034	146.260000
328.253418	146.400000
328.346710	146.640000
328.440063	146.360000
328.533417	146.120000
328.626740	146.400000
328.720093	146.320000
328.813416	146.100000
328.906769	146.060000
329.000092	146.380000
329.093445	146.420000
329.186768	146.360000
329.280121	146.940000
329.373444	147.420000
329.466797	147.380000
329.560120	147.240000
329.653473	147.180000
329.746796	146.660000
329.840149	146.140000
329.933502	145.840000
330.026825	145.380000
330.120178	145.560000
330.213562	145.740000
330.306854	145.640000
330.400238	145.900000
330.493561	145.800000
330.586945	146.440000
330.680237	146.560000
330.773621	146.820000
330.866974	146.700000
330.960327	147.000000
331.053680	146.120000
331.147003	146.000000
331.240356	146.420000
331.333710	146.560000
331.427063	146.260000
331.520416	146.380000
331.613770	146.020000
331.707123	145.760000
331.800476	145.960000
331.893829	147.100000
331.987152	147.520000
332.080505	147.680000
332.173859	147.420000
332.267212	146.620000
332.360565	145.920000
332.453918	145.480000
332.547333	145.400000
332.640656	145.760000
332.734039	146.200000
332.827362	146.040000
332.920746	146.520000
333.014069	146.980000
333.107452	147.000000
333.200806	147.140000
333.294159	147.260000
333.387543	146.780000
333.480896	146.240000
333.574249	146.040000
333.667603	145.820000
333.760956	145.980000
333.854340	146.060000
333.947693	146.340000
334.041046	146.300000
334.134430	146.520000
334.227783	146.200000
334.321136	146.280000
334.414520	145.920000
334.507874	146.100000
334.601227	145.980000
334.694611	145.960000
334.787964	146.020000
334.881348	146.400000
334.974701	146.400000
335.068085	146.200000
335.161438	146.740000
335.254822	146.480000
335.348175	146.560000
335.441559	146.020000
335.534943	146.920000
335.628296	146.560000
335.721680	146.520000
335.815033	146.840000
335.908417	147.240000
336.001770	146.540000
336.095154	146.420000
336.188538	146.540000
336.281891	145.880000
336.375275	145.260000
336.468658	145.060000
336.562012	145.120000
336.655396	145.400000
336.748779	145.720000
336.842133	146.100000
336.935516	146.420000
337.028900	146.260000
337.122284	146.120000
337.215637	146.120000
337.309021	146.000000
337.402435	145.420000
337.495789	145.300000
337.589203	144.840000
337.682526	144.700000
337.775940	145.400000
337.869324	146.080000
337.962708	145.700000
338.056091	146.440000
338.149475	146.300000
338.242859	146.020000
338.336243	145.840000
338.429626	146.380000
338.523010	145.840000
338.616394	145.640000
338.709778	145.780000
338.803162	145.740000
338.896545	145.700000
338.989929	145.540000
339.083313	145.980000
339.176697	145.660000
339.270081	145.660000
339.363464	145.920000
339.456848	146.400000
339.550232	145.720000
339.643616	145.460000
339.737030	145.660000
339.830383	145.480000
339.923828	145.480000
340.017181	145.920000
340.110596	146.120000
340.203949	145.840000
340.297363	145.580000
340.390778	145.320000
340.484161	145.560000
340.577545	145.600000
340.670959	145.800000
340.764343	145.940000
340.857727	146.280000
340.951111	145.680000
341.044525	146.080000
341.137909	145.560000
341.231293	145.720000
341.324707	145.120000
341.418091	146.180000
341.511505	145.960000
341.604889	146.180000
341.698303	146.260000
341.791687	146.820000
341.885071	146.120000
341.978485	145.880000
342.071899	146.420000
342.165283	146.640000
342.258698	146.620000
342.352081	146.980000
342.445496	147.520000
342.538879	147.200000
342.632324	146.600000
342.725708	146.440000
342.819122	145.780000
342.912506	145.200000
343.005920	145.060000
343.099335	146.100000
343.192719	146.260000
343.286133	146.580000
343.379547	146.960000
343.472931	147.120000
343.566345	146.320000
343.659760	146.120000
343.753143	145.900000
343.846558	145.620000
343.939972	145.400000
344.033386	146.080000
344.126770	145.760000
344.220184	145.940000
344.313599	146.340000
344.407043	146.460000
344.500427	145.720000
344.593872	146.560000
344.687225	146.260000
344.780670	146.060000
344.874054	145.920000
344.967499	146.440000
345.060913	145.940000
345.154327	146.020000
345.247742	145.500000
345.341156	145.320000
345.434570	144.880000
345.527985	144.960000
345.621399	145.020000
345.714813	145.220000
345.808228	145.660000
345.901642	145.460000
345.995056	144.960000
346.088470	145.060000
346.181885	145.280000
346.275299	144.940000
346.368713	145.020000
346.462128	145.080000
346.555573	145.340000
346.648987	145.380000
346.742401	145.380000
346.835815	145.760000
346.929260	145.740000
347.022644	145.460000
347.116119	145.540000
347.209503	145.920000
347.302948	146.400000
347.396362	147.040000
347.489807	147.300000
347.583221	147.960000
347.676636	147.560000
347.770050	146.580000
347.863495	146.160000
347.956909	146.120000
348.050323	145.020000
348.143768	145.120000
348.237183	145.160000
348.330597	145.520000
348.424042	145.760000
348.517456	146.260000
348.610901	146.460000
348.704315	146.160000
348.797760	145.240000
348.891174	144.500000
348.984619	143.920000
349.078033	144.360000
349.171448	145.440000
349.264923	146.260000
349.358337	146.580000
349.451782	146.980000
349.545197	146.200000
349.638641	145.260000
349.732086	144.800000
349.825500	145.020000
349.918945	144.700000
350.012390	145.300000
350.105804	146.120000
350.199249	146.440000
350.292664	146.780000
350.386108	147.060000
350.479553	147.120000
350.572968	146.800000
350.666412	147.000000
350.759857	146.660000
350.853302	147.220000
350.946716	146.400000
351.040161	146.420000
351.133606	146.260000
351.227081	146.260000
351.320465	146.600000
351.413940	147.100000
351.507355	147.260000
351.600830	147.260000
351.694244	147.020000
351.787720	146.400000
351.881104	146.500000
351.974579	146.160000
352.067993	146.680000
352.161469	146.760000
352.254883	146.160000
352.348358	145.940000
352.441803	145.700000
352.535248	145.200000
352.628693	145.540000
352.722137	145.600000
352.815582	145.640000
352.909027	146.120000
353.002472	145.820000
353.095917	145.400000
353.189362	145.820000
353.282806	145.660000
353.376251	145.480000
353.469696	145.440000
353.563141	146.320000
353.656586	146.100000
353.750061	145.840000
353.843475	145.820000
353.936981	146.580000
354.030396	145.500000
354.123871	145.600000
354.217285	146.440000
354.310760	146.580000
354.404175	146.280000
354.497681	146.380000
354.591095	146.640000
354.684570	145.940000
354.777985	145.840000
354.871490	145.660000
354.964935	146.200000
355.058380	145.980000
355.151855	145.820000
355.245300	145.940000
355.338745	146.060000
355.432220	145.820000
355.525665	145.540000
355.619110	146.200000
355.712585	146.040000
355.806030	145.840000
355.899475	145.540000
355.992950	145.880000
356.086426	145.980000
356.179871	146.020000
356.273346	146.260000
356.366791	146.300000
356.460266	146.140000
356.553711	145.660000
356.647186	145.740000
356.740631	145.520000
356.834106	145.440000
356.927551	145.540000
357.021027	145.700000
357.114471	145.460000
357.207947	145.760000
357.301422	146.080000
357.394867	146.060000
357.488342	146.460000
357.581818	146.700000
357.675262	146.320000
357.768738	145.840000
357.862213	145.320000
357.955658	145.240000
358.049133	144.800000
358.142609	145.420000
358.236053	145.500000
358.329529	145.900000
358.423035	146.000000
358.516449	146.220000
358.609955	146.340000
358.703400	147.200000
358.796906	147.220000
358.890350	146.500000
358.983826	146.860000
359.077271	146.080000
359.170776	145.600000
359.264221	145.540000
359.357727	145.900000
359.451172	146.040000
359.544647	146.000000
359.638123	145.700000
359.731598	146.020000
359.825073	146.320000
359.918549	146.120000
360.012024	146.580000
360.105499	146.240000
360.198975	146.100000
360.292450	145.560000
360.385925	145.480000
360.479401	144.980000
360.572876	145.420000
360.666351	145.760000
360.759857	146.120000
360.853302	145.940000
360.946808	145.840000
361.040253	145.980000
361.133759	145.380000
361.227203	145.360000
361.320709	145.560000
361.414154	146.140000
361.507660	146.420000
361.601105	146.880000
361.694641	147.300000
361.788086	147.000000
361.881592	147.220000
361.975067	146.640000
362.068542	146.680000
362.162018	146.440000
362.255524	146.200000
362.348999	145.860000
362.442474	146.360000
362.535950	145.900000
362.629456	145.500000
362.722931	145.760000
362.816406	146.240000
362.909882	146.520000
363.003387	146.460000
363.096863	147.100000
363.190338	147.180000
363.283875	146.860000
363.377319	146.340000
363.470825	146.780000
363.564301	146.120000
363.657806	146.180000
363.751282	145.820000
363.844788	146.720000
363.938232	146.360000
364.031769	147.180000
364.125214	147.100000
364.218750	147.560000
364.312225	146.500000
364.405731	146.720000
364.499207	145.800000
364.592712	145.740000
364.686188	145.620000
364.779694	145.860000
364.873169	145.620000
364.966675	145.680000
365.060150	145.600000
365.153656	145.960000
365.247131	146.260000
365.340637	146.780000
365.434143	147.080000
365.527618	147.220000
365.621155	146.400000
365.714600	146.080000
365.808136	146.100000
365.901611	145.220000
365.995117	145.340000
366.088593	145.460000
366.182129	145.400000
366.275604	145.460000
366.369110	145.960000
366.462585	145.860000
366.556122	146.660000
366.649567	146.620000
366.743103	146.500000
366.836609	146.280000
366.930115	146.540000
367.023590	146.260000
367.117096	146.500000
367.210602	146.320000
367.304108	147.240000
367.397614	147.480000
367.491119	147.360000
367.584595	147.360000
367.678101	147.820000
367.771606	147.300000
367.865112	146.700000
367.958649	146.120000
368.052124	146.040000
368.145660	145.480000
368.239136	146.060000
368.332672	146.340000
368.426147	146.620000
368.519684	146.120000
368.613159	146.620000
368.706696	146.040000
368.800171	145.880000
368.893707	145.900000
368.987183	146.100000
369.080719	145.740000
369.174225	145.700000
369.267731	146.040000
369.361237	146.200000
369.454742	146.220000
369.548248	146.600000
369.641754	146.260000
369.735260	146.000000
369.828766	145.220000
369.922272	146.060000
370.015808	145.360000
370.109314	145.300000
370.202820	145.260000
370.296356	146.460000
370.389832	145.700000
370.483368	145.780000
370.576874	145.960000
370.670410	146.080000
370.763885	145.000000
370.857422	145.040000
370.950928	144.960000
371.044464	145.700000
371.137939	145.640000
371.231476	146.200000
371.324982	146.880000
371.418518	146.980000
371.512024	146.700000
371.605560	146.580000
371.699066	146.820000
371.792572	146.080000
371.886108	146.540000
371.979614	146.180000
372.073120	146.580000
372.166656	146.460000
372.260162	146.660000
372.353668	146.260000
372.447205	146.100000
372.540710	145.820000
372.634277	145.600000
372.727753	145.880000
372.821320	145.960000
372.914795	146.180000
373.008362	146.140000
373.101837	146.060000
373.195404	145.600000
373.288879	145.560000
373.382446	146.280000
373.475922	146.300000
373.569489	146.940000
373.662964	147.340000
373.756531	147.080000
373.850037	146.820000
373.943573	146.700000
374.037109	145.740000
374.130615	145.800000
374.224152	146.240000
374.317657	145.980000
374.411194	146.400000
374.504730	146.440000
374.598236	146.060000
374.691772	145.740000
374.785309	145.700000
374.878815	144.920000
374.972351	145.620000
375.065887	145.720000
375.159454	146.420000
375.252930	146.060000
375.346497	146.480000
375.440002	146.680000
375.533569	146.700000
375.627045	145.640000
375.720612	146.080000
375.814117	146.460000
375.907684	145.980000
376.001160	145.640000
376.094727	145.960000
376.188232	146.480000
376.281799	146.500000
376.375336	146.300000
376.468872	146.920000
376.562408	146.900000
376.655914	146.360000
376.749451	146.160000
376.842987	146.440000
376.936523	146.260000
377.030060	146.440000
377.123596	146.460000
377.217133	145.940000
377.310669	145.740000
377.404205	145.980000
377.497772	146.340000
377.591278	146.240000
377.684845	147.060000
377.778351	147.420000
377.871918	147.120000
377.965424	146.400000
378.058990	146.280000
378.152496	146.280000
378.246063	146.300000
378.339569	146.080000
378.433136	146.300000
378.526642	146.380000
378.620209	145.760000
378.713745	145.320000
378.807312	146.020000
378.900848	146.040000
378.994385	146.400000
379.087921	145.700000
379.181458	146.020000
379.274994	145.000000
379.368530	144.840000
379.462097	144.740000
379.555634	145.680000
379.649170	145.120000
379.742706	145.580000
379.836273	145.980000
379.929810	145.720000
380.023376	145.260000
380.116882	145.500000
380.210449	145.500000
380.303986	145.040000
380.397552	144.740000
380.491058	145.240000
380.584656	145.240000
380.678162	145.240000
380.771729	145.580000
380.865265	146.480000
380.958832	146.180000
381.052368	146.420000
381.145935	147.100000
381.239471	147.320000
381.333008	146.620000
381.426575	146.680000
381.520111	146.980000
381.613647	146.840000
381.707214	146.520000
381.800751	146.240000
381.894318	146.440000
381.987854	145.440000
382.081421	145.020000
382.174988	144.960000
382.268524	144.960000
382.362091	144.980000
382.455627	146.320000
382.549194	146.180000
382.642731	146.020000
382.736298	146.140000
382.829834	145.760000
382.923401	146.000000
383.016937	146.340000
383.110504	146.800000
383.204041	147.140000
383.297607	147.720000
383.391174	146.720000
383.484741	147.260000
383.578278	146.860000
383.671844	146.420000
383.765411	145.740000
383.858948	145.920000
383.952515	145.120000
384.046051	145.520000
384.139618	146.120000
384.233185	146.480000
384.326721	146.380000
384.420288	147.360000
384.513855	146.980000
384.607422	147.040000
384.700989	147.040000
384.794525	146.600000
384.888123	146.020000
384.981659	146.200000
385.075226	145.640000
385.168762	145.620000
385.262360	146.080000
385.355896	144.980000
385.449463	144.820000
385.542999	144.940000
385.636597	145.340000
385.730164	145.520000
385.823730	146.000000
385.917267	145.700000
386.010834	145.860000
386.104401	145.740000
386.197968	146.040000
386.291534	146.380000
386.385101	146.980000
386.478668	147.460000
386.572235	147.140000
386.665802	146.500000
386.759338	146.300000
386.852905	146.060000
386.946472	145.340000
387.040070	145.660000
387.133606	145.960000
387.227203	145.980000
387.320740	146.120000
387.414337	145.960000
387.507874	145.640000
387.601471	145.480000
387.695007	145.260000
387.788605	145.140000
387.882141	145.560000
387.975739	145.680000
388.069275	145.640000
388.162872	145.840000
388.256439	145.620000
388.350037	145.600000
388.443604	145.680000
388.537170	145.660000
388.630737	145.980000
388.724304	146.380000
388.817871	146.280000
388.911438	146.260000
389.005005	146.600000
389.098602	146.900000
389.192169	146.500000
389.285736	146.960000
389.379333	146.980000
389.472870	146.280000
389.566467	145.800000
389.660034	146.160000
389.753632	145.440000
389.847168	145.780000
389.940765	146.420000
390.034332	146.700000
390.127930	146.100000
390.221466	146.120000
390.315063	145.600000
390.408630	144.920000
390.502228	144.160000
390.595795	144.520000
390.689362	144.920000
390.782959	145.240000
390.876526	145.880000
390.970093	146.140000
391.063690	146.860000
391.157257	146.860000
391.250824	146.880000
391.344421	146.500000
391.437988	146.860000
391.531555	146.500000
391.625153	146.700000
391.718750	146.760000
391.812317	146.660000
391.905914	146.280000
391.999481	146.280000
392.093079	145.920000
392.186615	146.120000
392.280243	146.540000
392.373779	146.800000
392.467407	147.100000
392.560944	147.240000
392.654572	146.700000
392.748108	146.460000
392.841736	146.540000
392.935303	145.920000
393.028900	145.820000
393.122467	146.260000
393.216064	145.980000
393.309631	145.380000
393.403229	145.020000
393.496796	145.060000
393.590393	144.160000
393.683990	144.700000
393.777557	145.460000
393.871155	146.060000
393.964722	146.280000
394.058350	146.980000
394.151917	146.800000
394.245514	146.480000
394.339081	146.700000
394.432678	146.820000
394.526245	146.860000
394.619873	146.620000
394.713409	146.560000
394.807037	146.380000
394.900604	146.320000
394.994202	146.100000
395.087769	146.640000
395.181396	146.380000
395.274994	146.900000
395.368561	146.300000
395.462158	146.480000
395.555756	145.780000
395.649353	146.320000
395.742920	145.680000
395.836517	146.380000
395.930115	145.720000
396.023712	146.100000
396.117279	146.160000
396.210876	145.660000
396.304474	145.540000
396.398071	146.420000
396.491669	146.500000
396.585266	146.340000
396.678833	146.460000
396.772461	146.740000
396.866028	146.160000
396.959656	146.540000
397.053223	147.220000
397.146851	147.660000
397.240417	148.100000
397.334015	149.520000
397.427582	150.140000
397.521210	151.200000
397.614807	153.520000
397.708405	155.540000
397.802002	158.180000
397.895599	162.480000
397.989197	166.660000
398.082794	171.720000
398.176392	178.740000
398.269989	186.660000
398.363586	196.520000
398.457184	209.080000
398.550781	223.980000
398.644379	239.340000
398.737976	257.660000
398.831573	276.100000
398.925201	294.820000
399.018768	313.380000
399.112396	332.480000
399.205963	349.640000
399.299591	367.280000
399.393158	383.260000
399.486786	399.520000
399.580353	415.260000
399.673981	430.180000
399.767578	444.020000
399.861206	457.800000
399.954773	468.800000
400.048401	474.340000
400.141998	476.660000
400.235596	473.880000
400.329193	466.400000
400.422791	455.340000
400.516418	442.820000
400.610016	429.300000
400.703613	414.780000
400.797211	396.860000
400.890808	377.200000
400.984436	357.780000
401.078033	335.580000
401.171631	313.100000
401.265259	292.680000
401.358826	273.880000
401.452484	255.280000
401.546051	239.060000
401.639679	223.160000
401.733246	209.800000
401.826904	196.900000
401.920471	185.800000
402.014099	176.780000
402.107697	170.500000
402.201324	164.780000
402.294891	160.860000
402.388550	157.880000
402.482147	155.360000
402.575745	152.400000
402.669373	150.180000
402.762970	148.820000
402.856567	148.040000
402.950195	147.220000
403.043793	147.360000
403.137390	148.120000
403.231018	147.240000
403.324615	147.280000
403.418243	147.280000
403.511841	147.280000
403.605469	146.920000
403.699066	147.660000
403.792694	147.800000
403.886292	147.780000
403.979919	147.600000
404.073517	147.040000
404.167145	147.000000
404.260712	146.800000
404.354370	146.300000
404.447937	146.380000
404.541595	146.480000
404.635162	146.500000
404.728821	146.760000
404.822418	146.600000
404.916046	146.400000
405.009644	146.780000
405.103271	146.840000
405.196899	146.320000
405.290497	146.480000
405.384125	146.800000
405.477722	146.380000
405.571350	145.980000
405.664948	146.220000
405.758575	146.340000
405.852203	145.840000
405.945801	146.080000
406.039429	146.260000
406.133057	145.980000
406.226654	145.960000
406.320312	145.940000
406.413879	145.940000
406.507538	146.240000
406.601135	145.920000
406.694763	146.440000
406.788361	146.260000
406.882019	145.880000
406.975586	146.080000
407.069244	146.880000
407.162872	146.600000
407.256470	146.680000
407.350098	146.620000
407.443726	146.040000
407.537323	145.420000
407.630951	145.520000
407.724579	145.540000
407.818207	146.200000
407.911804	145.980000
408.005432	146.020000
408.099060	146.020000
408.192688	146.480000
408.286285	145.960000
408.379913	145.760000
408.473572	146.160000
408.567169	145.680000
408.660828	145.320000
408.754395	145.380000
408.848053	145.640000
408.941650	145.680000
409.035309	145.380000
409.128906	145.640000
409.222565	145.580000
409.316132	145.960000
409.409790	145.540000
409.503387	146.000000
409.597046	145.800000
409.690674	145.840000
409.784302	145.580000
409.877930	145.460000
409.971558	145.460000
410.065186	145.440000
410.158783	145.660000
410.252411	145.520000
410.346039	145.980000
410.439667	146.220000
410.533295	146.400000
410.626923	146.360000
410.720551	146.460000
410.814209	146.580000
410.907806	146.900000
411.001465	146.460000
411.095062	146.580000
411.188721	146.700000
411.282318	146.380000
411.375977	145.840000
411.469574	146.240000
411.563232	145.760000
411.656830	145.660000
411.750488	145.400000
411.844086	145.420000
411.937744	145.580000
412.031372	145.680000
412.125000	145.680000
412.218628	145.840000
412.312256	146.220000
412.405884	146.660000
412.499512	146.520000
412.593170	146.880000
412.686798	147.060000
412.780426	146.480000
412.874054	146.320000
412.967682	146.600000
413.061310	146.660000
413.154968	146.640000
413.248566	146.940000
413.342224	146.580000
413.435852	146.820000
413.529510	146.600000
413.623108	146.060000
413.716766	146.120000
413.810364	146.380000
413.904022	145.880000
413.997650	145.260000
414.091309	146.260000
414.184906	145.860000
414.278564	145.480000
414.372192	146.360000
414.465851	146.920000
414.559479	146.560000
414.653107	147.460000
414.746735	147.640000
414.840393	147.200000
414.934021	147.660000
415.027649	147.180000
415.121277	146.420000
415.214935	146.700000
415.308563	146.620000
415.402191	145.900000
415.495850	145.960000
415.589478	145.940000
415.683136	145.500000
415.776733	145.660000
415.870422	146.280000
415.964020	146.040000
416.057678	146.380000
416.151306	146.400000
416.244965	146.100000
416.338562	145.880000
416.432251	146.580000
416.525848	147.340000
416.619507	147.640000
416.713165	148.120000
416.806793	148.060000
416.900421	148.120000
416.994080	147.360000
417.087708	147.220000
417.181366	146.780000
417.274994	146.640000
417.368622	146.880000
417.462280	147.060000
417.555908	147.180000
417.649567	147.020000
417.743195	146.900000
417.836853	146.540000
417.930481	146.740000
418.024170	146.720000
418.117767	147.340000
418.211426	147.800000
418.305054	147.980000
418.398712	147.260000
418.492340	147.140000
418.585999	147.420000
418.679626	147.120000
418.773285	146.880000
418.866913	147.480000
418.960571	148.000000
419.054230	147.500000
419.147858	147.760000
419.241516	147.900000
419.335144	147.540000
419.428802	147.000000
419.522461	146.600000
419.616089	146.200000
419.709747	146.160000
419.803375	146.220000
419.897034	145.900000
419.990662	146.000000
420.084320	146.400000
420.177979	146.460000
420.271606	146.620000
420.365295	147.200000
420.458893	147.820000
420.552582	147.960000
420.646210	147.980000
420.739868	147.960000
420.833496	147.620000
420.927155	147.080000
421.020782	146.800000
421.114471	146.500000
421.208069	146.320000
421.301758	146.540000
421.395386	146.820000
421.489044	146.720000
421.582703	146.660000
421.676361	147.480000
421.769989	147.380000
421.863647	147.540000
421.957306	147.680000
422.050934	148.140000
422.144592	147.340000
422.238251	146.780000
422.331909	146.520000
422.425537	146.320000
422.519196	146.220000
422.612854	146.100000
422.706543	145.920000
422.800140	146.120000
422.893829	145.400000
422.987457	144.900000
423.081146	144.880000
423.174744	145.840000
423.268433	145.380000
423.362061	145.920000
423.455750	146.020000
423.549347	146.180000
423.643036	145.560000
423.736664	146.200000
423.830353	146.560000
423.924011	147.120000
424.017639	146.860000
424.111298	146.800000
424.204956	146.580000
424.298615	146.480000
424.392273	146.220000
424.485931	146.540000
424.579559	146.760000
424.673218	146.700000
424.766876	146.760000
424.860535	146.280000
424.954193	145.980000
425.047882	146.500000
425.141510	146.600000
425.235199	146.680000
425.328796	146.580000
425.422485	146.460000
425.516113	145.680000
425.609802	145.500000
425.703430	145.160000
425.797119	145.380000
425.890747	145.740000
425.984436	145.860000
426.078064	145.960000
426.171753	146.240000
426.265411	146.040000
426.359070	146.120000
426.452728	146.220000
426.546356	145.860000
426.640015	145.340000
426.733673	145.620000
426.827332	145.060000
426.920990	145.640000
427.014648	145.440000
427.108307	145.940000
427.201965	146.400000
427.295624	146.760000
427.389282	145.900000
427.482941	146.200000
427.576630	145.800000
427.670258	145.060000
427.763947	144.920000
427.857574	145.040000
427.951263	144.960000
428.044922	144.900000
428.138611	145.100000
428.232239	145.580000
428.325928	146.140000
428.419556	146.680000
428.513245	146.680000
428.606903	146.900000
428.700562	146.260000
428.794220	145.820000
428.887878	144.940000
428.981537	145.140000
429.075195	144.860000
429.168854	145.380000
429.262512	145.620000
429.356201	146.240000
429.449860	146.120000
429.543518	146.180000
429.637177	146.260000
429.730835	145.960000
429.824493	145.820000
429.918182	146.020000
430.011810	145.800000
430.105530	145.300000
430.199158	145.460000
430.292847	145.280000
430.386475	144.940000
430.480164	145.240000
430.573792	145.140000
430.667511	145.380000
430.761139	145.340000
430.854828	146.300000
430.948456	146.260000
431.042145	146.880000
431.135834	146.540000
431.229492	146.900000
431.323151	146.700000
431.416809	146.580000
431.510468	146.480000
431.604156	146.520000
431.697815	145.980000
431.791473	145.320000
431.885132	145.000000
431.978821	145.040000
432.072479	145.320000
432.166138	146.080000
432.259827	146.180000
432.353485	146.980000
432.447174	146.940000
432.540802	146.540000
432.634491	146.680000
432.728149	147.000000
432.821838	147.060000
432.915466	146.640000
433.009186	146.720000
433.102814	145.940000
433.196503	145.700000
433.290131	145.620000
433.383850	146.000000
433.477509	146.300000
433.571167	146.800000
433.664856	147.200000
433.758514	147.360000
433.852173	147.120000
433.945862	146.660000
434.039520	146.880000
434.133179	146.140000
434.226868	145.700000
434.320526	145.540000
434.414185	146.280000
434.507874	146.040000
434.601562	146.560000
434.695221	146.320000
434.788910	146.500000
434.882538	146.500000
434.976257	146.020000
435.069885	146.160000
435.163574	146.340000
435.257233	145.820000
435.350922	145.300000
435.444580	145.240000
435.538269	144.840000
435.631897	145.360000
435.725616	146.300000
435.819275	146.900000
435.912964	147.420000
436.006622	147.760000
436.100311	147.540000
436.193970	146.700000
436.287628	146.360000
436.381317	145.960000
436.474976	145.620000
436.568665	145.360000
436.662323	145.780000
436.756012	145.620000
436.849670	145.560000
436.943390	145.520000
437.037018	145.440000
437.130737	145.500000
437.224365	145.400000
437.318085	145.660000
437.411713	145.940000
437.505432	146.500000
437.599060	147.100000
437.692780	147.780000
437.786407	147.800000
437.880127	147.940000
437.973755	147.500000
438.067474	146.640000
438.161133	146.300000
438.254822	146.480000
438.348480	146.140000
438.442169	146.340000
438.535828	146.720000
438.629517	146.440000
438.723175	146.100000
438.816864	146.520000
438.910553	146.140000
439.004211	145.740000
439.097900	145.680000
439.191559	145.820000
439.285248	145.140000
439.378906	145.480000
439.472626	145.620000
439.566284	145.640000
439.659973	145.960000
439.753632	145.940000
439.847321	146.260000
439.940979	146.480000
440.034698	146.660000
440.128326	146.060000
440.222046	146.200000
440.315674	145.400000
440.409393	145.280000
440.503082	144.980000
440.596741	145.280000
440.690430	145.480000
440.784088	145.560000
440.877777	145.000000
440.971466	145.240000
441.065125	145.080000
441.158813	144.500000
441.252502	144.840000
441.346161	145.220000
441.439850	145.320000
441.533539	145.180000
441.627197	145.800000
441.720886	145.420000
441.814606	145.740000
441.908234	145.840000
442.001953	145.720000
442.095612	146.060000
442.189301	146.420000
442.282959	146.420000
442.376678	145.980000
442.470306	146.800000
442.564026	146.140000
442.657684	146.340000
442.751404	146.520000
442.845032	147.340000
442.938751	146.440000
443.032440	146.920000
443.126099	146.560000
443.219788	146.660000
443.313477	146.120000
443.407166	146.920000
443.500824	146.940000
443.594513	147.140000
443.688202	146.860000
443.781891	146.360000
443.875549	145.520000
443.969238	145.240000
444.062927	145.140000
444.156647	145.000000
444.250275	145.740000
444.343994	146.160000
444.437653	146.140000
444.531372	146.220000
444.625031	146.120000
444.718719	145.640000
444.812378	145.540000
444.906097	145.600000
444.999756	144.900000
445.093445	145.280000
445.187103	145.480000
445.280823	146.140000
445.374512	145.560000
445.468201	146.060000
445.561859	145.560000
445.655548	145.500000
445.749237	144.740000
445.842926	145.340000
445.936615	146.060000
446.030304	145.860000
446.123962	146.120000
446.217651	146.320000
446.311340	146.240000
446.405029	145.340000
446.498749	145.480000
446.592407	145.080000
446.686096	145.240000
446.779755	145.320000
446.873474	145.740000
446.967133	146.120000
447.060852	145.840000
447.154510	145.680000
447.248230	145.400000
447.341858	145.340000
447.435577	144.920000
447.529236	144.940000
447.622955	144.740000
447.716644	144.740000
447.810333	144.880000
447.904022	145.300000
447.997711	145.360000
448.091400	145.640000
448.185059	145.700000
448.278748	145.800000
448.372437	145.680000
448.466125	146.020000
448.559814	145.960000
448.653503	146.640000
448.747192	146.580000
448.840912	146.920000
448.934570	146.820000
449.028290	147.140000
449.121948	146.320000
449.215637	145.960000
449.309296	145.680000
449.403015	146.000000
449.496674	145.920000
449.590393	146.460000
449.684052	146.320000
449.777771	146.920000
449.871429	146.140000
449.965149	146.160000
450.058838	146.360000
450.152527	146.800000
450.246216	146.220000
450.339905	146.620000
450.433594	146.200000
450.527283	146.660000
450.620972	146.540000
450.714661	146.660000
450.808350	146.780000
450.902039	147.360000
450.995728	146.500000
451.089417	146.180000
451.183105	146.240000
451.276794	146.460000
451.370514	145.720000
451.464172	145.100000
451.557892	145.180000
451.651550	145.300000
451.745270	145.020000
451.838928	144.620000
451.932648	145.040000
452.026306	145.420000
452.120026	144.780000
452.213684	145.120000
452.307404	145.420000
452.401062	145.580000
452.494781	145.640000
452.588470	146.240000
452.682159	145.800000
452.775848	146.260000
452.869537	145.980000
452.963226	145.620000
453.056915	144.940000
453.150604	145.120000
453.244293	145.120000
453.337982	145.720000
453.431671	146.160000
453.525360	147.120000
453.619049	147.120000
453.712769	147.020000
453.806427	146.760000
453.900146	146.240000
453.993805	145.640000
454.087555	146.080000
454.181213	146.380000
454.274933	146.080000
454.368591	145.960000
454.462311	145.920000
454.555969	145.360000
454.649689	145.820000
454.743347	145.860000
454.837067	146.700000
454.930756	147.180000
455.024445	147.440000
455.118134	146.820000
455.211853	147.160000
455.305542	146.500000
455.399231	146.220000
455.492920	145.900000
455.586609	145.940000
455.680298	146.160000
455.773987	146.100000
455.867676	146.020000
455.961365	146.340000
456.055084	146.220000
456.148773	145.700000
456.242493	146.020000
456.336151	146.100000
456.429871	146.360000
456.523529	146.540000
456.617249	146.400000
456.710907	146.840000
456.804626	146.640000
456.898315	145.960000
456.992035	146.000000
457.085693	146.140000
457.179413	145.020000
457.273102	145.720000
457.366791	145.840000
457.460480	146.020000
457.554199	146.460000
457.647888	146.820000
457.741577	146.180000
457.835266	146.300000
457.928955	146.200000
458.022644	146.400000
458.116364	147.000000
458.210052	147.120000
458.303741	147.500000
458.397461	146.820000
458.491119	146.120000
458.584839	145.700000
458.678528	145.280000
458.772247	144.800000
458.865906	145.260000
458.959625	146.020000
459.053284	146.040000
459.147003	146.380000
459.240692	147.360000
459.334412	147.320000
459.428070	146.820000
459.521790	146.540000
459.615479	146.220000
459.709198	145.960000
459.802887	145.540000
459.896576	145.460000
459.990265	145.720000
460.083954	145.980000
460.177673	145.260000
460.271362	145.640000
460.365051	145.660000
460.458740	145.520000
460.552429	145.400000
460.646149	145.500000
460.739838	145.100000
460.833527	145.160000
460.927246	144.960000
461.020905	144.680000
461.114655	144.720000
461.208313	145.360000
461.302032	144.940000
461.395691	145.380000
461.489441	145.660000
461.583099	145.740000
461.676819	145.540000
461.770477	146.140000
461.864197	146.000000
461.957916	145.740000
462.051605	145.100000
462.145294	145.940000
462.238983	145.400000
462.332703	145.720000
462.426392	146.600000
462.520081	147.120000
462.613770	146.020000
462.707489	146.500000
462.801178	145.960000
462.894867	145.420000
462.988556	145.580000
463.082275	146.080000
463.175964	145.740000
463.269684	146.200000
463.363342	146.320000
463.457092	145.700000
463.550751	145.720000
463.644470	145.800000
463.738129	145.580000
463.831879	145.680000
463.925537	146.240000
464.019257	146.120000
464.112946	146.180000
464.206665	146.180000
464.300323	145.960000
464.394043	145.800000
464.487762	145.960000
464.581451	146.200000
464.675140	146.260000
464.768829	146.740000
464.862549	146.900000
464.956238	146.780000
465.049927	146.780000
465.143646	146.640000
465.237335	146.140000
465.331024	146.160000
465.424713	146.120000
465.518433	146.020000
465.612152	145.760000
465.705811	145.800000
465.799561	145.760000
465.893219	145.620000
465.986938	145.600000
466.080597	145.880000
466.174347	146.200000
466.268005	146.380000
466.361725	146.320000
466.455414	146.460000
466.549133	146.140000
466.642792	146.220000
466.736542	145.700000
466.830231	146.000000
466.923920	145.840000
467.017609	146.120000
467.111328	145.620000
467.205017	145.740000
467.298706	145.540000
467.392426	145.560000
467.486115	145.620000
467.579803	145.360000
467.673523	145.820000
467.767212	145.720000
467.860901	145.600000
467.954651	146.000000
468.048309	146.360000
468.142029	145.880000
468.235718	146.220000
468.329437	146.260000
468.423096	146.200000
468.516846	146.180000
468.610504	146.280000
468.704224	145.840000
468.797913	145.580000
468.891632	145.440000
468.985291	145.400000
469.079010	145.600000
469.172729	145.300000
469.266418	145.920000
469.360107	146.020000
469.453827	146.080000
469.547516	146.020000
469.641205	146.640000
469.734924	146.720000
469.828613	146.960000
469.922302	147.060000
470.016022	147.160000
470.109711	146.800000
470.203430	146.000000
470.297150	145.080000
470.390808	145.360000
470.484558	144.960000
470.578217	146.020000
470.671936	146.780000
470.765625	147.740000
470.859344	147.300000
470.953003	147.680000
471.046753	146.620000
471.140411	145.660000
471.234131	145.600000
471.327820	146.320000
471.421539	146.280000
471.515228	146.260000
471.608948	146.800000
471.702637	146.300000
471.796326	145.620000
471.890045	145.740000
471.983734	146.240000
472.077423	145.880000
472.171143	145.820000
472.264832	146.000000
472.358521	145.700000
472.452240	145.380000
472.545929	145.960000
472.639648	146.480000
472.733337	146.880000
472.827057	147.220000
472.920746	147.100000
473.014465	147.560000
473.108124	147.480000
473.201874	147.260000
473.295532	146.840000
473.389252	147.380000
473.482941	147.140000
473.576660	146.560000
473.670319	146.100000
473.764069	146.500000
473.857727	146.320000
473.951477	146.560000
474.045166	147.220000
474.138855	147.440000
474.232574	147.040000
474.326263	147.180000
474.419952	146.860000
474.513672	146.800000
474.607361	146.560000
474.701050	146.920000
474.794769	147.180000
474.888458	147.480000
474.982178	147.300000
475.075867	147.840000
475.169586	147.780000
475.263275	147.240000
475.356995	146.940000
475.450653	146.480000
475.544403	145.800000
475.638062	146.260000
475.731812	145.800000
475.825470	145.380000
475.919189	145.720000
476.012878	145.820000
476.106598	145.100000
476.200256	145.580000
476.294006	145.760000
476.387695	145.780000
476.481384	145.920000
476.575104	145.960000
476.668793	145.420000
476.762512	145.140000
476.856201	145.700000
476.949890	145.440000
477.043610	145.000000
477.137299	145.500000
477.230988	145.840000
477.324707	145.120000
477.418396	145.600000
477.512146	146.000000
477.605804	146.000000
477.699524	145.900000
477.793213	145.800000
477.886932	145.640000
477.980591	145.480000
478.074341	145.280000
478.167999	144.900000
478.261749	145.180000
478.355408	145.180000
478.449127	145.780000
478.542816	146.700000
478.636536	147.840000
478.730225	147.920000
478.823944	148.200000
478.917633	148.000000
479.011322	147.800000
479.105042	147.340000
479.198730	147.600000
479.292450	147.320000
479.386139	147.280000
479.479828	147.160000
479.573547	147.160000
479.667267	146.540000
479.760925	146.420000
479.854675	146.580000
479.948334	146.680000
480.042084	146.100000
480.135742	146.520000
480.229462	146.400000
480.323151	146.200000
480.416870	145.300000
480.510529	145.600000
480.604279	145.160000
480.697937	145.860000
480.791656	145.580000
480.885345	145.640000
480.979065	145.640000
481.072754	146.260000
481.166473	146.320000
481.260132	146.380000
481.353882	146.520000
481.447540	146.640000
481.541260	146.300000
481.635010	145.520000
481.728668	145.700000
481.822388	145.740000
481.916077	145.860000
482.009796	145.680000
482.103485	146.200000
482.197205	146.300000
482.290863	146.220000
482.384613	145.620000
482.478271	145.500000
482.571991	145.100000
482.665680	145.040000
482.759399	146.000000
482.853058	146.880000
482.946808	147.040000
483.040466	147.420000
483.134216	147.260000
483.227875	146.520000
483.321594	146.580000
483.415283	146.580000
483.509003	146.100000
483.602661	146.040000
483.696411	146.460000
483.790070	146.120000
483.883789	146.200000
483.977478	146.840000
484.071198	147.020000
484.164917	146.440000
484.258606	146.040000
484.352325	146.380000
484.445984	146.240000
484.539734	146.340000
484.633392	146.040000
484.727142	146.560000
484.820801	146.300000
484.914520	146.080000
485.008209	146.060000
485.101929	146.680000
485.195587	146.240000
485.289337	146.360000
485.382996	146.480000
485.476715	146.420000
485.570404	146.840000
485.664124	146.780000
485.757782	146.920000
485.851532	146.440000
485.945190	146.620000
486.038910	146.520000
486.132599	147.080000
486.226318	146.340000
486.319977	146.560000
486.413727	146.860000
486.507446	146.200000
486.601105	145.420000
486.694855	145.580000
486.788513	145.600000
486.882233	145.360000
486.975922	145.660000
487.069641	145.800000
487.163300	145.820000
487.257050	146.520000
487.350708	146.200000
487.444427	145.720000
487.538116	145.660000
487.631836	145.580000
487.725494	145.380000
487.819214	145.440000
487.912903	145.720000
488.006622	146.300000
488.100281	146.780000
488.194031	146.800000
488.287689	147.060000
488.381409	147.440000
488.475098	147.400000
488.568817	147.320000
488.662476	147.000000
488.756226	146.560000
488.849945	145.680000
488.943604	145.500000
489.037354	145.600000
489.131012	145.600000
489.224731	145.640000
489.318390	146.100000
489.412140	146.260000
489.505798	146.080000
489.599518	145.700000
489.693207	145.940000
489.786926	145.840000
489.880585	145.580000
489.974335	145.720000
490.067993	146.880000
490.161713	146.940000
490.255371	147.800000
490.349121	148.140000
490.442780	148.080000
490.536499	146.940000
490.630188	146.860000
490.723907	145.840000
490.817566	145.920000
490.911285	145.740000
491.004974	145.920000
491.098694	145.500000
491.192413	146.500000
491.286102	145.840000
491.379822	145.960000
491.473480	146.140000
491.567200	146.280000
491.660889	145.340000
491.754608	145.260000
491.848267	145.100000
491.941986	145.140000
492.035675	145.600000
492.129395	146.020000
492.223053	146.400000
492.316772	146.940000
492.410461	146.880000
492.504181	146.640000
492.597839	146.360000
492.691559	146.360000
492.785248	146.020000
492.878967	145.840000
492.972626	145.440000
493.066345	145.480000
493.160034	145.120000
493.253754	145.080000
493.347412	144.880000
493.441132	145.480000
493.534882	146.140000
493.628540	146.700000
493.722260	146.920000
493.815918	147.420000
493.909668	147.480000
494.003326	147.560000
494.097046	147.340000
494.190704	147.140000
494.284454	147.020000
494.378113	146.900000
494.471832	146.360000
494.565491	146.380000
494.659210	146.620000
494.752899	146.640000
494.846619	146.340000
494.940277	146.840000
495.033997	146.640000
495.127686	146.120000
495.221405	145.860000
495.315063	146.240000
495.408783	145.640000
495.502441	145.600000
495.596191	145.780000
495.689850	145.740000
495.783569	145.920000
495.877228	145.900000
495.970947	145.880000
496.064697	145.900000
496.158356	146.680000
496.252075	146.500000
496.345734	146.460000
496.439453	147.180000
496.533142	147.240000
496.626862	147.180000
496.720520	147.220000
496.814240	147.380000
496.907898	146.940000
497.001617	147.120000
497.095306	146.380000
497.189026	146.020000
497.282684	146.260000
497.376404	146.740000
497.470062	146.520000
497.563782	146.900000
497.657471	147.180000
497.751190	146.680000
497.844849	146.180000
497.938568	146.540000
498.032227	146.400000
498.125946	146.360000
498.219635	146.300000
498.313354	146.480000
498.407074	146.000000
498.500732	146.260000
498.594452	146.300000
498.688110	146.500000
498.781830	146.200000
498.875519	145.940000
498.969238	145.600000
499.062897	145.220000
499.156616	145.860000
499.250275	146.000000
499.343994	145.960000
499.437653	146.180000
499.531372	146.580000
499.625061	146.660000
499.718781	146.640000
499.812439	147.000000
499.906158	146.640000
499.999817	146.420000
500.093536	145.520000
500.187195	145.700000
500.280914	145.920000
500.374573	146.260000
500.468323	145.900000
500.561981	146.080000
500.655701	145.460000
500.749420	145.480000
500.843079	145.720000
500.936798	146.000000
501.030457	146.640000
501.124176	147.100000
501.217834	146.940000
501.311554	146.780000
501.405212	146.780000
501.498962	145.920000
501.592621	145.920000
501.686340	146.380000
501.779999	146.320000
501.873718	146.480000
501.967377	147.140000
502.061096	147.520000
502.154755	146.780000
502.248474	146.860000
502.342133	146.880000
502.435852	146.540000
502.529510	146.720000
502.623230	147.600000
502.716888	146.900000
502.810608	147.000000
502.904266	147.360000
502.997986	146.700000
503.091705	145.860000
503.185364	146.420000
503.279083	146.200000
503.372772	145.820000
503.466492	145.680000
503.560150	145.940000
503.653870	146.180000
503.747528	146.120000
503.841248	146.520000
503.934906	146.760000
504.028625	146.440000
504.122284	146.560000
504.216003	147.400000
504.309662	146.980000
504.403381	147.260000
504.497040	147.340000
504.590759	146.980000
504.684418	146.740000
504.778137	147.420000
504.871796	147.580000
504.965515	147.540000
505.059174	147.400000
505.152893	146.760000
505.246521	146.100000
505.340240	145.600000
505.433899	145.940000
505.527618	146.180000
505.621338	146.540000
505.714996	146.480000
505.808716	146.560000
505.902374	146.820000
505.996094	147.060000
506.089752	147.000000
506.183472	147.140000
506.277130	147.080000
506.370850	146.800000
506.464508	146.320000
506.558228	146.260000
506.651886	146.080000
506.745605	146.320000
506.839264	146.320000
506.932983	146.480000
507.026611	146.160000
507.120331	146.560000
507.213989	145.960000
507.307709	146.000000
507.401367	146.320000
507.495087	147.420000
507.588745	146.900000
507.682465	147.740000
507.776123	147.820000
507.869843	147.640000
507.963531	147.020000
508.057190	147.560000
508.150909	146.820000
508.244568	146.840000
508.338287	146.360000
508.431946	146.160000
508.525665	145.920000
508.619324	146.120000
508.713013	146.420000
508.806671	147.120000
508.900391	147.820000
508.994049	147.800000
509.087769	147.920000
509.181427	147.520000
509.275146	146.760000
509.368774	145.980000
509.462494	145.940000
509.556152	145.780000
509.649872	146.380000
509.743530	146.920000
509.837250	147.040000
509.930878	147.080000
510.024597	147.120000
510.118256	146.480000
510.211975	146.200000
510.305695	146.000000
510.399353	146.280000
510.493042	146.680000
510.586700	146.960000
510.680420	147.580000
510.774078	147.580000
510.867798	147.600000
510.961426	147.240000
511.055145	146.980000
511.148804	146.520000
511.242523	147.160000
511.336151	147.340000
511.429871	147.560000
511.523529	147.560000
511.617249	147.240000
511.710876	146.820000
511.804596	146.380000
511.898254	145.980000
511.991974	146.140000
512.085632	146.140000
512.179321	146.160000
512.272949	146.200000
512.366699	146.840000
512.460327	146.520000
512.554077	147.560000
512.647766	147.460000
512.741394	147.600000
512.835144	147.760000
512.928772	147.600000
513.022461	146.900000
513.116150	147.000000
513.209839	147.120000
513.303467	146.420000
513.397217	146.420000
513.490845	146.440000
513.584595	146.100000
513.678223	145.740000
513.771912	145.420000
513.865601	145.760000
513.959290	145.640000
514.052917	145.740000
514.146667	146.420000
514.240295	147.100000
514.333984	147.180000
514.427673	146.940000
514.521362	147.440000
514.614990	146.460000
514.708740	146.460000
514.802368	146.660000
514.896057	146.840000
514.989746	147.080000
515.083435	147.440000
515.177124	147.720000
515.270752	147.440000
515.364502	147.400000
515.458130	147.160000
515.551819	146.920000
515.645508	146.420000
515.739197	146.400000
515.832825	146.720000
515.926575	146.280000
516.020203	146.600000
516.113892	147.220000
516.207520	147.000000
516.301270	146.920000
516.394897	147.100000
516.488586	147.340000
516.582275	147.020000
516.675964	146.720000
516.769592	146.420000
516.863281	147.160000
516.956970	147.220000
517.050659	146.720000
517.144287	147.120000
517.238037	147.300000
517.331665	146.380000
517.425354	146.060000
517.519043	146.280000
517.612732	146.660000
517.706421	146.420000
517.800049	146.240000
517.893738	145.860000
517.987427	145.840000
518.081116	145.460000
518.174744	145.420000
518.268433	145.780000
518.362122	146.660000
518.455811	146.680000
518.549438	147.160000
518.643127	147.960000
518.736816	147.920000
518.830505	147.440000
518.924133	147.360000
519.017822	147.180000
519.111511	146.880000
519.205200	147.380000
519.298828	147.280000
519.392517	147.060000
519.486206	147.380000
519.579895	147.400000
519.673523	146.920000
519.767212	146.920000
519.860901	147.480000
519.954590	146.800000
520.048279	146.320000
520.141907	146.260000
520.235596	147.060000
520.329224	147.200000
520.422974	147.260000
520.516602	147.440000
520.610291	147.220000
520.703918	147.100000
520.797607	146.480000
520.891296	146.620000
520.984985	146.680000
521.078613	147.280000
521.172302	146.380000
521.265930	147.340000
521.359680	147.680000
521.453308	147.760000
521.546997	147.640000
521.640625	147.840000
521.734314	146.940000
521.827942	146.460000
521.921692	146.780000
522.015320	146.540000
522.109009	146.420000
522.202698	146.500000
522.296326	146.540000
522.390015	146.620000
522.483704	146.880000
522.577393	147.140000
522.671021	147.180000
522.764709	146.760000
522.858337	146.640000
522.952026	146.540000
523.045654	146.620000
523.139404	147.200000
523.233032	147.880000
523.326721	147.680000
523.420349	147.280000
523.514038	147.140000
523.607666	147.040000
523.701355	146.520000
523.795044	146.340000
523.888733	146.740000
523.982361	146.660000
524.076050	146.100000
524.169678	146.700000
524.263367	146.640000
524.356995	146.020000
524.450684	146.200000
524.544373	146.260000
524.638062	146.340000
524.731750	146.540000
524.825378	147.140000
524.919067	146.780000
525.012695	147.120000
525.106384	146.660000
525.200012	146.680000
525.293701	146.240000
525.387329	146.640000
525.481018	146.600000
525.574646	146.900000
525.668396	146.800000
525.762024	147.560000
525.855713	147.640000
525.949341	147.240000
526.043030	147.040000
526.136658	146.840000
526.230347	146.200000
526.323975	145.720000
526.417664	145.500000
526.511292	145.480000
526.604980	145.560000
526.698608	145.780000
526.792297	145.840000
526.885925	146.400000
526.979614	146.660000
527.073303	146.680000
527.166931	146.440000
527.260620	146.800000
527.354309	146.980000
527.447998	146.820000
527.541626	146.740000
527.635315	147.160000
527.728943	147.420000
527.822632	147.100000
527.916260	147.200000
528.009949	147.680000
528.103577	147.480000
528.197266	146.860000
528.290894	147.040000
528.384583	146.760000
528.478210	146.400000
528.571899	146.640000
528.665527	147.420000
528.759216	147.460000
528.852844	148.000000
528.946533	147.960000
529.040161	147.820000
529.133850	147.160000
529.227478	147.200000
529.321167	147.280000
529.414856	147.700000
529.508484	147.800000
529.602173	147.520000
529.695801	147.260000
529.789490	147.000000
529.883057	146.660000
529.976746	146.860000
530.070374	147.580000
530.164062	147.460000
530.257690	147.640000
530.351379	147.880000
530.445007	147.540000
530.538696	146.720000
530.632324	147.180000
530.726013	146.940000
530.819641	146.740000
530.913330	146.940000
531.006958	147.280000
531.100647	147.240000
531.194275	147.240000
531.287964	146.800000
531.381592	146.300000
531.475220	146.120000
531.568848	145.820000
531.662537	145.600000
531.756226	146.240000
531.849854	146.420000
531.943542	146.720000
532.037170	146.340000
532.130859	146.880000
532.224487	146.660000
532.318176	146.360000
532.411804	146.700000
532.505432	147.120000
532.599060	146.380000
532.692749	146.280000
532.786377	146.840000
532.880066	146.340000
532.973694	146.140000
533.067383	146.480000
533.161011	146.640000
533.254639	146.440000
533.348267	146.120000
533.441956	146.520000
533.535583	146.180000
533.629272	146.040000
533.722900	145.440000
533.816589	146.040000
533.910156	146.060000
534.003845	145.960000
534.097534	146.260000
534.191162	147.200000
534.284851	147.100000
534.378479	146.800000
534.472107	147.200000
534.565735	146.920000
534.659424	146.880000
534.753052	146.780000
534.846741	146.540000
534.940369	147.060000
535.033997	147.000000
535.127625	146.980000
535.221313	147.280000
535.314941	147.260000
535.408630	146.240000
535.502197	146.380000
535.595886	145.880000
535.689514	145.520000
535.783203	146.120000
535.876831	147.000000
535.970459	147.120000
536.064087	147.100000
536.157776	147.180000
536.251404	146.820000
536.345093	146.360000
536.438721	146.480000
536.532349	146.580000
536.626038	146.460000
536.719666	146.920000
536.813293	146.540000
536.906921	146.480000
537.000610	146.900000
537.094238	146.980000
537.187866	146.580000
537.281494	146.940000
537.375183	146.860000
537.468811	146.280000
537.562439	146.420000
537.656067	146.500000
537.749756	146.520000
537.843384	146.980000
537.937012	147.360000
538.030640	146.940000
538.124329	146.420000
538.217896	146.480000
538.311584	146.220000
538.405212	146.060000
538.498901	146.580000
538.592468	147.600000
538.686157	147.080000
538.779785	146.340000
538.873413	146.360000
538.967102	145.720000
539.060730	144.860000
539.154358	145.560000
539.247986	146.060000
539.341675	146.260000
539.435242	146.400000
539.528931	146.840000
539.622559	146.180000
539.716187	146.520000
539.809814	146.160000
539.903503	146.380000
539.997070	145.960000
540.090759	146.260000
540.184387	145.700000
540.278015	146.580000
540.371643	146.700000
540.465332	147.100000
540.558899	146.760000
540.652588	146.840000
540.746216	146.080000
540.839844	146.460000
540.933472	146.300000
541.027100	146.500000
541.120728	146.600000
541.214417	146.920000
541.308044	146.800000
541.401672	146.680000
541.495300	146.740000
541.588928	146.600000
541.682617	146.240000
541.776184	145.740000
541.869873	146.180000
541.963440	146.700000
542.057129	146.760000
542.150757	146.760000
542.244385	146.820000
542.338013	146.100000
542.431641	145.400000
542.525269	145.280000
542.618958	145.820000
542.712524	146.100000
542.806213	146.440000
542.899780	146.780000
542.993469	146.480000
543.087036	146.060000
543.180725	145.580000
543.274292	145.660000
543.367981	145.920000
543.461548	146.600000
543.555237	146.260000
543.648926	146.800000
543.742493	147.340000
543.836182	147.140000
543.929749	146.960000
544.023437	147.360000
544.117004	146.980000
544.210693	146.700000
544.304260	146.800000
544.397949	146.600000
544.491516	146.720000
544.585205	146.660000
544.678772	146.200000
544.772461	146.620000
544.866028	146.580000
544.959717	146.560000
545.053284	146.620000
545.146973	147.020000
545.240540	146.640000
545.334229	147.520000
545.427795	147.680000
545.521423	147.880000
545.615051	147.760000
545.708679	148.280000
545.802307	147.740000
545.895935	148.120000
545.989624	148.740000
546.083191	148.740000
546.176880	148.320000
546.270447	147.780000
546.364136	147.880000
546.457703	147.420000
546.551331	147.440000
546.644958	147.360000
546.738586	147.900000
546.832214	147.360000
546.925842	146.860000
547.019409	147.080000
547.113098	146.580000
547.206665	146.200000
547.300354	146.260000
547.393921	146.880000
547.487549	146.880000
547.581177	147.020000
547.674805	147.160000
547.768433	146.340000
547.862061	146.200000
547.955627	145.440000
548.049316	146.120000
548.142883	146.340000
548.236572	147.080000
548.330139	147.260000
548.423767	147.480000
548.517456	147.220000
548.611023	147.280000
548.704651	146.680000
548.798279	146.300000
548.891907	146.780000
548.985474	146.480000
549.079163	146.500000
549.172729	146.480000
549.266357	146.200000
549.359985	146.040000
549.453613	145.720000
549.547180	145.380000
549.640869	145.940000
549.734436	146.100000
549.828064	146.600000
549.921631	146.600000
550.015320	146.500000
550.108887	146.720000
550.202515	146.720000
550.296143	146.260000
550.389771	146.440000
550.483337	146.780000
550.576965	146.200000
550.670593	146.500000
550.764221	146.520000
550.857849	146.500000
550.951477	145.920000
551.045105	145.800000
551.138672	145.700000
551.232300	145.000000
551.325928	145.380000
551.419556	145.820000
551.513123	145.880000
551.606750	145.900000
551.700378	146.400000
551.794006	146.200000
551.887573	145.960000
551.981201	146.580000
552.074768	146.440000
552.168457	146.080000
552.262024	146.900000
552.355652	146.740000
552.449219	147.020000
552.542847	147.200000
552.636475	147.100000
552.730103	146.100000
552.823669	146.360000
552.917297	145.480000
553.010864	145.340000
553.104553	145.640000
553.198181	145.360000
553.291748	145.840000
553.385376	146.440000
553.478943	146.200000
553.572571	146.240000
553.666199	146.740000
553.759827	146.160000
553.853394	145.700000
553.947021	145.900000
554.040588	146.020000
554.134216	146.020000
554.227783	146.580000
554.321411	147.020000
554.415039	146.540000
554.508667	146.600000
554.602234	146.860000
554.695862	146.340000
554.789429	146.080000
554.883057	146.500000
554.976624	146.340000
555.070251	145.820000
555.163818	145.680000
555.257507	145.760000
555.351074	145.760000
555.444702	146.780000
555.538330	146.720000
555.631897	147.660000
555.725525	147.580000
555.819092	147.520000
555.912720	146.120000
556.006287	146.580000
556.099915	145.900000
556.193481	145.760000
556.287109	146.020000
556.380676	146.480000
556.474304	146.400000
556.567871	146.560000
556.661499	146.220000
556.755066	146.180000
556.848694	146.220000
556.942261	146.080000
557.035889	146.200000
557.129517	146.760000
557.223145	147.240000
557.316711	147.220000
557.410339	147.560000
557.503906	147.480000
557.597473	147.540000
557.691040	147.020000
557.784668	146.720000
557.878296	146.580000
557.971863	146.700000
558.065491	146.640000
558.159058	146.340000
558.252686	147.240000
558.346252	147.420000
558.439880	146.740000
558.533447	146.380000
558.627075	146.340000
558.720642	145.900000
558.814270	145.720000
558.907837	145.880000
559.001465	145.860000
559.095032	146.720000
559.188660	146.540000
559.282227	145.860000
559.375854	146.700000
559.469360	146.740000
559.562988	146.560000
559.656555	146.720000
559.750183	147.220000
559.843750	147.120000
559.937378	147.160000
560.030945	146.820000
560.124573	0.000000
560.218140	0.000000
560.311707	0.000000
560.405334	0.000000
560.498901	0.000000
560.592529	0.000000
560.686096	0.000000
560.779724	0.000000
560.873291	0.000000
560.966858	0.000000
561.060425	0.000000
561.154053	0.000000
561.247620	0.000000
561.341248	0.000000
561.434814	0.000000
561.528381	0.000000
561.621948	0.000000
561.715576	0.000000
561.809143	0.000000
561.902771	0.000000
561.996277	0.000000
562.089905	0.000000
562.183472	0.000000
562.277100	0.000000
