Model Number: SPM-002-B   
Serial Number: 70087108
Firmware Version: 004.15.4
Exposure Time: 100000.000000us
Data Taken on: 11-12-2020 19:38:42.332
Wavelength	Amplitude
221.570786	0.000000
221.663406	0.000000
221.756027	0.000000
221.848648	0.000000
221.941269	0.000000
222.033905	0.000000
222.126526	0.000000
222.219162	0.000000
222.311798	0.000000
222.404419	0.000000
222.497055	0.000000
222.589676	0.000000
222.682312	0.000000
222.774933	0.000000
222.867569	0.000000
222.960205	0.000000
223.052841	0.000000
223.145462	0.000000
223.238098	0.000000
223.330734	0.000000
223.423386	0.000000
223.516022	0.000000
223.608658	0.000000
223.701309	0.000000
223.793945	0.000000
223.886581	0.000000
223.979218	0.000000
224.071869	0.000000
224.164505	0.000000
224.257156	0.000000
224.349792	0.000000
224.442444	0.000000
224.535095	0.000000
224.627747	0.000000
224.720398	0.000000
224.813034	0.000000
224.905685	0.000000
224.998337	146.360000
225.090988	145.780000
225.183640	145.820000
225.276291	145.620000
225.368942	145.980000
225.461594	146.660000
225.554245	147.180000
225.646912	147.060000
225.739578	147.720000
225.832230	147.840000
225.924896	146.940000
226.017548	147.140000
226.110199	147.640000
226.202866	146.860000
226.295532	146.360000
226.388184	146.600000
226.480850	146.020000
226.573517	145.760000
226.666168	146.080000
226.758835	146.540000
226.851501	147.140000
226.944183	147.380000
227.036850	147.000000
227.129517	146.780000
227.222183	146.760000
227.314850	146.520000
227.407516	146.700000
227.500198	147.500000
227.592865	147.620000
227.685532	147.320000
227.778214	147.000000
227.870880	147.200000
227.963562	147.540000
228.056229	147.640000
228.148926	147.720000
228.241592	148.340000
228.334274	148.020000
228.426956	147.580000
228.519638	147.640000
228.612305	146.940000
228.704987	146.800000
228.797668	146.820000
228.890350	146.300000
228.983032	145.800000
229.075714	147.020000
229.168396	146.720000
229.261108	146.360000
229.353790	146.560000
229.446472	146.940000
229.539169	146.300000
229.631851	146.080000
229.724533	146.440000
229.817230	146.660000
229.909912	147.300000
230.002609	147.460000
230.095306	147.580000
230.187988	147.600000
230.280685	147.360000
230.373383	146.500000
230.466095	146.280000
230.558792	146.440000
230.651474	146.540000
230.744171	146.740000
230.836868	146.940000
230.929581	147.380000
231.022278	147.580000
231.114975	147.340000
231.207672	147.220000
231.300369	147.580000
231.393082	147.280000
231.485779	146.940000
231.578506	147.040000
231.671204	147.060000
231.763916	146.980000
231.856613	146.800000
231.949326	147.200000
232.042023	147.140000
232.134735	146.980000
232.227448	146.520000
232.320160	147.020000
232.412872	146.640000
232.505585	147.340000
232.598297	147.720000
232.691010	147.680000
232.783722	147.180000
232.876450	147.960000
232.969162	147.460000
233.061874	147.180000
233.154587	146.980000
233.247314	147.500000
233.340027	146.540000
233.432739	146.840000
233.525467	146.480000
233.618179	146.940000
233.710907	146.520000
233.803635	147.020000
233.896347	146.720000
233.989090	147.640000
234.081818	147.260000
234.174545	147.340000
234.267258	146.760000
234.359985	146.760000
234.452713	146.120000
234.545441	146.020000
234.638168	145.500000
234.730896	146.240000
234.823639	145.920000
234.916367	146.580000
235.009094	146.780000
235.101822	147.020000
235.194580	146.620000
235.287308	146.840000
235.380051	146.020000
235.472778	146.100000
235.565521	146.520000
235.658249	146.220000
235.750992	146.180000
235.843719	146.340000
235.936462	146.660000
236.029205	146.180000
236.121948	146.200000
236.214691	146.620000
236.307449	147.200000
236.400192	146.840000
236.492935	146.920000
236.585678	147.240000
236.678421	146.860000
236.771164	146.660000
236.863907	147.060000
236.956665	147.200000
237.049408	148.680000
237.142151	148.560000
237.234909	149.200000
237.327652	149.220000
237.420410	148.840000
237.513153	147.600000
237.605927	147.500000
237.698669	146.600000
237.791428	145.860000
237.884186	146.400000
237.976944	145.940000
238.069702	146.360000
238.162445	145.980000
238.255203	146.300000
238.347961	146.700000
238.440720	146.840000
238.533478	146.680000
238.626266	146.720000
238.719025	147.000000
238.811783	146.540000
238.904541	146.400000
238.997314	146.280000
239.090073	146.420000
239.182831	146.720000
239.275604	147.620000
239.368362	147.600000
239.461136	147.700000
239.553909	147.860000
239.646667	147.380000
239.739441	146.680000
239.832214	147.000000
239.925003	147.240000
240.017761	147.640000
240.110535	148.280000
240.203308	147.680000
240.296082	147.680000
240.388855	147.360000
240.481628	147.440000
240.574417	147.300000
240.667191	147.860000
240.759964	147.560000
240.852737	147.740000
240.945526	147.140000
241.038315	147.080000
241.131088	147.100000
241.223877	147.200000
241.316650	146.860000
241.409439	147.300000
241.502228	146.620000
241.595001	146.920000
241.687790	147.060000
241.780579	147.160000
241.873367	147.200000
241.966141	147.680000
242.058929	147.080000
242.151718	147.520000
242.244507	147.780000
242.337311	147.140000
242.430099	147.460000
242.522903	147.700000
242.615692	146.740000
242.708481	147.140000
242.801270	147.580000
242.894073	147.700000
242.986862	147.900000
243.079651	148.840000
243.172455	148.180000
243.265244	148.420000
243.358063	147.800000
243.450867	148.080000
243.543655	147.960000
243.636459	148.100000
243.729263	148.140000
243.822067	148.240000
243.914856	148.080000
244.007660	147.960000
244.100464	147.620000
244.193268	146.960000
244.286072	146.880000
244.378876	146.320000
244.471680	145.780000
244.564499	146.160000
244.657318	147.120000
244.750122	147.380000
244.842926	147.220000
244.935745	147.740000
245.028549	147.560000
245.121368	147.080000
245.214172	146.960000
245.306992	147.400000
245.399796	147.120000
245.492615	147.180000
245.585434	147.060000
245.678253	147.000000
245.771072	146.980000
245.863892	147.480000
245.956711	147.680000
246.049530	147.440000
246.142349	147.300000
246.235168	147.400000
246.327988	147.360000
246.420807	147.080000
246.513626	147.220000
246.606445	147.240000
246.699280	146.940000
246.792099	146.840000
246.884918	146.560000
246.977753	146.220000
247.070587	146.240000
247.163422	146.080000
247.256241	146.040000
247.349075	146.500000
247.441895	146.620000
247.534729	146.760000
247.627563	146.980000
247.720383	147.680000
247.813217	147.860000
247.906052	148.020000
247.998886	147.840000
248.091736	147.740000
248.184570	146.980000
248.277405	146.820000
248.370239	147.800000
248.463074	148.480000
248.555908	148.760000
248.648743	148.660000
248.741592	148.740000
248.834427	147.780000
248.927261	146.680000
249.020111	147.000000
249.112946	147.500000
249.205795	147.160000
249.298630	147.240000
249.391495	147.600000
249.484344	147.220000
249.577179	147.160000
249.670029	147.320000
249.762878	147.860000
249.855728	148.220000
249.948563	148.180000
250.041412	147.340000
250.134262	147.640000
250.227112	147.520000
250.319962	147.360000
250.412827	147.440000
250.505692	147.700000
250.598541	147.560000
250.691391	147.240000
250.784241	147.300000
250.877106	147.540000
250.969955	147.460000
251.062805	147.640000
251.155670	147.860000
251.248520	147.440000
251.341385	147.120000
251.434235	146.860000
251.527100	146.380000
251.619965	145.900000
251.712814	147.020000
251.805695	147.200000
251.898560	147.780000
251.991425	148.280000
252.084290	149.000000
252.177155	147.820000
252.270020	147.600000
252.362885	147.360000
252.455750	147.320000
252.548615	146.740000
252.641479	147.120000
252.734360	146.980000
252.827240	146.860000
252.920105	146.840000
253.012970	146.640000
253.105850	146.340000
253.198715	146.240000
253.291595	146.140000
253.384460	145.620000
253.477341	145.640000
253.570221	145.800000
253.663086	145.500000
253.755966	146.220000
253.848846	146.420000
253.941727	146.700000
254.034592	146.680000
254.127472	146.620000
254.220367	146.260000
254.313248	146.660000
254.406128	146.300000
254.499008	146.600000
254.591904	147.660000
254.684784	148.080000
254.777664	147.580000
254.870544	147.200000
254.963440	146.820000
255.056335	146.400000
255.149216	146.280000
255.242111	147.020000
255.334991	147.920000
255.427887	148.240000
255.520767	148.240000
255.613663	148.040000
255.706558	147.240000
255.799438	146.940000
255.892334	146.700000
255.985229	146.480000
256.078125	146.380000
256.171021	146.620000
256.263916	147.020000
256.356812	147.460000
256.449707	147.840000
256.542603	147.540000
256.635498	148.100000
256.728394	147.860000
256.821289	147.580000
256.914215	147.720000
257.007080	148.220000
257.100006	148.040000
257.192932	148.460000
257.285828	148.700000
257.378723	148.440000
257.471619	148.180000
257.564545	147.500000
257.657440	147.160000
257.750336	147.180000
257.843262	147.080000
257.936157	148.020000
258.029053	148.620000
258.121979	148.480000
258.214874	148.220000
258.307800	147.860000
258.400696	146.720000
258.493622	146.520000
258.586517	145.960000
258.679443	146.080000
258.772339	145.960000
258.865265	146.100000
258.958160	145.560000
259.051086	146.480000
259.144012	146.420000
259.236938	147.260000
259.329834	147.520000
259.422791	147.940000
259.515717	147.180000
259.608612	146.760000
259.701538	146.680000
259.794464	146.480000
259.887390	146.480000
259.980316	146.460000
260.073212	146.760000
260.166138	146.080000
260.259064	146.480000
260.351990	146.780000
260.444916	146.740000
260.537842	147.100000
260.630768	147.840000
260.723694	147.560000
260.816620	147.340000
260.909546	147.580000
261.002472	147.060000
261.095398	146.400000
261.188354	146.360000
261.281281	146.100000
261.374207	146.160000
261.467133	146.860000
261.560089	147.080000
261.653015	147.020000
261.745972	147.440000
261.838867	147.640000
261.931824	147.480000
262.024780	146.980000
262.117706	146.920000
262.210663	146.940000
262.303589	146.900000
262.396515	146.840000
262.489471	147.800000
262.582397	147.880000
262.675354	147.420000
262.768280	147.400000
262.861237	147.160000
262.954163	146.780000
263.047119	146.820000
263.140045	146.760000
263.233002	146.680000
263.325958	146.500000
263.418884	146.240000
263.511841	146.380000
263.604797	146.740000
263.697723	146.780000
263.790680	146.960000
263.883636	147.760000
263.976593	147.480000
264.069550	147.360000
264.162476	147.120000
264.255463	147.120000
264.348419	146.620000
264.441376	147.060000
264.534332	146.900000
264.627289	147.120000
264.720245	147.580000
264.813202	147.120000
264.906158	147.240000
264.999115	147.460000
265.092072	147.200000
265.185028	147.540000
265.277985	148.020000
265.370941	147.440000
265.463898	147.100000
265.556854	147.340000
265.649811	146.120000
265.742798	146.020000
265.835754	146.240000
265.928711	146.980000
266.021667	146.820000
266.114655	147.300000
266.207611	147.520000
266.300568	147.080000
266.393585	146.340000
266.486511	146.800000
266.579498	146.220000
266.672485	146.080000
266.765442	146.120000
266.858429	146.880000
266.951385	146.260000
267.044342	146.660000
267.137329	146.640000
267.230316	147.100000
267.323273	146.260000
267.416260	147.260000
267.509216	147.300000
267.602203	147.080000
267.695160	147.420000
267.788147	147.760000
267.881134	146.980000
267.974091	147.160000
268.067078	147.320000
268.160065	146.880000
268.253052	146.560000
268.346008	146.500000
268.438995	146.340000
268.531982	146.240000
268.624969	146.100000
268.717987	146.760000
268.810944	146.920000
268.903961	146.840000
268.996948	146.660000
269.089905	147.160000
269.182892	147.260000
269.275879	147.320000
269.368866	147.340000
269.461853	147.740000
269.554871	147.480000
269.647858	147.180000
269.740845	147.600000
269.833832	147.700000
269.926819	147.180000
270.019806	147.180000
270.112793	146.560000
270.205811	146.300000
270.298798	146.040000
270.391785	146.940000
270.484772	146.580000
270.577789	146.960000
270.670776	146.900000
270.763763	146.860000
270.856750	146.820000
270.949768	146.560000
271.042786	146.740000
271.135773	146.600000
271.228790	147.160000
271.321808	146.400000
271.414795	146.660000
271.507782	146.340000
271.600800	146.200000
271.693817	146.060000
271.786804	146.480000
271.879822	146.820000
271.972809	147.000000
272.065826	147.660000
272.158844	147.080000
272.251831	147.600000
272.344849	147.440000
272.437866	147.140000
272.530853	146.960000
272.623871	147.420000
272.716888	146.320000
272.809906	147.000000
272.902893	147.060000
272.995911	146.320000
273.088928	146.180000
273.181946	146.620000
273.274963	145.780000
273.367981	146.060000
273.460999	146.760000
273.554047	147.480000
273.647003	148.080000
273.740051	148.220000
273.833069	148.740000
273.926086	148.520000
274.019135	148.060000
274.112152	147.460000
274.205170	147.600000
274.298187	147.420000
274.391205	147.160000
274.484222	147.100000
274.577240	147.160000
274.670258	146.800000
274.763306	146.480000
274.856323	146.920000
274.949341	146.880000
275.042358	147.360000
275.135406	147.200000
275.228424	147.120000
275.321442	146.640000
275.414490	146.120000
275.507507	146.020000
275.600525	146.480000
275.693573	146.240000
275.786591	146.180000
275.879669	146.620000
275.972656	146.200000
276.065735	146.200000
276.158752	146.640000
276.251801	147.580000
276.344818	147.560000
276.437866	147.720000
276.530884	147.380000
276.623932	147.000000
276.716980	146.660000
276.809998	146.720000
276.903046	146.700000
276.996094	147.720000
277.089111	148.540000
277.182159	148.960000
277.275208	148.900000
277.368256	148.920000
277.461304	148.400000
277.554321	147.340000
277.647369	146.760000
277.740417	146.580000
277.833466	146.320000
277.926514	145.940000
278.019562	146.800000
278.112610	146.280000
278.205688	146.480000
278.298706	146.760000
278.391785	146.840000
278.484833	146.220000
278.577881	146.460000
278.670929	146.820000
278.763977	146.820000
278.857025	147.220000
278.950073	147.400000
279.043121	147.380000
279.136169	147.260000
279.229248	147.120000
279.322296	146.860000
279.415344	146.460000
279.508392	146.440000
279.601440	146.280000
279.694519	146.260000
279.787567	146.160000
279.880615	146.460000
279.973694	146.120000
280.066742	146.200000
280.159790	146.220000
280.252869	146.040000
280.345917	146.000000
280.438995	146.200000
280.532074	145.880000
280.625122	146.320000
280.718201	147.180000
280.811279	147.260000
280.904327	147.460000
280.997406	147.800000
281.090454	147.560000
281.183533	146.860000
281.276581	146.680000
281.369659	146.600000
281.462738	146.560000
281.555786	146.580000
281.648865	146.680000
281.741943	146.780000
281.835022	147.180000
281.928070	146.980000
282.021149	146.840000
282.114227	146.660000
282.207306	146.860000
282.300385	146.860000
282.393433	146.840000
282.486511	146.860000
282.579590	147.320000
282.672668	147.440000
282.765747	146.980000
282.858856	146.820000
282.951904	146.920000
283.045013	146.920000
283.138062	147.280000
283.231171	147.820000
283.324249	148.360000
283.417328	148.360000
283.510406	147.900000
283.603485	147.420000
283.696564	146.980000
283.789642	146.640000
283.882751	146.420000
283.975830	147.060000
284.068909	146.660000
284.161987	147.140000
284.255066	146.860000
284.348175	146.920000
284.441254	146.500000
284.534332	147.100000
284.627441	146.660000
284.720520	146.600000
284.813599	146.700000
284.906708	146.600000
284.999786	145.940000
285.092896	145.900000
285.185974	146.760000
285.279053	146.180000
285.372192	146.400000
285.465240	147.380000
285.558380	147.460000
285.651459	146.980000
285.744568	147.740000
285.837677	147.300000
285.930756	146.980000
286.023865	146.980000
286.116943	146.940000
286.210052	147.040000
286.303162	147.360000
286.396240	147.140000
286.489349	147.060000
286.582458	147.320000
286.675568	146.580000
286.768646	146.300000
286.861755	146.520000
286.954865	147.080000
287.047974	146.620000
287.141083	146.900000
287.234161	146.980000
287.327271	146.540000
287.420380	146.660000
287.513519	146.780000
287.606598	146.700000
287.699738	147.000000
287.792816	147.140000
287.885956	146.760000
287.979034	146.660000
288.072174	146.720000
288.165283	146.500000
288.258392	146.540000
288.351501	145.740000
288.444611	146.120000
288.537720	146.860000
288.630859	146.800000
288.723969	147.280000
288.817078	148.300000
288.910187	147.960000
289.003296	147.380000
289.096436	147.220000
289.189545	147.020000
289.282654	146.440000
289.375763	146.840000
289.468903	147.020000
289.562012	147.440000
289.655121	147.420000
289.748260	147.640000
289.841400	148.000000
289.934509	147.840000
290.027649	147.980000
290.120728	147.560000
290.213898	147.300000
290.306976	146.720000
290.400146	146.620000
290.493256	145.940000
290.586395	146.120000
290.679535	146.540000
290.772644	146.400000
290.865784	145.940000
290.958893	146.240000
291.052032	145.940000
291.145172	145.600000
291.238281	145.360000
291.331421	145.720000
291.424561	145.900000
291.517670	146.040000
291.610809	146.500000
291.703949	146.580000
291.797089	146.600000
291.890228	146.340000
291.983337	146.140000
292.076477	145.660000
292.169617	145.880000
292.262756	145.960000
292.355927	145.580000
292.449036	145.600000
292.542206	145.940000
292.635315	146.080000
292.728485	146.320000
292.821625	146.340000
292.914764	147.660000
293.007904	147.420000
293.101044	147.240000
293.194183	147.080000
293.287323	147.340000
293.380463	146.260000
293.473602	146.220000
293.566742	146.440000
293.659882	146.680000
293.753021	147.000000
293.846191	147.000000
293.939331	146.620000
294.032471	146.400000
294.125610	146.060000
294.218781	146.220000
294.311920	146.760000
294.405060	146.840000
294.498230	146.800000
294.591370	146.900000
294.684540	146.120000
294.777679	145.620000
294.870850	146.320000
294.963959	146.520000
295.057159	146.300000
295.150299	146.820000
295.243469	146.680000
295.336609	146.080000
295.429779	145.860000
295.522919	146.300000
295.616089	146.380000
295.709229	147.200000
295.802399	147.440000
295.895569	147.240000
295.988708	146.920000
296.081879	147.000000
296.175018	146.160000
296.268188	146.060000
296.361359	146.680000
296.454529	147.120000
296.547668	146.780000
296.640839	147.200000
296.734009	147.220000
296.827179	147.120000
296.920319	146.940000
297.013519	146.820000
297.106659	146.840000
297.199860	146.900000
297.292999	146.740000
297.386200	146.440000
297.479309	146.440000
297.572510	146.280000
297.665680	146.040000
297.758850	146.260000
297.852020	146.480000
297.945190	146.520000
298.038361	146.100000
298.131531	146.960000
298.224701	146.620000
298.317871	146.260000
298.411072	146.040000
298.504242	146.160000
298.597412	145.560000
298.690582	145.900000
298.783752	145.980000
298.876923	146.500000
298.970093	146.420000
299.063293	146.420000
299.156464	146.400000
299.249634	146.640000
299.342834	146.520000
299.436005	146.940000
299.529205	146.920000
299.622345	147.080000
299.715576	146.400000
299.808716	146.080000
299.901917	146.140000
299.995117	146.340000
300.088287	146.280000
300.181488	146.120000
300.274658	146.200000
300.367828	146.140000
300.461029	146.180000
300.554199	146.320000
300.647400	147.020000
300.740601	147.360000
300.833771	147.080000
300.926971	147.540000
301.020142	146.980000
301.113342	146.700000
301.206512	146.480000
301.299713	147.040000
301.392914	146.560000
301.486084	146.940000
301.579285	146.880000
301.672516	147.400000
301.765686	146.940000
301.858887	146.840000
301.952057	146.680000
302.045288	146.560000
302.138458	146.260000
302.231659	146.080000
302.324860	146.060000
302.418060	145.640000
302.511261	145.860000
302.604462	146.040000
302.697662	146.020000
302.790863	145.740000
302.884064	145.620000
302.977264	145.640000
303.070465	145.940000
303.163666	146.500000
303.256866	147.060000
303.350067	147.480000
303.443268	147.560000
303.536469	147.220000
303.629669	146.520000
303.722870	146.420000
303.816071	146.200000
303.909271	146.460000
304.002472	145.700000
304.095673	145.840000
304.188934	145.020000
304.282104	145.780000
304.375336	145.500000
304.468506	146.000000
304.561768	145.700000
304.654968	146.440000
304.748169	145.680000
304.841370	145.580000
304.934601	145.840000
305.027802	145.820000
305.121002	145.600000
305.214233	145.820000
305.307434	146.120000
305.400665	146.500000
305.493866	146.540000
305.587097	147.100000
305.680298	147.040000
305.773499	147.020000
305.866730	146.340000
305.959930	147.100000
306.053162	146.760000
306.146393	146.480000
306.239594	145.940000
306.332825	146.180000
306.426025	146.440000
306.519287	146.200000
306.612488	146.660000
306.705719	146.840000
306.798920	147.020000
306.892181	146.260000
306.985352	145.920000
307.078613	145.440000
307.171844	146.040000
307.265045	145.200000
307.358276	145.020000
307.451508	145.560000
307.544739	146.000000
307.637970	145.340000
307.731201	145.740000
307.824402	146.380000
307.917633	146.600000
308.010864	147.020000
308.104095	147.520000
308.197327	147.840000
308.290558	147.620000
308.383789	147.160000
308.477020	146.520000
308.570251	145.860000
308.663483	145.120000
308.756714	144.980000
308.849976	145.120000
308.943176	145.580000
309.036438	145.980000
309.129639	146.500000
309.222900	146.680000
309.316101	146.460000
309.409393	146.020000
309.502625	145.760000
309.595856	145.800000
309.689087	145.780000
309.782318	145.900000
309.875580	145.900000
309.968811	146.160000
310.062042	145.740000
310.155273	145.260000
310.248535	145.660000
310.341766	145.880000
310.434998	145.620000
310.528259	145.640000
310.621490	146.340000
310.714722	145.700000
310.807983	145.620000
310.901215	145.820000
310.994476	146.060000
311.087708	145.540000
311.181000	145.880000
311.274200	145.680000
311.367462	145.940000
311.460693	145.820000
311.553986	146.600000
311.647186	146.800000
311.740479	147.660000
311.833710	147.100000
311.926971	146.860000
312.020203	146.180000
312.113464	145.860000
312.206726	144.680000
312.299957	145.240000
312.393219	146.180000
312.486481	146.600000
312.579712	146.580000
312.672974	147.200000
312.766235	146.880000
312.859497	146.560000
312.952759	146.160000
313.045990	146.940000
313.139252	146.220000
313.232513	146.420000
313.325775	146.520000
313.419037	146.300000
313.512299	145.360000
313.605530	146.220000
313.698822	146.280000
313.792053	146.160000
313.885345	145.940000
313.978577	146.340000
314.071869	145.740000
314.165131	145.840000
314.258392	146.300000
314.351654	146.900000
314.444916	146.120000
314.538177	146.720000
314.631439	146.660000
314.724701	146.160000
314.817993	145.960000
314.911255	146.500000
315.004517	145.800000
315.097778	145.760000
315.191040	145.960000
315.284302	146.340000
315.377594	146.200000
315.470856	146.420000
315.564117	145.920000
315.657379	145.260000
315.750671	144.660000
315.843933	145.120000
315.937195	144.700000
316.030518	144.860000
316.123749	144.980000
316.217041	145.880000
316.310303	145.600000
316.403595	146.100000
316.496857	146.340000
316.590149	146.800000
316.683411	146.140000
316.776703	145.880000
316.869965	146.120000
316.963257	145.840000
317.056519	145.180000
317.149811	145.160000
317.243073	145.440000
317.336365	145.420000
317.429626	145.680000
317.522919	146.220000
317.616180	146.060000
317.709473	145.920000
317.802765	145.600000
317.896027	145.680000
317.989319	146.100000
318.082611	146.200000
318.175873	146.020000
318.269165	146.220000
318.362488	145.920000
318.455750	145.400000
318.549042	145.960000
318.642303	146.580000
318.735626	146.180000
318.828888	146.440000
318.922211	146.260000
319.015472	146.660000
319.108765	145.680000
319.202057	145.720000
319.295349	145.680000
319.388641	145.800000
319.481934	145.120000
319.575226	145.620000
319.668518	145.920000
319.761810	146.240000
319.855103	146.140000
319.948395	145.980000
320.041687	146.220000
320.134979	146.240000
320.228271	145.740000
320.321564	145.640000
320.414856	145.560000
320.508148	145.260000
320.601440	144.860000
320.694763	144.940000
320.788025	146.000000
320.881348	146.140000
320.974640	146.120000
321.067963	146.120000
321.161224	145.980000
321.254547	144.820000
321.347839	145.440000
321.441162	145.200000
321.534454	145.540000
321.627747	145.540000
321.721069	146.460000
321.814362	146.300000
321.907654	146.500000
322.000946	146.560000
322.094269	147.080000
322.187561	146.260000
322.280884	146.440000
322.374176	146.440000
322.467468	146.840000
322.560791	146.720000
322.654083	147.460000
322.747406	147.460000
322.840698	147.720000
322.934021	147.600000
323.027344	147.760000
323.120636	147.160000
323.213959	146.980000
323.307251	146.620000
323.400574	146.280000
323.493866	145.600000
323.587219	145.920000
323.680511	146.020000
323.773834	146.120000
323.867157	146.320000
323.960449	146.680000
324.053772	146.420000
324.147095	146.300000
324.240387	146.720000
324.333710	146.680000
324.427032	146.920000
324.520355	147.100000
324.613647	146.840000
324.706970	146.440000
324.800293	146.340000
324.893616	146.240000
324.986938	146.340000
325.080231	146.000000
325.173553	146.520000
325.266876	147.000000
325.360199	147.000000
325.453522	146.640000
325.546875	146.440000
325.640167	146.260000
325.733521	146.220000
325.826813	146.260000
325.920166	146.260000
326.013489	146.620000
326.106812	145.880000
326.200134	145.040000
326.293457	144.560000
326.386780	144.520000
326.480103	144.600000
326.573425	144.880000
326.666748	145.180000
326.760071	145.760000
326.853424	146.020000
326.946747	145.980000
327.040070	146.760000
327.133392	146.420000
327.226715	145.480000
327.320068	145.040000
327.413391	145.160000
327.506714	144.380000
327.600037	144.920000
327.693390	145.620000
327.786713	145.680000
327.880066	145.600000
327.973358	146.100000
328.066742	146.340000
328.160034	146.580000
328.253418	147.000000
328.346710	146.940000
328.440063	146.560000
328.533417	146.280000
328.626740	146.340000
328.720093	146.060000
328.813416	145.860000
328.906769	145.960000
329.000092	145.960000
329.093445	145.440000
329.186768	145.320000
329.280121	145.780000
329.373444	146.220000
329.466797	146.200000
329.560120	146.400000
329.653473	146.780000
329.746796	146.500000
329.840149	146.000000
329.933502	146.220000
330.026825	146.340000
330.120178	146.040000
330.213562	146.180000
330.306854	146.300000
330.400238	145.980000
330.493561	145.560000
330.586945	146.380000
330.680237	146.420000
330.773621	146.540000
330.866974	146.660000
330.960327	147.060000
331.053680	146.440000
331.147003	146.560000
331.240356	146.800000
331.333710	146.960000
331.427063	146.600000
331.520416	146.520000
331.613770	146.440000
331.707123	146.340000
331.800476	146.320000
331.893829	147.460000
331.987152	147.440000
332.080505	147.480000
332.173859	147.240000
332.267212	146.880000
332.360565	146.080000
332.453918	145.900000
332.547333	145.640000
332.640656	145.700000
332.734039	145.800000
332.827362	145.920000
332.920746	146.400000
333.014069	146.780000
333.107452	147.200000
333.200806	147.640000
333.294159	147.600000
333.387543	147.240000
333.480896	146.760000
333.574249	146.480000
333.667603	146.080000
333.760956	146.240000
333.854340	146.520000
333.947693	146.780000
334.041046	146.720000
334.134430	146.880000
334.227783	146.500000
334.321136	146.200000
334.414520	145.700000
334.507874	146.120000
334.601227	146.200000
334.694611	146.360000
334.787964	146.600000
334.881348	147.280000
334.974701	146.940000
335.068085	146.700000
335.161438	146.900000
335.254822	146.700000
335.348175	146.600000
335.441559	146.120000
335.534943	146.920000
335.628296	146.500000
335.721680	146.420000
335.815033	146.480000
335.908417	146.920000
336.001770	146.300000
336.095154	146.440000
336.188538	146.320000
336.281891	146.080000
336.375275	145.620000
336.468658	145.520000
336.562012	145.600000
336.655396	146.140000
336.748779	146.360000
336.842133	146.540000
336.935516	146.560000
337.028900	146.020000
337.122284	145.620000
337.215637	145.760000
337.309021	145.740000
337.402435	145.280000
337.495789	145.800000
337.589203	145.760000
337.682526	145.640000
337.775940	146.040000
337.869324	146.580000
337.962708	146.100000
338.056091	146.740000
338.149475	146.060000
338.242859	146.260000
338.336243	145.980000
338.429626	146.280000
338.523010	145.960000
338.616394	146.000000
338.709778	145.680000
338.803162	145.980000
338.896545	145.980000
338.989929	145.640000
339.083313	146.000000
339.176697	145.740000
339.270081	145.620000
339.363464	145.920000
339.456848	146.260000
339.550232	145.860000
339.643616	145.740000
339.737030	145.820000
339.830383	145.620000
339.923828	145.800000
340.017181	146.460000
340.110596	147.000000
340.203949	146.880000
340.297363	146.540000
340.390778	146.040000
340.484161	145.840000
340.577545	145.700000
340.670959	145.800000
340.764343	146.160000
340.857727	146.380000
340.951111	145.640000
341.044525	145.560000
341.137909	145.180000
341.231293	145.080000
341.324707	144.760000
341.418091	145.960000
341.511505	145.920000
341.604889	146.300000
341.698303	146.580000
341.791687	146.700000
341.885071	146.040000
341.978485	145.820000
342.071899	145.940000
342.165283	145.980000
342.258698	146.440000
342.352081	146.840000
342.445496	147.660000
342.538879	147.460000
342.632324	147.120000
342.725708	147.140000
342.819122	146.540000
342.912506	146.080000
343.005920	146.020000
343.099335	146.760000
343.192719	146.700000
343.286133	147.060000
343.379547	147.240000
343.472931	147.200000
343.566345	146.420000
343.659760	146.220000
343.753143	146.000000
343.846558	145.680000
343.939972	145.820000
344.033386	146.560000
344.126770	146.660000
344.220184	147.000000
344.313599	147.380000
344.407043	147.640000
344.500427	146.820000
344.593872	147.200000
344.687225	146.780000
344.780670	146.620000
344.874054	146.200000
344.967499	146.940000
345.060913	146.620000
345.154327	146.840000
345.247742	146.460000
345.341156	146.380000
345.434570	146.000000
345.527985	145.720000
345.621399	145.900000
345.714813	145.980000
345.808228	146.320000
345.901642	145.820000
345.995056	145.780000
346.088470	145.980000
346.181885	146.140000
346.275299	145.840000
346.368713	146.160000
346.462128	146.060000
346.555573	145.860000
346.648987	145.820000
346.742401	145.740000
346.835815	146.040000
346.929260	146.060000
347.022644	145.740000
347.116119	145.800000
347.209503	146.280000
347.302948	146.760000
347.396362	147.300000
347.489807	147.640000
347.583221	147.980000
347.676636	147.540000
347.770050	146.540000
347.863495	146.060000
347.956909	146.020000
348.050323	145.400000
348.143768	145.640000
348.237183	145.760000
348.330597	146.340000
348.424042	146.600000
348.517456	147.160000
348.610901	147.300000
348.704315	147.020000
348.797760	146.180000
348.891174	145.440000
348.984619	144.920000
349.078033	145.360000
349.171448	146.220000
349.264923	146.500000
349.358337	146.820000
349.451782	147.080000
349.545197	146.360000
349.638641	145.640000
349.732086	145.300000
349.825500	145.680000
349.918945	145.560000
350.012390	146.240000
350.105804	146.780000
350.199249	147.060000
350.292664	147.360000
350.386108	147.160000
350.479553	147.180000
350.572968	146.940000
350.666412	147.300000
350.759857	146.960000
350.853302	147.540000
350.946716	147.000000
351.040161	147.340000
351.133606	147.040000
351.227081	146.660000
351.320465	147.140000
351.413940	147.160000
351.507355	147.080000
351.600830	147.260000
351.694244	147.220000
351.787720	146.860000
351.881104	147.020000
351.974579	146.760000
352.067993	147.400000
352.161469	147.500000
352.254883	146.760000
352.348358	146.600000
352.441803	146.580000
352.535248	146.100000
352.628693	146.400000
352.722137	146.680000
352.815582	146.660000
352.909027	146.820000
353.002472	146.400000
353.095917	146.240000
353.189362	146.440000
353.282806	146.340000
353.376251	146.320000
353.469696	146.240000
353.563141	146.440000
353.656586	146.160000
353.750061	146.180000
353.843475	146.040000
353.936981	146.580000
354.030396	146.060000
354.123871	146.180000
354.217285	146.760000
354.310760	146.880000
354.404175	146.960000
354.497681	146.840000
354.591095	146.760000
354.684570	145.900000
354.777985	145.520000
354.871490	144.960000
354.964935	145.560000
355.058380	145.580000
355.151855	145.440000
355.245300	146.000000
355.338745	146.580000
355.432220	146.440000
355.525665	146.100000
355.619110	146.800000
355.712585	146.480000
355.806030	146.040000
355.899475	145.780000
355.992950	146.300000
356.086426	146.640000
356.179871	146.740000
356.273346	147.040000
356.366791	147.360000
356.460266	147.580000
356.553711	146.960000
356.647186	147.080000
356.740631	146.660000
356.834106	146.260000
356.927551	145.800000
357.021027	145.820000
357.114471	145.720000
357.207947	146.020000
357.301422	146.400000
357.394867	146.900000
357.488342	147.200000
357.581818	147.320000
357.675262	147.560000
357.768738	147.380000
357.862213	146.440000
357.955658	146.360000
358.049133	146.240000
358.142609	146.280000
358.236053	146.100000
358.329529	146.580000
358.423035	146.860000
358.516449	146.580000
358.609955	146.560000
358.703400	147.280000
358.796906	147.560000
358.890350	146.820000
358.983826	146.900000
359.077271	146.120000
359.170776	145.780000
359.264221	145.500000
359.357727	145.580000
359.451172	145.940000
359.544647	146.300000
359.638123	146.060000
359.731598	146.320000
359.825073	146.580000
359.918549	146.760000
360.012024	146.960000
360.105499	146.600000
360.198975	146.600000
360.292450	146.680000
360.385925	146.300000
360.479401	145.940000
360.572876	146.360000
360.666351	146.520000
360.759857	146.100000
360.853302	145.860000
360.946808	145.780000
361.040253	145.860000
361.133759	145.680000
361.227203	146.140000
361.320709	146.280000
361.414154	146.700000
361.507660	147.040000
361.601105	147.260000
361.694641	147.640000
361.788086	147.500000
361.881592	147.940000
361.975067	147.480000
362.068542	147.500000
362.162018	147.320000
362.255524	147.100000
362.348999	146.920000
362.442474	147.240000
362.535950	146.940000
362.629456	146.500000
362.722931	146.520000
362.816406	146.680000
362.909882	147.000000
363.003387	146.700000
363.096863	147.400000
363.190338	147.800000
363.283875	147.380000
363.377319	147.020000
363.470825	147.760000
363.564301	146.980000
363.657806	147.240000
363.751282	147.000000
363.844788	147.780000
363.938232	147.240000
364.031769	148.000000
364.125214	148.120000
364.218750	148.740000
364.312225	147.280000
364.405731	147.260000
364.499207	146.500000
364.592712	145.800000
364.686188	145.740000
364.779694	146.460000
364.873169	146.540000
364.966675	146.500000
365.060150	146.680000
365.153656	147.040000
365.247131	146.900000
365.340637	147.380000
365.434143	147.900000
365.527618	148.160000
365.621155	147.100000
365.714600	147.000000
365.808136	146.660000
365.901611	145.780000
365.995117	145.380000
366.088593	145.360000
366.182129	145.280000
366.275604	145.380000
366.369110	145.600000
366.462585	145.800000
366.556122	146.740000
366.649567	146.700000
366.743103	146.540000
366.836609	146.540000
366.930115	146.840000
367.023590	146.800000
367.117096	146.600000
367.210602	146.480000
367.304108	147.380000
367.397614	147.840000
367.491119	147.600000
367.584595	148.180000
367.678101	148.520000
367.771606	147.780000
367.865112	147.140000
367.958649	146.480000
368.052124	146.180000
368.145660	146.020000
368.239136	146.700000
368.332672	146.780000
368.426147	147.260000
368.519684	147.240000
368.613159	147.180000
368.706696	146.720000
368.800171	146.580000
368.893707	146.280000
368.987183	146.300000
369.080719	146.340000
369.174225	146.100000
369.267731	146.300000
369.361237	146.560000
369.454742	146.440000
369.548248	146.660000
369.641754	146.720000
369.735260	146.460000
369.828766	145.800000
369.922272	146.200000
370.015808	145.680000
370.109314	145.560000
370.202820	145.480000
370.296356	146.240000
370.389832	146.020000
370.483368	146.020000
370.576874	145.960000
370.670410	146.000000
370.763885	145.380000
370.857422	145.440000
370.950928	145.300000
371.044464	146.160000
371.137939	146.300000
371.231476	147.020000
371.324982	147.500000
371.418518	147.860000
371.512024	147.520000
371.605560	147.460000
371.699066	147.340000
371.792572	146.520000
371.886108	146.760000
371.979614	146.220000
372.073120	146.820000
372.166656	146.760000
372.260162	147.380000
372.353668	147.180000
372.447205	147.200000
372.540710	146.820000
372.634277	146.680000
372.727753	146.560000
372.821320	146.720000
372.914795	147.040000
373.008362	146.740000
373.101837	146.900000
373.195404	146.820000
373.288879	146.640000
373.382446	147.520000
373.475922	147.500000
373.569489	148.180000
373.662964	148.500000
373.756531	148.680000
373.850037	147.920000
373.943573	147.980000
374.037109	146.620000
374.130615	146.620000
374.224152	146.420000
374.317657	146.180000
374.411194	147.120000
374.504730	147.460000
374.598236	146.960000
374.691772	146.700000
374.785309	146.880000
374.878815	145.900000
374.972351	146.280000
375.065887	146.360000
375.159454	146.940000
375.252930	146.600000
375.346497	146.980000
375.440002	147.360000
375.533569	147.420000
375.627045	146.800000
375.720612	146.920000
375.814117	146.800000
375.907684	146.200000
376.001160	145.980000
376.094727	145.440000
376.188232	146.120000
376.281799	146.500000
376.375336	146.620000
376.468872	146.880000
376.562408	147.280000
376.655914	146.620000
376.749451	145.880000
376.842987	145.700000
376.936523	145.840000
377.030060	146.140000
377.123596	146.620000
377.217133	146.540000
377.310669	146.800000
377.404205	146.580000
377.497772	146.860000
377.591278	146.400000
377.684845	147.400000
377.778351	147.380000
377.871918	147.040000
377.965424	146.560000
378.058990	146.780000
378.152496	146.000000
378.246063	146.280000
378.339569	146.780000
378.433136	146.740000
378.526642	146.700000
378.620209	146.960000
378.713745	146.300000
378.807312	146.560000
378.900848	146.620000
378.994385	146.480000
379.087921	145.640000
379.181458	146.300000
379.274994	145.480000
379.368530	145.300000
379.462097	145.740000
379.555634	146.440000
379.649170	145.600000
379.742706	146.040000
379.836273	146.440000
379.929810	145.920000
380.023376	145.960000
380.116882	146.280000
380.210449	145.980000
380.303986	145.760000
380.397552	145.680000
380.491058	145.700000
380.584656	145.520000
380.678162	145.960000
380.771729	146.200000
380.865265	147.000000
380.958832	147.000000
381.052368	147.360000
381.145935	147.240000
381.239471	147.440000
381.333008	147.280000
381.426575	147.240000
381.520111	147.420000
381.613647	147.920000
381.707214	147.680000
381.800751	147.160000
381.894318	147.380000
381.987854	146.820000
382.081421	146.380000
382.174988	146.340000
382.268524	146.100000
382.362091	145.820000
382.455627	146.580000
382.549194	146.380000
382.642731	145.980000
382.736298	146.140000
382.829834	146.120000
382.923401	146.380000
383.016937	146.480000
383.110504	146.840000
383.204041	146.580000
383.297607	146.780000
383.391174	145.900000
383.484741	146.760000
383.578278	146.420000
383.671844	146.400000
383.765411	145.680000
383.858948	146.200000
383.952515	145.520000
384.046051	146.240000
384.139618	146.920000
384.233185	147.580000
384.326721	147.280000
384.420288	147.940000
384.513855	147.600000
384.607422	147.600000
384.700989	147.640000
384.794525	147.480000
384.888123	147.200000
384.981659	147.320000
385.075226	147.080000
385.168762	146.820000
385.262360	147.000000
385.355896	145.820000
385.449463	145.840000
385.542999	145.640000
385.636597	146.260000
385.730164	146.140000
385.823730	146.500000
385.917267	146.220000
386.010834	146.580000
386.104401	146.300000
386.197968	146.660000
386.291534	146.900000
386.385101	147.200000
386.478668	147.540000
386.572235	147.320000
386.665802	146.880000
386.759338	146.600000
386.852905	146.340000
386.946472	145.580000
387.040070	145.920000
387.133606	146.220000
387.227203	146.300000
387.320740	146.540000
387.414337	146.500000
387.507874	146.300000
387.601471	146.260000
387.695007	146.240000
387.788605	145.900000
387.882141	146.200000
387.975739	146.120000
388.069275	145.820000
388.162872	146.120000
388.256439	146.360000
388.350037	146.100000
388.443604	145.940000
388.537170	146.240000
388.630737	146.600000
388.724304	146.480000
388.817871	146.480000
388.911438	146.700000
389.005005	146.840000
389.098602	146.540000
389.192169	146.180000
389.285736	146.540000
389.379333	146.460000
389.472870	146.020000
389.566467	145.980000
389.660034	146.320000
389.753632	145.820000
389.847168	146.060000
389.940765	146.360000
390.034332	146.720000
390.127930	146.240000
390.221466	146.460000
390.315063	146.060000
390.408630	145.260000
390.502228	144.420000
390.595795	145.160000
390.689362	145.540000
390.782959	146.220000
390.876526	147.160000
390.970093	147.480000
391.063690	147.760000
391.157257	147.520000
391.250824	147.620000
391.344421	146.960000
391.437988	147.220000
391.531555	146.960000
391.625153	147.020000
391.718750	146.820000
391.812317	146.940000
391.905914	146.540000
391.999481	146.640000
392.093079	146.420000
392.186615	146.440000
392.280243	146.660000
392.373779	147.240000
392.467407	147.800000
392.560944	148.020000
392.654572	147.680000
392.748108	147.720000
392.841736	147.460000
392.935303	146.540000
393.028900	146.200000
393.122467	146.080000
393.216064	145.600000
393.309631	145.080000
393.403229	144.900000
393.496796	144.900000
393.590393	144.440000
393.683990	145.020000
393.777557	145.580000
393.871155	146.020000
393.964722	146.580000
394.058350	147.020000
394.151917	146.580000
394.245514	146.540000
394.339081	146.700000
394.432678	146.620000
394.526245	146.700000
394.619873	146.720000
394.713409	146.740000
394.807037	146.100000
394.900604	146.460000
394.994202	146.320000
395.087769	146.700000
395.181396	146.200000
395.274994	147.320000
395.368561	146.600000
395.462158	146.880000
395.555756	146.340000
395.649353	146.900000
395.742920	145.900000
395.836517	146.600000
395.930115	146.160000
396.023712	146.620000
396.117279	146.620000
396.210876	146.640000
396.304474	146.280000
396.398071	146.500000
396.491669	146.700000
396.585266	146.360000
396.678833	146.460000
396.772461	146.560000
396.866028	146.460000
396.959656	146.860000
397.053223	147.380000
397.146851	147.780000
397.240417	148.400000
397.334015	149.800000
397.427582	150.120000
397.521210	151.180000
397.614807	153.180000
397.708405	155.300000
397.802002	157.700000
397.895599	161.780000
397.989197	166.240000
398.082794	171.080000
398.176392	178.020000
398.269989	185.920000
398.363586	195.440000
398.457184	207.680000
398.550781	222.640000
398.644379	237.440000
398.737976	254.720000
398.831573	273.280000
398.925201	292.220000
399.018768	311.000000
399.112396	330.660000
399.205963	350.140000
399.299591	368.840000
399.393158	387.500000
399.486786	406.620000
399.580353	425.840000
399.673981	443.900000
399.767578	462.400000
399.861206	479.280000
399.954773	493.340000
400.048401	501.920000
400.141998	505.780000
400.235596	504.260000
400.329193	497.180000
400.422791	485.140000
400.516418	470.160000
400.610016	454.660000
400.703613	437.100000
400.797211	417.480000
400.890808	397.580000
400.984436	378.580000
401.078033	356.720000
401.171631	334.600000
401.265259	313.780000
401.358826	293.480000
401.452484	272.900000
401.546051	255.360000
401.639679	238.140000
401.733246	222.400000
401.826904	207.320000
401.920471	194.440000
402.014099	183.120000
402.107697	174.560000
402.201324	167.700000
402.294891	162.800000
402.388550	159.340000
402.482147	156.300000
402.575745	153.380000
402.669373	150.780000
402.762970	149.420000
402.856567	148.540000
402.950195	148.120000
403.043793	147.780000
403.137390	148.540000
403.231018	147.700000
403.324615	147.780000
403.418243	147.100000
403.511841	147.500000
403.605469	147.020000
403.699066	147.660000
403.792694	147.500000
403.886292	147.720000
403.979919	147.360000
404.073517	147.100000
404.167145	147.180000
404.260712	147.380000
404.354370	147.140000
404.447937	147.240000
404.541595	147.440000
404.635162	147.560000
404.728821	147.800000
404.822418	147.500000
404.916046	147.480000
405.009644	147.500000
405.103271	147.440000
405.196899	147.000000
405.290497	147.020000
405.384125	147.420000
405.477722	146.960000
405.571350	146.420000
405.664948	146.320000
405.758575	146.640000
405.852203	145.800000
405.945801	146.140000
406.039429	146.540000
406.133057	146.480000
406.226654	146.400000
406.320312	146.820000
406.413879	146.960000
406.507538	146.880000
406.601135	146.540000
406.694763	147.020000
406.788361	146.860000
406.882019	146.500000
406.975586	146.780000
407.069244	147.360000
407.162872	147.100000
407.256470	146.880000
407.350098	146.780000
407.443726	146.220000
407.537323	145.680000
407.630951	145.660000
407.724579	145.760000
407.818207	146.100000
407.911804	145.920000
408.005432	145.840000
408.099060	146.320000
408.192688	146.360000
408.286285	146.240000
408.379913	146.200000
408.473572	146.420000
408.567169	145.560000
408.660828	145.480000
408.754395	145.340000
408.848053	145.380000
408.941650	145.580000
409.035309	145.380000
409.128906	145.780000
409.222565	146.000000
409.316132	146.480000
409.409790	146.280000
409.503387	146.500000
409.597046	146.280000
409.690674	146.460000
409.784302	146.420000
409.877930	146.040000
409.971558	146.280000
410.065186	146.440000
410.158783	146.320000
410.252411	146.080000
410.346039	146.600000
410.439667	146.860000
410.533295	146.740000
410.626923	146.740000
410.720551	146.520000
410.814209	147.100000
410.907806	147.140000
411.001465	146.700000
411.095062	147.040000
411.188721	147.400000
411.282318	146.560000
411.375977	145.740000
411.469574	146.020000
411.563232	145.300000
411.656830	145.200000
411.750488	145.380000
411.844086	145.740000
411.937744	146.260000
412.031372	146.380000
412.125000	146.440000
412.218628	146.540000
412.312256	147.260000
412.405884	147.220000
412.499512	147.260000
412.593170	147.220000
412.686798	147.280000
412.780426	146.620000
412.874054	146.580000
412.967682	146.800000
413.061310	147.400000
413.154968	147.500000
413.248566	147.640000
413.342224	147.640000
413.435852	147.400000
413.529510	146.900000
413.623108	146.440000
413.716766	146.300000
413.810364	146.480000
413.904022	146.520000
413.997650	146.260000
414.091309	147.040000
414.184906	147.160000
414.278564	146.480000
414.372192	146.680000
414.465851	147.140000
414.559479	146.800000
414.653107	147.580000
414.746735	147.660000
414.840393	147.600000
414.934021	147.580000
415.027649	147.140000
415.121277	146.500000
415.214935	147.020000
415.308563	147.020000
415.402191	146.620000
415.495850	146.800000
415.589478	146.520000
415.683136	145.980000
415.776733	146.140000
415.870422	146.540000
415.964020	146.140000
416.057678	146.500000
416.151306	146.440000
416.244965	146.100000
416.338562	146.100000
416.432251	146.960000
416.525848	147.740000
416.619507	148.080000
416.713165	148.620000
416.806793	148.460000
416.900421	148.280000
416.994080	147.260000
417.087708	147.080000
417.181366	146.400000
417.274994	146.400000
417.368622	146.440000
417.462280	147.040000
417.555908	147.080000
417.649567	147.020000
417.743195	147.100000
417.836853	147.080000
417.930481	147.020000
418.024170	147.060000
418.117767	147.700000
418.211426	147.840000
418.305054	147.800000
418.398712	147.320000
418.492340	147.380000
418.585999	147.700000
418.679626	147.740000
418.773285	147.580000
418.866913	147.860000
418.960571	148.120000
419.054230	147.880000
419.147858	148.100000
419.241516	148.220000
419.335144	147.960000
419.428802	147.700000
419.522461	147.280000
419.616089	146.660000
419.709747	146.820000
419.803375	146.960000
419.897034	146.700000
419.990662	146.600000
420.084320	146.800000
420.177979	146.980000
420.271606	146.960000
420.365295	147.680000
420.458893	147.860000
420.552582	148.180000
420.646210	147.880000
420.739868	147.780000
420.833496	147.080000
420.927155	146.940000
421.020782	146.720000
421.114471	146.220000
421.208069	146.280000
421.301758	146.680000
421.395386	146.980000
421.489044	146.820000
421.582703	147.320000
421.676361	148.020000
421.769989	147.820000
421.863647	147.940000
421.957306	148.420000
422.050934	148.480000
422.144592	147.640000
422.238251	147.460000
422.331909	147.200000
422.425537	146.660000
422.519196	146.760000
422.612854	146.760000
422.706543	146.740000
422.800140	146.980000
422.893829	146.480000
422.987457	145.960000
423.081146	145.960000
423.174744	146.540000
423.268433	146.060000
423.362061	146.400000
423.455750	146.360000
423.549347	146.660000
423.643036	145.800000
423.736664	146.300000
423.830353	146.340000
423.924011	147.060000
424.017639	146.440000
424.111298	146.580000
424.204956	146.500000
424.298615	146.660000
424.392273	146.100000
424.485931	146.500000
424.579559	146.640000
424.673218	146.400000
424.766876	146.320000
424.860535	145.960000
424.954193	145.740000
425.047882	146.200000
425.141510	146.360000
425.235199	146.440000
425.328796	146.560000
425.422485	146.640000
425.516113	145.760000
425.609802	145.520000
425.703430	145.520000
425.797119	145.500000
425.890747	145.420000
425.984436	145.760000
426.078064	146.020000
426.171753	146.260000
426.265411	146.200000
426.359070	146.520000
426.452728	146.700000
426.546356	146.480000
426.640015	146.080000
426.733673	146.260000
426.827332	145.820000
426.920990	146.360000
427.014648	145.900000
427.108307	146.180000
427.201965	146.840000
427.295624	147.280000
427.389282	146.660000
427.482941	147.380000
427.576630	147.280000
427.670258	146.480000
427.763947	145.960000
427.857574	145.900000
427.951263	145.620000
428.044922	145.200000
428.138611	145.280000
428.232239	145.980000
428.325928	146.440000
428.419556	147.060000
428.513245	146.920000
428.606903	147.340000
428.700562	146.840000
428.794220	145.940000
428.887878	145.340000
428.981537	145.820000
429.075195	145.620000
429.168854	146.120000
429.262512	146.780000
429.356201	147.000000
429.449860	146.700000
429.543518	146.580000
429.637177	146.900000
429.730835	146.640000
429.824493	146.480000
429.918182	146.840000
430.011810	146.420000
430.105530	145.600000
430.199158	146.100000
430.292847	146.220000
430.386475	146.260000
430.480164	146.420000
430.573792	146.360000
430.667511	146.120000
430.761139	145.840000
430.854828	146.220000
430.948456	146.300000
431.042145	146.900000
431.135834	146.640000
431.229492	146.900000
431.323151	146.580000
431.416809	146.500000
431.510468	146.140000
431.604156	146.420000
431.697815	146.460000
431.791473	146.040000
431.885132	145.900000
431.978821	146.240000
432.072479	145.920000
432.166138	145.920000
432.259827	145.920000
432.353485	146.400000
432.447174	146.300000
432.540802	146.280000
432.634491	146.560000
432.728149	146.900000
432.821838	147.440000
432.915466	146.800000
433.009186	147.060000
433.102814	146.280000
433.196503	146.100000
433.290131	145.660000
433.383850	146.280000
433.477509	146.380000
433.571167	147.480000
433.664856	147.940000
433.758514	148.120000
433.852173	147.760000
433.945862	147.500000
434.039520	146.780000
434.133179	146.260000
434.226868	145.780000
434.320526	145.320000
434.414185	145.860000
434.507874	145.800000
434.601562	145.800000
434.695221	145.660000
434.788910	146.100000
434.882538	145.860000
434.976257	145.440000
435.069885	145.640000
435.163574	145.980000
435.257233	145.420000
435.350922	145.400000
435.444580	145.460000
435.538269	145.360000
435.631897	145.460000
435.725616	146.560000
435.819275	147.020000
435.912964	147.800000
436.006622	147.980000
436.100311	147.780000
436.193970	146.840000
436.287628	146.120000
436.381317	145.780000
436.474976	145.360000
436.568665	145.100000
436.662323	145.600000
436.756012	145.980000
436.849670	145.540000
436.943390	145.720000
437.037018	146.040000
437.130737	145.940000
437.224365	145.380000
437.318085	145.960000
437.411713	145.780000
437.505432	145.880000
437.599060	146.440000
437.692780	147.440000
437.786407	147.140000
437.880127	147.380000
437.973755	147.280000
438.067474	146.600000
438.161133	146.040000
438.254822	146.440000
438.348480	146.140000
438.442169	146.820000
438.535828	147.320000
438.629517	146.940000
438.723175	146.240000
438.816864	146.860000
438.910553	146.000000
439.004211	145.480000
439.097900	145.420000
439.191559	145.660000
439.285248	144.900000
439.378906	145.240000
439.472626	145.360000
439.566284	145.280000
439.659973	145.740000
439.753632	145.900000
439.847321	146.340000
439.940979	146.480000
440.034698	146.740000
440.128326	146.000000
440.222046	145.980000
440.315674	145.080000
440.409393	145.020000
440.503082	144.840000
440.596741	145.360000
440.690430	145.800000
440.784088	145.980000
440.877777	145.700000
440.971466	145.960000
441.065125	145.660000
441.158813	145.380000
441.252502	145.420000
441.346161	145.740000
441.439850	146.020000
441.533539	145.900000
441.627197	146.120000
441.720886	145.940000
441.814606	146.160000
441.908234	145.940000
442.001953	146.180000
442.095612	146.140000
442.189301	146.460000
442.282959	146.680000
442.376678	146.260000
442.470306	146.640000
442.564026	146.540000
442.657684	146.740000
442.751404	146.440000
442.845032	147.340000
442.938751	146.920000
443.032440	147.020000
443.126099	146.380000
443.219788	146.660000
443.313477	146.120000
443.407166	146.320000
443.500824	146.300000
443.594513	146.780000
443.688202	146.720000
443.781891	146.380000
443.875549	145.980000
443.969238	145.720000
444.062927	145.640000
444.156647	145.160000
444.250275	145.720000
444.343994	145.840000
444.437653	146.020000
444.531372	145.800000
444.625031	145.780000
444.718719	145.260000
444.812378	145.320000
444.906097	145.140000
444.999756	144.760000
445.093445	144.940000
445.187103	145.180000
445.280823	145.620000
445.374512	145.280000
445.468201	146.000000
445.561859	145.800000
445.655548	145.940000
445.749237	145.320000
445.842926	146.020000
445.936615	146.120000
446.030304	146.260000
446.123962	146.580000
446.217651	146.720000
446.311340	146.660000
446.405029	146.300000
446.498749	145.920000
446.592407	145.440000
446.686096	145.660000
446.779755	145.520000
446.873474	145.820000
446.967133	146.140000
447.060852	146.000000
447.154510	145.820000
447.248230	146.000000
447.341858	145.960000
447.435577	145.780000
447.529236	145.460000
447.622955	145.400000
447.716644	145.520000
447.810333	145.480000
447.904022	146.040000
447.997711	146.360000
448.091400	146.460000
448.185059	146.340000
448.278748	146.520000
448.372437	146.120000
448.466125	146.300000
448.559814	146.420000
448.653503	146.600000
448.747192	146.720000
448.840912	147.140000
448.934570	147.040000
449.028290	147.300000
449.121948	146.940000
449.215637	146.580000
449.309296	146.060000
449.403015	146.100000
449.496674	145.920000
449.590393	145.920000
449.684052	145.400000
449.777771	146.260000
449.871429	145.940000
449.965149	145.740000
450.058838	145.880000
450.152527	146.880000
450.246216	146.320000
450.339905	146.480000
450.433594	146.460000
450.527283	147.300000
450.620972	146.800000
450.714661	147.000000
450.808350	147.200000
450.902039	147.420000
450.995728	147.020000
451.089417	146.680000
451.183105	146.420000
451.276794	146.900000
451.370514	146.520000
451.464172	145.860000
451.557892	145.940000
451.651550	146.220000
451.745270	145.660000
451.838928	145.200000
451.932648	145.600000
452.026306	146.080000
452.120026	145.720000
452.213684	146.200000
452.307404	146.820000
452.401062	146.900000
452.494781	146.840000
452.588470	147.120000
452.682159	146.460000
452.775848	146.500000
452.869537	146.100000
452.963226	145.780000
453.056915	145.560000
453.150604	145.600000
453.244293	145.720000
453.337982	146.380000
453.431671	146.860000
453.525360	147.100000
453.619049	147.200000
453.712769	147.140000
453.806427	146.180000
453.900146	145.560000
453.993805	145.160000
454.087555	145.680000
454.181213	145.720000
454.274933	145.900000
454.368591	146.120000
454.462311	146.260000
454.555969	145.780000
454.649689	146.380000
454.743347	146.420000
454.837067	146.820000
454.930756	147.360000
455.024445	147.560000
455.118134	147.080000
455.211853	147.280000
455.305542	146.760000
455.399231	146.180000
455.492920	146.040000
455.586609	146.140000
455.680298	146.260000
455.773987	146.240000
455.867676	146.460000
455.961365	146.880000
456.055084	146.580000
456.148773	146.420000
456.242493	146.420000
456.336151	146.340000
456.429871	146.180000
456.523529	146.720000
456.617249	146.340000
456.710907	147.180000
456.804626	147.260000
456.898315	146.940000
456.992035	146.400000
457.085693	146.500000
457.179413	145.560000
457.273102	146.100000
457.366791	146.280000
457.460480	146.700000
457.554199	147.340000
457.647888	147.680000
457.741577	146.980000
457.835266	146.940000
457.928955	146.720000
458.022644	146.820000
458.116364	147.340000
458.210052	147.400000
458.303741	147.660000
458.397461	147.360000
458.491119	146.620000
458.584839	146.140000
458.678528	145.860000
458.772247	145.680000
458.865906	146.060000
458.959625	146.900000
459.053284	147.000000
459.147003	146.900000
459.240692	147.400000
459.334412	147.440000
459.428070	147.000000
459.521790	146.620000
459.615479	146.820000
459.709198	147.000000
459.802887	146.740000
459.896576	146.360000
459.990265	146.700000
460.083954	146.960000
460.177673	145.920000
460.271362	146.000000
460.365051	146.320000
460.458740	146.120000
460.552429	145.920000
460.646149	146.280000
460.739838	145.940000
460.833527	146.120000
460.927246	146.120000
461.020905	146.060000
461.114655	146.040000
461.208313	146.480000
461.302032	145.860000
461.395691	146.140000
461.489441	146.440000
461.583099	146.460000
461.676819	146.060000
461.770477	146.660000
461.864197	146.200000
461.957916	145.700000
462.051605	145.120000
462.145294	146.100000
462.238983	145.660000
462.332703	146.380000
462.426392	147.120000
462.520081	147.340000
462.613770	146.860000
462.707489	147.300000
462.801178	146.740000
462.894867	146.460000
462.988556	146.700000
463.082275	146.600000
463.175964	145.920000
463.269684	146.120000
463.363342	145.880000
463.457092	145.300000
463.550751	145.440000
463.644470	146.080000
463.738129	145.860000
463.831879	146.140000
463.925537	147.040000
464.019257	146.780000
464.112946	146.640000
464.206665	146.760000
464.300323	146.680000
464.394043	146.600000
464.487762	146.720000
464.581451	146.620000
464.675140	146.800000
464.768829	147.100000
464.862549	146.980000
464.956238	147.160000
465.049927	147.280000
465.143646	147.120000
465.237335	146.780000
465.331024	147.380000
465.424713	147.320000
465.518433	147.360000
465.612152	147.220000
465.705811	147.140000
465.799561	146.340000
465.893219	145.980000
465.986938	145.880000
466.080597	145.660000
466.174347	145.960000
466.268005	146.340000
466.361725	146.460000
466.455414	146.700000
466.549133	146.620000
466.642792	146.700000
466.736542	146.140000
466.830231	146.300000
466.923920	145.880000
467.017609	146.040000
467.111328	145.600000
467.205017	145.780000
467.298706	145.480000
467.392426	146.140000
467.486115	146.460000
467.579803	146.500000
467.673523	146.920000
467.767212	147.160000
467.860901	146.680000
467.954651	146.980000
468.048309	147.080000
468.142029	146.820000
468.235718	146.880000
468.329437	146.760000
468.423096	146.440000
468.516846	146.280000
468.610504	145.920000
468.704224	145.540000
468.797913	145.240000
468.891632	145.280000
468.985291	145.220000
469.079010	145.620000
469.172729	145.420000
469.266418	146.200000
469.360107	146.100000
469.453827	146.140000
469.547516	145.940000
469.641205	146.640000
469.734924	146.340000
469.828613	146.960000
469.922302	147.120000
470.016022	147.200000
470.109711	146.660000
470.203430	146.300000
470.297150	145.240000
470.390808	145.300000
470.484558	145.240000
470.578217	145.820000
470.671936	146.460000
470.765625	147.180000
470.859344	146.720000
470.953003	146.980000
471.046753	146.460000
471.140411	145.620000
471.234131	145.780000
471.327820	146.560000
471.421539	146.700000
471.515228	146.500000
471.608948	147.120000
471.702637	146.480000
471.796326	146.120000
471.890045	146.200000
471.983734	146.420000
472.077423	146.040000
472.171143	146.200000
472.264832	146.140000
472.358521	145.340000
472.452240	144.980000
472.545929	145.420000
472.639648	145.740000
472.733337	146.220000
472.827057	146.640000
472.920746	147.040000
473.014465	147.180000
473.108124	147.100000
473.201874	146.940000
473.295532	146.940000
473.389252	147.200000
473.482941	147.240000
473.576660	146.860000
473.670319	146.420000
473.764069	146.720000
473.857727	146.840000
473.951477	146.820000
474.045166	147.540000
474.138855	147.600000
474.232574	147.240000
474.326263	147.400000
474.419952	147.680000
474.513672	147.400000
474.607361	147.560000
474.701050	147.840000
474.794769	147.920000
474.888458	148.020000
474.982178	147.960000
475.075867	148.000000
475.169586	147.940000
475.263275	147.460000
475.356995	147.020000
475.450653	146.500000
475.544403	146.300000
475.638062	146.960000
475.731812	146.400000
475.825470	146.060000
475.919189	146.640000
476.012878	146.880000
476.106598	146.040000
476.200256	146.600000
476.294006	146.800000
476.387695	146.580000
476.481384	146.320000
476.575104	146.240000
476.668793	145.960000
476.762512	145.420000
476.856201	145.860000
476.949890	145.800000
477.043610	145.380000
477.137299	145.560000
477.230988	146.240000
477.324707	145.860000
477.418396	146.520000
477.512146	146.940000
477.605804	146.820000
477.699524	146.560000
477.793213	146.620000
477.886932	146.120000
477.980591	145.980000
478.074341	145.840000
478.167999	145.820000
478.261749	145.500000
478.355408	145.260000
478.449127	145.700000
478.542816	146.880000
478.636536	147.760000
478.730225	147.900000
478.823944	148.420000
478.917633	148.440000
479.011322	148.160000
479.105042	147.640000
479.198730	148.120000
479.292450	147.760000
479.386139	147.780000
479.479828	147.500000
479.573547	147.780000
479.667267	147.220000
479.760925	147.120000
479.854675	147.040000
479.948334	146.880000
480.042084	146.420000
480.135742	146.900000
480.229462	146.720000
480.323151	146.940000
480.416870	146.580000
480.510529	146.540000
480.604279	146.000000
480.697937	146.480000
480.791656	145.880000
480.885345	145.840000
480.979065	145.340000
481.072754	145.900000
481.166473	146.160000
481.260132	146.340000
481.353882	146.480000
481.447540	146.760000
481.541260	146.620000
481.635010	145.960000
481.728668	145.940000
481.822388	145.800000
481.916077	145.960000
482.009796	145.920000
482.103485	146.560000
482.197205	146.560000
482.290863	146.740000
482.384613	146.240000
482.478271	145.820000
482.571991	145.320000
482.665680	145.480000
482.759399	146.300000
482.853058	146.980000
482.946808	147.100000
483.040466	147.180000
483.134216	146.860000
483.227875	145.980000
483.321594	146.300000
483.415283	146.400000
483.509003	146.200000
483.602661	146.140000
483.696411	146.360000
483.790070	146.080000
483.883789	145.860000
483.977478	146.280000
484.071198	146.280000
484.164917	145.880000
484.258606	144.980000
484.352325	145.540000
484.445984	145.440000
484.539734	145.540000
484.633392	145.460000
484.727142	146.460000
484.820801	145.800000
484.914520	145.660000
485.008209	145.980000
485.101929	146.780000
485.195587	146.140000
485.289337	146.300000
485.382996	146.600000
485.476715	146.280000
485.570404	146.540000
485.664124	146.800000
485.757782	147.380000
485.851532	146.760000
485.945190	146.860000
486.038910	146.340000
486.132599	146.700000
486.226318	145.960000
486.319977	145.900000
486.413727	146.480000
486.507446	146.020000
486.601105	145.220000
486.694855	145.200000
486.788513	145.300000
486.882233	144.980000
486.975922	145.060000
487.069641	145.220000
487.163300	145.520000
487.257050	146.960000
487.350708	146.660000
487.444427	146.700000
487.538116	146.840000
487.631836	146.900000
487.725494	146.040000
487.819214	146.120000
487.912903	146.060000
488.006622	146.280000
488.100281	146.360000
488.194031	146.060000
488.287689	146.360000
488.381409	146.980000
488.475098	146.560000
488.568817	146.400000
488.662476	146.340000
488.756226	145.500000
488.849945	144.480000
488.943604	144.580000
489.037354	144.880000
489.131012	144.780000
489.224731	144.820000
489.318390	145.060000
489.412140	145.500000
489.505798	145.100000
489.599518	145.060000
489.693207	145.620000
489.786926	145.900000
489.880585	145.600000
489.974335	145.840000
490.067993	147.020000
490.161713	147.180000
490.255371	147.840000
490.349121	148.160000
490.442780	147.980000
490.536499	146.760000
490.630188	146.760000
490.723907	146.020000
490.817566	145.860000
490.911285	145.940000
491.004974	146.140000
491.098694	145.840000
491.192413	146.460000
491.286102	146.140000
491.379822	146.400000
491.473480	146.460000
491.567200	146.660000
491.660889	146.220000
491.754608	146.480000
491.848267	145.940000
491.941986	146.060000
492.035675	145.960000
492.129395	146.220000
492.223053	146.120000
492.316772	146.480000
492.410461	146.320000
492.504181	146.320000
492.597839	145.660000
492.691559	145.800000
492.785248	145.920000
492.878967	145.980000
492.972626	145.740000
493.066345	146.200000
493.160034	145.980000
493.253754	145.860000
493.347412	145.280000
493.441132	145.480000
493.534882	145.940000
493.628540	146.340000
493.722260	146.340000
493.815918	146.980000
493.909668	147.420000
494.003326	147.560000
494.097046	147.120000
494.190704	146.800000
494.284454	146.960000
494.378113	146.560000
494.471832	145.900000
494.565491	145.760000
494.659210	146.220000
494.752899	145.980000
494.846619	145.960000
494.940277	146.280000
495.033997	146.380000
495.127686	145.880000
495.221405	145.620000
495.315063	145.620000
495.408783	145.760000
495.502441	146.100000
495.596191	146.520000
495.689850	146.440000
495.783569	146.840000
495.877228	146.600000
495.970947	146.060000
496.064697	145.940000
496.158356	146.900000
496.252075	146.640000
496.345734	146.240000
496.439453	147.300000
496.533142	147.140000
496.626862	147.200000
496.720520	147.340000
496.814240	147.980000
496.907898	147.220000
497.001617	147.760000
497.095306	146.760000
497.189026	146.440000
497.282684	146.180000
497.376404	146.660000
497.470062	146.180000
497.563782	146.660000
497.657471	146.900000
497.751190	146.680000
497.844849	146.360000
497.938568	146.640000
498.032227	146.360000
498.125946	146.200000
498.219635	146.200000
498.313354	146.600000
498.407074	146.360000
498.500732	146.960000
498.594452	147.220000
498.688110	147.040000
498.781830	146.360000
498.875519	146.340000
498.969238	145.740000
499.062897	145.460000
499.156616	145.960000
499.250275	146.340000
499.343994	146.020000
499.437653	146.280000
499.531372	146.420000
499.625061	146.820000
499.718781	147.020000
499.812439	147.620000
499.906158	147.200000
499.999817	147.080000
500.093536	146.260000
500.187195	145.980000
500.280914	146.080000
500.374573	146.460000
500.468323	146.360000
500.561981	146.900000
500.655701	146.640000
500.749420	146.380000
500.843079	146.740000
500.936798	147.020000
501.030457	147.480000
501.124176	147.960000
501.217834	147.940000
501.311554	147.600000
501.405212	147.620000
501.498962	146.460000
501.592621	146.360000
501.686340	146.520000
501.779999	146.820000
501.873718	146.580000
501.967377	146.840000
502.061096	147.000000
502.154755	146.420000
502.248474	146.080000
502.342133	146.240000
502.435852	146.220000
502.529510	146.780000
502.623230	147.700000
502.716888	147.320000
502.810608	147.320000
502.904266	147.920000
502.997986	146.940000
503.091705	146.180000
503.185364	146.580000
503.279083	146.420000
503.372772	146.120000
503.466492	146.100000
503.560150	146.460000
503.653870	146.680000
503.747528	146.820000
503.841248	146.600000
503.934906	146.920000
504.028625	146.480000
504.122284	146.440000
504.216003	147.060000
504.309662	146.660000
504.403381	146.960000
504.497040	147.140000
504.590759	146.760000
504.684418	146.460000
504.778137	147.260000
504.871796	147.260000
504.965515	147.080000
505.059174	147.320000
505.152893	146.860000
505.246521	146.320000
505.340240	145.640000
505.433899	146.000000
505.527618	145.960000
505.621338	146.320000
505.714996	146.380000
505.808716	146.800000
505.902374	147.100000
505.996094	147.320000
506.089752	146.900000
506.183472	147.060000
506.277130	146.800000
506.370850	146.660000
506.464508	146.260000
506.558228	146.580000
506.651886	146.540000
506.745605	146.740000
506.839264	146.740000
506.932983	146.960000
507.026611	146.980000
507.120331	147.420000
507.213989	147.120000
507.307709	146.960000
507.401367	147.060000
507.495087	147.800000
507.588745	147.260000
507.682465	148.100000
507.776123	148.400000
507.869843	148.180000
507.963531	147.520000
508.057190	147.880000
508.150909	147.140000
508.244568	147.160000
508.338287	146.980000
508.431946	146.660000
508.525665	146.440000
508.619324	146.400000
508.713013	146.220000
508.806671	146.800000
508.900391	147.680000
508.994049	148.000000
509.087769	147.780000
509.181427	147.720000
509.275146	147.080000
509.368774	146.080000
509.462494	145.500000
509.556152	145.680000
509.649872	145.900000
509.743530	146.420000
509.837250	146.740000
509.930878	147.000000
510.024597	146.820000
510.118256	146.660000
510.211975	146.320000
510.305695	146.080000
510.399353	146.300000
510.493042	146.920000
510.586700	147.300000
510.680420	147.920000
510.774078	147.900000
510.867798	148.020000
510.961426	147.280000
511.055145	146.800000
511.148804	146.200000
511.242523	146.540000
511.336151	146.480000
511.429871	147.160000
511.523529	147.260000
511.617249	147.040000
511.710876	146.700000
511.804596	146.340000
511.898254	146.080000
511.991974	146.160000
512.085632	146.320000
512.179321	146.940000
512.272949	147.260000
512.366699	147.540000
512.460327	147.460000
512.554077	148.340000
512.647766	147.840000
512.741394	147.500000
512.835144	147.820000
512.928772	147.500000
513.022461	147.280000
513.116150	147.220000
513.209839	147.960000
513.303467	147.360000
513.397217	146.920000
513.490845	146.420000
513.584595	146.380000
513.678223	145.580000
513.771912	145.040000
513.865601	145.680000
513.959290	145.540000
514.052917	145.520000
514.146667	146.360000
514.240295	147.020000
514.333984	147.200000
514.427673	147.020000
514.521362	147.360000
514.614990	146.560000
514.708740	146.580000
514.802368	146.640000
514.896057	147.160000
514.989746	147.620000
515.083435	147.720000
515.177124	147.760000
515.270752	147.380000
515.364502	147.080000
515.458130	146.860000
515.551819	146.660000
515.645508	146.540000
515.739197	146.540000
515.832825	146.520000
515.926575	145.800000
516.020203	146.340000
516.113892	147.160000
516.207520	147.340000
516.301270	147.660000
516.394897	148.080000
516.488586	148.020000
516.582275	147.340000
516.675964	146.660000
516.769592	146.580000
516.863281	147.340000
516.956970	147.560000
517.050659	147.320000
517.144287	147.860000
517.238037	147.780000
517.331665	146.580000
517.425354	146.160000
517.519043	146.200000
517.612732	146.360000
517.706421	146.540000
517.800049	146.680000
517.893738	146.360000
517.987427	146.380000
518.081116	146.120000
518.174744	145.540000
518.268433	145.860000
518.362122	146.420000
518.455811	146.400000
518.549438	147.060000
518.643127	148.080000
518.736816	147.880000
518.830505	147.580000
518.924133	147.700000
519.017822	147.700000
519.111511	147.340000
519.205200	147.900000
519.298828	147.700000
519.392517	147.180000
519.486206	147.180000
519.579895	147.020000
519.673523	146.520000
519.767212	146.640000
519.860901	147.440000
519.954590	146.940000
520.048279	146.600000
520.141907	146.540000
520.235596	147.340000
520.329224	147.180000
520.422974	147.220000
520.516602	147.380000
520.610291	147.140000
520.703918	147.060000
520.797607	146.700000
520.891296	146.640000
520.984985	146.720000
521.078613	147.320000
521.172302	146.320000
521.265930	147.100000
521.359680	147.900000
521.453308	147.700000
521.546997	147.780000
521.640625	148.260000
521.734314	147.580000
521.827942	146.960000
521.921692	147.560000
522.015320	147.220000
522.109009	146.920000
522.202698	146.940000
522.296326	146.760000
522.390015	146.600000
522.483704	146.860000
522.577393	146.900000
522.671021	146.980000
522.764709	146.600000
522.858337	146.940000
522.952026	146.680000
523.045654	147.400000
523.139404	147.840000
523.233032	148.260000
523.326721	147.980000
523.420349	148.200000
523.514038	147.580000
523.607666	147.700000
523.701355	147.560000
523.795044	147.540000
523.888733	147.520000
523.982361	147.880000
524.076050	147.360000
524.169678	147.500000
524.263367	147.020000
524.356995	146.720000
524.450684	146.420000
524.544373	146.060000
524.638062	146.320000
524.731750	146.800000
524.825378	146.800000
524.919067	146.380000
525.012695	146.700000
525.106384	146.160000
525.200012	146.060000
525.293701	146.000000
525.387329	146.360000
525.481018	146.260000
525.574646	146.880000
525.668396	146.660000
525.762024	146.960000
525.855713	147.420000
525.949341	147.100000
526.043030	147.100000
526.136658	147.060000
526.230347	147.020000
526.323975	146.240000
526.417664	146.800000
526.511292	146.720000
526.604980	146.580000
526.698608	146.500000
526.792297	146.880000
526.885925	146.800000
526.979614	146.600000
527.073303	146.600000
527.166931	146.480000
527.260620	146.720000
527.354309	147.040000
527.447998	147.420000
527.541626	147.400000
527.635315	147.400000
527.728943	147.800000
527.822632	148.140000
527.916260	147.620000
528.009949	147.900000
528.103577	148.060000
528.197266	147.020000
528.290894	146.760000
528.384583	146.860000
528.478210	146.920000
528.571899	146.960000
528.665527	147.920000
528.759216	147.540000
528.852844	147.800000
528.946533	147.760000
529.040161	147.560000
529.133850	147.000000
529.227478	147.140000
529.321167	147.220000
529.414856	147.320000
529.508484	148.100000
529.602173	147.700000
529.695801	147.440000
529.789490	147.220000
529.883057	147.140000
529.976746	146.920000
530.070374	147.560000
530.164062	147.740000
530.257690	148.140000
530.351379	148.260000
530.445007	148.000000
530.538696	147.440000
530.632324	147.740000
530.726013	147.560000
530.819641	147.620000
530.913330	147.680000
531.006958	147.940000
531.100647	147.900000
531.194275	147.620000
531.287964	147.140000
531.381592	146.880000
531.475220	146.900000
531.568848	146.800000
531.662537	146.720000
531.756226	147.640000
531.849854	147.580000
531.943542	147.680000
532.037170	146.860000
532.130859	147.540000
532.224487	146.660000
532.318176	146.520000
532.411804	146.840000
532.505432	147.360000
532.599060	146.640000
532.692749	146.980000
532.786377	147.560000
532.880066	147.020000
532.973694	146.880000
533.067383	146.860000
533.161011	146.780000
533.254639	146.580000
533.348267	146.700000
533.441956	146.860000
533.535583	147.000000
533.629272	147.020000
533.722900	146.520000
533.816589	146.580000
533.910156	146.960000
534.003845	146.840000
534.097534	147.080000
534.191162	147.900000
534.284851	148.120000
534.378479	147.620000
534.472107	147.640000
534.565735	147.300000
534.659424	147.280000
534.753052	147.240000
534.846741	147.100000
534.940369	147.940000
535.033997	147.920000
535.127625	147.840000
535.221313	148.100000
535.314941	148.480000
535.408630	147.640000
535.502197	147.940000
535.595886	147.440000
535.689514	146.800000
535.783203	146.880000
535.876831	147.400000
535.970459	147.340000
536.064087	147.160000
536.157776	147.560000
536.251404	147.740000
536.345093	147.420000
536.438721	147.340000
536.532349	147.700000
536.626038	147.200000
536.719666	147.120000
536.813293	146.860000
536.906921	146.840000
537.000610	147.220000
537.094238	147.640000
537.187866	147.460000
537.281494	147.400000
537.375183	147.500000
537.468811	146.880000
537.562439	146.540000
537.656067	146.660000
537.749756	146.600000
537.843384	146.680000
537.937012	147.060000
538.030640	147.180000
538.124329	146.940000
538.217896	147.560000
538.311584	147.500000
538.405212	147.260000
538.498901	147.740000
538.592468	148.560000
538.686157	147.960000
538.779785	147.540000
538.873413	147.400000
538.967102	146.780000
539.060730	145.900000
539.154358	146.360000
539.247986	146.480000
539.341675	146.640000
539.435242	146.620000
539.528931	146.980000
539.622559	146.640000
539.716187	147.400000
539.809814	147.460000
539.903503	147.800000
539.997070	147.460000
540.090759	147.600000
540.184387	147.040000
540.278015	147.480000
540.371643	147.480000
540.465332	147.520000
540.558899	147.240000
540.652588	147.140000
540.746216	146.620000
540.839844	146.600000
540.933472	146.800000
541.027100	146.960000
541.120728	146.860000
541.214417	147.220000
541.308044	147.340000
541.401672	147.060000
541.495300	147.100000
541.588928	147.340000
541.682617	147.120000
541.776184	146.840000
541.869873	147.060000
541.963440	147.140000
542.057129	147.100000
542.150757	146.920000
542.244385	146.760000
542.338013	146.480000
542.431641	146.260000
542.525269	146.240000
542.618958	146.840000
542.712524	147.120000
542.806213	147.140000
542.899780	147.420000
542.993469	146.980000
543.087036	146.500000
543.180725	146.160000
543.274292	146.420000
543.367981	146.640000
543.461548	147.360000
543.555237	147.060000
543.648926	147.580000
543.742493	148.280000
543.836182	148.120000
543.929749	147.720000
544.023437	148.100000
544.117004	148.040000
544.210693	147.700000
544.304260	147.520000
544.397949	147.540000
544.491516	147.700000
544.585205	147.520000
544.678772	146.880000
544.772461	147.240000
544.866028	147.300000
544.959717	147.380000
545.053284	147.260000
545.146973	147.840000
545.240540	147.500000
545.334229	147.820000
545.427795	147.760000
545.521423	148.040000
545.615051	147.660000
545.708679	148.080000
545.802307	148.020000
545.895935	148.180000
545.989624	148.520000
546.083191	148.440000
546.176880	148.180000
546.270447	147.540000
546.364136	147.500000
546.457703	147.060000
546.551331	147.200000
546.644958	147.340000
546.738586	147.840000
546.832214	147.540000
546.925842	147.560000
547.019409	147.780000
547.113098	147.360000
547.206665	146.920000
547.300354	147.000000
547.393921	147.060000
547.487549	147.040000
547.581177	147.120000
547.674805	147.380000
547.768433	147.000000
547.862061	147.120000
547.955627	146.680000
548.049316	147.020000
548.142883	147.300000
548.236572	147.720000
548.330139	147.700000
548.423767	147.540000
548.517456	147.520000
548.611023	147.520000
548.704651	146.860000
548.798279	146.900000
548.891907	147.560000
548.985474	147.400000
549.079163	147.480000
549.172729	147.820000
549.266357	147.020000
549.359985	146.920000
549.453613	146.680000
549.547180	146.120000
549.640869	146.500000
549.734436	146.760000
549.828064	146.980000
549.921631	146.900000
550.015320	146.700000
550.108887	146.900000
550.202515	147.040000
550.296143	146.240000
550.389771	146.420000
550.483337	146.600000
550.576965	146.200000
550.670593	146.760000
550.764221	146.960000
550.857849	146.600000
550.951477	146.380000
551.045105	145.960000
551.138672	145.780000
551.232300	145.440000
551.325928	146.000000
551.419556	146.400000
551.513123	146.820000
551.606750	146.360000
551.700378	146.720000
551.794006	146.380000
551.887573	146.380000
551.981201	146.620000
552.074768	146.600000
552.168457	146.500000
552.262024	147.520000
552.355652	147.400000
552.449219	147.560000
552.542847	147.720000
552.636475	147.420000
552.730103	146.360000
552.823669	146.500000
552.917297	145.920000
553.010864	145.820000
553.104553	146.400000
553.198181	146.300000
553.291748	146.500000
553.385376	146.780000
553.478943	146.780000
553.572571	146.720000
553.666199	147.140000
553.759827	146.740000
553.853394	146.240000
553.947021	146.380000
554.040588	146.240000
554.134216	146.100000
554.227783	146.940000
554.321411	147.680000
554.415039	147.320000
554.508667	147.320000
554.602234	147.520000
554.695862	146.740000
554.789429	146.380000
554.883057	146.760000
554.976624	146.700000
555.070251	146.600000
555.163818	146.820000
555.257507	146.860000
555.351074	146.760000
555.444702	148.160000
555.538330	147.900000
555.631897	148.120000
555.725525	147.960000
555.819092	147.940000
555.912720	146.320000
556.006287	146.800000
556.099915	146.380000
556.193481	146.180000
556.287109	146.060000
556.380676	146.280000
556.474304	146.180000
556.567871	146.500000
556.661499	146.520000
556.755066	146.720000
556.848694	146.820000
556.942261	146.580000
557.035889	146.720000
557.129517	147.020000
557.223145	147.480000
557.316711	147.900000
557.410339	147.960000
557.503906	147.580000
557.597473	147.820000
557.691040	147.040000
557.784668	146.480000
557.878296	146.800000
557.971863	146.880000
558.065491	146.540000
558.159058	146.620000
558.252686	147.260000
558.346252	147.380000
558.439880	146.980000
558.533447	147.060000
558.627075	146.820000
558.720642	146.120000
558.814270	145.920000
558.907837	146.240000
559.001465	145.960000
559.095032	146.820000
559.188660	147.060000
559.282227	146.520000
559.375854	146.900000
559.469360	146.740000
559.562988	146.880000
559.656555	146.940000
559.750183	147.400000
559.843750	147.160000
559.937378	147.580000
560.030945	147.180000
560.124573	0.000000
560.218140	0.000000
560.311707	0.000000
560.405334	0.000000
560.498901	0.000000
560.592529	0.000000
560.686096	0.000000
560.779724	0.000000
560.873291	0.000000
560.966858	0.000000
561.060425	0.000000
561.154053	0.000000
561.247620	0.000000
561.341248	0.000000
561.434814	0.000000
561.528381	0.000000
561.621948	0.000000
561.715576	0.000000
561.809143	0.000000
561.902771	0.000000
561.996277	0.000000
562.089905	0.000000
562.183472	0.000000
562.277100	0.000000
