Model Number: SPM-002-B   
Serial Number: 70087108
Firmware Version: 004.15.4
Exposure Time: 100000.000000us
Data Taken on: 11-12-2020 19:38:32.228
Wavelength	Amplitude
221.570786	0.000000
221.663406	0.000000
221.756027	0.000000
221.848648	0.000000
221.941269	0.000000
222.033905	0.000000
222.126526	0.000000
222.219162	0.000000
222.311798	0.000000
222.404419	0.000000
222.497055	0.000000
222.589676	0.000000
222.682312	0.000000
222.774933	0.000000
222.867569	0.000000
222.960205	0.000000
223.052841	0.000000
223.145462	0.000000
223.238098	0.000000
223.330734	0.000000
223.423386	0.000000
223.516022	0.000000
223.608658	0.000000
223.701309	0.000000
223.793945	0.000000
223.886581	0.000000
223.979218	0.000000
224.071869	0.000000
224.164505	0.000000
224.257156	0.000000
224.349792	0.000000
224.442444	0.000000
224.535095	0.000000
224.627747	0.000000
224.720398	0.000000
224.813034	0.000000
224.905685	0.000000
224.998337	145.660000
225.090988	145.560000
225.183640	145.300000
225.276291	144.800000
225.368942	145.080000
225.461594	145.820000
225.554245	145.800000
225.646912	145.760000
225.739578	146.500000
225.832230	146.980000
225.924896	146.240000
226.017548	146.940000
226.110199	147.740000
226.202866	147.240000
226.295532	147.160000
226.388184	147.180000
226.480850	146.500000
226.573517	145.780000
226.666168	145.880000
226.758835	145.900000
226.851501	146.320000
226.944183	146.500000
227.036850	146.160000
227.129517	146.100000
227.222183	145.980000
227.314850	145.720000
227.407516	145.760000
227.500198	146.720000
227.592865	146.460000
227.685532	146.460000
227.778214	146.160000
227.870880	146.420000
227.963562	146.400000
228.056229	146.740000
228.148926	146.560000
228.241592	147.360000
228.334274	147.000000
228.426956	146.760000
228.519638	146.540000
228.612305	146.400000
228.704987	145.960000
228.797668	145.960000
228.890350	145.600000
228.983032	145.360000
229.075714	145.940000
229.168396	146.100000
229.261108	146.040000
229.353790	146.040000
229.446472	146.440000
229.539169	146.100000
229.631851	145.540000
229.724533	145.780000
229.817230	146.160000
229.909912	146.800000
230.002609	146.740000
230.095306	146.980000
230.187988	146.660000
230.280685	146.460000
230.373383	145.440000
230.466095	145.120000
230.558792	145.260000
230.651474	145.280000
230.744171	145.140000
230.836868	145.080000
230.929581	145.560000
231.022278	145.680000
231.114975	145.980000
231.207672	145.760000
231.300369	146.440000
231.393082	146.560000
231.485779	146.300000
231.578506	146.160000
231.671204	146.660000
231.763916	146.300000
231.856613	146.180000
231.949326	146.360000
232.042023	146.300000
232.134735	146.020000
232.227448	145.780000
232.320160	146.200000
232.412872	146.020000
232.505585	146.700000
232.598297	147.180000
232.691010	147.480000
232.783722	146.980000
232.876450	147.800000
232.969162	147.120000
233.061874	146.640000
233.154587	146.220000
233.247314	146.380000
233.340027	145.340000
233.432739	145.960000
233.525467	145.620000
233.618179	146.020000
233.710907	145.820000
233.803635	146.280000
233.896347	145.880000
233.989090	146.620000
234.081818	146.400000
234.174545	146.740000
234.267258	146.500000
234.359985	146.420000
234.452713	146.160000
234.545441	146.260000
234.638168	145.840000
234.730896	146.120000
234.823639	146.100000
234.916367	146.600000
235.009094	146.580000
235.101822	146.600000
235.194580	146.480000
235.287308	146.240000
235.380051	145.580000
235.472778	146.100000
235.565521	146.500000
235.658249	146.400000
235.750992	146.860000
235.843719	147.000000
235.936462	146.840000
236.029205	146.320000
236.121948	146.160000
236.214691	146.120000
236.307449	146.580000
236.400192	146.220000
236.492935	146.480000
236.585678	146.420000
236.678421	146.040000
236.771164	146.000000
236.863907	146.340000
236.956665	146.240000
237.049408	147.840000
237.142151	147.860000
237.234909	148.160000
237.327652	148.160000
237.420410	148.020000
237.513153	147.140000
237.605927	147.300000
237.698669	146.540000
237.791428	146.000000
237.884186	146.840000
237.976944	146.300000
238.069702	146.540000
238.162445	146.440000
238.255203	146.800000
238.347961	146.620000
238.440720	146.840000
238.533478	146.560000
238.626266	146.520000
238.719025	146.400000
238.811783	145.840000
238.904541	145.540000
238.997314	145.440000
239.090073	145.180000
239.182831	145.660000
239.275604	146.600000
239.368362	146.440000
239.461136	146.880000
239.553909	147.060000
239.646667	146.440000
239.739441	146.000000
239.832214	146.680000
239.925003	146.580000
240.017761	147.000000
240.110535	147.800000
240.203308	147.260000
240.296082	146.840000
240.388855	146.800000
240.481628	147.000000
240.574417	146.740000
240.667191	147.160000
240.759964	147.100000
240.852737	146.800000
240.945526	146.480000
241.038315	146.080000
241.131088	146.000000
241.223877	146.200000
241.316650	145.800000
241.409439	146.320000
241.502228	146.420000
241.595001	146.620000
241.687790	146.740000
241.780579	147.240000
241.873367	146.880000
241.966141	147.220000
242.058929	146.800000
242.151718	146.520000
242.244507	147.040000
242.337311	146.340000
242.430099	146.600000
242.522903	146.880000
242.615692	146.660000
242.708481	146.180000
242.801270	147.200000
242.894073	147.020000
242.986862	146.980000
243.079651	147.620000
243.172455	147.580000
243.265244	147.220000
243.358063	146.360000
243.450867	146.780000
243.543655	146.580000
243.636459	146.540000
243.729263	147.000000
243.822067	147.440000
243.914856	147.300000
244.007660	147.320000
244.100464	147.200000
244.193268	146.360000
244.286072	146.540000
244.378876	145.820000
244.471680	145.500000
244.564499	146.000000
244.657318	147.040000
244.750122	147.380000
244.842926	147.500000
244.935745	147.960000
245.028549	147.260000
245.121368	146.660000
245.214172	146.360000
245.306992	146.760000
245.399796	146.320000
245.492615	146.520000
245.585434	146.240000
245.678253	146.040000
245.771072	145.940000
245.863892	146.380000
245.956711	146.540000
246.049530	146.340000
246.142349	146.100000
246.235168	146.060000
246.327988	146.180000
246.420807	146.120000
246.513626	146.440000
246.606445	146.280000
246.699280	146.240000
246.792099	146.180000
246.884918	145.880000
246.977753	145.520000
247.070587	146.000000
247.163422	145.780000
247.256241	145.500000
247.349075	146.100000
247.441895	146.380000
247.534729	146.240000
247.627563	146.460000
247.720383	147.020000
247.813217	146.800000
247.906052	146.600000
247.998886	146.680000
248.091736	146.660000
248.184570	146.300000
248.277405	146.200000
248.370239	147.160000
248.463074	147.900000
248.555908	148.060000
248.648743	147.800000
248.741592	148.040000
248.834427	147.420000
248.927261	146.640000
249.020111	146.820000
249.112946	147.560000
249.205795	147.420000
249.298630	147.520000
249.391495	147.280000
249.484344	146.980000
249.577179	146.640000
249.670029	146.640000
249.762878	147.100000
249.855728	147.240000
249.948563	147.160000
250.041412	146.140000
250.134262	146.600000
250.227112	146.300000
250.319962	146.500000
250.412827	146.500000
250.505692	147.060000
250.598541	146.900000
250.691391	146.600000
250.784241	146.440000
250.877106	146.580000
250.969955	146.340000
251.062805	146.600000
251.155670	146.780000
251.248520	146.920000
251.341385	147.240000
251.434235	147.060000
251.527100	146.640000
251.619965	146.360000
251.712814	147.040000
251.805695	146.620000
251.898560	147.200000
251.991425	147.200000
252.084290	147.580000
252.177155	146.780000
252.270020	146.960000
252.362885	146.920000
252.455750	146.920000
252.548615	146.380000
252.641479	146.100000
252.734360	145.400000
252.827240	145.120000
252.920105	145.360000
253.012970	145.600000
253.105850	145.760000
253.198715	146.080000
253.291595	146.240000
253.384460	145.800000
253.477341	145.900000
253.570221	146.080000
253.663086	146.220000
253.755966	146.820000
253.848846	147.060000
253.941727	147.400000
254.034592	147.360000
254.127472	146.720000
254.220367	146.600000
254.313248	146.880000
254.406128	146.020000
254.499008	146.220000
254.591904	147.160000
254.684784	147.440000
254.777664	147.140000
254.870544	147.160000
254.963440	146.920000
255.056335	146.940000
255.149216	146.220000
255.242111	146.700000
255.334991	147.440000
255.427887	147.680000
255.520767	147.480000
255.613663	147.800000
255.706558	147.000000
255.799438	146.620000
255.892334	146.400000
255.985229	146.400000
256.078125	146.260000
256.171021	146.560000
256.263916	147.100000
256.356812	147.380000
256.449707	147.340000
256.542603	147.080000
256.635498	147.480000
256.728394	146.900000
256.821289	146.360000
256.914215	146.840000
257.007080	147.200000
257.100006	146.940000
257.192932	147.420000
257.285828	147.880000
257.378723	147.560000
257.471619	147.420000
257.564545	146.880000
257.657440	146.840000
257.750336	147.120000
257.843262	146.640000
257.936157	147.720000
258.029053	148.280000
258.121979	148.120000
258.214874	147.840000
258.307800	147.880000
258.400696	146.740000
258.493622	146.760000
258.586517	146.180000
258.679443	146.280000
258.772339	146.000000
258.865265	145.860000
258.958160	145.300000
259.051086	146.160000
259.144012	145.860000
259.236938	147.100000
259.329834	147.420000
259.422791	147.500000
259.515717	146.660000
259.608612	146.520000
259.701538	146.120000
259.794464	145.920000
259.887390	145.920000
259.980316	146.120000
260.073212	146.400000
260.166138	145.440000
260.259064	145.580000
260.351990	146.300000
260.444916	146.260000
260.537842	146.320000
260.630768	147.060000
260.723694	147.020000
260.816620	146.840000
260.909546	147.020000
261.002472	146.460000
261.095398	146.260000
261.188354	146.100000
261.281281	145.640000
261.374207	145.800000
261.467133	146.940000
261.560089	147.160000
261.653015	146.760000
261.745972	147.440000
261.838867	147.700000
261.931824	147.500000
262.024780	147.040000
262.117706	147.820000
262.210663	147.700000
262.303589	147.380000
262.396515	146.980000
262.489471	147.960000
262.582397	147.520000
262.675354	146.740000
262.768280	146.880000
262.861237	147.140000
262.954163	146.700000
263.047119	146.940000
263.140045	147.180000
263.233002	147.020000
263.325958	146.620000
263.418884	145.960000
263.511841	145.820000
263.604797	145.740000
263.697723	145.920000
263.790680	146.040000
263.883636	146.820000
263.976593	146.620000
264.069550	147.020000
264.162476	146.540000
264.255463	146.700000
264.348419	146.460000
264.441376	146.880000
264.534332	146.220000
264.627289	146.700000
264.720245	146.920000
264.813202	146.480000
264.906158	146.760000
264.999115	147.420000
265.092072	147.100000
265.185028	147.460000
265.277985	147.800000
265.370941	147.540000
265.463898	147.300000
265.556854	147.400000
265.649811	146.160000
265.742798	146.320000
265.835754	146.120000
265.928711	146.460000
266.021667	146.540000
266.114655	147.100000
266.207611	147.220000
266.300568	147.020000
266.393585	146.360000
266.486511	146.480000
266.579498	145.900000
266.672485	145.680000
266.765442	145.900000
266.858429	146.540000
266.951385	145.920000
267.044342	146.140000
267.137329	146.120000
267.230316	146.340000
267.323273	145.920000
267.416260	146.940000
267.509216	147.140000
267.602203	147.100000
267.695160	147.220000
267.788147	147.380000
267.881134	146.400000
267.974091	146.900000
268.067078	146.780000
268.160065	146.420000
268.253052	146.400000
268.346008	146.740000
268.438995	146.040000
268.531982	146.420000
268.624969	146.300000
268.717987	146.700000
268.810944	146.800000
268.903961	147.120000
268.996948	146.420000
269.089905	146.920000
269.182892	146.600000
269.275879	146.720000
269.368866	146.240000
269.461853	146.640000
269.554871	146.440000
269.647858	146.560000
269.740845	146.840000
269.833832	147.500000
269.926819	147.020000
270.019806	146.860000
270.112793	146.240000
270.205811	146.140000
270.298798	145.860000
270.391785	146.820000
270.484772	146.720000
270.577789	147.240000
270.670776	146.780000
270.763763	146.640000
270.856750	146.480000
270.949768	146.260000
271.042786	146.060000
271.135773	146.240000
271.228790	146.840000
271.321808	146.640000
271.414795	146.620000
271.507782	146.380000
271.600800	146.000000
271.693817	145.660000
271.786804	145.820000
271.879822	146.220000
271.972809	146.440000
272.065826	147.200000
272.158844	146.800000
272.251831	147.360000
272.344849	147.400000
272.437866	147.080000
272.530853	146.700000
272.623871	147.320000
272.716888	146.080000
272.809906	146.380000
272.902893	146.500000
272.995911	146.160000
273.088928	145.800000
273.181946	146.240000
273.274963	145.720000
273.367981	145.800000
273.460999	146.100000
273.554047	146.440000
273.647003	147.140000
273.740051	147.140000
273.833069	147.600000
273.926086	147.800000
274.019135	147.540000
274.112152	147.000000
274.205170	147.120000
274.298187	146.920000
274.391205	146.440000
274.484222	146.720000
274.577240	146.720000
274.670258	146.620000
274.763306	146.420000
274.856323	146.780000
274.949341	146.520000
275.042358	146.760000
275.135406	146.680000
275.228424	146.800000
275.321442	146.820000
275.414490	146.500000
275.507507	146.400000
275.600525	146.640000
275.693573	146.360000
275.786591	145.940000
275.879669	146.300000
275.972656	145.780000
276.065735	145.640000
276.158752	146.400000
276.251801	147.280000
276.344818	147.440000
276.437866	147.660000
276.530884	147.640000
276.623932	146.860000
276.716980	146.600000
276.809998	146.240000
276.903046	146.320000
276.996094	147.020000
277.089111	147.620000
277.182159	148.040000
277.275208	148.080000
277.368256	147.960000
277.461304	147.700000
277.554321	146.900000
277.647369	146.820000
277.740417	146.840000
277.833466	146.860000
277.926514	146.560000
278.019562	147.580000
278.112610	146.560000
278.205688	146.840000
278.298706	147.060000
278.391785	146.820000
278.484833	146.080000
278.577881	146.320000
278.670929	146.400000
278.763977	146.440000
278.857025	146.940000
278.950073	147.420000
279.043121	147.320000
279.136169	147.140000
279.229248	146.820000
279.322296	146.880000
279.415344	146.580000
279.508392	146.480000
279.601440	146.640000
279.694519	146.800000
279.787567	146.500000
279.880615	146.240000
279.973694	146.060000
280.066742	145.700000
280.159790	145.660000
280.252869	145.460000
280.345917	145.680000
280.438995	145.980000
280.532074	145.900000
280.625122	146.080000
280.718201	146.600000
280.811279	146.720000
280.904327	146.660000
280.997406	146.920000
281.090454	147.020000
281.183533	146.680000
281.276581	146.560000
281.369659	146.440000
281.462738	146.420000
281.555786	146.420000
281.648865	146.460000
281.741943	146.120000
281.835022	146.820000
281.928070	146.600000
282.021149	146.180000
282.114227	146.160000
282.207306	146.460000
282.300385	146.540000
282.393433	146.680000
282.486511	146.920000
282.579590	147.000000
282.672668	147.500000
282.765747	146.960000
282.858856	146.660000
282.951904	146.920000
283.045013	147.180000
283.138062	147.220000
283.231171	147.320000
283.324249	147.840000
283.417328	147.720000
283.510406	147.300000
283.603485	147.020000
283.696564	147.060000
283.789642	147.240000
283.882751	147.060000
283.975830	147.780000
284.068909	147.120000
284.161987	147.660000
284.255066	146.780000
284.348175	146.800000
284.441254	146.180000
284.534332	147.140000
284.627441	146.600000
284.720520	147.000000
284.813599	147.040000
284.906708	147.300000
284.999786	146.460000
285.092896	146.180000
285.185974	147.080000
285.279053	146.780000
285.372192	146.660000
285.465240	147.480000
285.558380	147.360000
285.651459	146.680000
285.744568	147.500000
285.837677	147.320000
285.930756	147.220000
286.023865	147.420000
286.116943	147.120000
286.210052	147.080000
286.303162	147.160000
286.396240	146.680000
286.489349	146.580000
286.582458	147.060000
286.675568	146.540000
286.768646	146.460000
286.861755	146.900000
286.954865	147.820000
287.047974	147.040000
287.141083	146.940000
287.234161	146.800000
287.327271	146.560000
287.420380	146.500000
287.513519	146.880000
287.606598	146.900000
287.699738	147.200000
287.792816	146.980000
287.885956	146.560000
287.979034	146.300000
288.072174	146.500000
288.165283	146.180000
288.258392	146.680000
288.351501	146.280000
288.444611	146.660000
288.537720	146.920000
288.630859	146.800000
288.723969	146.740000
288.817078	147.260000
288.910187	147.300000
289.003296	146.720000
289.096436	146.680000
289.189545	146.560000
289.282654	146.040000
289.375763	146.240000
289.468903	146.940000
289.562012	147.680000
289.655121	147.660000
289.748260	147.960000
289.841400	148.080000
289.934509	147.700000
290.027649	147.480000
290.120728	147.280000
290.213898	147.160000
290.306976	146.820000
290.400146	147.020000
290.493256	146.340000
290.586395	146.780000
290.679535	147.120000
290.772644	146.880000
290.865784	146.040000
290.958893	146.460000
291.052032	146.240000
291.145172	146.140000
291.238281	146.220000
291.331421	146.780000
291.424561	146.900000
291.517670	146.680000
291.610809	146.680000
291.703949	146.300000
291.797089	146.460000
291.890228	145.940000
291.983337	146.140000
292.076477	145.900000
292.169617	146.520000
292.262756	146.300000
292.355927	146.380000
292.449036	145.920000
292.542206	146.300000
292.635315	146.340000
292.728485	146.540000
292.821625	146.760000
292.914764	147.900000
293.007904	147.820000
293.101044	147.620000
293.194183	147.440000
293.287323	147.520000
293.380463	146.820000
293.473602	146.420000
293.566742	146.840000
293.659882	147.300000
293.753021	147.460000
293.846191	147.200000
293.939331	147.140000
294.032471	146.700000
294.125610	146.280000
294.218781	146.700000
294.311920	147.180000
294.405060	147.220000
294.498230	147.140000
294.591370	147.260000
294.684540	146.380000
294.777679	145.880000
294.870850	146.140000
294.963959	146.120000
295.057159	145.820000
295.150299	146.380000
295.243469	146.580000
295.336609	146.360000
295.429779	146.740000
295.522919	147.260000
295.616089	147.160000
295.709229	147.340000
295.802399	147.820000
295.895569	147.100000
295.988708	146.600000
296.081879	146.640000
296.175018	146.080000
296.268188	145.640000
296.361359	146.300000
296.454529	146.660000
296.547668	146.240000
296.640839	146.880000
296.734009	146.680000
296.827179	146.500000
296.920319	146.540000
297.013519	146.480000
297.106659	146.400000
297.199860	146.480000
297.292999	146.520000
297.386200	146.200000
297.479309	146.180000
297.572510	146.100000
297.665680	145.840000
297.758850	145.740000
297.852020	145.880000
297.945190	145.960000
298.038361	145.500000
298.131531	146.540000
298.224701	146.540000
298.317871	146.160000
298.411072	145.800000
298.504242	145.720000
298.597412	145.300000
298.690582	145.460000
298.783752	145.600000
298.876923	146.260000
298.970093	146.780000
299.063293	146.720000
299.156464	147.300000
299.249634	147.540000
299.342834	147.880000
299.436005	147.920000
299.529205	147.940000
299.622345	147.380000
299.715576	146.800000
299.808716	146.300000
299.901917	146.120000
299.995117	146.240000
300.088287	146.400000
300.181488	146.540000
300.274658	146.380000
300.367828	146.520000
300.461029	146.380000
300.554199	146.640000
300.647400	146.780000
300.740601	147.280000
300.833771	147.140000
300.926971	147.220000
301.020142	146.580000
301.113342	146.300000
301.206512	146.120000
301.299713	146.600000
301.392914	146.760000
301.486084	147.320000
301.579285	147.600000
301.672516	147.900000
301.765686	147.560000
301.858887	147.300000
301.952057	147.080000
302.045288	146.660000
302.138458	146.420000
302.231659	146.360000
302.324860	146.580000
302.418060	146.180000
302.511261	146.420000
302.604462	146.600000
302.697662	146.260000
302.790863	146.160000
302.884064	146.080000
302.977264	146.280000
303.070465	146.560000
303.163666	147.500000
303.256866	147.300000
303.350067	147.400000
303.443268	147.600000
303.536469	147.440000
303.629669	146.520000
303.722870	146.740000
303.816071	146.820000
303.909271	146.740000
304.002472	146.060000
304.095673	146.040000
304.188934	145.420000
304.282104	146.200000
304.375336	146.000000
304.468506	146.020000
304.561768	146.120000
304.654968	146.940000
304.748169	146.100000
304.841370	145.880000
304.934601	146.300000
305.027802	146.140000
305.121002	145.580000
305.214233	145.820000
305.307434	146.140000
305.400665	146.440000
305.493866	146.300000
305.587097	146.740000
305.680298	146.480000
305.773499	147.040000
305.866730	146.740000
305.959930	147.700000
306.053162	147.740000
306.146393	147.620000
306.239594	146.620000
306.332825	146.740000
306.426025	146.740000
306.519287	146.240000
306.612488	146.340000
306.705719	146.740000
306.798920	146.620000
306.892181	145.840000
306.985352	145.640000
307.078613	145.320000
307.171844	145.420000
307.265045	144.960000
307.358276	144.800000
307.451508	145.400000
307.544739	145.920000
307.637970	145.660000
307.731201	146.000000
307.824402	146.660000
307.917633	146.540000
308.010864	146.940000
308.104095	147.340000
308.197327	147.420000
308.290558	147.000000
308.383789	146.700000
308.477020	146.020000
308.570251	145.520000
308.663483	144.880000
308.756714	145.180000
308.849976	145.080000
308.943176	145.800000
309.036438	145.700000
309.129639	145.920000
309.222900	145.580000
309.316101	145.720000
309.409393	145.120000
309.502625	145.340000
309.595856	145.360000
309.689087	145.500000
309.782318	145.380000
309.875580	145.500000
309.968811	145.500000
310.062042	145.160000
310.155273	145.220000
310.248535	145.900000
310.341766	145.760000
310.434998	145.580000
310.528259	145.900000
310.621490	146.220000
310.714722	145.400000
310.807983	145.500000
310.901215	145.600000
310.994476	145.980000
311.087708	145.340000
311.181000	145.680000
311.274200	145.520000
311.367462	145.800000
311.460693	145.380000
311.553986	146.260000
311.647186	146.640000
311.740479	147.000000
311.833710	146.560000
311.926971	146.740000
312.020203	145.980000
312.113464	145.920000
312.206726	145.460000
312.299957	145.880000
312.393219	146.320000
312.486481	146.780000
312.579712	146.540000
312.672974	146.560000
312.766235	146.500000
312.859497	146.080000
312.952759	145.920000
313.045990	146.680000
313.139252	146.460000
313.232513	146.460000
313.325775	146.520000
313.419037	146.500000
313.512299	145.580000
313.605530	146.000000
313.698822	146.100000
313.792053	146.260000
313.885345	145.640000
313.978577	145.760000
314.071869	145.500000
314.165131	145.560000
314.258392	145.740000
314.351654	146.180000
314.444916	145.540000
314.538177	146.120000
314.631439	146.440000
314.724701	146.080000
314.817993	145.720000
314.911255	146.520000
315.004517	145.680000
315.097778	145.320000
315.191040	145.580000
315.284302	146.420000
315.377594	145.880000
315.470856	146.120000
315.564117	145.580000
315.657379	145.060000
315.750671	144.480000
315.843933	145.080000
315.937195	144.800000
316.030518	144.840000
316.123749	144.980000
316.217041	145.940000
316.310303	145.780000
316.403595	146.220000
316.496857	146.320000
316.590149	146.740000
316.683411	145.620000
316.776703	145.420000
316.869965	145.580000
316.963257	145.660000
317.056519	144.940000
317.149811	144.920000
317.243073	145.040000
317.336365	145.000000
317.429626	145.260000
317.522919	145.940000
317.616180	146.140000
317.709473	145.860000
317.802765	145.640000
317.896027	145.500000
317.989319	145.800000
318.082611	145.840000
318.175873	145.780000
318.269165	145.900000
318.362488	146.000000
318.455750	145.500000
318.549042	145.720000
318.642303	146.000000
318.735626	145.920000
318.828888	146.020000
318.922211	145.780000
319.015472	146.140000
319.108765	145.740000
319.202057	145.560000
319.295349	145.560000
319.388641	145.660000
319.481934	145.200000
319.575226	145.300000
319.668518	145.680000
319.761810	146.160000
319.855103	146.100000
319.948395	146.240000
320.041687	146.880000
320.134979	146.840000
320.228271	146.460000
320.321564	146.520000
320.414856	146.460000
320.508148	145.700000
320.601440	145.480000
320.694763	145.360000
320.788025	146.060000
320.881348	146.300000
320.974640	146.540000
321.067963	146.180000
321.161224	145.840000
321.254547	144.840000
321.347839	145.220000
321.441162	145.180000
321.534454	145.480000
321.627747	145.340000
321.721069	146.080000
321.814362	145.860000
321.907654	145.840000
322.000946	145.960000
322.094269	146.620000
322.187561	146.280000
322.280884	146.140000
322.374176	146.100000
322.467468	146.500000
322.560791	146.480000
322.654083	147.040000
322.747406	147.040000
322.840698	147.580000
322.934021	147.840000
323.027344	148.080000
323.120636	147.540000
323.213959	147.480000
323.307251	146.980000
323.400574	146.380000
323.493866	145.780000
323.587219	145.980000
323.680511	146.440000
323.773834	146.400000
323.867157	146.520000
323.960449	146.640000
324.053772	146.220000
324.147095	145.800000
324.240387	146.460000
324.333710	146.460000
324.427032	146.540000
324.520355	146.460000
324.613647	146.080000
324.706970	145.600000
324.800293	145.600000
324.893616	145.540000
324.986938	146.280000
325.080231	146.180000
325.173553	146.560000
325.266876	146.860000
325.360199	146.980000
325.453522	146.100000
325.546875	146.240000
325.640167	146.120000
325.733521	146.360000
325.826813	146.800000
325.920166	147.100000
326.013489	147.040000
326.106812	146.340000
326.200134	145.480000
326.293457	144.520000
326.386780	144.720000
326.480103	144.720000
326.573425	145.080000
326.666748	145.280000
326.760071	145.960000
326.853424	145.940000
326.946747	145.900000
327.040070	146.600000
327.133392	146.560000
327.226715	145.760000
327.320068	145.100000
327.413391	145.800000
327.506714	144.800000
327.600037	144.720000
327.693390	145.100000
327.786713	145.200000
327.880066	144.560000
327.973358	145.040000
328.066742	145.380000
328.160034	145.800000
328.253418	146.580000
328.346710	146.420000
328.440063	146.300000
328.533417	146.220000
328.626740	146.260000
328.720093	146.040000
328.813416	146.360000
328.906769	146.600000
329.000092	146.840000
329.093445	146.500000
329.186768	146.320000
329.280121	146.540000
329.373444	146.660000
329.466797	146.480000
329.560120	146.380000
329.653473	146.560000
329.746796	146.160000
329.840149	145.860000
329.933502	145.860000
330.026825	146.100000
330.120178	145.800000
330.213562	145.940000
330.306854	145.880000
330.400238	145.660000
330.493561	145.320000
330.586945	146.260000
330.680237	146.460000
330.773621	146.920000
330.866974	146.880000
330.960327	147.120000
331.053680	146.260000
331.147003	146.400000
331.240356	146.200000
331.333710	146.560000
331.427063	146.360000
331.520416	145.980000
331.613770	145.580000
331.707123	145.580000
331.800476	145.620000
331.893829	146.520000
331.987152	147.060000
332.080505	146.960000
332.173859	146.940000
332.267212	146.380000
332.360565	145.600000
332.453918	145.440000
332.547333	145.200000
332.640656	145.180000
332.734039	145.440000
332.827362	145.660000
332.920746	146.280000
333.014069	146.920000
333.107452	147.280000
333.200806	147.500000
333.294159	147.360000
333.387543	146.480000
333.480896	145.860000
333.574249	145.620000
333.667603	145.180000
333.760956	145.360000
333.854340	145.560000
333.947693	145.880000
334.041046	145.560000
334.134430	145.820000
334.227783	145.220000
334.321136	145.280000
334.414520	145.240000
334.507874	145.580000
334.601227	145.440000
334.694611	145.760000
334.787964	145.980000
334.881348	146.460000
334.974701	146.360000
335.068085	146.280000
335.161438	146.820000
335.254822	146.640000
335.348175	146.300000
335.441559	146.060000
335.534943	146.660000
335.628296	146.100000
335.721680	146.340000
335.815033	146.720000
335.908417	146.980000
336.001770	146.660000
336.095154	146.600000
336.188538	146.340000
336.281891	145.720000
336.375275	145.200000
336.468658	144.840000
336.562012	144.800000
336.655396	144.960000
336.748779	145.460000
336.842133	145.820000
336.935516	146.440000
337.028900	146.500000
337.122284	146.380000
337.215637	146.540000
337.309021	146.560000
337.402435	145.940000
337.495789	145.900000
337.589203	145.780000
337.682526	145.080000
337.775940	145.000000
337.869324	145.540000
337.962708	145.280000
338.056091	145.700000
338.149475	145.660000
338.242859	145.700000
338.336243	145.300000
338.429626	145.820000
338.523010	145.360000
338.616394	145.540000
338.709778	145.780000
338.803162	145.920000
338.896545	146.020000
338.989929	146.020000
339.083313	146.240000
339.176697	145.780000
339.270081	145.860000
339.363464	146.000000
339.456848	146.520000
339.550232	146.000000
339.643616	146.020000
339.737030	145.800000
339.830383	145.520000
339.923828	145.340000
340.017181	145.640000
340.110596	146.100000
340.203949	146.380000
340.297363	145.840000
340.390778	145.780000
340.484161	145.800000
340.577545	145.660000
340.670959	145.620000
340.764343	145.920000
340.857727	146.040000
340.951111	145.680000
341.044525	145.640000
341.137909	145.180000
341.231293	145.360000
341.324707	144.800000
341.418091	145.820000
341.511505	145.860000
341.604889	146.420000
341.698303	146.620000
341.791687	147.040000
341.885071	146.160000
341.978485	145.900000
342.071899	146.160000
342.165283	146.260000
342.258698	146.820000
342.352081	147.600000
342.445496	148.280000
342.538879	147.860000
342.632324	147.540000
342.725708	146.900000
342.819122	146.000000
342.912506	145.480000
343.005920	145.420000
343.099335	146.180000
343.192719	146.140000
343.286133	146.200000
343.379547	146.220000
343.472931	146.360000
343.566345	145.440000
343.659760	145.960000
343.753143	145.800000
343.846558	145.720000
343.939972	145.740000
344.033386	146.420000
344.126770	145.920000
344.220184	146.440000
344.313599	147.000000
344.407043	147.020000
344.500427	146.320000
344.593872	146.620000
344.687225	146.340000
344.780670	145.620000
344.874054	145.520000
344.967499	146.280000
345.060913	146.220000
345.154327	146.240000
345.247742	146.260000
345.341156	146.060000
345.434570	145.520000
345.527985	145.480000
345.621399	145.860000
345.714813	145.700000
345.808228	146.000000
345.901642	145.780000
345.995056	145.360000
346.088470	145.220000
346.181885	145.600000
346.275299	145.400000
346.368713	145.360000
346.462128	145.460000
346.555573	145.220000
346.648987	145.360000
346.742401	145.440000
346.835815	146.100000
346.929260	145.980000
347.022644	146.200000
347.116119	146.580000
347.209503	146.740000
347.302948	147.120000
347.396362	147.660000
347.489807	147.700000
347.583221	147.800000
347.676636	147.280000
347.770050	146.140000
347.863495	145.600000
347.956909	145.640000
348.050323	145.080000
348.143768	145.060000
348.237183	145.340000
348.330597	145.780000
348.424042	146.020000
348.517456	146.060000
348.610901	146.720000
348.704315	146.340000
348.797760	145.980000
348.891174	145.200000
348.984619	144.680000
349.078033	144.880000
349.171448	145.880000
349.264923	145.940000
349.358337	146.000000
349.451782	146.220000
349.545197	145.460000
349.638641	144.300000
349.732086	143.980000
349.825500	144.620000
349.918945	144.560000
350.012390	144.980000
350.105804	145.900000
350.199249	146.000000
350.292664	146.280000
350.386108	146.280000
350.479553	146.620000
350.572968	146.460000
350.666412	146.900000
350.759857	146.460000
350.853302	147.200000
350.946716	146.720000
351.040161	146.820000
351.133606	146.720000
351.227081	146.680000
351.320465	147.100000
351.413940	147.100000
351.507355	147.000000
351.600830	147.300000
351.694244	147.040000
351.787720	146.340000
351.881104	146.480000
351.974579	146.200000
352.067993	146.700000
352.161469	146.980000
352.254883	146.360000
352.348358	146.280000
352.441803	146.520000
352.535248	145.920000
352.628693	146.260000
352.722137	146.640000
352.815582	146.720000
352.909027	146.780000
353.002472	146.700000
353.095917	146.520000
353.189362	146.720000
353.282806	146.600000
353.376251	146.340000
353.469696	145.620000
353.563141	145.960000
353.656586	145.620000
353.750061	145.220000
353.843475	145.240000
353.936981	146.060000
354.030396	145.360000
354.123871	145.560000
354.217285	146.280000
354.310760	146.600000
354.404175	146.680000
354.497681	146.480000
354.591095	146.460000
354.684570	145.800000
354.777985	145.560000
354.871490	145.100000
354.964935	145.820000
355.058380	146.000000
355.151855	145.840000
355.245300	146.180000
355.338745	146.600000
355.432220	146.340000
355.525665	145.780000
355.619110	146.380000
355.712585	146.140000
355.806030	145.880000
355.899475	145.280000
355.992950	145.860000
356.086426	146.100000
356.179871	146.280000
356.273346	146.220000
356.366791	146.960000
356.460266	146.860000
356.553711	146.440000
356.647186	146.520000
356.740631	146.260000
356.834106	145.840000
356.927551	146.140000
357.021027	146.060000
357.114471	145.780000
357.207947	146.300000
357.301422	146.620000
357.394867	146.540000
357.488342	147.060000
357.581818	147.060000
357.675262	146.880000
357.768738	146.540000
357.862213	145.500000
357.955658	145.140000
358.049133	144.980000
358.142609	145.480000
358.236053	145.300000
358.329529	145.920000
358.423035	146.320000
358.516449	146.000000
358.609955	146.100000
358.703400	146.980000
358.796906	147.120000
358.890350	146.400000
358.983826	146.860000
359.077271	145.980000
359.170776	145.340000
359.264221	145.040000
359.357727	145.560000
359.451172	145.780000
359.544647	145.920000
359.638123	145.840000
359.731598	146.220000
359.825073	145.960000
359.918549	145.780000
360.012024	146.220000
360.105499	145.880000
360.198975	145.940000
360.292450	146.020000
360.385925	146.060000
360.479401	145.480000
360.572876	145.760000
360.666351	145.880000
360.759857	145.860000
360.853302	145.940000
360.946808	145.940000
361.040253	146.220000
361.133759	145.840000
361.227203	146.140000
361.320709	145.660000
361.414154	146.140000
361.507660	146.580000
361.601105	147.060000
361.694641	147.560000
361.788086	147.640000
361.881592	147.960000
361.975067	147.120000
362.068542	147.100000
362.162018	146.680000
362.255524	146.320000
362.348999	145.760000
362.442474	146.140000
362.535950	145.660000
362.629456	145.260000
362.722931	145.740000
362.816406	146.160000
362.909882	146.260000
363.003387	146.160000
363.096863	146.520000
363.190338	146.380000
363.283875	146.040000
363.377319	145.900000
363.470825	146.180000
363.564301	145.720000
363.657806	146.020000
363.751282	145.820000
363.844788	146.760000
363.938232	146.620000
364.031769	147.400000
364.125214	147.540000
364.218750	148.200000
364.312225	147.000000
364.405731	146.980000
364.499207	146.220000
364.592712	145.780000
364.686188	145.520000
364.779694	145.800000
364.873169	145.740000
364.966675	145.760000
365.060150	145.800000
365.153656	146.160000
365.247131	146.000000
365.340637	146.240000
365.434143	146.620000
365.527618	146.760000
365.621155	145.920000
365.714600	146.060000
365.808136	146.280000
365.901611	145.500000
365.995117	145.380000
366.088593	145.360000
366.182129	145.340000
366.275604	145.140000
366.369110	145.460000
366.462585	145.340000
366.556122	146.020000
366.649567	146.140000
366.743103	146.180000
366.836609	146.120000
366.930115	146.620000
367.023590	146.680000
367.117096	146.520000
367.210602	146.500000
367.304108	146.960000
367.397614	147.120000
367.491119	147.020000
367.584595	147.540000
367.678101	147.780000
367.771606	147.360000
367.865112	147.060000
367.958649	146.340000
368.052124	145.700000
368.145660	145.640000
368.239136	146.180000
368.332672	146.160000
368.426147	146.780000
368.519684	146.680000
368.613159	146.580000
368.706696	146.320000
368.800171	146.100000
368.893707	145.660000
368.987183	145.540000
369.080719	145.600000
369.174225	145.120000
369.267731	145.340000
369.361237	145.560000
369.454742	145.980000
369.548248	146.400000
369.641754	146.540000
369.735260	146.260000
369.828766	145.660000
369.922272	146.140000
370.015808	145.400000
370.109314	145.180000
370.202820	145.120000
370.296356	146.140000
370.389832	145.480000
370.483368	145.200000
370.576874	145.280000
370.670410	145.540000
370.763885	144.380000
370.857422	144.320000
370.950928	144.660000
371.044464	145.540000
371.137939	145.660000
371.231476	146.680000
371.324982	147.540000
371.418518	147.840000
371.512024	147.420000
371.605560	147.020000
371.699066	146.740000
371.792572	145.960000
371.886108	145.980000
371.979614	145.880000
372.073120	146.260000
372.166656	146.240000
372.260162	146.580000
372.353668	146.040000
372.447205	145.820000
372.540710	145.840000
372.634277	145.620000
372.727753	145.420000
372.821320	145.760000
372.914795	145.840000
373.008362	145.720000
373.101837	146.120000
373.195404	146.080000
373.288879	145.880000
373.382446	146.660000
373.475922	146.800000
373.569489	147.160000
373.662964	147.720000
373.756531	148.000000
373.850037	147.880000
373.943573	147.460000
374.037109	146.300000
374.130615	146.040000
374.224152	145.920000
374.317657	145.480000
374.411194	146.260000
374.504730	146.560000
374.598236	146.080000
374.691772	145.980000
374.785309	146.120000
374.878815	145.360000
374.972351	145.660000
375.065887	145.840000
375.159454	146.620000
375.252930	146.320000
375.346497	146.500000
375.440002	147.020000
375.533569	146.880000
375.627045	145.920000
375.720612	146.180000
375.814117	146.320000
375.907684	145.780000
376.001160	145.800000
376.094727	145.720000
376.188232	146.160000
376.281799	146.560000
376.375336	146.440000
376.468872	147.100000
376.562408	147.280000
376.655914	146.680000
376.749451	146.420000
376.842987	146.800000
376.936523	146.460000
377.030060	146.580000
377.123596	146.920000
377.217133	146.340000
377.310669	146.160000
377.404205	146.440000
377.497772	146.720000
377.591278	146.240000
377.684845	147.140000
377.778351	147.180000
377.871918	146.740000
377.965424	146.000000
378.058990	146.180000
378.152496	145.800000
378.246063	145.880000
378.339569	146.340000
378.433136	146.620000
378.526642	146.560000
378.620209	146.580000
378.713745	146.320000
378.807312	146.560000
378.900848	146.280000
378.994385	146.640000
379.087921	145.960000
379.181458	146.100000
379.274994	145.180000
379.368530	145.420000
379.462097	145.280000
379.555634	146.040000
379.649170	145.420000
379.742706	145.660000
379.836273	145.660000
379.929810	145.260000
380.023376	144.960000
380.116882	145.260000
380.210449	145.300000
380.303986	145.020000
380.397552	144.920000
380.491058	144.940000
380.584656	144.920000
380.678162	144.940000
380.771729	145.340000
380.865265	146.020000
380.958832	146.140000
381.052368	146.540000
381.145935	147.120000
381.239471	147.540000
381.333008	147.420000
381.426575	147.080000
381.520111	147.340000
381.613647	147.180000
381.707214	146.640000
381.800751	145.900000
381.894318	146.200000
381.987854	145.560000
382.081421	145.080000
382.174988	145.140000
382.268524	145.000000
382.362091	144.840000
382.455627	145.700000
382.549194	145.780000
382.642731	145.300000
382.736298	145.720000
382.829834	145.880000
382.923401	146.120000
383.016937	146.260000
383.110504	146.840000
383.204041	147.040000
383.297607	147.380000
383.391174	146.480000
383.484741	147.180000
383.578278	146.960000
383.671844	146.720000
383.765411	146.160000
383.858948	146.480000
383.952515	145.700000
384.046051	146.140000
384.139618	146.520000
384.233185	146.620000
384.326721	146.420000
384.420288	146.760000
384.513855	146.560000
384.607422	146.520000
384.700989	146.680000
384.794525	146.480000
384.888123	146.640000
384.981659	147.040000
385.075226	146.640000
385.168762	146.480000
385.262360	146.600000
385.355896	145.700000
385.449463	145.320000
385.542999	145.660000
385.636597	146.200000
385.730164	146.500000
385.823730	146.460000
385.917267	145.780000
386.010834	145.740000
386.104401	145.760000
386.197968	145.740000
386.291534	146.200000
386.385101	147.060000
386.478668	147.200000
386.572235	146.760000
386.665802	146.460000
386.759338	146.240000
386.852905	145.660000
386.946472	145.320000
387.040070	145.540000
387.133606	145.620000
387.227203	145.460000
387.320740	145.820000
387.414337	145.660000
387.507874	145.580000
387.601471	145.700000
387.695007	145.700000
387.788605	145.600000
387.882141	146.020000
387.975739	145.880000
388.069275	145.460000
388.162872	145.680000
388.256439	145.480000
388.350037	145.160000
388.443604	145.080000
388.537170	145.100000
388.630737	145.820000
388.724304	146.160000
388.817871	146.040000
388.911438	146.140000
389.005005	146.520000
389.098602	146.320000
389.192169	145.780000
389.285736	146.340000
389.379333	146.340000
389.472870	146.120000
389.566467	145.680000
389.660034	145.880000
389.753632	145.180000
389.847168	145.340000
389.940765	145.520000
390.034332	145.780000
390.127930	145.540000
390.221466	145.800000
390.315063	145.360000
390.408630	144.660000
390.502228	144.020000
390.595795	144.520000
390.689362	144.500000
390.782959	144.880000
390.876526	145.540000
390.970093	145.680000
391.063690	146.040000
391.157257	146.360000
391.250824	146.740000
391.344421	146.600000
391.437988	147.020000
391.531555	146.880000
391.625153	146.880000
391.718750	146.840000
391.812317	146.520000
391.905914	146.160000
391.999481	146.120000
392.093079	146.100000
392.186615	146.100000
392.280243	146.480000
392.373779	146.600000
392.467407	146.800000
392.560944	146.700000
392.654572	146.260000
392.748108	146.320000
392.841736	146.480000
392.935303	145.920000
393.028900	145.780000
393.122467	146.020000
393.216064	145.640000
393.309631	145.240000
393.403229	145.000000
393.496796	144.800000
393.590393	144.200000
393.683990	144.820000
393.777557	145.380000
393.871155	145.660000
393.964722	146.520000
394.058350	146.800000
394.151917	146.440000
394.245514	146.080000
394.339081	146.900000
394.432678	146.920000
394.526245	146.820000
394.619873	146.640000
394.713409	146.700000
394.807037	145.840000
394.900604	145.720000
394.994202	146.160000
395.087769	146.420000
395.181396	145.960000
395.274994	147.020000
395.368561	146.160000
395.462158	145.960000
395.555756	145.440000
395.649353	146.060000
395.742920	145.180000
395.836517	145.900000
395.930115	145.120000
396.023712	145.620000
396.117279	145.860000
396.210876	145.600000
396.304474	145.360000
396.398071	146.280000
396.491669	146.640000
396.585266	146.320000
396.678833	146.260000
396.772461	146.560000
396.866028	146.360000
396.959656	146.560000
397.053223	147.180000
397.146851	147.520000
397.240417	147.780000
397.334015	149.200000
397.427582	149.460000
397.521210	150.640000
397.614807	153.160000
397.708405	155.800000
397.802002	158.740000
397.895599	163.460000
397.989197	168.220000
398.082794	173.640000
398.176392	181.060000
398.269989	189.420000
398.363586	199.880000
398.457184	212.400000
398.550781	227.760000
398.644379	243.660000
398.737976	262.020000
398.831573	280.860000
398.925201	300.840000
399.018768	320.000000
399.112396	339.220000
399.205963	357.080000
399.299591	375.040000
399.393158	391.960000
399.486786	408.700000
399.580353	424.600000
399.673981	438.660000
399.767578	453.000000
399.861206	466.080000
399.954773	476.740000
400.048401	483.300000
400.141998	485.940000
400.235596	482.660000
400.329193	474.040000
400.422791	461.300000
400.516418	447.040000
400.610016	432.760000
400.703613	417.720000
400.797211	400.180000
400.890808	381.760000
400.984436	362.580000
401.078033	340.460000
401.171631	318.320000
401.265259	297.300000
401.358826	278.080000
401.452484	259.300000
401.546051	243.380000
401.639679	226.560000
401.733246	213.180000
401.826904	199.860000
401.920471	188.120000
402.014099	178.340000
402.107697	171.580000
402.201324	165.240000
402.294891	160.960000
402.388550	158.120000
402.482147	155.560000
402.575745	153.040000
402.669373	151.040000
402.762970	149.560000
402.856567	148.380000
402.950195	148.040000
403.043793	147.700000
403.137390	148.100000
403.231018	147.540000
403.324615	148.120000
403.418243	147.660000
403.511841	147.740000
403.605469	147.100000
403.699066	147.620000
403.792694	147.140000
403.886292	147.100000
403.979919	147.180000
404.073517	146.960000
404.167145	146.940000
404.260712	146.860000
404.354370	146.720000
404.447937	146.680000
404.541595	146.700000
404.635162	146.860000
404.728821	147.240000
404.822418	146.820000
404.916046	146.460000
405.009644	146.960000
405.103271	147.000000
405.196899	146.440000
405.290497	146.780000
405.384125	146.900000
405.477722	146.340000
405.571350	145.880000
405.664948	145.780000
405.758575	145.500000
405.852203	144.840000
405.945801	145.180000
406.039429	145.240000
406.133057	145.260000
406.226654	145.380000
406.320312	146.200000
406.413879	146.000000
406.507538	146.340000
406.601135	146.180000
406.694763	146.660000
406.788361	146.100000
406.882019	145.760000
406.975586	145.520000
407.069244	146.180000
407.162872	145.800000
407.256470	145.800000
407.350098	146.080000
407.443726	145.680000
407.537323	145.200000
407.630951	145.560000
407.724579	145.600000
407.818207	146.020000
407.911804	146.260000
408.005432	146.180000
408.099060	146.100000
408.192688	146.720000
408.286285	146.200000
408.379913	145.880000
408.473572	146.000000
408.567169	145.440000
408.660828	145.160000
408.754395	145.300000
408.848053	145.480000
408.941650	145.620000
409.035309	145.520000
409.128906	145.200000
409.222565	145.440000
409.316132	145.640000
409.409790	145.340000
409.503387	145.520000
409.597046	146.040000
409.690674	146.020000
409.784302	145.960000
409.877930	146.000000
409.971558	146.260000
410.065186	145.760000
410.158783	145.580000
410.252411	145.400000
410.346039	145.820000
410.439667	145.860000
410.533295	146.100000
410.626923	146.080000
410.720551	145.980000
410.814209	146.460000
410.907806	146.460000
411.001465	146.140000
411.095062	146.460000
411.188721	146.760000
411.282318	146.160000
411.375977	145.880000
411.469574	146.040000
411.563232	145.860000
411.656830	145.660000
411.750488	145.500000
411.844086	145.260000
411.937744	145.480000
412.031372	145.500000
412.125000	145.640000
412.218628	145.780000
412.312256	146.720000
412.405884	146.940000
412.499512	146.740000
412.593170	146.980000
412.686798	147.100000
412.780426	146.360000
412.874054	146.540000
412.967682	146.740000
413.061310	147.060000
413.154968	147.140000
413.248566	147.460000
413.342224	147.000000
413.435852	147.080000
413.529510	146.580000
413.623108	145.980000
413.716766	145.780000
413.810364	146.140000
413.904022	145.460000
413.997650	144.940000
414.091309	145.880000
414.184906	145.780000
414.278564	145.240000
414.372192	146.000000
414.465851	146.920000
414.559479	146.300000
414.653107	147.040000
414.746735	147.140000
414.840393	146.940000
414.934021	146.600000
415.027649	146.140000
415.121277	145.880000
415.214935	146.320000
415.308563	146.340000
415.402191	145.760000
415.495850	145.980000
415.589478	145.820000
415.683136	145.340000
415.776733	145.500000
415.870422	146.080000
415.964020	145.480000
416.057678	145.680000
416.151306	145.600000
416.244965	145.440000
416.338562	145.560000
416.432251	146.480000
416.525848	146.820000
416.619507	147.340000
416.713165	147.580000
416.806793	147.440000
416.900421	147.520000
416.994080	146.620000
417.087708	146.480000
417.181366	146.180000
417.274994	146.120000
417.368622	146.380000
417.462280	147.120000
417.555908	147.060000
417.649567	146.820000
417.743195	146.780000
417.836853	146.560000
417.930481	146.480000
418.024170	146.700000
418.117767	147.160000
418.211426	147.360000
418.305054	147.160000
418.398712	146.420000
418.492340	146.040000
418.585999	146.360000
418.679626	146.320000
418.773285	146.620000
418.866913	147.240000
418.960571	147.620000
419.054230	147.280000
419.147858	147.380000
419.241516	147.140000
419.335144	146.820000
419.428802	146.700000
419.522461	146.340000
419.616089	145.980000
419.709747	146.200000
419.803375	146.440000
419.897034	146.220000
419.990662	146.300000
420.084320	146.880000
420.177979	147.240000
420.271606	147.360000
420.365295	147.820000
420.458893	148.060000
420.552582	148.240000
420.646210	147.860000
420.739868	147.380000
420.833496	146.960000
420.927155	146.700000
421.020782	146.060000
421.114471	145.560000
421.208069	145.720000
421.301758	146.040000
421.395386	146.100000
421.489044	146.020000
421.582703	146.180000
421.676361	146.620000
421.769989	146.140000
421.863647	146.540000
421.957306	146.700000
422.050934	146.760000
422.144592	146.480000
422.238251	146.240000
422.331909	145.980000
422.425537	145.980000
422.519196	146.080000
422.612854	145.760000
422.706543	145.640000
422.800140	145.900000
422.893829	145.380000
422.987457	144.860000
423.081146	145.140000
423.174744	146.060000
423.268433	145.420000
423.362061	145.520000
423.455750	145.700000
423.549347	145.680000
423.643036	144.780000
423.736664	145.300000
423.830353	145.440000
423.924011	146.120000
424.017639	145.640000
424.111298	145.620000
424.204956	145.360000
424.298615	145.340000
424.392273	144.840000
424.485931	145.460000
424.579559	145.840000
424.673218	145.800000
424.766876	146.020000
424.860535	145.920000
424.954193	145.420000
425.047882	145.720000
425.141510	145.820000
425.235199	145.800000
425.328796	145.680000
425.422485	145.800000
425.516113	145.020000
425.609802	145.160000
425.703430	145.240000
425.797119	145.180000
425.890747	145.180000
425.984436	145.720000
426.078064	145.560000
426.171753	145.340000
426.265411	145.380000
426.359070	145.460000
426.452728	145.260000
426.546356	145.280000
426.640015	145.300000
426.733673	145.480000
426.827332	145.260000
426.920990	145.960000
427.014648	145.640000
427.108307	145.980000
427.201965	146.360000
427.295624	146.700000
427.389282	145.960000
427.482941	146.400000
427.576630	146.280000
427.670258	145.640000
427.763947	145.140000
427.857574	145.560000
427.951263	145.560000
428.044922	145.200000
428.138611	145.380000
428.232239	146.160000
428.325928	146.420000
428.419556	146.660000
428.513245	146.400000
428.606903	146.480000
428.700562	145.940000
428.794220	144.980000
428.887878	144.360000
428.981537	144.760000
429.075195	144.660000
429.168854	145.040000
429.262512	145.420000
429.356201	145.800000
429.449860	146.100000
429.543518	146.140000
429.637177	146.180000
429.730835	145.960000
429.824493	145.900000
429.918182	145.920000
430.011810	145.720000
430.105530	145.060000
430.199158	145.420000
430.292847	145.100000
430.386475	144.580000
430.480164	144.440000
430.573792	144.720000
430.667511	144.700000
430.761139	144.880000
430.854828	145.620000
430.948456	145.920000
431.042145	146.240000
431.135834	146.240000
431.229492	146.620000
431.323151	146.540000
431.416809	146.580000
431.510468	146.500000
431.604156	145.960000
431.697815	145.740000
431.791473	145.240000
431.885132	144.680000
431.978821	145.080000
432.072479	146.040000
432.166138	146.540000
432.259827	146.600000
432.353485	147.400000
432.447174	147.140000
432.540802	146.420000
432.634491	146.260000
432.728149	146.520000
432.821838	146.780000
432.915466	146.520000
433.009186	146.900000
433.102814	146.140000
433.196503	145.780000
433.290131	145.380000
433.383850	145.740000
433.477509	145.600000
433.571167	146.640000
433.664856	147.000000
433.758514	147.460000
433.852173	147.320000
433.945862	147.100000
434.039520	146.580000
434.133179	146.280000
434.226868	145.820000
434.320526	145.260000
434.414185	146.240000
434.507874	145.900000
434.601562	146.060000
434.695221	145.780000
434.788910	146.320000
434.882538	145.780000
434.976257	145.620000
435.069885	145.660000
435.163574	145.920000
435.257233	145.380000
435.350922	145.340000
435.444580	145.040000
435.538269	144.780000
435.631897	145.260000
435.725616	146.140000
435.819275	146.600000
435.912964	147.400000
436.006622	148.060000
436.100311	147.580000
436.193970	146.680000
436.287628	146.220000
436.381317	146.340000
436.474976	145.520000
436.568665	145.480000
436.662323	145.840000
436.756012	145.760000
436.849670	145.280000
436.943390	145.400000
437.037018	145.200000
437.130737	145.060000
437.224365	144.820000
437.318085	145.080000
437.411713	145.320000
437.505432	145.860000
437.599060	146.540000
437.692780	147.240000
437.786407	147.180000
437.880127	147.140000
437.973755	146.740000
438.067474	146.160000
438.161133	145.860000
438.254822	146.020000
438.348480	145.820000
438.442169	146.480000
438.535828	146.700000
438.629517	146.500000
438.723175	146.080000
438.816864	146.880000
438.910553	146.320000
439.004211	146.140000
439.097900	146.040000
439.191559	146.440000
439.285248	145.620000
439.378906	145.940000
439.472626	145.800000
439.566284	145.720000
439.659973	145.980000
439.753632	145.860000
439.847321	146.160000
439.940979	146.660000
440.034698	146.660000
440.128326	145.920000
440.222046	145.940000
440.315674	145.140000
440.409393	145.000000
440.503082	145.000000
440.596741	145.620000
440.690430	146.060000
440.784088	145.780000
440.877777	145.160000
440.971466	145.240000
441.065125	144.820000
441.158813	144.280000
441.252502	144.580000
441.346161	144.880000
441.439850	145.100000
441.533539	144.960000
441.627197	145.320000
441.720886	145.520000
441.814606	146.060000
441.908234	146.120000
442.001953	146.220000
442.095612	146.400000
442.189301	146.220000
442.282959	146.160000
442.376678	145.520000
442.470306	146.020000
442.564026	145.700000
442.657684	146.080000
442.751404	146.040000
442.845032	147.340000
442.938751	146.700000
443.032440	147.060000
443.126099	146.820000
443.219788	147.080000
443.313477	146.800000
443.407166	147.420000
443.500824	147.260000
443.594513	147.460000
443.688202	147.020000
443.781891	146.200000
443.875549	145.640000
443.969238	145.680000
444.062927	145.680000
444.156647	145.540000
444.250275	146.200000
444.343994	146.460000
444.437653	146.560000
444.531372	146.380000
444.625031	146.240000
444.718719	145.580000
444.812378	145.520000
444.906097	145.260000
444.999756	145.060000
445.093445	145.480000
445.187103	145.780000
445.280823	146.160000
445.374512	146.040000
445.468201	146.420000
445.561859	145.900000
445.655548	146.040000
445.749237	145.480000
445.842926	145.760000
445.936615	146.060000
446.030304	146.080000
446.123962	146.240000
446.217651	146.380000
446.311340	146.360000
446.405029	145.560000
446.498749	145.620000
446.592407	145.200000
446.686096	145.300000
446.779755	145.420000
446.873474	145.740000
446.967133	146.120000
447.060852	145.940000
447.154510	145.800000
447.248230	145.740000
447.341858	145.920000
447.435577	145.440000
447.529236	145.520000
447.622955	145.280000
447.716644	145.200000
447.810333	145.300000
447.904022	145.840000
447.997711	145.880000
448.091400	146.520000
448.185059	146.460000
448.278748	146.140000
448.372437	145.720000
448.466125	145.940000
448.559814	145.720000
448.653503	146.400000
448.747192	146.860000
448.840912	147.380000
448.934570	147.260000
449.028290	147.520000
449.121948	146.600000
449.215637	146.180000
449.309296	145.740000
449.403015	146.060000
449.496674	146.100000
449.590393	146.480000
449.684052	146.140000
449.777771	147.020000
449.871429	146.240000
449.965149	145.780000
450.058838	146.340000
450.152527	147.340000
450.246216	146.720000
450.339905	147.080000
450.433594	146.800000
450.527283	146.880000
450.620972	146.240000
450.714661	146.140000
450.808350	146.480000
450.902039	146.960000
450.995728	146.440000
451.089417	146.020000
451.183105	146.180000
451.276794	146.520000
451.370514	146.100000
451.464172	145.600000
451.557892	145.820000
451.651550	145.760000
451.745270	145.100000
451.838928	144.760000
451.932648	145.280000
452.026306	145.780000
452.120026	145.340000
452.213684	145.600000
452.307404	146.020000
452.401062	146.060000
452.494781	145.840000
452.588470	146.260000
452.682159	145.940000
452.775848	146.220000
452.869537	145.660000
452.963226	145.540000
453.056915	145.200000
453.150604	145.360000
453.244293	145.500000
453.337982	145.960000
453.431671	146.120000
453.525360	146.680000
453.619049	146.740000
453.712769	146.420000
453.806427	146.060000
453.900146	145.520000
453.993805	145.260000
454.087555	145.520000
454.181213	145.760000
454.274933	145.700000
454.368591	146.160000
454.462311	145.920000
454.555969	145.520000
454.649689	145.600000
454.743347	145.500000
454.837067	146.000000
454.930756	146.640000
455.024445	146.700000
455.118134	146.680000
455.211853	147.180000
455.305542	146.340000
455.399231	146.040000
455.492920	146.280000
455.586609	146.220000
455.680298	146.240000
455.773987	146.300000
455.867676	146.420000
455.961365	146.480000
456.055084	146.300000
456.148773	146.100000
456.242493	146.280000
456.336151	146.140000
456.429871	146.240000
456.523529	146.880000
456.617249	146.800000
456.710907	147.400000
456.804626	147.260000
456.898315	146.640000
456.992035	146.160000
457.085693	145.660000
457.179413	144.760000
457.273102	145.680000
457.366791	145.760000
457.460480	146.140000
457.554199	147.000000
457.647888	147.500000
457.741577	146.820000
457.835266	147.020000
457.928955	146.980000
458.022644	147.300000
458.116364	147.600000
458.210052	147.340000
458.303741	147.500000
458.397461	146.900000
458.491119	145.960000
458.584839	145.560000
458.678528	145.560000
458.772247	145.180000
458.865906	145.520000
458.959625	146.740000
459.053284	146.880000
459.147003	146.480000
459.240692	147.160000
459.334412	147.320000
459.428070	146.600000
459.521790	146.420000
459.615479	146.760000
459.709198	146.860000
459.802887	146.280000
459.896576	146.100000
459.990265	146.160000
460.083954	146.300000
460.177673	145.840000
460.271362	146.140000
460.365051	146.220000
460.458740	145.780000
460.552429	145.360000
460.646149	145.300000
460.739838	144.900000
460.833527	145.020000
460.927246	145.200000
461.020905	145.460000
461.114655	145.220000
461.208313	145.500000
461.302032	144.940000
461.395691	145.380000
461.489441	145.180000
461.583099	145.280000
461.676819	145.280000
461.770477	145.880000
461.864197	145.240000
461.957916	145.440000
462.051605	145.080000
462.145294	145.840000
462.238983	145.340000
462.332703	146.100000
462.426392	146.500000
462.520081	146.760000
462.613770	145.780000
462.707489	146.180000
462.801178	145.800000
462.894867	145.480000
462.988556	145.900000
463.082275	146.380000
463.175964	145.860000
463.269684	146.100000
463.363342	146.140000
463.457092	145.020000
463.550751	145.180000
463.644470	145.420000
463.738129	145.140000
463.831879	145.380000
463.925537	146.720000
464.019257	146.680000
464.112946	146.700000
464.206665	146.660000
464.300323	146.460000
464.394043	145.980000
464.487762	145.880000
464.581451	146.420000
464.675140	146.480000
464.768829	146.460000
464.862549	146.500000
464.956238	146.460000
465.049927	146.120000
465.143646	146.040000
465.237335	145.940000
465.331024	146.440000
465.424713	146.420000
465.518433	146.720000
465.612152	146.420000
465.705811	146.380000
465.799561	145.780000
465.893219	145.600000
465.986938	144.980000
466.080597	144.920000
466.174347	145.200000
466.268005	145.540000
466.361725	145.700000
466.455414	145.980000
466.549133	146.060000
466.642792	146.160000
466.736542	145.600000
466.830231	145.460000
466.923920	145.320000
467.017609	145.700000
467.111328	145.260000
467.205017	145.380000
467.298706	145.480000
467.392426	145.840000
467.486115	145.880000
467.579803	145.840000
467.673523	146.400000
467.767212	146.580000
467.860901	146.640000
467.954651	146.920000
468.048309	147.260000
468.142029	147.000000
468.235718	147.200000
468.329437	146.700000
468.423096	146.520000
468.516846	146.380000
468.610504	145.880000
468.704224	145.180000
468.797913	145.100000
468.891632	145.140000
468.985291	145.020000
469.079010	145.360000
469.172729	144.980000
469.266418	145.680000
469.360107	145.700000
469.453827	145.560000
469.547516	145.620000
469.641205	146.300000
469.734924	146.340000
469.828613	146.580000
469.922302	147.040000
470.016022	146.900000
470.109711	146.860000
470.203430	146.100000
470.297150	145.040000
470.390808	145.160000
470.484558	145.140000
470.578217	145.660000
470.671936	146.160000
470.765625	147.060000
470.859344	146.720000
470.953003	147.000000
471.046753	146.380000
471.140411	145.620000
471.234131	145.700000
471.327820	146.060000
471.421539	146.200000
471.515228	145.840000
471.608948	146.400000
471.702637	145.640000
471.796326	145.500000
471.890045	145.340000
471.983734	145.860000
472.077423	145.620000
472.171143	145.880000
472.264832	145.500000
472.358521	145.420000
472.452240	145.220000
472.545929	145.880000
472.639648	146.500000
472.733337	146.900000
472.827057	146.820000
472.920746	146.800000
473.014465	146.860000
473.108124	146.820000
473.201874	146.660000
473.295532	146.440000
473.389252	147.080000
473.482941	146.880000
473.576660	146.440000
473.670319	146.280000
473.764069	147.000000
473.857727	146.840000
473.951477	146.940000
474.045166	147.680000
474.138855	147.720000
474.232574	147.320000
474.326263	147.080000
474.419952	147.100000
474.513672	146.600000
474.607361	146.700000
474.701050	146.880000
474.794769	147.200000
474.888458	147.300000
474.982178	147.180000
475.075867	147.300000
475.169586	147.100000
475.263275	146.900000
475.356995	146.580000
475.450653	146.440000
475.544403	145.960000
475.638062	146.560000
475.731812	146.140000
475.825470	146.260000
475.919189	146.520000
476.012878	146.880000
476.106598	146.300000
476.200256	146.540000
476.294006	146.240000
476.387695	146.280000
476.481384	146.200000
476.575104	145.940000
476.668793	145.800000
476.762512	145.700000
476.856201	146.120000
476.949890	145.840000
477.043610	145.540000
477.137299	145.660000
477.230988	146.000000
477.324707	145.180000
477.418396	145.480000
477.512146	145.820000
477.605804	145.620000
477.699524	145.760000
477.793213	145.680000
477.886932	145.580000
477.980591	145.320000
478.074341	145.160000
478.167999	144.400000
478.261749	144.720000
478.355408	144.540000
478.449127	145.180000
478.542816	146.000000
478.636536	146.760000
478.730225	146.800000
478.823944	147.120000
478.917633	146.900000
479.011322	147.100000
479.105042	146.800000
479.198730	146.960000
479.292450	146.840000
479.386139	146.920000
479.479828	146.440000
479.573547	146.960000
479.667267	146.840000
479.760925	147.080000
479.854675	147.060000
479.948334	147.100000
480.042084	146.200000
480.135742	146.400000
480.229462	145.680000
480.323151	145.920000
480.416870	145.320000
480.510529	145.920000
480.604279	145.560000
480.697937	146.200000
480.791656	145.820000
480.885345	145.820000
480.979065	145.800000
481.072754	145.960000
481.166473	146.340000
481.260132	146.280000
481.353882	146.400000
481.447540	146.160000
481.541260	146.220000
481.635010	145.600000
481.728668	145.480000
481.822388	145.500000
481.916077	145.680000
482.009796	145.460000
482.103485	145.820000
482.197205	146.120000
482.290863	146.240000
482.384613	145.900000
482.478271	145.960000
482.571991	145.700000
482.665680	145.700000
482.759399	146.320000
482.853058	146.840000
482.946808	146.700000
483.040466	146.860000
483.134216	146.580000
483.227875	145.960000
483.321594	146.320000
483.415283	146.400000
483.509003	146.180000
483.602661	146.040000
483.696411	146.540000
483.790070	146.100000
483.883789	146.260000
483.977478	146.560000
484.071198	147.120000
484.164917	146.560000
484.258606	146.280000
484.352325	146.340000
484.445984	146.200000
484.539734	145.920000
484.633392	145.720000
484.727142	146.140000
484.820801	145.860000
484.914520	145.860000
485.008209	146.240000
485.101929	146.820000
485.195587	146.320000
485.289337	146.360000
485.382996	146.340000
485.476715	145.980000
485.570404	146.380000
485.664124	146.420000
485.757782	146.760000
485.851532	146.620000
485.945190	146.340000
486.038910	146.200000
486.132599	146.800000
486.226318	145.980000
486.319977	146.080000
486.413727	147.080000
486.507446	146.480000
486.601105	145.560000
486.694855	145.740000
486.788513	145.520000
486.882233	144.980000
486.975922	145.220000
487.069641	145.340000
487.163300	145.280000
487.257050	146.360000
487.350708	146.240000
487.444427	145.920000
487.538116	146.260000
487.631836	146.160000
487.725494	145.600000
487.819214	145.700000
487.912903	145.660000
488.006622	146.240000
488.100281	146.700000
488.194031	146.480000
488.287689	146.680000
488.381409	147.600000
488.475098	146.880000
488.568817	147.100000
488.662476	146.840000
488.756226	146.160000
488.849945	144.860000
488.943604	145.100000
489.037354	145.240000
489.131012	145.600000
489.224731	145.460000
489.318390	146.020000
489.412140	145.900000
489.505798	145.460000
489.599518	145.060000
489.693207	145.820000
489.786926	145.440000
489.880585	145.320000
489.974335	145.480000
490.067993	146.520000
490.161713	146.560000
490.255371	147.600000
490.349121	147.980000
490.442780	147.880000
490.536499	147.060000
490.630188	147.200000
490.723907	146.160000
490.817566	146.000000
490.911285	145.960000
491.004974	145.720000
491.098694	145.040000
491.192413	145.840000
491.286102	145.520000
491.379822	145.380000
491.473480	145.820000
491.567200	145.900000
491.660889	145.040000
491.754608	145.380000
491.848267	145.580000
491.941986	145.280000
492.035675	145.520000
492.129395	146.300000
492.223053	145.960000
492.316772	146.360000
492.410461	146.340000
492.504181	146.080000
492.597839	145.840000
492.691559	146.000000
492.785248	145.880000
492.878967	145.940000
492.972626	145.920000
493.066345	145.880000
493.160034	145.460000
493.253754	145.280000
493.347412	144.900000
493.441132	145.380000
493.534882	145.820000
493.628540	146.620000
493.722260	146.740000
493.815918	147.400000
493.909668	147.560000
494.003326	147.640000
494.097046	146.900000
494.190704	146.660000
494.284454	146.600000
494.378113	146.180000
494.471832	145.740000
494.565491	145.980000
494.659210	146.140000
494.752899	145.940000
494.846619	145.680000
494.940277	145.680000
495.033997	145.900000
495.127686	145.640000
495.221405	145.460000
495.315063	146.020000
495.408783	146.500000
495.502441	146.380000
495.596191	146.700000
495.689850	146.740000
495.783569	146.560000
495.877228	146.080000
495.970947	145.800000
496.064697	145.560000
496.158356	146.440000
496.252075	146.240000
496.345734	146.300000
496.439453	147.400000
496.533142	147.340000
496.626862	147.360000
496.720520	147.460000
496.814240	147.480000
496.907898	146.680000
497.001617	147.140000
497.095306	146.180000
497.189026	146.340000
497.282684	146.500000
497.376404	146.820000
497.470062	146.460000
497.563782	146.820000
497.657471	146.860000
497.751190	146.540000
497.844849	146.400000
497.938568	146.540000
498.032227	146.720000
498.125946	146.540000
498.219635	146.440000
498.313354	146.500000
498.407074	146.400000
498.500732	146.340000
498.594452	146.600000
498.688110	146.260000
498.781830	145.760000
498.875519	145.640000
498.969238	145.260000
499.062897	144.920000
499.156616	145.660000
499.250275	145.940000
499.343994	145.700000
499.437653	145.980000
499.531372	146.260000
499.625061	146.580000
499.718781	146.540000
499.812439	146.840000
499.906158	146.680000
499.999817	146.360000
500.093536	145.820000
500.187195	145.900000
500.280914	146.000000
500.374573	146.200000
500.468323	145.880000
500.561981	146.080000
500.655701	145.660000
500.749420	145.460000
500.843079	145.160000
500.936798	145.680000
501.030457	145.860000
501.124176	146.320000
501.217834	146.420000
501.311554	146.620000
501.405212	146.400000
501.498962	145.620000
501.592621	145.560000
501.686340	145.960000
501.779999	145.960000
501.873718	146.040000
501.967377	146.480000
502.061096	146.600000
502.154755	145.860000
502.248474	145.980000
502.342133	146.280000
502.435852	146.320000
502.529510	146.920000
502.623230	147.680000
502.716888	146.980000
502.810608	146.760000
502.904266	147.380000
502.997986	146.840000
503.091705	146.380000
503.185364	146.680000
503.279083	146.580000
503.372772	145.960000
503.466492	145.580000
503.560150	145.620000
503.653870	145.880000
503.747528	145.740000
503.841248	145.760000
503.934906	146.040000
504.028625	145.940000
504.122284	145.980000
504.216003	146.760000
504.309662	146.240000
504.403381	146.540000
504.497040	146.520000
504.590759	146.260000
504.684418	146.120000
504.778137	146.900000
504.871796	147.020000
504.965515	146.840000
505.059174	147.000000
505.152893	146.440000
505.246521	146.140000
505.340240	145.740000
505.433899	146.300000
505.527618	146.660000
505.621338	146.860000
505.714996	146.480000
505.808716	146.160000
505.902374	146.140000
505.996094	146.380000
506.089752	146.440000
506.183472	146.720000
506.277130	146.980000
506.370850	147.060000
506.464508	146.080000
506.558228	145.940000
506.651886	145.720000
506.745605	145.860000
506.839264	145.680000
506.932983	146.340000
507.026611	146.500000
507.120331	146.920000
507.213989	146.360000
507.307709	146.240000
507.401367	146.340000
507.495087	147.100000
507.588745	146.720000
507.682465	147.700000
507.776123	147.640000
507.869843	147.240000
507.963531	146.600000
508.057190	147.200000
508.150909	146.420000
508.244568	146.540000
508.338287	146.060000
508.431946	145.760000
508.525665	145.180000
508.619324	145.220000
508.713013	145.200000
508.806671	145.920000
508.900391	146.680000
508.994049	147.100000
509.087769	146.940000
509.181427	146.900000
509.275146	146.440000
509.368774	145.360000
509.462494	145.120000
509.556152	145.180000
509.649872	145.580000
509.743530	146.120000
509.837250	146.460000
509.930878	146.380000
510.024597	146.640000
510.118256	146.440000
510.211975	145.860000
510.305695	145.640000
510.399353	146.120000
510.493042	146.640000
510.586700	146.600000
510.680420	147.600000
510.774078	147.800000
510.867798	147.600000
510.961426	146.860000
511.055145	146.660000
511.148804	145.940000
511.242523	146.120000
511.336151	146.060000
511.429871	146.280000
511.523529	146.220000
511.617249	146.140000
511.710876	146.080000
511.804596	145.940000
511.898254	145.960000
511.991974	146.240000
512.085632	145.960000
512.179321	145.940000
512.272949	146.200000
512.366699	146.540000
512.460327	146.380000
512.554077	147.480000
512.647766	147.520000
512.741394	147.260000
512.835144	147.400000
512.928772	147.260000
513.022461	146.980000
513.116150	146.880000
513.209839	147.400000
513.303467	147.040000
513.397217	147.060000
513.490845	146.620000
513.584595	146.420000
513.678223	145.760000
513.771912	145.060000
513.865601	145.320000
513.959290	145.040000
514.052917	144.980000
514.146667	145.660000
514.240295	146.200000
514.333984	146.340000
514.427673	146.400000
514.521362	147.100000
514.614990	146.320000
514.708740	146.400000
514.802368	146.260000
514.896057	146.460000
514.989746	146.600000
515.083435	146.860000
515.177124	147.060000
515.270752	146.780000
515.364502	146.740000
515.458130	146.640000
515.551819	146.300000
515.645508	145.860000
515.739197	146.040000
515.832825	146.140000
515.926575	145.820000
516.020203	146.440000
516.113892	147.240000
516.207520	147.440000
516.301270	147.340000
516.394897	147.500000
516.488586	147.760000
516.582275	147.440000
516.675964	146.600000
516.769592	146.600000
516.863281	147.260000
516.956970	147.420000
517.050659	147.040000
517.144287	147.660000
517.238037	147.880000
517.331665	146.660000
517.425354	146.100000
517.519043	145.960000
517.612732	145.980000
517.706421	145.700000
517.800049	145.820000
517.893738	145.540000
517.987427	145.620000
518.081116	145.440000
518.174744	145.260000
518.268433	145.520000
518.362122	146.100000
518.455811	146.140000
518.549438	146.620000
518.643127	147.500000
518.736816	147.240000
518.830505	146.860000
518.924133	146.760000
519.017822	146.560000
519.111511	145.780000
519.205200	146.400000
519.298828	146.420000
519.392517	146.280000
519.486206	146.500000
519.579895	146.740000
519.673523	146.360000
519.767212	146.280000
519.860901	147.120000
519.954590	146.760000
520.048279	146.580000
520.141907	146.580000
520.235596	147.320000
520.329224	147.220000
520.422974	147.340000
520.516602	147.220000
520.610291	146.740000
520.703918	146.300000
520.797607	145.620000
520.891296	145.440000
520.984985	145.940000
521.078613	146.580000
521.172302	145.960000
521.265930	147.120000
521.359680	147.600000
521.453308	147.120000
521.546997	146.920000
521.640625	147.420000
521.734314	146.580000
521.827942	146.360000
521.921692	146.900000
522.015320	147.160000
522.109009	146.920000
522.202698	147.040000
522.296326	147.020000
522.390015	147.100000
522.483704	147.100000
522.577393	147.080000
522.671021	146.480000
522.764709	146.040000
522.858337	146.280000
522.952026	146.100000
523.045654	146.720000
523.139404	147.900000
523.233032	148.360000
523.326721	147.820000
523.420349	147.820000
523.514038	147.580000
523.607666	147.460000
523.701355	147.020000
523.795044	146.760000
523.888733	146.980000
523.982361	146.660000
524.076050	146.040000
524.169678	146.720000
524.263367	146.800000
524.356995	146.520000
524.450684	146.400000
524.544373	146.420000
524.638062	146.000000
524.731750	146.320000
524.825378	146.120000
524.919067	145.800000
525.012695	145.920000
525.106384	145.600000
525.200012	145.860000
525.293701	145.640000
525.387329	146.120000
525.481018	146.040000
525.574646	146.760000
525.668396	146.680000
525.762024	147.240000
525.855713	147.700000
525.949341	147.400000
526.043030	147.420000
526.136658	146.900000
526.230347	146.880000
526.323975	146.180000
526.417664	146.180000
526.511292	145.840000
526.604980	146.100000
526.698608	145.900000
526.792297	146.180000
526.885925	146.660000
526.979614	146.880000
527.073303	146.740000
527.166931	146.820000
527.260620	146.920000
527.354309	147.040000
527.447998	146.860000
527.541626	146.780000
527.635315	146.700000
527.728943	147.320000
527.822632	147.460000
527.916260	147.340000
528.009949	147.740000
528.103577	147.580000
528.197266	146.400000
528.290894	146.300000
528.384583	146.200000
528.478210	146.160000
528.571899	146.640000
528.665527	147.280000
528.759216	147.140000
528.852844	147.780000
528.946533	147.740000
529.040161	147.580000
529.133850	147.360000
529.227478	147.520000
529.321167	147.420000
529.414856	147.800000
529.508484	148.240000
529.602173	147.920000
529.695801	147.360000
529.789490	147.140000
529.883057	146.680000
529.976746	146.500000
530.070374	146.960000
530.164062	147.420000
530.257690	147.420000
530.351379	147.240000
530.445007	147.000000
530.538696	146.300000
530.632324	145.940000
530.726013	145.800000
530.819641	146.080000
530.913330	145.940000
531.006958	146.320000
531.100647	146.600000
531.194275	146.500000
531.287964	146.020000
531.381592	146.060000
531.475220	146.180000
531.568848	145.980000
531.662537	146.020000
531.756226	146.360000
531.849854	146.440000
531.943542	146.440000
532.037170	146.080000
532.130859	146.500000
532.224487	146.380000
532.318176	146.080000
532.411804	146.680000
532.505432	147.100000
532.599060	146.640000
532.692749	146.720000
532.786377	147.320000
532.880066	146.580000
532.973694	146.040000
533.067383	146.100000
533.161011	146.020000
533.254639	145.500000
533.348267	145.500000
533.441956	146.040000
533.535583	146.000000
533.629272	146.120000
533.722900	145.720000
533.816589	145.720000
533.910156	145.840000
534.003845	145.520000
534.097534	145.740000
534.191162	146.840000
534.284851	146.960000
534.378479	146.940000
534.472107	147.160000
534.565735	147.060000
534.659424	146.840000
534.753052	147.060000
534.846741	146.640000
534.940369	147.260000
535.033997	147.120000
535.127625	146.780000
535.221313	147.360000
535.314941	147.520000
535.408630	146.760000
535.502197	147.080000
535.595886	146.860000
535.689514	145.940000
535.783203	146.460000
535.876831	147.080000
535.970459	146.680000
536.064087	146.760000
536.157776	147.080000
536.251404	146.940000
536.345093	146.440000
536.438721	146.680000
536.532349	147.020000
536.626038	146.660000
536.719666	146.700000
536.813293	146.680000
536.906921	146.660000
537.000610	146.720000
537.094238	146.900000
537.187866	146.820000
537.281494	146.820000
537.375183	146.660000
537.468811	146.540000
537.562439	146.780000
537.656067	146.400000
537.749756	146.420000
537.843384	146.880000
537.937012	146.960000
538.030640	146.740000
538.124329	147.160000
538.217896	147.400000
538.311584	147.120000
538.405212	146.920000
538.498901	146.900000
538.592468	147.140000
538.686157	146.800000
538.779785	146.500000
538.873413	146.340000
538.967102	146.200000
539.060730	145.500000
539.154358	146.280000
539.247986	146.500000
539.341675	146.460000
539.435242	146.620000
539.528931	146.980000
539.622559	146.140000
539.716187	146.460000
539.809814	146.740000
539.903503	146.540000
539.997070	146.180000
540.090759	146.260000
540.184387	145.820000
540.278015	146.120000
540.371643	146.540000
540.465332	146.980000
540.558899	147.080000
540.652588	147.280000
540.746216	146.780000
540.839844	147.020000
540.933472	146.860000
541.027100	146.820000
541.120728	146.920000
541.214417	147.200000
541.308044	147.080000
541.401672	146.580000
541.495300	146.460000
541.588928	146.400000
541.682617	146.220000
541.776184	145.700000
541.869873	146.580000
541.963440	147.040000
542.057129	146.720000
542.150757	146.580000
542.244385	146.660000
542.338013	146.200000
542.431641	145.760000
542.525269	146.020000
542.618958	146.620000
542.712524	146.860000
542.806213	146.660000
542.899780	146.940000
542.993469	146.640000
543.087036	146.260000
543.180725	145.880000
543.274292	146.480000
543.367981	146.720000
543.461548	147.240000
543.555237	147.040000
543.648926	147.580000
543.742493	147.680000
543.836182	147.440000
543.929749	147.240000
544.023437	147.500000
544.117004	147.200000
544.210693	147.080000
544.304260	147.180000
544.397949	146.660000
544.491516	147.020000
544.585205	147.080000
544.678772	146.520000
544.772461	146.860000
544.866028	147.120000
544.959717	146.860000
545.053284	146.720000
545.146973	147.140000
545.240540	146.520000
545.334229	146.940000
545.427795	147.160000
545.521423	147.100000
545.615051	146.940000
545.708679	147.580000
545.802307	147.420000
545.895935	147.680000
545.989624	148.640000
546.083191	148.600000
546.176880	148.380000
546.270447	148.100000
546.364136	148.100000
546.457703	147.380000
546.551331	147.580000
546.644958	147.580000
546.738586	147.920000
546.832214	147.300000
546.925842	147.120000
547.019409	147.160000
547.113098	146.680000
547.206665	146.160000
547.300354	146.420000
547.393921	146.800000
547.487549	146.880000
547.581177	146.940000
547.674805	147.200000
547.768433	146.340000
547.862061	146.380000
547.955627	145.800000
548.049316	146.420000
548.142883	146.620000
548.236572	147.580000
548.330139	147.460000
548.423767	147.520000
548.517456	147.300000
548.611023	147.220000
548.704651	146.520000
548.798279	146.500000
548.891907	147.220000
548.985474	146.780000
549.079163	147.040000
549.172729	147.060000
549.266357	146.600000
549.359985	146.120000
549.453613	145.800000
549.547180	145.460000
549.640869	146.080000
549.734436	146.140000
549.828064	146.340000
549.921631	146.680000
550.015320	146.420000
550.108887	146.540000
550.202515	146.840000
550.296143	146.400000
550.389771	146.480000
550.483337	146.780000
550.576965	146.000000
550.670593	146.300000
550.764221	146.600000
550.857849	146.420000
550.951477	146.080000
551.045105	146.160000
551.138672	145.740000
551.232300	145.040000
551.325928	145.780000
551.419556	146.320000
551.513123	146.500000
551.606750	146.460000
551.700378	147.060000
551.794006	146.700000
551.887573	146.180000
551.981201	146.560000
552.074768	146.200000
552.168457	145.960000
552.262024	146.640000
552.355652	146.700000
552.449219	146.900000
552.542847	147.520000
552.636475	147.500000
552.730103	146.560000
552.823669	146.600000
552.917297	146.160000
553.010864	145.820000
553.104553	146.000000
553.198181	145.600000
553.291748	146.000000
553.385376	146.020000
553.478943	146.040000
553.572571	146.020000
553.666199	146.640000
553.759827	146.120000
553.853394	145.780000
553.947021	145.800000
554.040588	145.780000
554.134216	145.660000
554.227783	146.380000
554.321411	147.080000
554.415039	146.940000
554.508667	146.820000
554.602234	147.080000
554.695862	146.540000
554.789429	145.940000
554.883057	146.060000
554.976624	146.460000
555.070251	146.380000
555.163818	146.200000
555.257507	146.340000
555.351074	146.300000
555.444702	146.880000
555.538330	146.660000
555.631897	147.160000
555.725525	147.180000
555.819092	146.920000
555.912720	145.860000
556.006287	146.500000
556.099915	146.180000
556.193481	146.100000
556.287109	146.560000
556.380676	146.700000
556.474304	146.560000
556.567871	146.560000
556.661499	146.240000
556.755066	146.480000
556.848694	146.640000
556.942261	146.480000
557.035889	146.880000
557.129517	147.320000
557.223145	147.460000
557.316711	147.300000
557.410339	146.960000
557.503906	146.540000
557.597473	146.620000
557.691040	145.980000
557.784668	146.100000
557.878296	146.220000
557.971863	146.560000
558.065491	146.520000
558.159058	146.680000
558.252686	147.300000
558.346252	147.860000
558.439880	147.480000
558.533447	147.280000
558.627075	147.020000
558.720642	146.420000
558.814270	146.000000
558.907837	146.340000
559.001465	146.200000
559.095032	146.860000
559.188660	146.940000
559.282227	146.680000
559.375854	147.020000
559.469360	147.000000
559.562988	147.380000
559.656555	147.260000
559.750183	147.560000
559.843750	147.140000
559.937378	147.500000
560.030945	146.860000
560.124573	0.000000
560.218140	0.000000
560.311707	0.000000
560.405334	0.000000
560.498901	0.000000
560.592529	0.000000
560.686096	0.000000
560.779724	0.000000
560.873291	0.000000
560.966858	0.000000
561.060425	0.000000
561.154053	0.000000
561.247620	0.000000
561.341248	0.000000
561.434814	0.000000
561.528381	0.000000
561.621948	0.000000
561.715576	0.000000
561.809143	0.000000
561.902771	0.000000
561.996277	0.000000
562.089905	0.000000
562.183472	0.000000
562.277100	0.000000
