Model Number: SPM-002-B   
Serial Number: 70087108
Firmware Version: 004.15.4
Exposure Time: 100000.000000us
Data Taken on: 11-12-2020 19:39:22.122
Wavelength	Amplitude
221.570786	0.000000
221.663406	0.000000
221.756027	0.000000
221.848648	0.000000
221.941269	0.000000
222.033905	0.000000
222.126526	0.000000
222.219162	0.000000
222.311798	0.000000
222.404419	0.000000
222.497055	0.000000
222.589676	0.000000
222.682312	0.000000
222.774933	0.000000
222.867569	0.000000
222.960205	0.000000
223.052841	0.000000
223.145462	0.000000
223.238098	0.000000
223.330734	0.000000
223.423386	0.000000
223.516022	0.000000
223.608658	0.000000
223.701309	0.000000
223.793945	0.000000
223.886581	0.000000
223.979218	0.000000
224.071869	0.000000
224.164505	0.000000
224.257156	0.000000
224.349792	0.000000
224.442444	0.000000
224.535095	0.000000
224.627747	0.000000
224.720398	0.000000
224.813034	0.000000
224.905685	0.000000
224.998337	145.540000
225.090988	144.900000
225.183640	144.820000
225.276291	144.460000
225.368942	145.080000
225.461594	145.840000
225.554245	146.500000
225.646912	146.340000
225.739578	147.340000
225.832230	147.440000
225.924896	146.280000
226.017548	146.560000
226.110199	147.240000
226.202866	146.160000
226.295532	146.100000
226.388184	146.260000
226.480850	145.540000
226.573517	144.740000
226.666168	145.140000
226.758835	145.300000
226.851501	146.120000
226.944183	146.340000
227.036850	146.120000
227.129517	146.320000
227.222183	146.240000
227.314850	145.900000
227.407516	146.320000
227.500198	147.080000
227.592865	146.440000
227.685532	146.100000
227.778214	145.760000
227.870880	145.540000
227.963562	145.840000
228.056229	146.560000
228.148926	146.700000
228.241592	147.760000
228.334274	147.520000
228.426956	146.980000
228.519638	146.960000
228.612305	146.640000
228.704987	146.140000
228.797668	146.160000
228.890350	145.980000
228.983032	145.220000
229.075714	145.940000
229.168396	145.740000
229.261108	145.440000
229.353790	145.800000
229.446472	146.380000
229.539169	146.040000
229.631851	145.560000
229.724533	145.960000
229.817230	145.920000
229.909912	146.580000
230.002609	146.560000
230.095306	146.820000
230.187988	146.720000
230.280685	146.500000
230.373383	145.500000
230.466095	145.240000
230.558792	145.680000
230.651474	145.760000
230.744171	145.840000
230.836868	145.820000
230.929581	146.200000
231.022278	145.860000
231.114975	145.800000
231.207672	145.360000
231.300369	145.880000
231.393082	146.000000
231.485779	145.940000
231.578506	145.940000
231.671204	146.260000
231.763916	146.260000
231.856613	145.940000
231.949326	146.280000
232.042023	146.080000
232.134735	146.000000
232.227448	145.360000
232.320160	145.700000
232.412872	145.560000
232.505585	146.440000
232.598297	147.180000
232.691010	147.500000
232.783722	147.040000
232.876450	147.520000
232.969162	147.060000
233.061874	146.160000
233.154587	145.900000
233.247314	146.160000
233.340027	145.600000
233.432739	145.840000
233.525467	145.780000
233.618179	146.320000
233.710907	145.980000
233.803635	146.440000
233.896347	146.180000
233.989090	147.140000
234.081818	147.040000
234.174545	147.460000
234.267258	146.780000
234.359985	146.780000
234.452713	146.240000
234.545441	145.860000
234.638168	145.420000
234.730896	145.980000
234.823639	146.160000
234.916367	146.560000
235.009094	147.000000
235.101822	147.100000
235.194580	146.800000
235.287308	146.460000
235.380051	145.540000
235.472778	145.680000
235.565521	146.120000
235.658249	145.840000
235.750992	146.100000
235.843719	146.460000
235.936462	146.080000
236.029205	145.820000
236.121948	145.680000
236.214691	145.820000
236.307449	146.460000
236.400192	146.340000
236.492935	146.260000
236.585678	146.740000
236.678421	146.580000
236.771164	146.220000
236.863907	146.940000
236.956665	146.940000
237.049408	148.280000
237.142151	147.880000
237.234909	148.400000
237.327652	148.140000
237.420410	148.140000
237.513153	147.040000
237.605927	147.060000
237.698669	146.240000
237.791428	145.620000
237.884186	146.140000
237.976944	145.400000
238.069702	145.820000
238.162445	145.700000
238.255203	145.880000
238.347961	145.660000
238.440720	145.820000
238.533478	145.580000
238.626266	145.620000
238.719025	145.980000
238.811783	145.640000
238.904541	145.600000
238.997314	145.320000
239.090073	145.140000
239.182831	145.180000
239.275604	146.060000
239.368362	145.980000
239.461136	146.140000
239.553909	146.100000
239.646667	145.720000
239.739441	145.200000
239.832214	145.620000
239.925003	145.900000
240.017761	146.500000
240.110535	147.020000
240.203308	146.640000
240.296082	146.800000
240.388855	146.600000
240.481628	146.640000
240.574417	146.700000
240.667191	147.100000
240.759964	146.560000
240.852737	146.460000
240.945526	145.940000
241.038315	145.560000
241.131088	145.180000
241.223877	145.500000
241.316650	145.300000
241.409439	145.680000
241.502228	145.280000
241.595001	145.720000
241.687790	145.600000
241.780579	145.740000
241.873367	145.780000
241.966141	146.280000
242.058929	145.700000
242.151718	145.960000
242.244507	146.240000
242.337311	145.780000
242.430099	146.360000
242.522903	146.920000
242.615692	146.580000
242.708481	146.540000
242.801270	147.140000
242.894073	146.720000
242.986862	146.620000
243.079651	147.320000
243.172455	146.960000
243.265244	146.900000
243.358063	146.680000
243.450867	147.120000
243.543655	146.880000
243.636459	147.240000
243.729263	147.500000
243.822067	147.360000
243.914856	147.360000
244.007660	147.340000
244.100464	147.100000
244.193268	146.580000
244.286072	146.800000
244.378876	146.060000
244.471680	145.800000
244.564499	146.380000
244.657318	147.040000
244.750122	146.960000
244.842926	146.780000
244.935745	147.040000
245.028549	146.440000
245.121368	146.060000
245.214172	146.020000
245.306992	146.320000
245.399796	145.760000
245.492615	145.940000
245.585434	145.720000
245.678253	145.780000
245.771072	145.780000
245.863892	146.500000
245.956711	146.840000
246.049530	146.840000
246.142349	146.820000
246.235168	147.060000
246.327988	147.100000
246.420807	146.620000
246.513626	146.680000
246.606445	146.400000
246.699280	146.280000
246.792099	145.940000
246.884918	145.800000
246.977753	145.660000
247.070587	146.280000
247.163422	146.160000
247.256241	146.140000
247.349075	146.640000
247.441895	146.580000
247.534729	146.120000
247.627563	146.100000
247.720383	146.620000
247.813217	146.160000
247.906052	146.240000
247.998886	146.480000
248.091736	146.500000
248.184570	145.940000
248.277405	146.440000
248.370239	147.180000
248.463074	147.820000
248.555908	148.220000
248.648743	148.260000
248.741592	148.160000
248.834427	147.640000
248.927261	146.660000
249.020111	147.080000
249.112946	147.740000
249.205795	147.380000
249.298630	147.380000
249.391495	147.660000
249.484344	146.960000
249.577179	146.820000
249.670029	147.140000
249.762878	147.480000
249.855728	147.580000
249.948563	147.620000
250.041412	146.960000
250.134262	147.360000
250.227112	147.440000
250.319962	147.120000
250.412827	147.080000
250.505692	146.840000
250.598541	146.600000
250.691391	146.040000
250.784241	146.100000
250.877106	146.360000
250.969955	146.400000
251.062805	146.600000
251.155670	147.060000
251.248520	146.820000
251.341385	146.820000
251.434235	146.900000
251.527100	146.660000
251.619965	146.120000
251.712814	147.120000
251.805695	147.100000
251.898560	147.340000
251.991425	147.280000
252.084290	147.620000
252.177155	146.800000
252.270020	146.280000
252.362885	146.240000
252.455750	146.180000
252.548615	145.580000
252.641479	145.580000
252.734360	145.440000
252.827240	145.300000
252.920105	145.400000
253.012970	145.660000
253.105850	145.620000
253.198715	145.700000
253.291595	145.980000
253.384460	145.480000
253.477341	145.440000
253.570221	145.720000
253.663086	145.720000
253.755966	146.300000
253.848846	146.620000
253.941727	146.700000
254.034592	146.360000
254.127472	146.080000
254.220367	145.500000
254.313248	145.660000
254.406128	145.320000
254.499008	145.580000
254.591904	146.400000
254.684784	146.940000
254.777664	146.960000
254.870544	146.880000
254.963440	146.920000
255.056335	146.820000
255.149216	146.180000
255.242111	146.560000
255.334991	146.800000
255.427887	146.700000
255.520767	146.600000
255.613663	146.880000
255.706558	145.880000
255.799438	145.800000
255.892334	145.420000
255.985229	145.520000
256.078125	145.320000
256.171021	145.760000
256.263916	146.200000
256.356812	146.640000
256.449707	146.660000
256.542603	146.340000
256.635498	147.080000
256.728394	146.720000
256.821289	146.380000
256.914215	146.360000
257.007080	146.760000
257.100006	146.480000
257.192932	147.200000
257.285828	147.740000
257.378723	147.300000
257.471619	147.140000
257.564545	146.320000
257.657440	146.100000
257.750336	146.220000
257.843262	146.320000
257.936157	147.260000
258.029053	148.100000
258.121979	147.860000
258.214874	147.600000
258.307800	147.600000
258.400696	146.520000
258.493622	146.320000
258.586517	145.680000
258.679443	145.700000
258.772339	145.420000
258.865265	145.400000
258.958160	144.820000
259.051086	145.760000
259.144012	145.460000
259.236938	146.340000
259.329834	146.860000
259.422791	147.060000
259.515717	146.380000
259.608612	146.320000
259.701538	146.120000
259.794464	145.640000
259.887390	145.460000
259.980316	145.560000
260.073212	145.540000
260.166138	144.980000
260.259064	145.600000
260.351990	146.460000
260.444916	146.780000
260.537842	147.340000
260.630768	147.840000
260.723694	147.420000
260.816620	146.940000
260.909546	146.640000
261.002472	146.020000
261.095398	145.420000
261.188354	145.360000
261.281281	144.960000
261.374207	145.340000
261.467133	146.040000
261.560089	146.560000
261.653015	146.520000
261.745972	147.300000
261.838867	147.340000
261.931824	147.440000
262.024780	146.900000
262.117706	147.100000
262.210663	147.080000
262.303589	147.040000
262.396515	147.080000
262.489471	147.980000
262.582397	147.760000
262.675354	147.060000
262.768280	146.840000
262.861237	146.540000
262.954163	146.140000
263.047119	146.320000
263.140045	146.620000
263.233002	146.680000
263.325958	146.560000
263.418884	146.400000
263.511841	146.380000
263.604797	146.220000
263.697723	146.200000
263.790680	146.220000
263.883636	146.880000
263.976593	146.680000
264.069550	146.780000
264.162476	146.540000
264.255463	146.560000
264.348419	145.880000
264.441376	146.220000
264.534332	145.720000
264.627289	146.040000
264.720245	146.800000
264.813202	146.420000
264.906158	146.340000
264.999115	147.040000
265.092072	146.780000
265.185028	146.640000
265.277985	147.400000
265.370941	147.280000
265.463898	147.120000
265.556854	146.980000
265.649811	145.840000
265.742798	145.700000
265.835754	145.760000
265.928711	145.920000
266.021667	146.060000
266.114655	146.800000
266.207611	146.720000
266.300568	146.420000
266.393585	146.120000
266.486511	146.420000
266.579498	145.540000
266.672485	145.240000
266.765442	145.000000
266.858429	145.440000
266.951385	145.080000
267.044342	145.440000
267.137329	145.460000
267.230316	146.000000
267.323273	145.460000
267.416260	146.040000
267.509216	145.960000
267.602203	145.780000
267.695160	145.800000
267.788147	146.080000
267.881134	145.440000
267.974091	145.920000
268.067078	146.180000
268.160065	146.140000
268.253052	145.880000
268.346008	146.280000
268.438995	145.960000
268.531982	145.920000
268.624969	145.620000
268.717987	146.180000
268.810944	145.860000
268.903961	146.040000
268.996948	146.020000
269.089905	146.720000
269.182892	146.480000
269.275879	147.080000
269.368866	146.520000
269.461853	146.720000
269.554871	146.280000
269.647858	146.000000
269.740845	146.160000
269.833832	146.760000
269.926819	146.420000
270.019806	146.400000
270.112793	146.260000
270.205811	145.880000
270.298798	145.700000
270.391785	146.480000
270.484772	146.360000
270.577789	146.840000
270.670776	146.520000
270.763763	146.540000
270.856750	146.380000
270.949768	146.080000
271.042786	146.020000
271.135773	146.240000
271.228790	146.660000
271.321808	146.200000
271.414795	146.140000
271.507782	145.600000
271.600800	145.080000
271.693817	144.960000
271.786804	145.360000
271.879822	145.680000
271.972809	145.960000
272.065826	146.780000
272.158844	146.500000
272.251831	147.100000
272.344849	147.280000
272.437866	146.900000
272.530853	146.740000
272.623871	146.780000
272.716888	145.340000
272.809906	145.540000
272.902893	145.560000
272.995911	144.860000
273.088928	144.920000
273.181946	145.440000
273.274963	144.880000
273.367981	145.180000
273.460999	145.600000
273.554047	145.680000
273.647003	146.060000
273.740051	146.420000
273.833069	146.860000
273.926086	146.980000
274.019135	146.920000
274.112152	146.640000
274.205170	146.700000
274.298187	146.760000
274.391205	146.520000
274.484222	146.500000
274.577240	146.520000
274.670258	146.040000
274.763306	145.540000
274.856323	145.840000
274.949341	145.800000
275.042358	146.140000
275.135406	146.080000
275.228424	146.180000
275.321442	146.120000
275.414490	146.060000
275.507507	146.120000
275.600525	146.840000
275.693573	146.700000
275.786591	146.240000
275.879669	146.440000
275.972656	145.900000
276.065735	145.620000
276.158752	146.020000
276.251801	146.780000
276.344818	146.640000
276.437866	147.000000
276.530884	146.680000
276.623932	146.080000
276.716980	146.240000
276.809998	145.940000
276.903046	145.900000
276.996094	147.000000
277.089111	147.760000
277.182159	147.840000
277.275208	148.220000
277.368256	147.980000
277.461304	147.180000
277.554321	146.440000
277.647369	146.100000
277.740417	145.960000
277.833466	146.040000
277.926514	145.880000
278.019562	146.660000
278.112610	146.100000
278.205688	146.220000
278.298706	146.380000
278.391785	146.520000
278.484833	145.760000
278.577881	145.900000
278.670929	146.260000
278.763977	146.400000
278.857025	146.600000
278.950073	147.000000
279.043121	146.820000
279.136169	146.600000
279.229248	146.160000
279.322296	146.320000
279.415344	145.920000
279.508392	145.920000
279.601440	145.800000
279.694519	145.560000
279.787567	145.160000
279.880615	145.100000
279.973694	145.180000
280.066742	145.280000
280.159790	145.740000
280.252869	145.740000
280.345917	146.200000
280.438995	146.340000
280.532074	146.120000
280.625122	146.440000
280.718201	147.180000
280.811279	147.080000
280.904327	147.360000
280.997406	147.620000
281.090454	147.520000
281.183533	146.820000
281.276581	146.740000
281.369659	146.200000
281.462738	146.360000
281.555786	146.420000
281.648865	146.500000
281.741943	146.360000
281.835022	146.900000
281.928070	146.140000
282.021149	145.700000
282.114227	145.440000
282.207306	145.560000
282.300385	145.760000
282.393433	146.100000
282.486511	146.100000
282.579590	146.720000
282.672668	147.020000
282.765747	146.120000
282.858856	145.760000
282.951904	146.080000
283.045013	146.180000
283.138062	146.280000
283.231171	147.160000
283.324249	147.760000
283.417328	147.740000
283.510406	147.220000
283.603485	146.940000
283.696564	146.640000
283.789642	146.480000
283.882751	146.020000
283.975830	146.580000
284.068909	146.300000
284.161987	146.700000
284.255066	146.520000
284.348175	147.100000
284.441254	146.980000
284.534332	147.560000
284.627441	146.920000
284.720520	146.840000
284.813599	146.740000
284.906708	146.680000
284.999786	146.080000
285.092896	146.080000
285.185974	147.160000
285.279053	146.640000
285.372192	146.720000
285.465240	147.500000
285.558380	147.460000
285.651459	146.580000
285.744568	147.560000
285.837677	147.040000
285.930756	146.640000
286.023865	146.880000
286.116943	146.580000
286.210052	146.500000
286.303162	146.680000
286.396240	146.540000
286.489349	146.440000
286.582458	146.900000
286.675568	146.420000
286.768646	146.540000
286.861755	146.920000
286.954865	147.680000
287.047974	147.300000
287.141083	146.680000
287.234161	146.360000
287.327271	146.540000
287.420380	146.400000
287.513519	146.300000
287.606598	146.700000
287.699738	147.020000
287.792816	146.340000
287.885956	146.000000
287.979034	146.280000
288.072174	146.600000
288.165283	146.420000
288.258392	146.860000
288.351501	146.240000
288.444611	146.500000
288.537720	146.820000
288.630859	146.700000
288.723969	146.800000
288.817078	147.180000
288.910187	146.680000
289.003296	145.600000
289.096436	145.500000
289.189545	145.180000
289.282654	144.960000
289.375763	145.800000
289.468903	146.640000
289.562012	147.080000
289.655121	146.840000
289.748260	146.920000
289.841400	146.880000
289.934509	146.800000
290.027649	146.680000
290.120728	146.840000
290.213898	146.800000
290.306976	146.340000
290.400146	146.140000
290.493256	145.760000
290.586395	146.000000
290.679535	146.680000
290.772644	146.740000
290.865784	146.000000
290.958893	146.120000
291.052032	146.060000
291.145172	145.560000
291.238281	145.240000
291.331421	146.060000
291.424561	146.440000
291.517670	146.060000
291.610809	146.380000
291.703949	146.360000
291.797089	146.400000
291.890228	145.960000
291.983337	146.220000
292.076477	146.120000
292.169617	146.380000
292.262756	146.240000
292.355927	146.380000
292.449036	146.120000
292.542206	146.180000
292.635315	146.280000
292.728485	146.640000
292.821625	146.240000
292.914764	147.340000
293.007904	147.320000
293.101044	147.300000
293.194183	146.920000
293.287323	147.260000
293.380463	146.560000
293.473602	146.360000
293.566742	146.400000
293.659882	146.800000
293.753021	146.840000
293.846191	146.380000
293.939331	145.900000
294.032471	145.660000
294.125610	144.900000
294.218781	145.220000
294.311920	145.760000
294.405060	146.400000
294.498230	146.380000
294.591370	146.740000
294.684540	146.000000
294.777679	145.600000
294.870850	145.800000
294.963959	145.700000
295.057159	145.400000
295.150299	145.860000
295.243469	145.940000
295.336609	145.080000
295.429779	145.220000
295.522919	145.880000
295.616089	145.600000
295.709229	146.120000
295.802399	146.380000
295.895569	146.160000
295.988708	145.760000
296.081879	146.260000
296.175018	145.940000
296.268188	146.320000
296.361359	146.900000
296.454529	147.080000
296.547668	146.980000
296.640839	146.900000
296.734009	146.680000
296.827179	146.440000
296.920319	146.800000
297.013519	146.240000
297.106659	146.580000
297.199860	146.700000
297.292999	146.680000
297.386200	146.400000
297.479309	146.580000
297.572510	146.180000
297.665680	145.880000
297.758850	145.760000
297.852020	145.420000
297.945190	145.520000
298.038361	145.400000
298.131531	146.180000
298.224701	146.220000
298.317871	146.140000
298.411072	145.620000
298.504242	145.360000
298.597412	144.760000
298.690582	144.840000
298.783752	145.200000
298.876923	145.780000
298.970093	146.100000
299.063293	146.420000
299.156464	146.680000
299.249634	146.700000
299.342834	147.020000
299.436005	147.220000
299.529205	147.020000
299.622345	146.980000
299.715576	146.340000
299.808716	145.980000
299.901917	145.900000
299.995117	146.300000
300.088287	146.340000
300.181488	146.380000
300.274658	146.180000
300.367828	146.180000
300.461029	145.960000
300.554199	146.200000
300.647400	146.460000
300.740601	147.420000
300.833771	147.100000
300.926971	147.000000
301.020142	146.040000
301.113342	145.920000
301.206512	145.000000
301.299713	145.360000
301.392914	145.280000
301.486084	145.880000
301.579285	146.160000
301.672516	146.780000
301.765686	146.780000
301.858887	146.980000
301.952057	146.940000
302.045288	146.800000
302.138458	146.440000
302.231659	146.060000
302.324860	145.960000
302.418060	145.580000
302.511261	145.400000
302.604462	145.840000
302.697662	145.580000
302.790863	145.480000
302.884064	145.400000
302.977264	145.800000
303.070465	145.840000
303.163666	146.880000
303.256866	147.000000
303.350067	147.320000
303.443268	147.200000
303.536469	147.280000
303.629669	146.600000
303.722870	146.560000
303.816071	146.080000
303.909271	145.820000
304.002472	144.780000
304.095673	144.820000
304.188934	144.200000
304.282104	145.460000
304.375336	145.460000
304.468506	145.740000
304.561768	145.720000
304.654968	146.580000
304.748169	145.840000
304.841370	145.700000
304.934601	146.080000
305.027802	145.960000
305.121002	145.520000
305.214233	145.560000
305.307434	145.660000
305.400665	146.020000
305.493866	145.920000
305.587097	145.920000
305.680298	145.680000
305.773499	146.640000
305.866730	146.020000
305.959930	146.560000
306.053162	146.820000
306.146393	146.620000
306.239594	145.760000
306.332825	146.140000
306.426025	146.580000
306.519287	146.080000
306.612488	146.680000
306.705719	146.600000
306.798920	146.420000
306.892181	145.580000
306.985352	145.560000
307.078613	144.620000
307.171844	145.020000
307.265045	144.660000
307.358276	144.420000
307.451508	145.000000
307.544739	145.920000
307.637970	145.300000
307.731201	145.460000
307.824402	146.300000
307.917633	146.360000
308.010864	146.360000
308.104095	147.300000
308.197327	147.340000
308.290558	147.220000
308.383789	146.680000
308.477020	146.240000
308.570251	145.320000
308.663483	145.240000
308.756714	144.680000
308.849976	144.700000
308.943176	145.280000
309.036438	145.380000
309.129639	144.980000
309.222900	145.140000
309.316101	145.260000
309.409393	144.740000
309.502625	144.440000
309.595856	144.900000
309.689087	145.240000
309.782318	145.460000
309.875580	145.540000
309.968811	145.940000
310.062042	145.700000
310.155273	145.400000
310.248535	145.540000
310.341766	145.800000
310.434998	145.820000
310.528259	145.740000
310.621490	146.260000
310.714722	145.660000
310.807983	145.520000
310.901215	145.460000
310.994476	145.820000
311.087708	145.140000
311.181000	145.740000
311.274200	145.380000
311.367462	145.680000
311.460693	145.400000
311.553986	146.100000
311.647186	146.220000
311.740479	146.720000
311.833710	146.220000
311.926971	146.660000
312.020203	146.040000
312.113464	145.600000
312.206726	145.160000
312.299957	145.600000
312.393219	146.080000
312.486481	146.400000
312.579712	146.500000
312.672974	146.940000
312.766235	146.800000
312.859497	145.840000
312.952759	145.700000
313.045990	146.360000
313.139252	145.700000
313.232513	146.160000
313.325775	146.640000
313.419037	146.440000
313.512299	145.460000
313.605530	146.240000
313.698822	145.820000
313.792053	145.960000
313.885345	145.800000
313.978577	146.160000
314.071869	145.460000
314.165131	145.640000
314.258392	145.840000
314.351654	146.080000
314.444916	145.500000
314.538177	146.380000
314.631439	146.720000
314.724701	146.000000
314.817993	145.800000
314.911255	146.180000
315.004517	145.260000
315.097778	144.700000
315.191040	145.500000
315.284302	145.820000
315.377594	145.560000
315.470856	145.860000
315.564117	145.640000
315.657379	145.000000
315.750671	144.580000
315.843933	145.140000
315.937195	144.580000
316.030518	144.680000
316.123749	144.520000
316.217041	145.440000
316.310303	145.080000
316.403595	145.720000
316.496857	146.040000
316.590149	146.340000
316.683411	145.480000
316.776703	145.440000
316.869965	145.380000
316.963257	145.100000
317.056519	144.380000
317.149811	144.580000
317.243073	144.600000
317.336365	144.700000
317.429626	145.160000
317.522919	146.240000
317.616180	146.040000
317.709473	145.840000
317.802765	145.520000
317.896027	145.140000
317.989319	144.780000
318.082611	145.000000
318.175873	145.100000
318.269165	145.280000
318.362488	145.600000
318.455750	145.320000
318.549042	145.660000
318.642303	146.240000
318.735626	146.000000
318.828888	145.780000
318.922211	145.540000
319.015472	145.860000
319.108765	145.120000
319.202057	145.100000
319.295349	145.240000
319.388641	145.620000
319.481934	145.200000
319.575226	145.200000
319.668518	145.440000
319.761810	145.860000
319.855103	145.540000
319.948395	145.540000
320.041687	145.940000
320.134979	146.140000
320.228271	145.600000
320.321564	145.940000
320.414856	145.920000
320.508148	145.340000
320.601440	145.180000
320.694763	145.260000
320.788025	145.840000
320.881348	145.820000
320.974640	146.260000
321.067963	145.640000
321.161224	145.440000
321.254547	144.580000
321.347839	145.220000
321.441162	145.100000
321.534454	145.780000
321.627747	145.680000
321.721069	146.500000
321.814362	146.140000
321.907654	146.220000
322.000946	145.880000
322.094269	146.740000
322.187561	146.300000
322.280884	146.580000
322.374176	146.680000
322.467468	147.300000
322.560791	147.040000
322.654083	147.520000
322.747406	147.280000
322.840698	147.320000
322.934021	147.340000
323.027344	147.280000
323.120636	146.500000
323.213959	146.260000
323.307251	145.760000
323.400574	145.620000
323.493866	145.020000
323.587219	145.840000
323.680511	146.180000
323.773834	146.680000
323.867157	146.660000
323.960449	147.060000
324.053772	146.280000
324.147095	145.840000
324.240387	146.240000
324.333710	146.140000
324.427032	146.140000
324.520355	146.440000
324.613647	146.120000
324.706970	145.420000
324.800293	145.240000
324.893616	145.360000
324.986938	145.320000
325.080231	145.400000
325.173553	145.900000
325.266876	146.400000
325.360199	146.360000
325.453522	145.840000
325.546875	145.580000
325.640167	145.820000
325.733521	145.740000
325.826813	145.940000
325.920166	146.340000
326.013489	146.380000
326.106812	145.440000
326.200134	145.100000
326.293457	144.580000
326.386780	144.640000
326.480103	144.840000
326.573425	144.920000
326.666748	145.100000
326.760071	145.440000
326.853424	145.440000
326.946747	145.520000
327.040070	146.420000
327.133392	146.040000
327.226715	145.480000
327.320068	145.160000
327.413391	145.660000
327.506714	144.700000
327.600037	144.900000
327.693390	144.920000
327.786713	144.960000
327.880066	145.000000
327.973358	145.820000
328.066742	146.280000
328.160034	146.740000
328.253418	147.220000
328.346710	146.980000
328.440063	146.200000
328.533417	145.720000
328.626740	146.040000
328.720093	145.580000
328.813416	145.440000
328.906769	145.580000
329.000092	145.800000
329.093445	145.400000
329.186768	145.380000
329.280121	145.680000
329.373444	146.120000
329.466797	145.960000
329.560120	146.300000
329.653473	146.640000
329.746796	146.060000
329.840149	145.840000
329.933502	145.900000
330.026825	145.240000
330.120178	145.160000
330.213562	145.260000
330.306854	145.220000
330.400238	145.100000
330.493561	145.180000
330.586945	145.800000
330.680237	146.540000
330.773621	146.640000
330.866974	146.800000
330.960327	147.380000
331.053680	146.600000
331.147003	146.320000
331.240356	146.500000
331.333710	146.400000
331.427063	145.800000
331.520416	146.020000
331.613770	145.840000
331.707123	145.820000
331.800476	146.200000
331.893829	147.400000
331.987152	147.220000
332.080505	147.180000
332.173859	146.760000
332.267212	146.020000
332.360565	145.020000
332.453918	144.840000
332.547333	144.560000
332.640656	144.880000
332.734039	145.320000
332.827362	145.360000
332.920746	146.020000
333.014069	146.280000
333.107452	146.380000
333.200806	146.720000
333.294159	146.680000
333.387543	145.920000
333.480896	145.680000
333.574249	145.400000
333.667603	144.740000
333.760956	144.900000
333.854340	145.100000
333.947693	144.920000
334.041046	145.280000
334.134430	145.940000
334.227783	145.500000
334.321136	145.560000
334.414520	145.620000
334.507874	145.620000
334.601227	145.520000
334.694611	145.740000
334.787964	145.940000
334.881348	146.520000
334.974701	146.380000
335.068085	145.740000
335.161438	146.020000
335.254822	145.860000
335.348175	145.800000
335.441559	145.680000
335.534943	146.100000
335.628296	145.740000
335.721680	145.880000
335.815033	145.640000
335.908417	145.600000
336.001770	145.680000
336.095154	145.680000
336.188538	145.300000
336.281891	144.980000
336.375275	144.620000
336.468658	144.420000
336.562012	144.780000
336.655396	145.460000
336.748779	146.160000
336.842133	146.460000
336.935516	146.620000
337.028900	146.100000
337.122284	145.780000
337.215637	145.500000
337.309021	145.200000
337.402435	144.600000
337.495789	144.620000
337.589203	144.560000
337.682526	144.440000
337.775940	144.840000
337.869324	145.460000
337.962708	145.560000
338.056091	146.040000
338.149475	145.560000
338.242859	145.820000
338.336243	145.520000
338.429626	145.940000
338.523010	145.440000
338.616394	145.760000
338.709778	145.800000
338.803162	146.040000
338.896545	145.620000
338.989929	145.480000
339.083313	145.620000
339.176697	145.200000
339.270081	145.240000
339.363464	145.880000
339.456848	146.300000
339.550232	145.940000
339.643616	146.200000
339.737030	145.960000
339.830383	145.240000
339.923828	145.460000
340.017181	145.760000
340.110596	145.620000
340.203949	145.540000
340.297363	145.380000
340.390778	144.960000
340.484161	144.940000
340.577545	145.040000
340.670959	145.180000
340.764343	145.520000
340.857727	145.540000
340.951111	145.300000
341.044525	145.520000
341.137909	145.260000
341.231293	144.940000
341.324707	144.580000
341.418091	145.440000
341.511505	145.260000
341.604889	145.460000
341.698303	145.940000
341.791687	146.220000
341.885071	145.400000
341.978485	145.200000
342.071899	145.380000
342.165283	145.560000
342.258698	145.820000
342.352081	146.320000
342.445496	147.020000
342.538879	147.040000
342.632324	146.400000
342.725708	146.380000
342.819122	145.760000
342.912506	145.260000
343.005920	145.100000
343.099335	146.020000
343.192719	145.660000
343.286133	145.900000
343.379547	146.100000
343.472931	146.260000
343.566345	145.640000
343.659760	145.860000
343.753143	145.560000
343.846558	145.120000
343.939972	145.040000
344.033386	145.560000
344.126770	145.640000
344.220184	145.860000
344.313599	146.440000
344.407043	146.620000
344.500427	145.920000
344.593872	146.420000
344.687225	146.520000
344.780670	146.060000
344.874054	145.620000
344.967499	146.120000
345.060913	145.560000
345.154327	145.600000
345.247742	145.080000
345.341156	145.080000
345.434570	144.740000
345.527985	144.900000
345.621399	144.920000
345.714813	145.260000
345.808228	145.680000
345.901642	145.640000
345.995056	145.200000
346.088470	145.420000
346.181885	145.520000
346.275299	144.900000
346.368713	144.820000
346.462128	144.680000
346.555573	144.640000
346.648987	144.640000
346.742401	144.840000
346.835815	145.300000
346.929260	145.240000
347.022644	145.020000
347.116119	145.380000
347.209503	145.940000
347.302948	146.420000
347.396362	147.100000
347.489807	147.320000
347.583221	147.700000
347.676636	147.120000
347.770050	146.020000
347.863495	145.420000
347.956909	145.260000
348.050323	144.480000
348.143768	144.620000
348.237183	144.660000
348.330597	145.720000
348.424042	146.060000
348.517456	146.480000
348.610901	146.580000
348.704315	146.480000
348.797760	145.500000
348.891174	144.980000
348.984619	144.540000
349.078033	145.060000
349.171448	145.760000
349.264923	145.580000
349.358337	145.780000
349.451782	145.860000
349.545197	145.200000
349.638641	144.860000
349.732086	144.780000
349.825500	145.060000
349.918945	144.740000
350.012390	145.320000
350.105804	145.680000
350.199249	146.060000
350.292664	146.260000
350.386108	146.520000
350.479553	146.700000
350.572968	146.460000
350.666412	146.620000
350.759857	146.400000
350.853302	147.080000
350.946716	146.520000
351.040161	146.940000
351.133606	146.820000
351.227081	146.380000
351.320465	147.000000
351.413940	146.960000
351.507355	146.880000
351.600830	146.900000
351.694244	146.960000
351.787720	146.000000
351.881104	145.960000
351.974579	145.520000
352.067993	146.160000
352.161469	146.140000
352.254883	145.760000
352.348358	145.740000
352.441803	145.580000
352.535248	145.100000
352.628693	145.700000
352.722137	145.700000
352.815582	145.840000
352.909027	146.180000
353.002472	145.960000
353.095917	145.460000
353.189362	145.800000
353.282806	145.520000
353.376251	145.680000
353.469696	145.240000
353.563141	146.080000
353.656586	145.780000
353.750061	145.620000
353.843475	145.320000
353.936981	146.080000
354.030396	145.200000
354.123871	145.260000
354.217285	146.260000
354.310760	146.660000
354.404175	146.320000
354.497681	146.140000
354.591095	145.960000
354.684570	144.900000
354.777985	144.440000
354.871490	144.340000
354.964935	144.940000
355.058380	145.380000
355.151855	145.300000
355.245300	145.640000
355.338745	145.980000
355.432220	145.940000
355.525665	145.320000
355.619110	145.920000
355.712585	145.820000
355.806030	145.540000
355.899475	145.120000
355.992950	145.580000
356.086426	145.940000
356.179871	145.740000
356.273346	145.640000
356.366791	145.740000
356.460266	146.140000
356.553711	145.260000
356.647186	145.360000
356.740631	145.600000
356.834106	145.280000
356.927551	144.800000
357.021027	145.300000
357.114471	145.240000
357.207947	145.380000
357.301422	145.860000
357.394867	146.000000
357.488342	146.260000
357.581818	146.600000
357.675262	146.540000
357.768738	146.080000
357.862213	145.620000
357.955658	145.400000
358.049133	144.960000
358.142609	145.220000
358.236053	145.400000
358.329529	145.600000
358.423035	145.760000
358.516449	145.400000
358.609955	145.640000
358.703400	146.540000
358.796906	146.720000
358.890350	146.040000
358.983826	146.440000
359.077271	145.600000
359.170776	144.860000
359.264221	144.620000
359.357727	145.200000
359.451172	145.820000
359.544647	146.040000
359.638123	145.840000
359.731598	146.360000
359.825073	146.700000
359.918549	146.200000
360.012024	146.480000
360.105499	146.240000
360.198975	145.980000
360.292450	145.580000
360.385925	145.700000
360.479401	144.800000
360.572876	145.280000
360.666351	145.700000
360.759857	145.260000
360.853302	145.340000
360.946808	145.440000
361.040253	145.400000
361.133759	144.720000
361.227203	145.500000
361.320709	145.040000
361.414154	146.000000
361.507660	146.300000
361.601105	146.520000
361.694641	146.400000
361.788086	146.580000
361.881592	146.620000
361.975067	146.360000
362.068542	146.720000
362.162018	146.600000
362.255524	146.200000
362.348999	145.560000
362.442474	145.940000
362.535950	145.420000
362.629456	145.320000
362.722931	145.540000
362.816406	146.180000
362.909882	146.200000
363.003387	145.780000
363.096863	146.240000
363.190338	146.300000
363.283875	145.800000
363.377319	145.200000
363.470825	146.120000
363.564301	145.020000
363.657806	145.220000
363.751282	144.820000
363.844788	145.800000
363.938232	145.200000
364.031769	146.140000
364.125214	146.200000
364.218750	147.020000
364.312225	146.020000
364.405731	146.420000
364.499207	145.760000
364.592712	145.660000
364.686188	145.180000
364.779694	145.300000
364.873169	145.140000
364.966675	145.320000
365.060150	145.200000
365.153656	145.820000
365.247131	145.720000
365.340637	146.020000
365.434143	146.440000
365.527618	146.460000
365.621155	145.420000
365.714600	145.660000
365.808136	145.740000
365.901611	144.780000
365.995117	144.460000
366.088593	144.660000
366.182129	144.540000
366.275604	144.400000
366.369110	145.280000
366.462585	145.180000
366.556122	146.160000
366.649567	146.160000
366.743103	146.100000
366.836609	145.600000
366.930115	146.320000
367.023590	145.940000
367.117096	145.680000
367.210602	145.320000
367.304108	145.920000
367.397614	146.240000
367.491119	146.340000
367.584595	146.700000
367.678101	147.320000
367.771606	146.720000
367.865112	146.140000
367.958649	145.520000
368.052124	145.180000
368.145660	144.920000
368.239136	145.740000
368.332672	145.840000
368.426147	146.020000
368.519684	145.700000
368.613159	145.900000
368.706696	145.440000
368.800171	145.600000
368.893707	145.600000
368.987183	146.100000
369.080719	145.960000
369.174225	145.500000
369.267731	145.280000
369.361237	145.480000
369.454742	145.620000
369.548248	145.980000
369.641754	145.840000
369.735260	145.820000
369.828766	145.300000
369.922272	145.820000
370.015808	145.460000
370.109314	145.540000
370.202820	145.380000
370.296356	146.440000
370.389832	145.640000
370.483368	145.380000
370.576874	145.300000
370.670410	145.580000
370.763885	144.540000
370.857422	144.960000
370.950928	145.260000
371.044464	146.360000
371.137939	146.260000
371.231476	146.760000
371.324982	147.160000
371.418518	147.200000
371.512024	146.720000
371.605560	146.440000
371.699066	146.360000
371.792572	145.620000
371.886108	145.580000
371.979614	145.220000
372.073120	145.880000
372.166656	145.920000
372.260162	146.580000
372.353668	146.400000
372.447205	146.420000
372.540710	146.280000
372.634277	145.960000
372.727753	145.760000
372.821320	145.940000
372.914795	146.260000
373.008362	146.040000
373.101837	146.260000
373.195404	145.840000
373.288879	145.780000
373.382446	146.000000
373.475922	145.940000
373.569489	146.560000
373.662964	147.100000
373.756531	146.900000
373.850037	146.920000
373.943573	146.780000
374.037109	145.860000
374.130615	146.320000
374.224152	146.460000
374.317657	146.040000
374.411194	147.040000
374.504730	147.120000
374.598236	146.220000
374.691772	146.080000
374.785309	146.500000
374.878815	145.480000
374.972351	145.780000
375.065887	145.380000
375.159454	145.980000
375.252930	145.600000
375.346497	145.960000
375.440002	146.500000
375.533569	146.940000
375.627045	146.120000
375.720612	146.020000
375.814117	146.140000
375.907684	145.540000
376.001160	145.260000
376.094727	144.960000
376.188232	145.700000
376.281799	145.640000
376.375336	145.700000
376.468872	146.800000
376.562408	147.260000
376.655914	146.640000
376.749451	146.560000
376.842987	146.660000
376.936523	146.100000
377.030060	146.160000
377.123596	146.420000
377.217133	146.000000
377.310669	146.020000
377.404205	146.300000
377.497772	147.000000
377.591278	146.940000
377.684845	147.620000
377.778351	147.600000
377.871918	147.080000
377.965424	146.060000
378.058990	146.060000
378.152496	145.720000
378.246063	145.960000
378.339569	146.200000
378.433136	146.360000
378.526642	146.360000
378.620209	146.460000
378.713745	145.740000
378.807312	146.300000
378.900848	146.640000
378.994385	146.800000
379.087921	146.120000
379.181458	146.880000
379.274994	145.420000
379.368530	145.180000
379.462097	145.220000
379.555634	146.020000
379.649170	145.140000
379.742706	145.900000
379.836273	145.940000
379.929810	145.540000
380.023376	145.160000
380.116882	145.300000
380.210449	145.040000
380.303986	144.920000
380.397552	144.680000
380.491058	144.580000
380.584656	144.640000
380.678162	144.940000
380.771729	145.080000
380.865265	146.120000
380.958832	146.260000
381.052368	146.640000
381.145935	146.840000
381.239471	147.000000
381.333008	146.500000
381.426575	146.680000
381.520111	146.780000
381.613647	146.960000
381.707214	146.960000
381.800751	146.280000
381.894318	146.380000
381.987854	145.720000
382.081421	145.160000
382.174988	145.240000
382.268524	145.460000
382.362091	145.380000
382.455627	146.280000
382.549194	146.440000
382.642731	145.740000
382.736298	145.380000
382.829834	145.040000
382.923401	145.240000
383.016937	145.400000
383.110504	145.900000
383.204041	146.160000
383.297607	146.880000
383.391174	145.920000
383.484741	146.200000
383.578278	145.900000
383.671844	145.600000
383.765411	144.640000
383.858948	145.240000
383.952515	145.100000
384.046051	145.600000
384.139618	146.280000
384.233185	146.940000
384.326721	146.720000
384.420288	146.960000
384.513855	146.840000
384.607422	146.720000
384.700989	146.720000
384.794525	146.740000
384.888123	146.340000
384.981659	146.300000
385.075226	146.060000
385.168762	145.800000
385.262360	145.460000
385.355896	144.720000
385.449463	144.800000
385.542999	144.860000
385.636597	145.760000
385.730164	146.140000
385.823730	146.260000
385.917267	145.820000
386.010834	146.120000
386.104401	145.760000
386.197968	146.240000
386.291534	146.680000
386.385101	146.760000
386.478668	147.160000
386.572235	146.860000
386.665802	145.660000
386.759338	145.540000
386.852905	145.460000
386.946472	144.680000
387.040070	144.640000
387.133606	145.240000
387.227203	144.840000
387.320740	145.140000
387.414337	145.020000
387.507874	144.880000
387.601471	144.960000
387.695007	145.000000
387.788605	144.900000
387.882141	145.400000
387.975739	145.720000
388.069275	145.440000
388.162872	146.020000
388.256439	145.780000
388.350037	145.580000
388.443604	145.360000
388.537170	145.360000
388.630737	145.380000
388.724304	145.820000
388.817871	145.640000
388.911438	145.580000
389.005005	145.960000
389.098602	146.240000
389.192169	145.880000
389.285736	146.540000
389.379333	146.400000
389.472870	145.820000
389.566467	145.600000
389.660034	145.600000
389.753632	145.040000
389.847168	145.500000
389.940765	146.040000
390.034332	146.020000
390.127930	145.580000
390.221466	145.500000
390.315063	145.180000
390.408630	144.660000
390.502228	143.920000
390.595795	144.460000
390.689362	144.920000
390.782959	145.020000
390.876526	145.440000
390.970093	145.840000
391.063690	146.280000
391.157257	145.940000
391.250824	146.160000
391.344421	146.040000
391.437988	146.360000
391.531555	146.400000
391.625153	146.540000
391.718750	146.920000
391.812317	146.800000
391.905914	146.520000
391.999481	146.200000
392.093079	146.320000
392.186615	146.420000
392.280243	146.320000
392.373779	146.560000
392.467407	147.280000
392.560944	146.920000
392.654572	146.100000
392.748108	146.240000
392.841736	146.000000
392.935303	145.160000
393.028900	145.320000
393.122467	145.540000
393.216064	145.240000
393.309631	144.880000
393.403229	144.620000
393.496796	144.460000
393.590393	143.700000
393.683990	144.040000
393.777557	144.660000
393.871155	144.900000
393.964722	145.320000
394.058350	145.960000
394.151917	146.080000
394.245514	145.780000
394.339081	146.440000
394.432678	146.560000
394.526245	146.280000
394.619873	146.080000
394.713409	146.200000
394.807037	145.700000
394.900604	145.580000
394.994202	145.700000
395.087769	146.160000
395.181396	145.800000
395.274994	146.320000
395.368561	145.800000
395.462158	146.040000
395.555756	145.260000
395.649353	146.060000
395.742920	145.760000
395.836517	146.540000
395.930115	145.740000
396.023712	146.500000
396.117279	146.280000
396.210876	145.760000
396.304474	145.320000
396.398071	145.980000
396.491669	145.900000
396.585266	145.620000
396.678833	145.800000
396.772461	146.120000
396.866028	146.240000
396.959656	146.540000
397.053223	147.000000
397.146851	147.080000
397.240417	147.700000
397.334015	148.880000
397.427582	149.500000
397.521210	150.980000
397.614807	153.380000
397.708405	155.940000
397.802002	158.740000
397.895599	163.020000
397.989197	167.780000
398.082794	173.540000
398.176392	180.440000
398.269989	188.660000
398.363586	199.340000
398.457184	212.460000
398.550781	227.540000
398.644379	243.740000
398.737976	262.800000
398.831573	282.860000
398.925201	302.840000
399.018768	323.060000
399.112396	344.260000
399.205963	365.240000
399.299591	384.160000
399.393158	403.420000
399.486786	423.060000
399.580353	441.120000
399.673981	457.480000
399.767578	475.900000
399.861206	494.220000
399.954773	509.880000
400.048401	521.500000
400.141998	528.040000
400.235596	527.580000
400.329193	519.000000
400.422791	505.000000
400.516418	487.600000
400.610016	469.500000
400.703613	450.020000
400.797211	428.960000
400.890808	408.060000
400.984436	387.380000
401.078033	365.280000
401.171631	343.140000
401.265259	321.960000
401.358826	301.800000
401.452484	281.700000
401.546051	263.280000
401.639679	244.660000
401.733246	228.480000
401.826904	212.780000
401.920471	198.700000
402.014099	186.620000
402.107697	177.540000
402.201324	170.160000
402.294891	164.700000
402.388550	161.040000
402.482147	157.840000
402.575745	154.840000
402.669373	152.000000
402.762970	150.260000
402.856567	149.160000
402.950195	148.500000
403.043793	147.960000
403.137390	148.480000
403.231018	147.040000
403.324615	147.300000
403.418243	146.580000
403.511841	147.040000
403.605469	146.620000
403.699066	147.700000
403.792694	147.420000
403.886292	147.740000
403.979919	147.320000
404.073517	147.000000
404.167145	146.960000
404.260712	146.540000
404.354370	146.220000
404.447937	146.400000
404.541595	146.520000
404.635162	146.640000
404.728821	147.160000
404.822418	146.900000
404.916046	146.480000
405.009644	146.980000
405.103271	146.920000
405.196899	146.640000
405.290497	146.900000
405.384125	147.640000
405.477722	146.820000
405.571350	146.220000
405.664948	146.200000
405.758575	145.980000
405.852203	145.120000
405.945801	145.400000
406.039429	145.680000
406.133057	145.500000
406.226654	145.460000
406.320312	145.280000
406.413879	145.720000
406.507538	145.740000
406.601135	145.340000
406.694763	146.020000
406.788361	146.100000
406.882019	145.500000
406.975586	145.800000
407.069244	146.220000
407.162872	145.780000
407.256470	145.800000
407.350098	145.620000
407.443726	145.000000
407.537323	144.960000
407.630951	145.420000
407.724579	145.260000
407.818207	146.100000
407.911804	146.220000
408.005432	146.000000
408.099060	145.900000
408.192688	146.260000
408.286285	145.680000
408.379913	145.640000
408.473572	145.800000
408.567169	144.900000
408.660828	144.820000
408.754395	144.820000
408.848053	144.840000
408.941650	144.840000
409.035309	144.960000
409.128906	144.840000
409.222565	144.860000
409.316132	144.860000
409.409790	144.740000
409.503387	144.900000
409.597046	145.180000
409.690674	145.180000
409.784302	145.420000
409.877930	145.280000
409.971558	145.360000
410.065186	145.460000
410.158783	145.280000
410.252411	145.240000
410.346039	145.780000
410.439667	145.960000
410.533295	145.800000
410.626923	146.220000
410.720551	145.920000
410.814209	146.040000
410.907806	145.860000
411.001465	145.500000
411.095062	145.380000
411.188721	145.780000
411.282318	145.560000
411.375977	145.460000
411.469574	146.020000
411.563232	145.940000
411.656830	145.520000
411.750488	145.540000
411.844086	145.420000
411.937744	145.160000
412.031372	145.180000
412.125000	145.380000
412.218628	145.240000
412.312256	145.980000
412.405884	146.240000
412.499512	146.160000
412.593170	146.300000
412.686798	146.460000
412.780426	145.960000
412.874054	146.000000
412.967682	146.080000
413.061310	146.660000
413.154968	146.780000
413.248566	146.560000
413.342224	146.220000
413.435852	146.500000
413.529510	145.720000
413.623108	144.840000
413.716766	145.180000
413.810364	145.800000
413.904022	145.660000
413.997650	145.580000
414.091309	146.640000
414.184906	146.500000
414.278564	146.080000
414.372192	146.240000
414.465851	146.460000
414.559479	146.020000
414.653107	146.940000
414.746735	146.800000
414.840393	146.720000
414.934021	146.880000
415.027649	146.820000
415.121277	146.540000
415.214935	146.960000
415.308563	146.820000
415.402191	146.080000
415.495850	146.000000
415.589478	145.460000
415.683136	145.320000
415.776733	145.760000
415.870422	146.720000
415.964020	146.340000
416.057678	146.280000
416.151306	145.880000
416.244965	145.720000
416.338562	145.220000
416.432251	146.100000
416.525848	146.940000
416.619507	147.700000
416.713165	147.700000
416.806793	147.900000
416.900421	147.840000
416.994080	146.800000
417.087708	146.340000
417.181366	145.840000
417.274994	145.800000
417.368622	146.040000
417.462280	146.800000
417.555908	146.620000
417.649567	146.640000
417.743195	146.560000
417.836853	146.220000
417.930481	146.180000
418.024170	146.320000
418.117767	146.780000
418.211426	147.260000
418.305054	147.380000
418.398712	147.060000
418.492340	147.340000
418.585999	147.600000
418.679626	147.400000
418.773285	147.440000
418.866913	147.540000
418.960571	147.500000
419.054230	147.300000
419.147858	147.120000
419.241516	146.940000
419.335144	146.660000
419.428802	146.520000
419.522461	146.100000
419.616089	145.920000
419.709747	146.020000
419.803375	146.160000
419.897034	145.740000
419.990662	145.600000
420.084320	145.980000
420.177979	146.380000
420.271606	146.640000
420.365295	147.360000
420.458893	147.840000
420.552582	147.660000
420.646210	147.180000
420.739868	147.040000
420.833496	146.740000
420.927155	146.080000
421.020782	146.020000
421.114471	145.780000
421.208069	145.880000
421.301758	145.880000
421.395386	146.040000
421.489044	145.700000
421.582703	145.860000
421.676361	146.120000
421.769989	145.840000
421.863647	146.600000
421.957306	146.960000
422.050934	146.900000
422.144592	146.700000
422.238251	146.460000
422.331909	145.620000
422.425537	145.480000
422.519196	145.540000
422.612854	145.280000
422.706543	145.460000
422.800140	146.100000
422.893829	146.000000
422.987457	145.840000
423.081146	145.880000
423.174744	146.360000
423.268433	145.780000
423.362061	145.620000
423.455750	145.120000
423.549347	145.380000
423.643036	144.860000
423.736664	145.580000
423.830353	145.920000
423.924011	146.680000
424.017639	145.880000
424.111298	145.900000
424.204956	145.380000
424.298615	145.460000
424.392273	145.060000
424.485931	145.360000
424.579559	145.360000
424.673218	145.400000
424.766876	145.320000
424.860535	145.000000
424.954193	144.680000
425.047882	145.440000
425.141510	145.660000
425.235199	145.600000
425.328796	145.840000
425.422485	146.200000
425.516113	145.100000
425.609802	144.720000
425.703430	144.800000
425.797119	144.840000
425.890747	144.900000
425.984436	145.500000
426.078064	145.820000
426.171753	145.720000
426.265411	145.700000
426.359070	146.140000
426.452728	145.780000
426.546356	145.640000
426.640015	145.820000
426.733673	145.680000
426.827332	144.880000
426.920990	145.840000
427.014648	145.460000
427.108307	145.420000
427.201965	146.140000
427.295624	146.720000
427.389282	145.900000
427.482941	146.480000
427.576630	146.400000
427.670258	145.600000
427.763947	145.200000
427.857574	145.520000
427.951263	145.120000
428.044922	145.040000
428.138611	145.300000
428.232239	146.020000
428.325928	146.320000
428.419556	146.920000
428.513245	146.540000
428.606903	146.680000
428.700562	146.040000
428.794220	145.380000
428.887878	144.760000
428.981537	145.220000
429.075195	145.260000
429.168854	145.520000
429.262512	145.440000
429.356201	146.040000
429.449860	145.800000
429.543518	145.620000
429.637177	145.900000
429.730835	146.020000
429.824493	145.580000
429.918182	145.880000
430.011810	145.540000
430.105530	144.880000
430.199158	145.400000
430.292847	145.520000
430.386475	145.180000
430.480164	145.280000
430.573792	145.440000
430.667511	145.020000
430.761139	144.780000
430.854828	145.560000
430.948456	145.900000
431.042145	146.040000
431.135834	146.020000
431.229492	146.320000
431.323151	145.860000
431.416809	145.660000
431.510468	145.720000
431.604156	145.580000
431.697815	145.640000
431.791473	145.560000
431.885132	145.340000
431.978821	145.720000
432.072479	146.340000
432.166138	146.700000
432.259827	146.640000
432.353485	147.300000
432.447174	147.180000
432.540802	146.620000
432.634491	146.460000
432.728149	147.100000
432.821838	147.340000
432.915466	146.940000
433.009186	146.940000
433.102814	146.420000
433.196503	145.640000
433.290131	145.220000
433.383850	145.480000
433.477509	145.660000
433.571167	146.640000
433.664856	147.140000
433.758514	147.460000
433.852173	147.300000
433.945862	147.100000
434.039520	146.500000
434.133179	145.920000
434.226868	145.540000
434.320526	145.280000
434.414185	145.820000
434.507874	145.660000
434.601562	146.120000
434.695221	146.200000
434.788910	146.660000
434.882538	146.400000
434.976257	146.040000
435.069885	145.980000
435.163574	145.840000
435.257233	145.240000
435.350922	145.460000
435.444580	145.620000
435.538269	145.180000
435.631897	145.600000
435.725616	146.320000
435.819275	146.580000
435.912964	147.220000
436.006622	148.140000
436.100311	148.120000
436.193970	147.540000
436.287628	146.980000
436.381317	146.220000
436.474976	145.580000
436.568665	145.040000
436.662323	145.180000
436.756012	145.200000
436.849670	145.180000
436.943390	144.860000
437.037018	144.960000
437.130737	145.020000
437.224365	144.820000
437.318085	145.260000
437.411713	145.740000
437.505432	146.200000
437.599060	146.660000
437.692780	147.280000
437.786407	146.940000
437.880127	146.840000
437.973755	146.340000
438.067474	145.560000
438.161133	145.500000
438.254822	145.900000
438.348480	145.620000
438.442169	146.280000
438.535828	146.880000
438.629517	146.360000
438.723175	145.720000
438.816864	146.540000
438.910553	146.060000
439.004211	145.660000
439.097900	145.280000
439.191559	145.480000
439.285248	144.740000
439.378906	145.240000
439.472626	145.240000
439.566284	145.520000
439.659973	145.960000
439.753632	146.060000
439.847321	146.160000
439.940979	146.320000
440.034698	146.660000
440.128326	146.400000
440.222046	146.060000
440.315674	145.160000
440.409393	145.380000
440.503082	145.080000
440.596741	145.140000
440.690430	145.780000
440.784088	145.860000
440.877777	145.140000
440.971466	145.340000
441.065125	145.140000
441.158813	144.720000
441.252502	145.080000
441.346161	145.520000
441.439850	145.700000
441.533539	145.760000
441.627197	146.120000
441.720886	146.000000
441.814606	146.280000
441.908234	146.740000
442.001953	146.460000
442.095612	146.440000
442.189301	146.420000
442.282959	146.380000
442.376678	145.460000
442.470306	146.500000
442.564026	146.440000
442.657684	146.720000
442.751404	146.700000
442.845032	147.700000
442.938751	146.940000
443.032440	147.060000
443.126099	146.380000
443.219788	146.740000
443.313477	146.460000
443.407166	146.760000
443.500824	146.660000
443.594513	147.200000
443.688202	146.640000
443.781891	146.120000
443.875549	145.520000
443.969238	145.400000
444.062927	145.480000
444.156647	145.440000
444.250275	145.700000
444.343994	146.040000
444.437653	146.360000
444.531372	146.240000
444.625031	146.380000
444.718719	145.840000
444.812378	145.700000
444.906097	145.500000
444.999756	144.940000
445.093445	144.880000
445.187103	145.180000
445.280823	145.800000
445.374512	145.220000
445.468201	145.740000
445.561859	145.800000
445.655548	145.900000
445.749237	145.380000
445.842926	145.800000
445.936615	145.920000
446.030304	145.560000
446.123962	145.860000
446.217651	145.760000
446.311340	146.140000
446.405029	145.500000
446.498749	145.400000
446.592407	145.080000
446.686096	145.480000
446.779755	145.200000
446.873474	145.600000
446.967133	146.040000
447.060852	146.140000
447.154510	146.040000
447.248230	146.120000
447.341858	146.420000
447.435577	146.020000
447.529236	145.460000
447.622955	145.200000
447.716644	145.160000
447.810333	144.860000
447.904022	145.360000
447.997711	145.560000
448.091400	145.800000
448.185059	145.760000
448.278748	145.860000
448.372437	145.520000
448.466125	145.840000
448.559814	145.840000
448.653503	146.120000
448.747192	146.380000
448.840912	147.000000
448.934570	146.780000
449.028290	147.160000
449.121948	146.740000
449.215637	146.060000
449.309296	145.440000
449.403015	145.860000
449.496674	145.680000
449.590393	145.720000
449.684052	145.900000
449.777771	146.760000
449.871429	145.900000
449.965149	145.860000
450.058838	146.060000
450.152527	146.620000
450.246216	146.120000
450.339905	146.480000
450.433594	146.140000
450.527283	147.020000
450.620972	146.700000
450.714661	146.540000
450.808350	146.700000
450.902039	147.100000
450.995728	146.100000
451.089417	145.780000
451.183105	145.740000
451.276794	146.100000
451.370514	145.240000
451.464172	144.540000
451.557892	144.400000
451.651550	144.420000
451.745270	143.940000
451.838928	143.680000
451.932648	144.340000
452.026306	144.860000
452.120026	144.520000
452.213684	145.000000
452.307404	145.400000
452.401062	145.520000
452.494781	145.880000
452.588470	146.040000
452.682159	145.320000
452.775848	145.620000
452.869537	145.000000
452.963226	144.400000
453.056915	144.660000
453.150604	145.280000
453.244293	145.580000
453.337982	146.400000
453.431671	146.680000
453.525360	147.080000
453.619049	146.720000
453.712769	146.320000
453.806427	146.000000
453.900146	145.600000
453.993805	145.180000
454.087555	145.560000
454.181213	145.800000
454.274933	145.560000
454.368591	145.780000
454.462311	145.660000
454.555969	144.980000
454.649689	145.480000
454.743347	145.400000
454.837067	146.080000
454.930756	146.060000
455.024445	146.460000
455.118134	145.860000
455.211853	146.020000
455.305542	145.120000
455.399231	144.960000
455.492920	144.960000
455.586609	144.860000
455.680298	145.060000
455.773987	145.000000
455.867676	145.180000
455.961365	145.400000
456.055084	145.520000
456.148773	145.220000
456.242493	145.640000
456.336151	145.700000
456.429871	145.820000
456.523529	146.180000
456.617249	146.060000
456.710907	146.580000
456.804626	146.520000
456.898315	145.860000
456.992035	145.680000
457.085693	145.580000
457.179413	144.860000
457.273102	145.600000
457.366791	145.940000
457.460480	146.140000
457.554199	146.800000
457.647888	146.900000
457.741577	146.400000
457.835266	146.400000
457.928955	146.300000
458.022644	146.600000
458.116364	146.820000
458.210052	146.720000
458.303741	147.100000
458.397461	146.460000
458.491119	145.840000
458.584839	145.840000
458.678528	145.660000
458.772247	145.140000
458.865906	145.500000
458.959625	146.480000
459.053284	146.320000
459.147003	146.360000
459.240692	147.080000
459.334412	147.320000
459.428070	146.480000
459.521790	146.340000
459.615479	145.960000
459.709198	146.100000
459.802887	145.900000
459.896576	145.460000
459.990265	145.640000
460.083954	146.180000
460.177673	145.280000
460.271362	144.980000
460.365051	145.260000
460.458740	145.220000
460.552429	145.040000
460.646149	145.260000
460.739838	145.300000
460.833527	145.580000
460.927246	145.420000
461.020905	145.220000
461.114655	145.120000
461.208313	145.520000
461.302032	144.800000
461.395691	144.800000
461.489441	144.760000
461.583099	144.780000
461.676819	144.300000
461.770477	145.020000
461.864197	144.860000
461.957916	144.740000
462.051605	144.460000
462.145294	145.540000
462.238983	145.260000
462.332703	145.900000
462.426392	146.840000
462.520081	147.040000
462.613770	146.480000
462.707489	146.620000
462.801178	146.140000
462.894867	145.460000
462.988556	145.520000
463.082275	145.380000
463.175964	144.940000
463.269684	145.360000
463.363342	145.460000
463.457092	144.860000
463.550751	145.000000
463.644470	145.500000
463.738129	145.060000
463.831879	145.240000
463.925537	146.220000
464.019257	146.620000
464.112946	146.360000
464.206665	146.060000
464.300323	146.240000
464.394043	145.680000
464.487762	145.280000
464.581451	145.780000
464.675140	146.080000
464.768829	145.780000
464.862549	146.180000
464.956238	146.180000
465.049927	146.160000
465.143646	146.520000
465.237335	146.420000
465.331024	146.820000
465.424713	146.780000
465.518433	146.680000
465.612152	146.240000
465.705811	146.540000
465.799561	146.140000
465.893219	146.060000
465.986938	145.840000
466.080597	145.920000
466.174347	145.960000
466.268005	145.860000
466.361725	145.960000
466.455414	146.200000
466.549133	146.060000
466.642792	146.000000
466.736542	145.520000
466.830231	145.400000
466.923920	145.060000
467.017609	145.280000
467.111328	145.220000
467.205017	145.500000
467.298706	145.660000
467.392426	146.040000
467.486115	146.240000
467.579803	145.760000
467.673523	146.360000
467.767212	146.280000
467.860901	145.840000
467.954651	145.940000
468.048309	146.360000
468.142029	145.820000
468.235718	146.080000
468.329437	145.860000
468.423096	145.740000
468.516846	145.540000
468.610504	145.340000
468.704224	144.780000
468.797913	145.200000
468.891632	145.380000
468.985291	145.420000
469.079010	145.680000
469.172729	145.700000
469.266418	146.140000
469.360107	145.920000
469.453827	146.020000
469.547516	146.100000
469.641205	146.700000
469.734924	146.900000
469.828613	147.120000
469.922302	147.520000
470.016022	147.560000
470.109711	147.140000
470.203430	146.440000
470.297150	145.620000
470.390808	145.440000
470.484558	145.280000
470.578217	145.840000
470.671936	146.120000
470.765625	147.280000
470.859344	146.920000
470.953003	147.160000
471.046753	146.440000
471.140411	145.980000
471.234131	145.680000
471.327820	146.320000
471.421539	146.320000
471.515228	146.180000
471.608948	146.380000
471.702637	145.900000
471.796326	145.540000
471.890045	145.900000
471.983734	146.300000
472.077423	146.160000
472.171143	146.400000
472.264832	146.260000
472.358521	145.540000
472.452240	145.360000
472.545929	145.860000
472.639648	145.780000
472.733337	146.300000
472.827057	146.660000
472.920746	146.620000
473.014465	146.880000
473.108124	146.920000
473.201874	146.580000
473.295532	146.360000
473.389252	146.860000
473.482941	146.420000
473.576660	145.940000
473.670319	145.640000
473.764069	145.840000
473.857727	145.720000
473.951477	145.860000
474.045166	146.440000
474.138855	146.560000
474.232574	146.240000
474.326263	146.000000
474.419952	146.060000
474.513672	145.660000
474.607361	145.500000
474.701050	145.960000
474.794769	146.560000
474.888458	146.620000
474.982178	146.960000
475.075867	147.040000
475.169586	146.860000
475.263275	146.400000
475.356995	146.080000
475.450653	145.920000
475.544403	145.620000
475.638062	146.240000
475.731812	146.020000
475.825470	146.040000
475.919189	146.240000
476.012878	146.560000
476.106598	145.760000
476.200256	146.080000
476.294006	146.240000
476.387695	146.260000
476.481384	146.440000
476.575104	146.600000
476.668793	146.340000
476.762512	145.820000
476.856201	146.180000
476.949890	145.820000
477.043610	145.300000
477.137299	145.080000
477.230988	145.560000
477.324707	145.140000
477.418396	145.580000
477.512146	145.920000
477.605804	146.020000
477.699524	145.880000
477.793213	145.460000
477.886932	145.280000
477.980591	145.320000
478.074341	145.200000
478.167999	144.960000
478.261749	145.280000
478.355408	144.940000
478.449127	144.980000
478.542816	146.080000
478.636536	146.800000
478.730225	146.780000
478.823944	147.420000
478.917633	147.580000
479.011322	147.060000
479.105042	146.840000
479.198730	147.020000
479.292450	146.920000
479.386139	147.180000
479.479828	147.240000
479.573547	147.560000
479.667267	147.440000
479.760925	147.180000
479.854675	147.080000
479.948334	146.760000
480.042084	145.880000
480.135742	146.240000
480.229462	145.960000
480.323151	145.780000
480.416870	145.680000
480.510529	145.980000
480.604279	145.500000
480.697937	145.920000
480.791656	145.640000
480.885345	145.480000
480.979065	145.160000
481.072754	145.740000
481.166473	146.220000
481.260132	146.060000
481.353882	146.280000
481.447540	146.460000
481.541260	146.200000
481.635010	145.440000
481.728668	145.680000
481.822388	145.240000
481.916077	145.420000
482.009796	145.220000
482.103485	145.480000
482.197205	145.640000
482.290863	146.320000
482.384613	146.280000
482.478271	145.920000
482.571991	145.720000
482.665680	145.500000
482.759399	146.040000
482.853058	146.520000
482.946808	146.860000
483.040466	146.780000
483.134216	147.020000
483.227875	146.280000
483.321594	146.200000
483.415283	146.240000
483.509003	146.420000
483.602661	146.120000
483.696411	146.460000
483.790070	146.260000
483.883789	146.380000
483.977478	146.640000
484.071198	146.760000
484.164917	146.100000
484.258606	145.700000
484.352325	145.880000
484.445984	145.680000
484.539734	145.560000
484.633392	145.200000
484.727142	145.760000
484.820801	145.340000
484.914520	145.540000
485.008209	146.100000
485.101929	146.860000
485.195587	146.460000
485.289337	146.440000
485.382996	146.380000
485.476715	146.160000
485.570404	146.420000
485.664124	146.320000
485.757782	146.760000
485.851532	146.600000
485.945190	146.600000
486.038910	146.540000
486.132599	146.940000
486.226318	146.320000
486.319977	146.340000
486.413727	146.540000
486.507446	146.200000
486.601105	145.380000
486.694855	145.320000
486.788513	145.080000
486.882233	144.620000
486.975922	144.620000
487.069641	145.000000
487.163300	144.900000
487.257050	146.000000
487.350708	145.600000
487.444427	145.500000
487.538116	145.460000
487.631836	145.640000
487.725494	145.400000
487.819214	145.780000
487.912903	145.840000
488.006622	146.440000
488.100281	146.620000
488.194031	146.120000
488.287689	146.360000
488.381409	146.860000
488.475098	146.380000
488.568817	146.460000
488.662476	146.180000
488.756226	145.840000
488.849945	144.960000
488.943604	145.220000
489.037354	145.560000
489.131012	145.560000
489.224731	145.480000
489.318390	145.700000
489.412140	145.640000
489.505798	145.340000
489.599518	145.160000
489.693207	145.780000
489.786926	145.780000
489.880585	145.560000
489.974335	145.760000
490.067993	146.880000
490.161713	146.680000
490.255371	147.220000
490.349121	147.400000
490.442780	147.140000
490.536499	146.160000
490.630188	145.960000
490.723907	145.640000
490.817566	145.540000
490.911285	145.680000
491.004974	145.800000
491.098694	145.600000
491.192413	146.000000
491.286102	146.120000
491.379822	146.040000
491.473480	145.920000
491.567200	146.160000
491.660889	145.440000
491.754608	145.560000
491.848267	145.360000
491.941986	145.480000
492.035675	144.960000
492.129395	145.580000
492.223053	145.280000
492.316772	145.700000
492.410461	145.580000
492.504181	146.040000
492.597839	145.520000
492.691559	145.620000
492.785248	145.440000
492.878967	145.580000
492.972626	145.380000
493.066345	145.460000
493.160034	145.180000
493.253754	145.120000
493.347412	144.840000
493.441132	145.260000
493.534882	146.040000
493.628540	146.580000
493.722260	147.040000
493.815918	147.380000
493.909668	147.560000
494.003326	147.420000
494.097046	147.220000
494.190704	146.740000
494.284454	146.740000
494.378113	146.600000
494.471832	145.920000
494.565491	145.500000
494.659210	145.480000
494.752899	145.280000
494.846619	145.040000
494.940277	145.520000
495.033997	145.760000
495.127686	145.560000
495.221405	145.420000
495.315063	145.640000
495.408783	145.280000
495.502441	145.520000
495.596191	145.740000
495.689850	145.880000
495.783569	146.100000
495.877228	146.140000
495.970947	145.480000
496.064697	145.500000
496.158356	146.320000
496.252075	145.940000
496.345734	145.660000
496.439453	146.800000
496.533142	146.700000
496.626862	146.580000
496.720520	146.660000
496.814240	147.160000
496.907898	146.580000
497.001617	146.800000
497.095306	145.920000
497.189026	145.760000
497.282684	145.620000
497.376404	145.920000
497.470062	145.800000
497.563782	146.340000
497.657471	146.220000
497.751190	145.920000
497.844849	145.820000
497.938568	146.000000
498.032227	145.860000
498.125946	146.120000
498.219635	146.000000
498.313354	146.020000
498.407074	145.820000
498.500732	145.620000
498.594452	145.720000
498.688110	145.700000
498.781830	145.400000
498.875519	145.300000
498.969238	145.240000
499.062897	145.200000
499.156616	145.920000
499.250275	146.200000
499.343994	145.920000
499.437653	146.200000
499.531372	146.300000
499.625061	146.400000
499.718781	146.540000
499.812439	146.860000
499.906158	146.720000
499.999817	146.540000
500.093536	145.620000
500.187195	145.320000
500.280914	145.380000
500.374573	145.580000
500.468323	145.060000
500.561981	145.580000
500.655701	144.940000
500.749420	144.980000
500.843079	145.080000
500.936798	145.720000
501.030457	146.220000
501.124176	146.900000
501.217834	146.700000
501.311554	146.480000
501.405212	146.200000
501.498962	145.520000
501.592621	145.460000
501.686340	145.920000
501.779999	145.980000
501.873718	146.100000
501.967377	146.360000
502.061096	146.600000
502.154755	146.040000
502.248474	146.380000
502.342133	146.560000
502.435852	146.240000
502.529510	146.700000
502.623230	147.240000
502.716888	146.260000
502.810608	146.180000
502.904266	146.620000
502.997986	145.780000
503.091705	145.000000
503.185364	145.240000
503.279083	145.300000
503.372772	145.140000
503.466492	144.860000
503.560150	145.140000
503.653870	145.700000
503.747528	145.560000
503.841248	145.600000
503.934906	145.860000
504.028625	145.900000
504.122284	145.900000
504.216003	146.280000
504.309662	146.060000
504.403381	146.280000
504.497040	146.300000
504.590759	145.820000
504.684418	146.040000
504.778137	146.640000
504.871796	147.160000
504.965515	146.980000
505.059174	147.320000
505.152893	146.800000
505.246521	145.700000
505.340240	145.160000
505.433899	145.360000
505.527618	145.560000
505.621338	145.620000
505.714996	145.880000
505.808716	145.620000
505.902374	146.420000
505.996094	146.160000
506.089752	145.940000
506.183472	146.480000
506.277130	146.720000
506.370850	145.960000
506.464508	145.720000
506.558228	145.800000
506.651886	145.620000
506.745605	145.760000
506.839264	146.140000
506.932983	146.300000
507.026611	146.300000
507.120331	146.640000
507.213989	146.040000
507.307709	145.800000
507.401367	146.220000
507.495087	147.000000
507.588745	146.400000
507.682465	147.460000
507.776123	147.340000
507.869843	147.260000
507.963531	146.800000
508.057190	147.480000
508.150909	146.680000
508.244568	146.940000
508.338287	146.360000
508.431946	145.960000
508.525665	145.380000
508.619324	145.540000
508.713013	145.620000
508.806671	146.160000
508.900391	147.080000
508.994049	147.420000
509.087769	146.980000
509.181427	146.640000
509.275146	146.140000
509.368774	145.060000
509.462494	144.900000
509.556152	144.880000
509.649872	145.480000
509.743530	145.420000
509.837250	145.780000
509.930878	145.620000
510.024597	145.680000
510.118256	145.200000
510.211975	145.400000
510.305695	145.020000
510.399353	145.600000
510.493042	146.300000
510.586700	146.200000
510.680420	146.700000
510.774078	146.660000
510.867798	146.340000
510.961426	145.740000
511.055145	145.940000
511.148804	145.540000
511.242523	146.080000
511.336151	146.400000
511.429871	146.760000
511.523529	146.500000
511.617249	146.080000
511.710876	145.900000
511.804596	145.320000
511.898254	145.160000
511.991974	145.560000
512.085632	145.500000
512.179321	145.600000
512.272949	146.200000
512.366699	146.780000
512.460327	146.700000
512.554077	147.980000
512.647766	147.760000
512.741394	147.120000
512.835144	147.220000
512.928772	146.780000
513.022461	146.280000
513.116150	146.180000
513.209839	146.580000
513.303467	145.740000
513.397217	145.540000
513.490845	145.460000
513.584595	145.280000
513.678223	144.960000
513.771912	144.600000
513.865601	145.000000
513.959290	144.660000
514.052917	144.920000
514.146667	145.720000
514.240295	146.280000
514.333984	146.560000
514.427673	146.460000
514.521362	146.880000
514.614990	146.100000
514.708740	146.060000
514.802368	146.060000
514.896057	146.360000
514.989746	146.740000
515.083435	146.640000
515.177124	146.880000
515.270752	146.360000
515.364502	146.140000
515.458130	146.100000
515.551819	146.000000
515.645508	145.740000
515.739197	145.780000
515.832825	145.820000
515.926575	145.000000
516.020203	145.180000
516.113892	145.760000
516.207520	145.780000
516.301270	145.600000
516.394897	145.820000
516.488586	146.300000
516.582275	145.820000
516.675964	145.460000
516.769592	145.440000
516.863281	146.300000
516.956970	146.240000
517.050659	146.260000
517.144287	146.600000
517.238037	146.960000
517.331665	145.840000
517.425354	145.520000
517.519043	145.320000
517.612732	145.780000
517.706421	145.780000
517.800049	145.800000
517.893738	145.380000
517.987427	145.500000
518.081116	145.080000
518.174744	144.820000
518.268433	145.280000
518.362122	146.320000
518.455811	146.280000
518.549438	146.900000
518.643127	147.860000
518.736816	147.380000
518.830505	146.840000
518.924133	146.520000
519.017822	146.280000
519.111511	145.580000
519.205200	146.060000
519.298828	145.980000
519.392517	146.040000
519.486206	146.160000
519.579895	146.380000
519.673523	146.000000
519.767212	145.940000
519.860901	146.820000
519.954590	146.220000
520.048279	145.380000
520.141907	145.400000
520.235596	146.220000
520.329224	146.040000
520.422974	146.320000
520.516602	146.880000
520.610291	146.720000
520.703918	146.240000
520.797607	145.580000
520.891296	145.600000
520.984985	145.760000
521.078613	146.480000
521.172302	146.200000
521.265930	147.360000
521.359680	147.800000
521.453308	147.380000
521.546997	147.000000
521.640625	147.260000
521.734314	146.060000
521.827942	145.600000
521.921692	145.900000
522.015320	146.040000
522.109009	145.640000
522.202698	145.740000
522.296326	145.700000
522.390015	145.700000
522.483704	145.600000
522.577393	145.380000
522.671021	145.380000
522.764709	144.940000
522.858337	145.320000
522.952026	145.280000
523.045654	145.980000
523.139404	146.680000
523.233032	146.980000
523.326721	146.620000
523.420349	146.760000
523.514038	146.340000
523.607666	146.560000
523.701355	146.520000
523.795044	146.420000
523.888733	146.300000
523.982361	146.480000
524.076050	145.860000
524.169678	146.200000
524.263367	146.000000
524.356995	145.440000
524.450684	145.400000
524.544373	145.260000
524.638062	145.200000
524.731750	145.280000
524.825378	145.780000
524.919067	145.380000
525.012695	145.240000
525.106384	144.900000
525.200012	145.240000
525.293701	145.020000
525.387329	145.620000
525.481018	146.000000
525.574646	146.520000
525.668396	146.280000
525.762024	146.700000
525.855713	146.840000
525.949341	146.540000
526.043030	146.580000
526.136658	146.820000
526.230347	146.460000
526.323975	145.780000
526.417664	145.900000
526.511292	145.860000
526.604980	145.540000
526.698608	145.640000
526.792297	146.000000
526.885925	146.120000
526.979614	146.560000
527.073303	146.600000
527.166931	146.700000
527.260620	146.820000
527.354309	147.260000
527.447998	146.300000
527.541626	146.420000
527.635315	146.520000
527.728943	146.840000
527.822632	146.720000
527.916260	147.280000
528.009949	147.380000
528.103577	146.980000
528.197266	146.140000
528.290894	145.960000
528.384583	145.620000
528.478210	145.500000
528.571899	145.800000
528.665527	146.340000
528.759216	146.400000
528.852844	146.940000
528.946533	146.920000
529.040161	146.820000
529.133850	146.340000
529.227478	146.460000
529.321167	146.440000
529.414856	146.900000
529.508484	147.420000
529.602173	147.420000
529.695801	147.200000
529.789490	146.960000
529.883057	146.440000
529.976746	146.400000
530.070374	146.780000
530.164062	146.720000
530.257690	146.680000
530.351379	147.160000
530.445007	146.720000
530.538696	146.060000
530.632324	146.340000
530.726013	146.420000
530.819641	146.280000
530.913330	146.460000
531.006958	146.640000
531.100647	146.140000
531.194275	145.980000
531.287964	145.400000
531.381592	145.080000
531.475220	145.380000
531.568848	145.720000
531.662537	145.820000
531.756226	146.540000
531.849854	146.700000
531.943542	146.620000
532.037170	146.220000
532.130859	146.520000
532.224487	145.840000
532.318176	145.380000
532.411804	145.660000
532.505432	145.960000
532.599060	145.480000
532.692749	145.520000
532.786377	146.140000
532.880066	145.700000
532.973694	145.180000
533.067383	145.440000
533.161011	145.640000
533.254639	145.360000
533.348267	145.420000
533.441956	145.820000
533.535583	145.380000
533.629272	145.320000
533.722900	144.940000
533.816589	145.020000
533.910156	145.160000
534.003845	144.900000
534.097534	145.500000
534.191162	146.440000
534.284851	146.700000
534.378479	146.340000
534.472107	146.820000
534.565735	146.400000
534.659424	146.420000
534.753052	146.460000
534.846741	146.380000
534.940369	147.040000
535.033997	147.000000
535.127625	146.700000
535.221313	146.900000
535.314941	147.220000
535.408630	146.500000
535.502197	146.740000
535.595886	146.320000
535.689514	145.940000
535.783203	146.020000
535.876831	146.180000
535.970459	146.240000
536.064087	146.300000
536.157776	146.580000
536.251404	146.600000
536.345093	146.360000
536.438721	146.100000
536.532349	146.340000
536.626038	145.940000
536.719666	146.100000
536.813293	146.020000
536.906921	146.120000
537.000610	146.320000
537.094238	146.340000
537.187866	146.280000
537.281494	146.380000
537.375183	146.340000
537.468811	146.160000
537.562439	146.260000
537.656067	146.040000
537.749756	146.160000
537.843384	146.240000
537.937012	146.360000
538.030640	146.060000
538.124329	146.000000
538.217896	146.280000
538.311584	146.420000
538.405212	146.140000
538.498901	146.840000
538.592468	147.340000
538.686157	146.640000
538.779785	146.000000
538.873413	145.960000
538.967102	145.160000
539.060730	144.780000
539.154358	145.460000
539.247986	146.040000
539.341675	146.480000
539.435242	146.680000
539.528931	146.760000
539.622559	146.100000
539.716187	146.380000
539.809814	146.080000
539.903503	146.400000
539.997070	146.260000
540.090759	146.480000
540.184387	146.000000
540.278015	146.420000
540.371643	146.300000
540.465332	146.200000
540.558899	146.040000
540.652588	146.120000
540.746216	145.720000
540.839844	145.960000
540.933472	145.900000
541.027100	145.880000
541.120728	145.900000
541.214417	146.140000
541.308044	146.140000
541.401672	146.140000
541.495300	146.060000
541.588928	146.060000
541.682617	145.880000
541.776184	145.620000
541.869873	146.180000
541.963440	146.540000
542.057129	146.340000
542.150757	146.300000
542.244385	146.060000
542.338013	145.280000
542.431641	145.280000
542.525269	145.240000
542.618958	145.600000
542.712524	146.100000
542.806213	146.380000
542.899780	146.140000
542.993469	145.880000
543.087036	145.580000
543.180725	145.060000
543.274292	145.240000
543.367981	145.600000
543.461548	146.260000
543.555237	146.060000
543.648926	146.560000
543.742493	147.380000
543.836182	147.340000
543.929749	147.220000
544.023437	147.340000
544.117004	147.220000
544.210693	146.520000
544.304260	146.560000
544.397949	146.320000
544.491516	146.460000
544.585205	146.540000
544.678772	146.200000
544.772461	146.240000
544.866028	146.060000
544.959717	146.220000
545.053284	145.960000
545.146973	146.460000
545.240540	146.520000
545.334229	147.280000
545.427795	147.280000
545.521423	147.380000
545.615051	147.160000
545.708679	147.220000
545.802307	146.780000
545.895935	146.800000
545.989624	147.540000
546.083191	147.540000
546.176880	147.700000
546.270447	147.460000
546.364136	147.800000
546.457703	147.160000
546.551331	147.220000
546.644958	147.200000
546.738586	147.700000
546.832214	147.240000
546.925842	146.820000
547.019409	146.760000
547.113098	145.880000
547.206665	145.300000
547.300354	145.080000
547.393921	145.740000
547.487549	145.900000
547.581177	146.140000
547.674805	146.300000
547.768433	145.720000
547.862061	145.580000
547.955627	145.000000
548.049316	145.660000
548.142883	146.120000
548.236572	146.900000
548.330139	146.980000
548.423767	147.020000
548.517456	146.440000
548.611023	146.540000
548.704651	145.960000
548.798279	145.740000
548.891907	146.240000
548.985474	146.400000
549.079163	146.280000
549.172729	146.040000
549.266357	145.460000
549.359985	145.240000
549.453613	145.020000
549.547180	144.720000
549.640869	145.640000
549.734436	145.860000
549.828064	146.380000
549.921631	146.020000
550.015320	145.460000
550.108887	145.640000
550.202515	145.620000
550.296143	144.980000
550.389771	145.660000
550.483337	146.000000
550.576965	145.520000
550.670593	146.100000
550.764221	146.200000
550.857849	146.120000
550.951477	145.640000
551.045105	145.140000
551.138672	144.900000
551.232300	144.740000
551.325928	144.940000
551.419556	145.520000
551.513123	146.080000
551.606750	145.820000
551.700378	145.940000
551.794006	145.620000
551.887573	145.300000
551.981201	145.560000
552.074768	145.640000
552.168457	145.280000
552.262024	146.380000
552.355652	146.160000
552.449219	146.260000
552.542847	146.600000
552.636475	146.580000
552.730103	145.280000
552.823669	145.700000
552.917297	145.220000
553.010864	144.960000
553.104553	145.660000
553.198181	145.620000
553.291748	145.820000
553.385376	146.120000
553.478943	145.700000
553.572571	145.280000
553.666199	145.500000
553.759827	145.180000
553.853394	144.580000
553.947021	145.200000
554.040588	145.080000
554.134216	145.240000
554.227783	146.000000
554.321411	146.840000
554.415039	145.980000
554.508667	146.000000
554.602234	146.080000
554.695862	145.300000
554.789429	144.640000
554.883057	145.100000
554.976624	145.180000
555.070251	144.980000
555.163818	145.060000
555.257507	145.280000
555.351074	145.480000
555.444702	146.600000
555.538330	146.380000
555.631897	146.940000
555.725525	146.660000
555.819092	146.420000
555.912720	145.080000
556.006287	145.520000
556.099915	145.020000
556.193481	145.440000
556.287109	145.780000
556.380676	146.020000
556.474304	146.300000
556.567871	146.640000
556.661499	146.060000
556.755066	145.960000
556.848694	145.980000
556.942261	145.420000
557.035889	145.400000
557.129517	145.760000
557.223145	145.820000
557.316711	145.960000
557.410339	146.120000
557.503906	145.540000
557.597473	145.740000
557.691040	145.560000
557.784668	145.380000
557.878296	145.300000
557.971863	145.840000
558.065491	145.920000
558.159058	145.800000
558.252686	146.660000
558.346252	147.120000
558.439880	146.620000
558.533447	146.260000
558.627075	146.040000
558.720642	145.540000
558.814270	145.140000
558.907837	145.280000
559.001465	145.200000
559.095032	146.080000
559.188660	145.880000
559.282227	145.600000
559.375854	146.180000
559.469360	146.160000
559.562988	146.340000
559.656555	146.100000
559.750183	146.320000
559.843750	146.200000
559.937378	146.420000
560.030945	145.720000
560.124573	0.000000
560.218140	0.000000
560.311707	0.000000
560.405334	0.000000
560.498901	0.000000
560.592529	0.000000
560.686096	0.000000
560.779724	0.000000
560.873291	0.000000
560.966858	0.000000
561.060425	0.000000
561.154053	0.000000
561.247620	0.000000
561.341248	0.000000
561.434814	0.000000
561.528381	0.000000
561.621948	0.000000
561.715576	0.000000
561.809143	0.000000
561.902771	0.000000
561.996277	0.000000
562.089905	0.000000
562.183472	0.000000
562.277100	0.000000
