Model Number: SPM-002-B   
Serial Number: 70087108
Firmware Version: 004.15.4
Exposure Time: 100000.000000us
Data Taken on: 11-12-2020 19:39:16.598
Wavelength	Amplitude
221.570786	0.000000
221.663406	0.000000
221.756027	0.000000
221.848648	0.000000
221.941269	0.000000
222.033905	0.000000
222.126526	0.000000
222.219162	0.000000
222.311798	0.000000
222.404419	0.000000
222.497055	0.000000
222.589676	0.000000
222.682312	0.000000
222.774933	0.000000
222.867569	0.000000
222.960205	0.000000
223.052841	0.000000
223.145462	0.000000
223.238098	0.000000
223.330734	0.000000
223.423386	0.000000
223.516022	0.000000
223.608658	0.000000
223.701309	0.000000
223.793945	0.000000
223.886581	0.000000
223.979218	0.000000
224.071869	0.000000
224.164505	0.000000
224.257156	0.000000
224.349792	0.000000
224.442444	0.000000
224.535095	0.000000
224.627747	0.000000
224.720398	0.000000
224.813034	0.000000
224.905685	0.000000
224.998337	145.720000
225.090988	145.420000
225.183640	145.080000
225.276291	145.020000
225.368942	145.480000
225.461594	146.000000
225.554245	146.300000
225.646912	146.380000
225.739578	146.700000
225.832230	147.100000
225.924896	146.120000
226.017548	146.300000
226.110199	147.160000
226.202866	146.580000
226.295532	146.300000
226.388184	146.320000
226.480850	145.700000
226.573517	145.000000
226.666168	145.280000
226.758835	145.900000
226.851501	146.260000
226.944183	146.620000
227.036850	146.280000
227.129517	145.860000
227.222183	145.580000
227.314850	145.680000
227.407516	145.920000
227.500198	146.660000
227.592865	146.640000
227.685532	146.080000
227.778214	146.160000
227.870880	146.160000
227.963562	146.480000
228.056229	147.080000
228.148926	147.020000
228.241592	147.460000
228.334274	147.080000
228.426956	146.640000
228.519638	146.380000
228.612305	146.140000
228.704987	145.720000
228.797668	146.300000
228.890350	146.000000
228.983032	145.220000
229.075714	146.220000
229.168396	145.960000
229.261108	145.300000
229.353790	145.320000
229.446472	146.020000
229.539169	145.580000
229.631851	145.520000
229.724533	145.900000
229.817230	146.300000
229.909912	147.200000
230.002609	147.040000
230.095306	147.380000
230.187988	147.100000
230.280685	146.980000
230.373383	146.000000
230.466095	145.980000
230.558792	146.040000
230.651474	146.020000
230.744171	145.960000
230.836868	146.020000
230.929581	146.500000
231.022278	146.320000
231.114975	146.640000
231.207672	146.340000
231.300369	146.340000
231.393082	146.260000
231.485779	146.080000
231.578506	145.760000
231.671204	145.920000
231.763916	145.980000
231.856613	145.860000
231.949326	146.520000
232.042023	146.700000
232.134735	146.860000
232.227448	146.700000
232.320160	146.800000
232.412872	146.660000
232.505585	147.220000
232.598297	147.200000
232.691010	147.160000
232.783722	146.880000
232.876450	147.120000
232.969162	146.440000
233.061874	146.100000
233.154587	145.980000
233.247314	146.220000
233.340027	145.720000
233.432739	146.240000
233.525467	146.380000
233.618179	147.140000
233.710907	147.080000
233.803635	147.500000
233.896347	147.340000
233.989090	147.920000
234.081818	147.360000
234.174545	147.480000
234.267258	146.840000
234.359985	146.620000
234.452713	146.260000
234.545441	146.200000
234.638168	145.820000
234.730896	146.420000
234.823639	146.520000
234.916367	146.920000
235.009094	146.940000
235.101822	147.260000
235.194580	147.040000
235.287308	147.000000
235.380051	146.180000
235.472778	146.420000
235.565521	146.700000
235.658249	146.220000
235.750992	146.420000
235.843719	146.800000
235.936462	147.220000
236.029205	146.700000
236.121948	146.440000
236.214691	146.440000
236.307449	146.740000
236.400192	145.960000
236.492935	145.780000
236.585678	146.280000
236.678421	146.420000
236.771164	146.380000
236.863907	147.060000
236.956665	147.300000
237.049408	148.480000
237.142151	147.960000
237.234909	148.540000
237.327652	148.460000
237.420410	148.300000
237.513153	147.340000
237.605927	147.160000
237.698669	146.360000
237.791428	145.900000
237.884186	146.480000
237.976944	146.040000
238.069702	146.620000
238.162445	146.400000
238.255203	146.320000
238.347961	146.340000
238.440720	146.580000
238.533478	146.180000
238.626266	146.100000
238.719025	146.760000
238.811783	146.460000
238.904541	146.240000
238.997314	145.900000
239.090073	145.840000
239.182831	145.480000
239.275604	146.180000
239.368362	145.880000
239.461136	146.420000
239.553909	146.340000
239.646667	146.160000
239.739441	145.440000
239.832214	145.860000
239.925003	145.780000
240.017761	146.440000
240.110535	146.900000
240.203308	146.600000
240.296082	146.800000
240.388855	146.860000
240.481628	146.800000
240.574417	146.860000
240.667191	147.240000
240.759964	146.680000
240.852737	146.820000
240.945526	146.380000
241.038315	145.780000
241.131088	145.780000
241.223877	146.400000
241.316650	145.820000
241.409439	146.180000
241.502228	146.080000
241.595001	146.500000
241.687790	146.080000
241.780579	146.340000
241.873367	146.420000
241.966141	146.800000
242.058929	146.160000
242.151718	146.360000
242.244507	146.720000
242.337311	146.040000
242.430099	146.400000
242.522903	146.600000
242.615692	146.460000
242.708481	146.480000
242.801270	146.920000
242.894073	146.860000
242.986862	146.560000
243.079651	147.200000
243.172455	146.920000
243.265244	147.080000
243.358063	146.380000
243.450867	147.120000
243.543655	146.680000
243.636459	146.920000
243.729263	147.300000
243.822067	147.740000
243.914856	148.160000
244.007660	148.100000
244.100464	147.640000
244.193268	146.840000
244.286072	146.600000
244.378876	145.560000
244.471680	145.180000
244.564499	145.880000
244.657318	146.600000
244.750122	146.860000
244.842926	146.560000
244.935745	147.160000
245.028549	146.400000
245.121368	146.020000
245.214172	145.940000
245.306992	146.420000
245.399796	146.160000
245.492615	146.540000
245.585434	146.440000
245.678253	146.320000
245.771072	146.260000
245.863892	146.840000
245.956711	146.720000
246.049530	146.480000
246.142349	146.420000
246.235168	146.460000
246.327988	146.380000
246.420807	146.440000
246.513626	146.640000
246.606445	146.460000
246.699280	146.420000
246.792099	145.980000
246.884918	145.500000
246.977753	145.100000
247.070587	145.600000
247.163422	145.580000
247.256241	145.640000
247.349075	146.220000
247.441895	146.340000
247.534729	146.140000
247.627563	145.760000
247.720383	146.180000
247.813217	146.060000
247.906052	145.980000
247.998886	145.980000
248.091736	146.280000
248.184570	146.040000
248.277405	146.120000
248.370239	147.400000
248.463074	148.120000
248.555908	148.280000
248.648743	148.060000
248.741592	147.940000
248.834427	146.860000
248.927261	145.860000
249.020111	146.080000
249.112946	146.560000
249.205795	146.380000
249.298630	146.540000
249.391495	146.640000
249.484344	146.420000
249.577179	146.480000
249.670029	146.840000
249.762878	147.500000
249.855728	147.560000
249.948563	147.380000
250.041412	146.660000
250.134262	146.860000
250.227112	146.800000
250.319962	146.780000
250.412827	146.760000
250.505692	146.440000
250.598541	146.040000
250.691391	145.320000
250.784241	145.440000
250.877106	145.580000
250.969955	145.680000
251.062805	146.660000
251.155670	147.580000
251.248520	147.460000
251.341385	147.720000
251.434235	147.920000
251.527100	147.000000
251.619965	146.180000
251.712814	146.980000
251.805695	146.700000
251.898560	146.860000
251.991425	147.200000
252.084290	147.800000
252.177155	146.820000
252.270020	146.760000
252.362885	146.860000
252.455750	146.700000
252.548615	146.100000
252.641479	146.260000
252.734360	146.100000
252.827240	145.900000
252.920105	146.000000
253.012970	145.760000
253.105850	145.860000
253.198715	145.980000
253.291595	145.880000
253.384460	145.660000
253.477341	145.840000
253.570221	145.780000
253.663086	145.440000
253.755966	146.160000
253.848846	145.820000
253.941727	146.160000
254.034592	146.260000
254.127472	145.960000
254.220367	145.520000
254.313248	145.860000
254.406128	145.340000
254.499008	145.660000
254.591904	146.740000
254.684784	147.580000
254.777664	147.720000
254.870544	147.900000
254.963440	147.560000
255.056335	147.540000
255.149216	146.600000
255.242111	146.800000
255.334991	147.080000
255.427887	147.040000
255.520767	146.600000
255.613663	147.000000
255.706558	146.240000
255.799438	145.900000
255.892334	145.780000
255.985229	145.740000
256.078125	145.460000
256.171021	145.920000
256.263916	146.560000
256.356812	146.700000
256.449707	146.920000
256.542603	146.700000
256.635498	147.220000
256.728394	146.820000
256.821289	146.480000
256.914215	146.620000
257.007080	146.940000
257.100006	146.400000
257.192932	146.640000
257.285828	147.000000
257.378723	146.680000
257.471619	146.460000
257.564545	146.220000
257.657440	146.280000
257.750336	146.440000
257.843262	146.300000
257.936157	147.180000
258.029053	147.360000
258.121979	147.300000
258.214874	147.240000
258.307800	147.200000
258.400696	146.420000
258.493622	146.620000
258.586517	145.860000
258.679443	145.960000
258.772339	145.340000
258.865265	145.160000
258.958160	144.460000
259.051086	145.380000
259.144012	145.340000
259.236938	146.620000
259.329834	146.740000
259.422791	147.060000
259.515717	146.420000
259.608612	145.980000
259.701538	145.900000
259.794464	145.960000
259.887390	146.100000
259.980316	145.780000
260.073212	145.880000
260.166138	145.000000
260.259064	145.140000
260.351990	145.680000
260.444916	146.080000
260.537842	146.560000
260.630768	147.340000
260.723694	147.300000
260.816620	146.740000
260.909546	146.700000
261.002472	146.040000
261.095398	145.380000
261.188354	145.340000
261.281281	145.080000
261.374207	144.840000
261.467133	145.760000
261.560089	146.280000
261.653015	146.060000
261.745972	146.900000
261.838867	147.580000
261.931824	147.260000
262.024780	146.740000
262.117706	146.920000
262.210663	146.780000
262.303589	146.540000
262.396515	146.700000
262.489471	147.460000
262.582397	147.520000
262.675354	147.000000
262.768280	147.080000
262.861237	146.880000
262.954163	146.680000
263.047119	146.720000
263.140045	146.600000
263.233002	146.340000
263.325958	146.180000
263.418884	145.900000
263.511841	145.740000
263.604797	146.000000
263.697723	146.180000
263.790680	145.960000
263.883636	146.360000
263.976593	146.160000
264.069550	146.240000
264.162476	145.980000
264.255463	146.320000
264.348419	145.860000
264.441376	146.180000
264.534332	145.640000
264.627289	145.580000
264.720245	145.740000
264.813202	145.420000
264.906158	145.580000
264.999115	146.300000
265.092072	146.340000
265.185028	146.680000
265.277985	147.160000
265.370941	146.740000
265.463898	146.420000
265.556854	146.220000
265.649811	145.380000
265.742798	145.280000
265.835754	145.660000
265.928711	146.320000
266.021667	146.520000
266.114655	146.940000
266.207611	147.380000
266.300568	146.660000
266.393585	145.880000
266.486511	146.160000
266.579498	145.460000
266.672485	144.920000
266.765442	145.360000
266.858429	145.780000
266.951385	145.320000
267.044342	145.760000
267.137329	145.760000
267.230316	146.120000
267.323273	145.540000
267.416260	146.420000
267.509216	146.080000
267.602203	146.100000
267.695160	146.280000
267.788147	146.600000
267.881134	145.800000
267.974091	146.320000
268.067078	146.180000
268.160065	145.780000
268.253052	145.760000
268.346008	146.060000
268.438995	145.640000
268.531982	146.080000
268.624969	146.000000
268.717987	146.280000
268.810944	146.040000
268.903961	146.220000
268.996948	145.860000
269.089905	146.060000
269.182892	145.940000
269.275879	146.420000
269.368866	146.280000
269.461853	146.420000
269.554871	146.360000
269.647858	146.380000
269.740845	146.380000
269.833832	146.920000
269.926819	146.720000
270.019806	146.740000
270.112793	146.240000
270.205811	146.120000
270.298798	145.820000
270.391785	146.520000
270.484772	146.060000
270.577789	146.520000
270.670776	146.160000
270.763763	145.760000
270.856750	145.520000
270.949768	145.520000
271.042786	145.320000
271.135773	145.520000
271.228790	146.080000
271.321808	145.500000
271.414795	145.340000
271.507782	145.080000
271.600800	144.880000
271.693817	144.800000
271.786804	145.760000
271.879822	146.060000
271.972809	146.180000
272.065826	146.560000
272.158844	146.200000
272.251831	146.220000
272.344849	146.760000
272.437866	146.540000
272.530853	146.740000
272.623871	147.040000
272.716888	145.880000
272.809906	145.780000
272.902893	146.100000
272.995911	145.500000
273.088928	145.260000
273.181946	145.900000
273.274963	145.460000
273.367981	145.480000
273.460999	145.900000
273.554047	146.460000
273.647003	146.980000
273.740051	147.100000
273.833069	147.240000
273.926086	147.300000
274.019135	146.840000
274.112152	146.200000
274.205170	146.180000
274.298187	146.380000
274.391205	145.840000
274.484222	146.200000
274.577240	146.320000
274.670258	146.060000
274.763306	145.860000
274.856323	146.580000
274.949341	146.460000
275.042358	146.480000
275.135406	146.760000
275.228424	146.900000
275.321442	146.660000
275.414490	146.080000
275.507507	146.600000
275.600525	147.180000
275.693573	146.820000
275.786591	146.480000
275.879669	146.880000
275.972656	146.600000
276.065735	146.140000
276.158752	146.640000
276.251801	147.320000
276.344818	147.580000
276.437866	147.340000
276.530884	147.180000
276.623932	146.360000
276.716980	146.200000
276.809998	146.040000
276.903046	146.340000
276.996094	147.020000
277.089111	148.040000
277.182159	148.380000
277.275208	147.960000
277.368256	147.960000
277.461304	147.580000
277.554321	146.480000
277.647369	146.160000
277.740417	146.260000
277.833466	146.040000
277.926514	145.820000
278.019562	146.780000
278.112610	146.180000
278.205688	146.720000
278.298706	146.620000
278.391785	146.700000
278.484833	145.820000
278.577881	145.880000
278.670929	145.960000
278.763977	146.180000
278.857025	146.200000
278.950073	146.240000
279.043121	146.300000
279.136169	146.000000
279.229248	145.540000
279.322296	145.720000
279.415344	146.000000
279.508392	145.840000
279.601440	146.020000
279.694519	146.040000
279.787567	145.400000
279.880615	145.300000
279.973694	145.360000
280.066742	145.160000
280.159790	145.340000
280.252869	145.600000
280.345917	145.600000
280.438995	145.580000
280.532074	145.660000
280.625122	146.080000
280.718201	147.000000
280.811279	147.320000
280.904327	147.500000
280.997406	147.980000
281.090454	147.900000
281.183533	146.980000
281.276581	146.880000
281.369659	146.720000
281.462738	146.160000
281.555786	146.200000
281.648865	146.460000
281.741943	146.360000
281.835022	147.120000
281.928070	146.880000
282.021149	146.600000
282.114227	146.580000
282.207306	146.540000
282.300385	146.500000
282.393433	147.000000
282.486511	147.080000
282.579590	147.340000
282.672668	147.640000
282.765747	146.640000
282.858856	145.940000
282.951904	146.300000
283.045013	146.080000
283.138062	146.000000
283.231171	146.520000
283.324249	147.260000
283.417328	147.040000
283.510406	146.960000
283.603485	147.020000
283.696564	146.800000
283.789642	146.880000
283.882751	146.500000
283.975830	147.000000
284.068909	146.820000
284.161987	147.640000
284.255066	146.860000
284.348175	147.160000
284.441254	146.760000
284.534332	146.800000
284.627441	146.320000
284.720520	146.200000
284.813599	146.020000
284.906708	146.180000
284.999786	145.840000
285.092896	145.480000
285.185974	146.440000
285.279053	146.200000
285.372192	146.080000
285.465240	146.780000
285.558380	146.740000
285.651459	146.520000
285.744568	147.460000
285.837677	147.060000
285.930756	146.640000
286.023865	146.700000
286.116943	146.400000
286.210052	146.160000
286.303162	146.460000
286.396240	146.460000
286.489349	146.640000
286.582458	146.980000
286.675568	146.300000
286.768646	146.200000
286.861755	146.740000
286.954865	147.080000
287.047974	146.260000
287.141083	146.400000
287.234161	146.080000
287.327271	145.720000
287.420380	146.120000
287.513519	146.440000
287.606598	146.380000
287.699738	146.960000
287.792816	146.960000
287.885956	146.280000
287.979034	146.580000
288.072174	146.800000
288.165283	146.540000
288.258392	146.500000
288.351501	146.360000
288.444611	146.320000
288.537720	146.880000
288.630859	146.760000
288.723969	147.020000
288.817078	147.300000
288.910187	147.200000
289.003296	146.500000
289.096436	145.980000
289.189545	145.340000
289.282654	144.880000
289.375763	145.340000
289.468903	145.620000
289.562012	146.080000
289.655121	146.440000
289.748260	146.560000
289.841400	146.520000
289.934509	146.160000
290.027649	146.440000
290.120728	146.380000
290.213898	146.640000
290.306976	146.240000
290.400146	146.680000
290.493256	146.260000
290.586395	146.320000
290.679535	146.340000
290.772644	146.340000
290.865784	145.520000
290.958893	145.760000
291.052032	145.700000
291.145172	145.520000
291.238281	145.260000
291.331421	145.680000
291.424561	146.200000
291.517670	146.000000
291.610809	146.220000
291.703949	146.320000
291.797089	146.340000
291.890228	145.760000
291.983337	145.960000
292.076477	145.840000
292.169617	146.040000
292.262756	146.360000
292.355927	146.240000
292.449036	146.120000
292.542206	146.060000
292.635315	145.980000
292.728485	146.000000
292.821625	145.780000
292.914764	146.420000
293.007904	146.640000
293.101044	146.520000
293.194183	146.200000
293.287323	146.580000
293.380463	146.060000
293.473602	145.980000
293.566742	146.600000
293.659882	147.400000
293.753021	147.360000
293.846191	147.520000
293.939331	147.300000
294.032471	146.820000
294.125610	146.080000
294.218781	146.560000
294.311920	146.800000
294.405060	147.020000
294.498230	147.020000
294.591370	147.180000
294.684540	146.460000
294.777679	145.720000
294.870850	146.000000
294.963959	145.900000
295.057159	145.660000
295.150299	146.000000
295.243469	146.220000
295.336609	145.400000
295.429779	145.640000
295.522919	145.920000
295.616089	145.640000
295.709229	145.860000
295.802399	146.020000
295.895569	145.860000
295.988708	145.940000
296.081879	146.500000
296.175018	146.340000
296.268188	146.600000
296.361359	146.880000
296.454529	146.840000
296.547668	146.360000
296.640839	146.700000
296.734009	146.400000
296.827179	146.300000
296.920319	146.360000
297.013519	146.360000
297.106659	146.440000
297.199860	146.560000
297.292999	146.580000
297.386200	146.160000
297.479309	146.280000
297.572510	145.960000
297.665680	145.960000
297.758850	146.140000
297.852020	146.160000
297.945190	146.020000
298.038361	145.740000
298.131531	146.580000
298.224701	145.980000
298.317871	146.160000
298.411072	145.860000
298.504242	145.840000
298.597412	145.200000
298.690582	145.580000
298.783752	145.320000
298.876923	145.780000
298.970093	146.080000
299.063293	146.400000
299.156464	146.840000
299.249634	147.280000
299.342834	147.460000
299.436005	147.700000
299.529205	147.480000
299.622345	147.140000
299.715576	146.640000
299.808716	146.480000
299.901917	146.420000
299.995117	146.620000
300.088287	146.640000
300.181488	146.700000
300.274658	146.580000
300.367828	146.380000
300.461029	146.060000
300.554199	146.420000
300.647400	146.320000
300.740601	146.640000
300.833771	146.860000
300.926971	147.180000
301.020142	146.300000
301.113342	146.580000
301.206512	146.640000
301.299713	146.660000
301.392914	146.680000
301.486084	147.300000
301.579285	147.060000
301.672516	147.200000
301.765686	146.800000
301.858887	146.580000
301.952057	146.520000
302.045288	146.600000
302.138458	146.340000
302.231659	146.160000
302.324860	146.160000
302.418060	146.060000
302.511261	145.980000
302.604462	146.220000
302.697662	146.360000
302.790863	145.960000
302.884064	145.660000
302.977264	145.860000
303.070465	145.940000
303.163666	146.300000
303.256866	146.900000
303.350067	147.340000
303.443268	147.040000
303.536469	146.880000
303.629669	146.600000
303.722870	146.660000
303.816071	146.240000
303.909271	146.400000
304.002472	145.800000
304.095673	145.520000
304.188934	144.940000
304.282104	145.820000
304.375336	145.760000
304.468506	145.780000
304.561768	145.940000
304.654968	146.420000
304.748169	145.700000
304.841370	145.540000
304.934601	146.140000
305.027802	146.100000
305.121002	145.600000
305.214233	145.640000
305.307434	146.020000
305.400665	146.600000
305.493866	146.300000
305.587097	146.660000
305.680298	146.560000
305.773499	146.980000
305.866730	146.200000
305.959930	146.980000
306.053162	147.080000
306.146393	146.840000
306.239594	146.120000
306.332825	146.180000
306.426025	146.540000
306.519287	145.960000
306.612488	146.140000
306.705719	146.540000
306.798920	146.500000
306.892181	145.520000
306.985352	145.540000
307.078613	145.320000
307.171844	145.400000
307.265045	145.260000
307.358276	145.360000
307.451508	145.840000
307.544739	146.380000
307.637970	146.060000
307.731201	145.860000
307.824402	146.640000
307.917633	146.820000
308.010864	147.060000
308.104095	147.240000
308.197327	147.460000
308.290558	147.020000
308.383789	146.780000
308.477020	146.260000
308.570251	145.620000
308.663483	145.340000
308.756714	145.260000
308.849976	145.220000
308.943176	145.820000
309.036438	145.620000
309.129639	145.500000
309.222900	145.440000
309.316101	145.220000
309.409393	144.440000
309.502625	144.740000
309.595856	145.000000
309.689087	144.940000
309.782318	145.060000
309.875580	145.360000
309.968811	145.440000
310.062042	145.480000
310.155273	145.620000
310.248535	146.120000
310.341766	146.160000
310.434998	146.220000
310.528259	146.000000
310.621490	146.220000
310.714722	145.640000
310.807983	145.680000
310.901215	145.960000
310.994476	146.040000
311.087708	145.740000
311.181000	146.240000
311.274200	145.720000
311.367462	145.660000
311.460693	145.640000
311.553986	145.940000
311.647186	145.600000
311.740479	146.400000
311.833710	146.060000
311.926971	145.800000
312.020203	145.020000
312.113464	145.000000
312.206726	144.440000
312.299957	144.760000
312.393219	145.560000
312.486481	146.140000
312.579712	146.220000
312.672974	146.040000
312.766235	146.040000
312.859497	145.520000
312.952759	145.320000
313.045990	145.620000
313.139252	145.540000
313.232513	145.840000
313.325775	146.260000
313.419037	145.940000
313.512299	145.320000
313.605530	145.800000
313.698822	145.520000
313.792053	145.240000
313.885345	145.020000
313.978577	145.420000
314.071869	145.080000
314.165131	145.080000
314.258392	145.640000
314.351654	146.240000
314.444916	145.400000
314.538177	145.800000
314.631439	146.120000
314.724701	145.600000
314.817993	145.580000
314.911255	146.300000
315.004517	145.800000
315.097778	145.760000
315.191040	146.220000
315.284302	146.720000
315.377594	146.660000
315.470856	146.940000
315.564117	146.480000
315.657379	145.600000
315.750671	144.720000
315.843933	145.140000
315.937195	144.680000
316.030518	144.520000
316.123749	144.800000
316.217041	146.000000
316.310303	145.620000
316.403595	146.180000
316.496857	146.540000
316.590149	146.840000
316.683411	145.920000
316.776703	145.820000
316.869965	145.660000
316.963257	145.300000
317.056519	144.620000
317.149811	144.820000
317.243073	144.880000
317.336365	145.020000
317.429626	145.580000
317.522919	146.520000
317.616180	146.380000
317.709473	146.100000
317.802765	146.100000
317.896027	145.840000
317.989319	145.620000
318.082611	145.780000
318.175873	146.000000
318.269165	146.180000
318.362488	146.300000
318.455750	146.380000
318.549042	146.560000
318.642303	146.940000
318.735626	146.560000
318.828888	146.220000
318.922211	145.560000
319.015472	146.140000
319.108765	145.300000
319.202057	144.960000
319.295349	145.580000
319.388641	145.940000
319.481934	145.340000
319.575226	145.580000
319.668518	146.200000
319.761810	146.140000
319.855103	145.980000
319.948395	145.800000
320.041687	145.780000
320.134979	145.520000
320.228271	145.120000
320.321564	145.200000
320.414856	145.380000
320.508148	145.220000
320.601440	145.120000
320.694763	145.200000
320.788025	146.000000
320.881348	145.720000
320.974640	146.080000
321.067963	145.920000
321.161224	145.840000
321.254547	145.160000
321.347839	145.860000
321.441162	145.380000
321.534454	145.720000
321.627747	145.520000
321.721069	146.180000
321.814362	145.880000
321.907654	146.220000
322.000946	145.880000
322.094269	146.660000
322.187561	146.240000
322.280884	146.640000
322.374176	146.680000
322.467468	147.360000
322.560791	147.220000
322.654083	147.300000
322.747406	146.820000
322.840698	146.980000
322.934021	147.120000
323.027344	147.160000
323.120636	146.860000
323.213959	146.780000
323.307251	146.180000
323.400574	145.340000
323.493866	144.940000
323.587219	144.980000
323.680511	145.300000
323.773834	145.840000
323.867157	146.080000
323.960449	146.040000
324.053772	145.940000
324.147095	145.900000
324.240387	146.220000
324.333710	146.500000
324.427032	146.480000
324.520355	146.520000
324.613647	146.240000
324.706970	145.960000
324.800293	145.640000
324.893616	146.080000
324.986938	146.340000
325.080231	146.160000
325.173553	146.400000
325.266876	146.940000
325.360199	146.660000
325.453522	146.220000
325.546875	146.000000
325.640167	146.080000
325.733521	146.000000
325.826813	146.380000
325.920166	146.180000
326.013489	146.460000
326.106812	145.360000
326.200134	145.060000
326.293457	144.320000
326.386780	144.900000
326.480103	144.880000
326.573425	145.380000
326.666748	145.400000
326.760071	146.120000
326.853424	146.020000
326.946747	145.980000
327.040070	146.740000
327.133392	146.900000
327.226715	146.100000
327.320068	145.360000
327.413391	146.100000
327.506714	145.280000
327.600037	144.960000
327.693390	145.660000
327.786713	146.320000
327.880066	145.800000
327.973358	146.340000
328.066742	146.660000
328.160034	146.500000
328.253418	146.720000
328.346710	146.300000
328.440063	145.760000
328.533417	145.600000
328.626740	146.000000
328.720093	145.600000
328.813416	146.040000
328.906769	146.440000
329.000092	146.420000
329.093445	145.880000
329.186768	145.640000
329.280121	146.000000
329.373444	146.280000
329.466797	146.380000
329.560120	146.740000
329.653473	147.320000
329.746796	146.900000
329.840149	146.420000
329.933502	146.540000
330.026825	146.260000
330.120178	145.760000
330.213562	145.780000
330.306854	145.960000
330.400238	145.700000
330.493561	145.340000
330.586945	146.320000
330.680237	146.300000
330.773621	146.400000
330.866974	146.680000
330.960327	147.300000
331.053680	146.580000
331.147003	146.500000
331.240356	146.480000
331.333710	146.200000
331.427063	145.500000
331.520416	145.440000
331.613770	145.260000
331.707123	145.260000
331.800476	145.360000
331.893829	146.480000
331.987152	146.800000
332.080505	147.080000
332.173859	146.820000
332.267212	146.460000
332.360565	145.660000
332.453918	145.320000
332.547333	145.040000
332.640656	145.020000
332.734039	145.420000
332.827362	145.420000
332.920746	145.740000
333.014069	146.160000
333.107452	146.680000
333.200806	146.800000
333.294159	147.060000
333.387543	146.640000
333.480896	145.980000
333.574249	145.660000
333.667603	145.340000
333.760956	145.400000
333.854340	145.740000
333.947693	146.160000
334.041046	146.080000
334.134430	146.520000
334.227783	146.220000
334.321136	145.880000
334.414520	145.540000
334.507874	145.900000
334.601227	145.760000
334.694611	145.820000
334.787964	146.080000
334.881348	146.560000
334.974701	146.160000
335.068085	145.740000
335.161438	145.940000
335.254822	145.940000
335.348175	145.900000
335.441559	145.640000
335.534943	146.300000
335.628296	146.060000
335.721680	145.780000
335.815033	145.900000
335.908417	146.340000
336.001770	146.100000
336.095154	146.260000
336.188538	146.160000
336.281891	145.320000
336.375275	144.740000
336.468658	144.560000
336.562012	144.300000
336.655396	144.620000
336.748779	145.340000
336.842133	145.520000
336.935516	145.660000
337.028900	145.480000
337.122284	145.320000
337.215637	145.420000
337.309021	145.320000
337.402435	145.120000
337.495789	145.060000
337.589203	145.060000
337.682526	144.860000
337.775940	145.600000
337.869324	145.820000
337.962708	145.640000
338.056091	146.060000
338.149475	145.840000
338.242859	145.560000
338.336243	145.200000
338.429626	146.120000
338.523010	145.940000
338.616394	146.200000
338.709778	146.440000
338.803162	146.860000
338.896545	146.480000
338.989929	146.080000
339.083313	146.000000
339.176697	145.420000
339.270081	144.980000
339.363464	145.160000
339.456848	145.500000
339.550232	145.060000
339.643616	145.260000
339.737030	145.660000
339.830383	145.520000
339.923828	145.680000
340.017181	146.040000
340.110596	146.240000
340.203949	145.860000
340.297363	145.720000
340.390778	145.620000
340.484161	145.420000
340.577545	145.440000
340.670959	145.640000
340.764343	145.440000
340.857727	145.620000
340.951111	145.360000
341.044525	145.140000
341.137909	144.700000
341.231293	145.000000
341.324707	144.200000
341.418091	144.960000
341.511505	144.940000
341.604889	145.400000
341.698303	145.320000
341.791687	145.980000
341.885071	145.340000
341.978485	145.240000
342.071899	145.340000
342.165283	145.600000
342.258698	145.700000
342.352081	146.140000
342.445496	146.660000
342.538879	146.440000
342.632324	146.060000
342.725708	145.780000
342.819122	145.500000
342.912506	145.100000
343.005920	145.240000
343.099335	146.020000
343.192719	145.900000
343.286133	145.840000
343.379547	146.240000
343.472931	146.400000
343.566345	145.840000
343.659760	146.300000
343.753143	146.260000
343.846558	145.660000
343.939972	145.600000
344.033386	146.060000
344.126770	145.380000
344.220184	145.500000
344.313599	146.000000
344.407043	145.760000
344.500427	144.900000
344.593872	146.040000
344.687225	146.180000
344.780670	145.800000
344.874054	145.820000
344.967499	146.420000
345.060913	145.920000
345.154327	145.580000
345.247742	145.200000
345.341156	145.140000
345.434570	144.720000
345.527985	144.560000
345.621399	144.800000
345.714813	145.160000
345.808228	145.180000
345.901642	145.280000
345.995056	145.020000
346.088470	145.340000
346.181885	145.580000
346.275299	145.620000
346.368713	145.380000
346.462128	145.040000
346.555573	144.860000
346.648987	144.840000
346.742401	144.780000
346.835815	145.400000
346.929260	145.340000
347.022644	145.460000
347.116119	145.420000
347.209503	145.500000
347.302948	146.060000
347.396362	146.880000
347.489807	146.980000
347.583221	147.660000
347.676636	147.620000
347.770050	146.260000
347.863495	145.500000
347.956909	145.400000
348.050323	144.420000
348.143768	144.440000
348.237183	144.640000
348.330597	145.220000
348.424042	145.360000
348.517456	146.180000
348.610901	146.280000
348.704315	146.460000
348.797760	145.960000
348.891174	145.060000
348.984619	144.400000
349.078033	144.580000
349.171448	145.160000
349.264923	145.140000
349.358337	145.360000
349.451782	145.440000
349.545197	144.860000
349.638641	143.980000
349.732086	143.820000
349.825500	144.280000
349.918945	143.980000
350.012390	144.640000
350.105804	145.420000
350.199249	145.780000
350.292664	146.160000
350.386108	146.720000
350.479553	147.100000
350.572968	146.640000
350.666412	147.060000
350.759857	146.780000
350.853302	146.740000
350.946716	145.980000
351.040161	146.080000
351.133606	145.700000
351.227081	145.720000
351.320465	146.360000
351.413940	146.580000
351.507355	146.940000
351.600830	147.160000
351.694244	146.560000
351.787720	146.240000
351.881104	146.280000
351.974579	145.940000
352.067993	146.680000
352.161469	146.960000
352.254883	146.120000
352.348358	145.980000
352.441803	145.960000
352.535248	145.220000
352.628693	145.900000
352.722137	145.960000
352.815582	145.940000
352.909027	146.180000
353.002472	146.040000
353.095917	145.580000
353.189362	146.160000
353.282806	146.220000
353.376251	145.840000
353.469696	145.740000
353.563141	146.260000
353.656586	145.860000
353.750061	145.520000
353.843475	145.720000
353.936981	146.120000
354.030396	145.520000
354.123871	145.680000
354.217285	146.460000
354.310760	146.540000
354.404175	146.500000
354.497681	146.320000
354.591095	146.320000
354.684570	145.260000
354.777985	144.840000
354.871490	144.560000
354.964935	145.020000
355.058380	145.080000
355.151855	145.520000
355.245300	146.080000
355.338745	146.460000
355.432220	146.300000
355.525665	145.860000
355.619110	146.420000
355.712585	146.380000
355.806030	146.100000
355.899475	145.600000
355.992950	145.880000
356.086426	145.600000
356.179871	145.480000
356.273346	145.500000
356.366791	146.140000
356.460266	146.400000
356.553711	146.300000
356.647186	146.280000
356.740631	146.300000
356.834106	146.020000
356.927551	145.960000
357.021027	145.740000
357.114471	145.520000
357.207947	145.440000
357.301422	145.820000
357.394867	146.020000
357.488342	146.420000
357.581818	146.880000
357.675262	147.180000
357.768738	147.060000
357.862213	146.460000
357.955658	146.360000
358.049133	146.100000
358.142609	145.880000
358.236053	145.520000
358.329529	145.660000
358.423035	145.700000
358.516449	145.500000
358.609955	146.000000
358.703400	146.780000
358.796906	147.060000
358.890350	146.640000
358.983826	146.860000
359.077271	146.160000
359.170776	145.560000
359.264221	145.160000
359.357727	145.500000
359.451172	145.680000
359.544647	145.960000
359.638123	145.760000
359.731598	146.080000
359.825073	145.860000
359.918549	145.900000
360.012024	146.060000
360.105499	145.500000
360.198975	145.740000
360.292450	146.000000
360.385925	145.820000
360.479401	145.340000
360.572876	146.240000
360.666351	146.500000
360.759857	146.160000
360.853302	146.260000
360.946808	146.040000
361.040253	146.060000
361.133759	145.200000
361.227203	145.580000
361.320709	145.220000
361.414154	145.960000
361.507660	146.040000
361.601105	146.660000
361.694641	147.060000
361.788086	147.220000
361.881592	147.320000
361.975067	147.140000
362.068542	147.240000
362.162018	147.100000
362.255524	146.720000
362.348999	146.500000
362.442474	146.660000
362.535950	146.300000
362.629456	146.100000
362.722931	146.140000
362.816406	146.560000
362.909882	146.600000
363.003387	146.420000
363.096863	146.780000
363.190338	146.960000
363.283875	146.280000
363.377319	146.100000
363.470825	146.320000
363.564301	145.640000
363.657806	145.880000
363.751282	145.780000
363.844788	146.680000
363.938232	146.300000
364.031769	147.220000
364.125214	147.340000
364.218750	148.180000
364.312225	146.860000
364.405731	147.240000
364.499207	146.380000
364.592712	146.040000
364.686188	145.480000
364.779694	145.620000
364.873169	145.600000
364.966675	145.460000
365.060150	145.400000
365.153656	145.620000
365.247131	145.660000
365.340637	145.720000
365.434143	146.140000
365.527618	146.240000
365.621155	145.560000
365.714600	145.680000
365.808136	145.600000
365.901611	144.980000
365.995117	144.860000
366.088593	145.100000
366.182129	144.980000
366.275604	145.100000
366.369110	145.360000
366.462585	145.260000
366.556122	145.900000
366.649567	145.980000
366.743103	146.040000
366.836609	145.660000
366.930115	146.240000
367.023590	145.980000
367.117096	145.740000
367.210602	145.600000
367.304108	146.300000
367.397614	146.500000
367.491119	146.720000
367.584595	147.240000
367.678101	147.340000
367.771606	147.220000
367.865112	146.660000
367.958649	145.740000
368.052124	145.640000
368.145660	145.440000
368.239136	146.060000
368.332672	146.360000
368.426147	146.780000
368.519684	146.560000
368.613159	147.080000
368.706696	146.360000
368.800171	146.240000
368.893707	146.440000
368.987183	146.500000
369.080719	146.320000
369.174225	146.260000
369.267731	146.260000
369.361237	146.140000
369.454742	146.240000
369.548248	146.340000
369.641754	146.140000
369.735260	146.220000
369.828766	145.340000
369.922272	145.740000
370.015808	145.320000
370.109314	145.260000
370.202820	144.960000
370.296356	146.400000
370.389832	145.840000
370.483368	145.320000
370.576874	145.440000
370.670410	145.580000
370.763885	144.600000
370.857422	144.620000
370.950928	144.940000
371.044464	145.880000
371.137939	146.020000
371.231476	146.520000
371.324982	146.820000
371.418518	147.060000
371.512024	146.480000
371.605560	146.180000
371.699066	146.360000
371.792572	145.900000
371.886108	146.260000
371.979614	146.120000
372.073120	146.600000
372.166656	146.160000
372.260162	146.640000
372.353668	146.160000
372.447205	145.960000
372.540710	145.780000
372.634277	145.780000
372.727753	145.540000
372.821320	145.900000
372.914795	145.860000
373.008362	145.540000
373.101837	145.720000
373.195404	145.420000
373.288879	145.040000
373.382446	145.760000
373.475922	145.780000
373.569489	146.360000
373.662964	147.220000
373.756531	147.100000
373.850037	146.940000
373.943573	147.260000
374.037109	146.180000
374.130615	146.060000
374.224152	146.560000
374.317657	146.280000
374.411194	146.740000
374.504730	147.080000
374.598236	146.620000
374.691772	146.000000
374.785309	146.120000
374.878815	145.260000
374.972351	145.540000
375.065887	145.520000
375.159454	146.440000
375.252930	146.040000
375.346497	146.480000
375.440002	146.840000
375.533569	146.980000
375.627045	146.140000
375.720612	146.420000
375.814117	146.400000
375.907684	145.720000
376.001160	145.300000
376.094727	145.080000
376.188232	145.720000
376.281799	145.840000
376.375336	146.060000
376.468872	146.700000
376.562408	146.920000
376.655914	146.020000
376.749451	145.580000
376.842987	145.600000
376.936523	145.100000
377.030060	145.360000
377.123596	145.740000
377.217133	145.460000
377.310669	145.620000
377.404205	146.000000
377.497772	146.480000
377.591278	146.340000
377.684845	147.480000
377.778351	147.420000
377.871918	147.260000
377.965424	146.320000
378.058990	146.020000
378.152496	145.360000
378.246063	145.520000
378.339569	145.600000
378.433136	145.740000
378.526642	146.120000
378.620209	145.920000
378.713745	145.580000
378.807312	146.040000
378.900848	146.200000
378.994385	146.520000
379.087921	145.960000
379.181458	146.300000
379.274994	145.400000
379.368530	145.500000
379.462097	145.460000
379.555634	146.360000
379.649170	145.620000
379.742706	145.640000
379.836273	145.600000
379.929810	145.300000
380.023376	144.960000
380.116882	145.320000
380.210449	145.160000
380.303986	144.920000
380.397552	144.740000
380.491058	145.080000
380.584656	144.860000
380.678162	145.540000
380.771729	145.580000
380.865265	145.920000
380.958832	145.900000
381.052368	146.260000
381.145935	146.400000
381.239471	146.840000
381.333008	146.620000
381.426575	146.460000
381.520111	146.720000
381.613647	146.880000
381.707214	146.560000
381.800751	146.100000
381.894318	145.900000
381.987854	145.340000
382.081421	145.000000
382.174988	145.120000
382.268524	145.300000
382.362091	145.620000
382.455627	146.660000
382.549194	146.120000
382.642731	145.700000
382.736298	145.560000
382.829834	145.300000
382.923401	145.060000
383.016937	145.340000
383.110504	145.940000
383.204041	146.260000
383.297607	146.800000
383.391174	145.900000
383.484741	146.880000
383.578278	146.320000
383.671844	145.900000
383.765411	145.000000
383.858948	145.700000
383.952515	144.860000
384.046051	145.580000
384.139618	146.280000
384.233185	146.620000
384.326721	146.820000
384.420288	147.420000
384.513855	147.000000
384.607422	147.080000
384.700989	147.340000
384.794525	146.400000
384.888123	146.000000
384.981659	146.540000
385.075226	145.960000
385.168762	145.740000
385.262360	145.860000
385.355896	145.160000
385.449463	144.680000
385.542999	144.880000
385.636597	145.540000
385.730164	146.180000
385.823730	146.360000
385.917267	146.040000
386.010834	146.180000
386.104401	145.760000
386.197968	145.300000
386.291534	145.760000
386.385101	145.860000
386.478668	146.100000
386.572235	146.200000
386.665802	146.180000
386.759338	145.860000
386.852905	145.800000
386.946472	145.240000
387.040070	145.180000
387.133606	145.260000
387.227203	145.140000
387.320740	145.340000
387.414337	145.420000
387.507874	145.260000
387.601471	145.340000
387.695007	145.240000
387.788605	145.260000
387.882141	145.620000
387.975739	145.680000
388.069275	145.140000
388.162872	145.460000
388.256439	145.060000
388.350037	144.580000
388.443604	144.420000
388.537170	144.680000
388.630737	145.220000
388.724304	145.540000
388.817871	145.400000
388.911438	145.720000
389.005005	146.200000
389.098602	146.080000
389.192169	146.100000
389.285736	146.900000
389.379333	146.660000
389.472870	145.980000
389.566467	145.880000
389.660034	145.880000
389.753632	145.020000
389.847168	145.200000
389.940765	145.740000
390.034332	145.800000
390.127930	145.380000
390.221466	145.580000
390.315063	145.040000
390.408630	144.420000
390.502228	143.720000
390.595795	143.980000
390.689362	144.140000
390.782959	144.960000
390.876526	145.540000
390.970093	145.880000
391.063690	146.520000
391.157257	146.620000
391.250824	146.720000
391.344421	146.460000
391.437988	147.040000
391.531555	146.960000
391.625153	147.300000
391.718750	147.420000
391.812317	147.360000
391.905914	146.600000
391.999481	146.360000
392.093079	145.940000
392.186615	145.840000
392.280243	146.120000
392.373779	146.440000
392.467407	147.280000
392.560944	147.360000
392.654572	146.920000
392.748108	146.840000
392.841736	147.100000
392.935303	146.160000
393.028900	146.080000
393.122467	146.220000
393.216064	145.840000
393.309631	145.080000
393.403229	144.900000
393.496796	144.920000
393.590393	144.300000
393.683990	144.920000
393.777557	145.780000
393.871155	146.060000
393.964722	146.320000
394.058350	146.760000
394.151917	146.360000
394.245514	145.700000
394.339081	145.940000
394.432678	146.220000
394.526245	146.020000
394.619873	145.940000
394.713409	146.440000
394.807037	146.140000
394.900604	146.060000
394.994202	146.600000
395.087769	146.900000
395.181396	146.360000
395.274994	147.140000
395.368561	146.580000
395.462158	146.420000
395.555756	146.060000
395.649353	146.360000
395.742920	145.520000
395.836517	146.240000
395.930115	145.620000
396.023712	146.120000
396.117279	146.520000
396.210876	146.340000
396.304474	146.020000
396.398071	146.540000
396.491669	146.640000
396.585266	146.440000
396.678833	146.620000
396.772461	146.900000
396.866028	146.620000
396.959656	146.900000
397.053223	147.140000
397.146851	147.440000
397.240417	147.940000
397.334015	149.460000
397.427582	149.780000
397.521210	151.280000
397.614807	153.260000
397.708405	155.280000
397.802002	157.900000
397.895599	162.660000
397.989197	167.340000
398.082794	173.400000
398.176392	181.340000
398.269989	189.960000
398.363586	200.380000
398.457184	213.380000
398.550781	228.240000
398.644379	243.880000
398.737976	261.960000
398.831573	281.040000
398.925201	300.400000
399.018768	320.180000
399.112396	340.300000
399.205963	360.380000
399.299591	379.360000
399.393158	398.240000
399.486786	417.380000
399.580353	435.620000
399.673981	451.860000
399.767578	469.520000
399.861206	485.840000
399.954773	498.920000
400.048401	508.920000
400.141998	514.620000
400.235596	514.180000
400.329193	507.720000
400.422791	496.720000
400.516418	480.720000
400.610016	465.180000
400.703613	448.060000
400.797211	428.140000
400.890808	408.540000
400.984436	389.700000
401.078033	367.880000
401.171631	344.640000
401.265259	323.720000
401.358826	302.600000
401.452484	282.060000
401.546051	263.520000
401.639679	245.480000
401.733246	228.980000
401.826904	213.300000
401.920471	199.020000
402.014099	186.920000
402.107697	177.700000
402.201324	169.680000
402.294891	164.300000
402.388550	160.380000
402.482147	156.660000
402.575745	153.540000
402.669373	151.100000
402.762970	149.160000
402.856567	148.200000
402.950195	147.840000
403.043793	147.260000
403.137390	148.140000
403.231018	147.340000
403.324615	147.540000
403.418243	146.940000
403.511841	147.540000
403.605469	146.780000
403.699066	147.420000
403.792694	147.120000
403.886292	147.300000
403.979919	146.720000
404.073517	146.540000
404.167145	146.480000
404.260712	146.760000
404.354370	146.740000
404.447937	146.880000
404.541595	146.860000
404.635162	147.260000
404.728821	147.280000
404.822418	146.560000
404.916046	146.200000
405.009644	146.560000
405.103271	146.560000
405.196899	145.960000
405.290497	146.260000
405.384125	146.900000
405.477722	146.360000
405.571350	145.600000
405.664948	146.060000
405.758575	146.140000
405.852203	145.400000
405.945801	145.660000
406.039429	146.180000
406.133057	145.940000
406.226654	145.940000
406.320312	146.380000
406.413879	146.560000
406.507538	146.560000
406.601135	146.080000
406.694763	146.580000
406.788361	146.060000
406.882019	145.540000
406.975586	145.720000
407.069244	146.300000
407.162872	146.220000
407.256470	146.500000
407.350098	146.760000
407.443726	146.260000
407.537323	145.740000
407.630951	145.660000
407.724579	145.200000
407.818207	145.420000
407.911804	145.700000
408.005432	145.540000
408.099060	145.580000
408.192688	146.060000
408.286285	145.740000
408.379913	145.120000
408.473572	145.860000
408.567169	145.320000
408.660828	145.380000
408.754395	145.580000
408.848053	145.700000
408.941650	145.420000
409.035309	145.200000
409.128906	145.280000
409.222565	145.220000
409.316132	145.740000
409.409790	145.320000
409.503387	145.500000
409.597046	145.560000
409.690674	145.860000
409.784302	145.820000
409.877930	146.140000
409.971558	146.460000
410.065186	145.960000
410.158783	145.760000
410.252411	145.360000
410.346039	145.580000
410.439667	145.480000
410.533295	146.020000
410.626923	146.120000
410.720551	146.100000
410.814209	146.360000
410.907806	146.460000
411.001465	145.880000
411.095062	145.900000
411.188721	146.060000
411.282318	145.660000
411.375977	145.180000
411.469574	145.380000
411.563232	145.260000
411.656830	145.100000
411.750488	144.880000
411.844086	145.040000
411.937744	145.460000
412.031372	145.160000
412.125000	145.040000
412.218628	145.060000
412.312256	145.500000
412.405884	145.920000
412.499512	145.800000
412.593170	146.380000
412.686798	146.960000
412.780426	146.460000
412.874054	146.380000
412.967682	146.780000
413.061310	147.260000
413.154968	147.040000
413.248566	147.540000
413.342224	146.880000
413.435852	147.180000
413.529510	146.540000
413.623108	146.200000
413.716766	145.980000
413.810364	146.720000
413.904022	146.100000
413.997650	145.760000
414.091309	146.240000
414.184906	146.180000
414.278564	145.420000
414.372192	146.140000
414.465851	146.580000
414.559479	146.300000
414.653107	147.120000
414.746735	147.060000
414.840393	146.980000
414.934021	147.260000
415.027649	146.780000
415.121277	146.360000
415.214935	147.040000
415.308563	146.860000
415.402191	145.980000
415.495850	146.360000
415.589478	145.800000
415.683136	145.060000
415.776733	145.300000
415.870422	146.000000
415.964020	145.440000
416.057678	145.640000
416.151306	145.880000
416.244965	145.400000
416.338562	145.400000
416.432251	146.220000
416.525848	146.760000
416.619507	147.100000
416.713165	147.540000
416.806793	147.220000
416.900421	147.120000
416.994080	146.100000
417.087708	145.660000
417.181366	145.040000
417.274994	145.280000
417.368622	145.160000
417.462280	145.900000
417.555908	145.860000
417.649567	145.860000
417.743195	145.640000
417.836853	145.780000
417.930481	146.060000
418.024170	146.500000
418.117767	147.180000
418.211426	147.500000
418.305054	147.600000
418.398712	146.700000
418.492340	146.340000
418.585999	146.520000
418.679626	146.560000
418.773285	146.580000
418.866913	147.640000
418.960571	148.100000
419.054230	147.700000
419.147858	147.620000
419.241516	147.700000
419.335144	146.760000
419.428802	146.600000
419.522461	146.460000
419.616089	146.120000
419.709747	146.280000
419.803375	146.720000
419.897034	146.360000
419.990662	146.260000
420.084320	146.780000
420.177979	146.780000
420.271606	147.000000
420.365295	147.720000
420.458893	147.920000
420.552582	147.900000
420.646210	147.780000
420.739868	147.400000
420.833496	147.060000
420.927155	146.660000
421.020782	146.240000
421.114471	145.600000
421.208069	146.000000
421.301758	146.020000
421.395386	146.560000
421.489044	146.640000
421.582703	146.620000
421.676361	146.980000
421.769989	146.540000
421.863647	146.660000
421.957306	147.020000
422.050934	147.640000
422.144592	146.960000
422.238251	147.240000
422.331909	146.660000
422.425537	146.380000
422.519196	146.280000
422.612854	146.140000
422.706543	145.700000
422.800140	146.080000
422.893829	145.720000
422.987457	145.360000
423.081146	145.660000
423.174744	146.460000
423.268433	146.200000
423.362061	145.780000
423.455750	145.780000
423.549347	145.680000
423.643036	144.980000
423.736664	145.620000
423.830353	146.380000
423.924011	146.940000
424.017639	146.580000
424.111298	146.740000
424.204956	146.260000
424.298615	146.240000
424.392273	145.700000
424.485931	145.860000
424.579559	145.840000
424.673218	145.800000
424.766876	145.940000
424.860535	145.980000
424.954193	145.700000
425.047882	146.300000
425.141510	146.420000
425.235199	146.260000
425.328796	145.880000
425.422485	146.040000
425.516113	144.980000
425.609802	144.740000
425.703430	144.780000
425.797119	145.120000
425.890747	145.240000
425.984436	145.740000
426.078064	145.820000
426.171753	145.760000
426.265411	145.520000
426.359070	145.800000
426.452728	145.780000
426.546356	145.880000
426.640015	145.320000
426.733673	145.520000
426.827332	145.000000
426.920990	145.580000
427.014648	145.120000
427.108307	145.820000
427.201965	146.040000
427.295624	146.600000
427.389282	145.660000
427.482941	146.060000
427.576630	145.900000
427.670258	145.280000
427.763947	144.840000
427.857574	144.920000
427.951263	144.720000
428.044922	144.440000
428.138611	144.980000
428.232239	145.540000
428.325928	146.200000
428.419556	146.740000
428.513245	146.500000
428.606903	146.400000
428.700562	145.860000
428.794220	145.200000
428.887878	144.480000
428.981537	145.040000
429.075195	145.380000
429.168854	145.580000
429.262512	145.880000
429.356201	146.280000
429.449860	145.700000
429.543518	145.240000
429.637177	145.400000
429.730835	145.280000
429.824493	145.340000
429.918182	145.920000
430.011810	145.840000
430.105530	145.240000
430.199158	145.520000
430.292847	145.120000
430.386475	144.800000
430.480164	144.660000
430.573792	144.700000
430.667511	144.500000
430.761139	144.700000
430.854828	145.300000
430.948456	145.700000
431.042145	146.360000
431.135834	146.220000
431.229492	146.420000
431.323151	146.280000
431.416809	146.040000
431.510468	145.780000
431.604156	145.620000
431.697815	145.500000
431.791473	144.960000
431.885132	144.720000
431.978821	145.040000
432.072479	145.480000
432.166138	145.980000
432.259827	145.960000
432.353485	146.900000
432.447174	147.140000
432.540802	146.720000
432.634491	146.720000
432.728149	147.200000
432.821838	147.040000
432.915466	146.320000
433.009186	146.640000
433.102814	145.920000
433.196503	145.540000
433.290131	145.040000
433.383850	145.700000
433.477509	145.780000
433.571167	146.600000
433.664856	147.060000
433.758514	147.780000
433.852173	147.500000
433.945862	147.420000
434.039520	147.020000
434.133179	146.500000
434.226868	145.980000
434.320526	145.340000
434.414185	145.740000
434.507874	145.560000
434.601562	146.000000
434.695221	145.980000
434.788910	146.420000
434.882538	146.500000
434.976257	146.300000
435.069885	146.260000
435.163574	146.480000
435.257233	145.880000
435.350922	145.300000
435.444580	145.280000
435.538269	144.920000
435.631897	145.000000
435.725616	145.740000
435.819275	146.200000
435.912964	146.580000
436.006622	147.020000
436.100311	146.580000
436.193970	145.560000
436.287628	145.200000
436.381317	145.140000
436.474976	144.800000
436.568665	144.540000
436.662323	145.320000
436.756012	145.480000
436.849670	145.000000
436.943390	145.080000
437.037018	144.960000
437.130737	144.740000
437.224365	144.420000
437.318085	144.860000
437.411713	144.860000
437.505432	145.860000
437.599060	146.400000
437.692780	147.540000
437.786407	147.280000
437.880127	147.300000
437.973755	146.600000
438.067474	146.160000
438.161133	145.460000
438.254822	146.140000
438.348480	145.900000
438.442169	146.740000
438.535828	147.260000
438.629517	146.840000
438.723175	145.940000
438.816864	146.480000
438.910553	145.580000
439.004211	145.040000
439.097900	145.180000
439.191559	145.400000
439.285248	144.900000
439.378906	145.580000
439.472626	145.400000
439.566284	145.240000
439.659973	145.840000
439.753632	145.800000
439.847321	145.880000
439.940979	146.260000
440.034698	146.400000
440.128326	145.400000
440.222046	145.080000
440.315674	144.200000
440.409393	144.100000
440.503082	144.160000
440.596741	144.680000
440.690430	145.340000
440.784088	145.520000
440.877777	144.980000
440.971466	144.920000
441.065125	144.700000
441.158813	144.360000
441.252502	144.380000
441.346161	144.920000
441.439850	145.060000
441.533539	145.180000
441.627197	145.600000
441.720886	145.780000
441.814606	146.360000
441.908234	146.400000
442.001953	146.480000
442.095612	146.300000
442.189301	146.360000
442.282959	145.920000
442.376678	145.360000
442.470306	146.020000
442.564026	145.680000
442.657684	145.720000
442.751404	145.820000
442.845032	146.860000
442.938751	146.000000
443.032440	146.320000
443.126099	145.920000
443.219788	146.280000
443.313477	146.080000
443.407166	146.200000
443.500824	146.180000
443.594513	146.700000
443.688202	146.520000
443.781891	145.600000
443.875549	145.620000
443.969238	145.640000
444.062927	145.460000
444.156647	145.100000
444.250275	145.880000
444.343994	145.900000
444.437653	146.040000
444.531372	145.880000
444.625031	145.660000
444.718719	145.520000
444.812378	145.400000
444.906097	144.880000
444.999756	144.560000
445.093445	144.660000
445.187103	144.580000
445.280823	145.160000
445.374512	145.020000
445.468201	145.360000
445.561859	145.580000
445.655548	145.580000
445.749237	144.480000
445.842926	144.900000
445.936615	145.520000
446.030304	144.940000
446.123962	145.340000
446.217651	145.780000
446.311340	145.920000
446.405029	145.160000
446.498749	145.460000
446.592407	144.740000
446.686096	145.040000
446.779755	144.880000
446.873474	145.140000
446.967133	145.300000
447.060852	145.240000
447.154510	145.360000
447.248230	145.600000
447.341858	145.580000
447.435577	145.120000
447.529236	145.140000
447.622955	144.800000
447.716644	144.540000
447.810333	144.820000
447.904022	145.440000
447.997711	145.460000
448.091400	145.800000
448.185059	145.960000
448.278748	145.940000
448.372437	145.720000
448.466125	146.000000
448.559814	145.760000
448.653503	146.240000
448.747192	146.580000
448.840912	147.120000
448.934570	147.140000
449.028290	147.640000
449.121948	147.140000
449.215637	146.400000
449.309296	145.880000
449.403015	146.080000
449.496674	145.940000
449.590393	146.060000
449.684052	146.160000
449.777771	147.020000
449.871429	146.420000
449.965149	146.120000
450.058838	146.420000
450.152527	146.720000
450.246216	146.140000
450.339905	146.240000
450.433594	146.180000
450.527283	146.200000
450.620972	146.220000
450.714661	146.400000
450.808350	146.980000
450.902039	147.360000
450.995728	147.200000
451.089417	146.660000
451.183105	146.460000
451.276794	146.520000
451.370514	145.700000
451.464172	145.200000
451.557892	145.080000
451.651550	145.180000
451.745270	144.500000
451.838928	144.460000
451.932648	144.720000
452.026306	145.720000
452.120026	145.200000
452.213684	145.840000
452.307404	146.360000
452.401062	146.420000
452.494781	146.240000
452.588470	146.660000
452.682159	146.080000
452.775848	146.040000
452.869537	145.560000
452.963226	145.220000
453.056915	144.740000
453.150604	145.060000
453.244293	145.240000
453.337982	145.960000
453.431671	146.100000
453.525360	146.940000
453.619049	146.420000
453.712769	146.260000
453.806427	145.900000
453.900146	145.140000
453.993805	144.920000
454.087555	145.560000
454.181213	145.760000
454.274933	145.660000
454.368591	146.180000
454.462311	145.920000
454.555969	145.660000
454.649689	146.240000
454.743347	145.920000
454.837067	146.780000
454.930756	147.040000
455.024445	147.100000
455.118134	146.600000
455.211853	147.080000
455.305542	146.200000
455.399231	146.060000
455.492920	145.960000
455.586609	146.000000
455.680298	146.120000
455.773987	146.020000
455.867676	146.240000
455.961365	146.480000
456.055084	146.300000
456.148773	145.880000
456.242493	146.060000
456.336151	145.780000
456.429871	146.040000
456.523529	146.240000
456.617249	146.300000
456.710907	146.860000
456.804626	146.940000
456.898315	146.280000
456.992035	146.240000
457.085693	146.060000
457.179413	145.400000
457.273102	146.260000
457.366791	146.380000
457.460480	146.720000
457.554199	147.460000
457.647888	147.520000
457.741577	146.660000
457.835266	146.660000
457.928955	146.640000
458.022644	146.660000
458.116364	146.940000
458.210052	146.920000
458.303741	147.140000
458.397461	146.260000
458.491119	145.660000
458.584839	145.500000
458.678528	145.200000
458.772247	145.120000
458.865906	145.260000
458.959625	146.080000
459.053284	146.300000
459.147003	145.980000
459.240692	146.260000
459.334412	146.580000
459.428070	145.780000
459.521790	145.020000
459.615479	145.420000
459.709198	145.680000
459.802887	145.160000
459.896576	145.320000
459.990265	145.880000
460.083954	146.060000
460.177673	145.280000
460.271362	145.280000
460.365051	145.340000
460.458740	145.080000
460.552429	144.400000
460.646149	144.540000
460.739838	144.560000
460.833527	144.420000
460.927246	144.140000
461.020905	144.420000
461.114655	144.640000
461.208313	145.160000
461.302032	144.880000
461.395691	145.500000
461.489441	145.720000
461.583099	145.680000
461.676819	145.220000
461.770477	145.800000
461.864197	145.360000
461.957916	145.240000
462.051605	144.800000
462.145294	145.900000
462.238983	145.580000
462.332703	146.220000
462.426392	146.920000
462.520081	147.000000
462.613770	146.280000
462.707489	146.380000
462.801178	146.220000
462.894867	145.620000
462.988556	145.820000
463.082275	145.680000
463.175964	145.080000
463.269684	145.020000
463.363342	145.100000
463.457092	144.860000
463.550751	145.180000
463.644470	145.460000
463.738129	145.200000
463.831879	145.360000
463.925537	146.040000
464.019257	146.160000
464.112946	146.520000
464.206665	146.320000
464.300323	146.120000
464.394043	145.840000
464.487762	145.420000
464.581451	145.500000
464.675140	145.860000
464.768829	146.120000
464.862549	146.140000
464.956238	146.500000
465.049927	146.560000
465.143646	146.340000
465.237335	146.100000
465.331024	146.400000
465.424713	146.240000
465.518433	146.340000
465.612152	146.360000
465.705811	146.360000
465.799561	146.260000
465.893219	145.980000
465.986938	145.680000
466.080597	145.240000
466.174347	145.740000
466.268005	145.800000
466.361725	146.140000
466.455414	146.200000
466.549133	146.460000
466.642792	146.320000
466.736542	145.440000
466.830231	145.360000
466.923920	145.400000
467.017609	145.520000
467.111328	145.180000
467.205017	145.540000
467.298706	145.400000
467.392426	145.620000
467.486115	145.980000
467.579803	145.760000
467.673523	146.180000
467.767212	146.420000
467.860901	146.060000
467.954651	145.960000
468.048309	146.500000
468.142029	146.280000
468.235718	146.180000
468.329437	145.940000
468.423096	146.120000
468.516846	145.780000
468.610504	145.480000
468.704224	145.220000
468.797913	145.160000
468.891632	145.080000
468.985291	144.980000
469.079010	145.260000
469.172729	145.060000
469.266418	145.880000
469.360107	145.720000
469.453827	145.740000
469.547516	145.780000
469.641205	146.240000
469.734924	146.220000
469.828613	146.300000
469.922302	146.700000
470.016022	146.780000
470.109711	146.580000
470.203430	145.540000
470.297150	144.860000
470.390808	144.900000
470.484558	144.440000
470.578217	144.980000
470.671936	145.820000
470.765625	146.980000
470.859344	146.460000
470.953003	147.020000
471.046753	146.380000
471.140411	145.720000
471.234131	145.280000
471.327820	145.900000
471.421539	146.060000
471.515228	145.980000
471.608948	146.340000
471.702637	145.920000
471.796326	145.080000
471.890045	144.760000
471.983734	145.120000
472.077423	144.780000
472.171143	145.100000
472.264832	145.440000
472.358521	145.300000
472.452240	144.840000
472.545929	145.640000
472.639648	145.800000
472.733337	146.200000
472.827057	146.680000
472.920746	146.980000
473.014465	147.060000
473.108124	146.860000
473.201874	146.680000
473.295532	146.080000
473.389252	146.360000
473.482941	146.340000
473.576660	146.280000
473.670319	146.360000
473.764069	146.940000
473.857727	147.040000
473.951477	147.180000
474.045166	147.740000
474.138855	147.280000
474.232574	146.900000
474.326263	146.600000
474.419952	146.580000
474.513672	146.140000
474.607361	146.260000
474.701050	146.300000
474.794769	146.560000
474.888458	146.520000
474.982178	146.500000
475.075867	146.680000
475.169586	146.600000
475.263275	146.260000
475.356995	145.780000
475.450653	145.660000
475.544403	145.220000
475.638062	146.100000
475.731812	145.820000
475.825470	145.600000
475.919189	145.920000
476.012878	146.360000
476.106598	145.480000
476.200256	146.200000
476.294006	146.460000
476.387695	146.240000
476.481384	146.160000
476.575104	146.140000
476.668793	145.380000
476.762512	145.280000
476.856201	145.960000
476.949890	145.440000
477.043610	145.260000
477.137299	145.560000
477.230988	145.700000
477.324707	144.820000
477.418396	145.860000
477.512146	145.980000
477.605804	145.980000
477.699524	146.060000
477.793213	146.120000
477.886932	145.640000
477.980591	145.320000
478.074341	145.060000
478.167999	144.400000
478.261749	144.380000
478.355408	143.880000
478.449127	144.900000
478.542816	145.800000
478.636536	146.660000
478.730225	146.920000
478.823944	147.500000
478.917633	146.880000
479.011322	146.780000
479.105042	146.500000
479.198730	146.720000
479.292450	146.580000
479.386139	146.860000
479.479828	146.520000
479.573547	146.760000
479.667267	146.480000
479.760925	146.640000
479.854675	146.740000
479.948334	146.480000
480.042084	145.720000
480.135742	146.100000
480.229462	145.420000
480.323151	144.980000
480.416870	144.940000
480.510529	145.640000
480.604279	144.760000
480.697937	145.480000
480.791656	145.300000
480.885345	145.280000
480.979065	144.980000
481.072754	145.740000
481.166473	145.840000
481.260132	145.820000
481.353882	145.940000
481.447540	145.740000
481.541260	145.740000
481.635010	145.300000
481.728668	145.300000
481.822388	145.400000
481.916077	145.720000
482.009796	145.500000
482.103485	146.000000
482.197205	146.220000
482.290863	146.200000
482.384613	145.780000
482.478271	145.280000
482.571991	144.960000
482.665680	144.960000
482.759399	145.780000
482.853058	146.280000
482.946808	146.800000
483.040466	146.660000
483.134216	146.660000
483.227875	145.720000
483.321594	146.260000
483.415283	145.880000
483.509003	145.880000
483.602661	145.520000
483.696411	145.980000
483.790070	145.540000
483.883789	145.660000
483.977478	146.000000
484.071198	146.320000
484.164917	145.780000
484.258606	145.280000
484.352325	145.740000
484.445984	145.520000
484.539734	145.460000
484.633392	145.140000
484.727142	145.580000
484.820801	145.280000
484.914520	145.360000
485.008209	145.520000
485.101929	146.060000
485.195587	145.780000
485.289337	145.900000
485.382996	146.080000
485.476715	146.060000
485.570404	146.400000
485.664124	146.460000
485.757782	146.600000
485.851532	145.920000
485.945190	145.920000
486.038910	145.920000
486.132599	146.320000
486.226318	145.880000
486.319977	146.340000
486.413727	146.700000
486.507446	146.180000
486.601105	145.760000
486.694855	146.040000
486.788513	145.780000
486.882233	145.680000
486.975922	145.580000
487.069641	145.340000
487.163300	145.160000
487.257050	146.300000
487.350708	145.700000
487.444427	145.700000
487.538116	145.800000
487.631836	145.600000
487.725494	144.900000
487.819214	145.260000
487.912903	145.140000
488.006622	145.640000
488.100281	146.000000
488.194031	145.880000
488.287689	146.140000
488.381409	147.020000
488.475098	146.540000
488.568817	146.580000
488.662476	146.380000
488.756226	145.760000
488.849945	144.680000
488.943604	145.180000
489.037354	145.260000
489.131012	145.340000
489.224731	145.420000
489.318390	145.700000
489.412140	145.680000
489.505798	145.320000
489.599518	144.700000
489.693207	144.960000
489.786926	144.780000
489.880585	144.540000
489.974335	144.940000
490.067993	146.220000
490.161713	146.500000
490.255371	147.700000
490.349121	147.500000
490.442780	147.240000
490.536499	146.660000
490.630188	146.620000
490.723907	145.680000
490.817566	146.040000
490.911285	146.060000
491.004974	145.580000
491.098694	144.840000
491.192413	145.620000
491.286102	145.220000
491.379822	145.480000
491.473480	146.060000
491.567200	146.560000
491.660889	145.700000
491.754608	145.820000
491.848267	145.320000
491.941986	145.060000
492.035675	145.020000
492.129395	145.320000
492.223053	144.980000
492.316772	145.480000
492.410461	145.660000
492.504181	145.740000
492.597839	145.340000
492.691559	145.860000
492.785248	145.660000
492.878967	145.640000
492.972626	145.380000
493.066345	145.680000
493.160034	145.180000
493.253754	145.200000
493.347412	144.640000
493.441132	144.900000
493.534882	145.300000
493.628540	145.820000
493.722260	145.860000
493.815918	146.640000
493.909668	146.960000
494.003326	147.100000
494.097046	146.840000
494.190704	146.880000
494.284454	146.760000
494.378113	146.500000
494.471832	146.140000
494.565491	145.980000
494.659210	145.680000
494.752899	145.560000
494.846619	145.440000
494.940277	145.420000
495.033997	145.520000
495.127686	145.500000
495.221405	145.160000
495.315063	145.520000
495.408783	145.500000
495.502441	145.660000
495.596191	145.900000
495.689850	145.840000
495.783569	145.940000
495.877228	146.220000
495.970947	145.820000
496.064697	145.700000
496.158356	146.720000
496.252075	146.340000
496.345734	146.080000
496.439453	147.140000
496.533142	147.220000
496.626862	147.100000
496.720520	147.320000
496.814240	147.440000
496.907898	146.600000
497.001617	146.700000
497.095306	145.720000
497.189026	145.460000
497.282684	145.520000
497.376404	146.180000
497.470062	145.940000
497.563782	146.400000
497.657471	146.520000
497.751190	146.120000
497.844849	145.900000
497.938568	146.480000
498.032227	146.460000
498.125946	146.360000
498.219635	146.320000
498.313354	146.100000
498.407074	145.580000
498.500732	145.720000
498.594452	145.520000
498.688110	145.320000
498.781830	145.140000
498.875519	145.080000
498.969238	144.820000
499.062897	144.940000
499.156616	145.500000
499.250275	145.900000
499.343994	145.480000
499.437653	145.780000
499.531372	146.040000
499.625061	146.520000
499.718781	146.580000
499.812439	147.420000
499.906158	147.060000
499.999817	146.840000
500.093536	146.220000
500.187195	145.960000
500.280914	145.560000
500.374573	146.120000
500.468323	145.620000
500.561981	145.780000
500.655701	145.520000
500.749420	145.760000
500.843079	145.600000
500.936798	146.140000
501.030457	146.500000
501.124176	146.820000
501.217834	146.640000
501.311554	146.520000
501.405212	146.460000
501.498962	145.700000
501.592621	145.560000
501.686340	145.980000
501.779999	146.240000
501.873718	146.300000
501.967377	146.700000
502.061096	147.240000
502.154755	146.520000
502.248474	146.260000
502.342133	146.300000
502.435852	146.000000
502.529510	146.480000
502.623230	147.280000
502.716888	146.820000
502.810608	146.880000
502.904266	147.580000
502.997986	146.540000
503.091705	145.720000
503.185364	145.680000
503.279083	145.500000
503.372772	145.000000
503.466492	144.980000
503.560150	145.260000
503.653870	145.880000
503.747528	146.200000
503.841248	146.320000
503.934906	146.380000
504.028625	146.020000
504.122284	146.160000
504.216003	146.380000
504.309662	145.960000
504.403381	146.020000
504.497040	146.120000
504.590759	145.560000
504.684418	145.440000
504.778137	145.880000
504.871796	146.420000
504.965515	146.520000
505.059174	146.500000
505.152893	146.040000
505.246521	145.920000
505.340240	145.520000
505.433899	145.760000
505.527618	146.100000
505.621338	146.440000
505.714996	146.160000
505.808716	146.220000
505.902374	146.900000
505.996094	147.020000
506.089752	146.620000
506.183472	146.900000
506.277130	147.020000
506.370850	146.480000
506.464508	146.100000
506.558228	146.480000
506.651886	146.080000
506.745605	145.860000
506.839264	146.240000
506.932983	146.400000
507.026611	146.060000
507.120331	146.980000
507.213989	146.500000
507.307709	145.980000
507.401367	146.200000
507.495087	146.820000
507.588745	146.080000
507.682465	146.980000
507.776123	147.060000
507.869843	147.040000
507.963531	146.860000
508.057190	147.480000
508.150909	146.700000
508.244568	146.980000
508.338287	146.480000
508.431946	146.180000
508.525665	145.780000
508.619324	145.800000
508.713013	145.340000
508.806671	146.060000
508.900391	146.700000
508.994049	146.640000
509.087769	146.620000
509.181427	147.140000
509.275146	146.340000
509.368774	145.520000
509.462494	145.560000
509.556152	145.540000
509.649872	145.780000
509.743530	146.100000
509.837250	146.500000
509.930878	146.700000
510.024597	146.620000
510.118256	145.700000
510.211975	145.700000
510.305695	145.320000
510.399353	145.500000
510.493042	146.160000
510.586700	146.700000
510.680420	147.420000
510.774078	147.620000
510.867798	147.720000
510.961426	147.040000
511.055145	146.900000
511.148804	146.340000
511.242523	147.000000
511.336151	146.720000
511.429871	147.100000
511.523529	146.980000
511.617249	146.640000
511.710876	145.940000
511.804596	145.480000
511.898254	145.540000
511.991974	145.760000
512.085632	145.640000
512.179321	145.700000
512.272949	146.140000
512.366699	146.160000
512.460327	145.940000
512.554077	146.980000
512.647766	147.120000
512.741394	146.980000
512.835144	147.520000
512.928772	147.500000
513.022461	147.300000
513.116150	146.760000
513.209839	147.000000
513.303467	146.480000
513.397217	146.240000
513.490845	145.900000
513.584595	146.040000
513.678223	145.620000
513.771912	144.760000
513.865601	144.840000
513.959290	144.880000
514.052917	145.120000
514.146667	145.980000
514.240295	146.640000
514.333984	147.240000
514.427673	146.820000
514.521362	146.980000
514.614990	146.060000
514.708740	146.040000
514.802368	145.880000
514.896057	146.400000
514.989746	147.000000
515.083435	147.220000
515.177124	147.820000
515.270752	147.680000
515.364502	147.340000
515.458130	147.040000
515.551819	146.720000
515.645508	146.060000
515.739197	145.900000
515.832825	146.120000
515.926575	145.740000
516.020203	146.080000
516.113892	146.820000
516.207520	146.660000
516.301270	146.440000
516.394897	146.380000
516.488586	146.660000
516.582275	146.100000
516.675964	145.720000
516.769592	145.640000
516.863281	146.300000
516.956970	146.400000
517.050659	146.320000
517.144287	146.560000
517.238037	146.700000
517.331665	145.820000
517.425354	145.380000
517.519043	145.300000
517.612732	145.800000
517.706421	145.500000
517.800049	145.520000
517.893738	145.080000
517.987427	145.020000
518.081116	144.640000
518.174744	144.380000
518.268433	144.960000
518.362122	146.040000
518.455811	146.520000
518.549438	147.100000
518.643127	148.520000
518.736816	148.000000
518.830505	147.380000
518.924133	146.840000
519.017822	146.720000
519.111511	145.800000
519.205200	146.400000
519.298828	146.320000
519.392517	146.400000
519.486206	146.660000
519.579895	146.680000
519.673523	146.540000
519.767212	146.280000
519.860901	146.640000
519.954590	146.080000
520.048279	145.860000
520.141907	145.380000
520.235596	146.460000
520.329224	146.520000
520.422974	146.680000
520.516602	146.780000
520.610291	146.740000
520.703918	146.360000
520.797607	145.800000
520.891296	145.520000
520.984985	145.580000
521.078613	146.100000
521.172302	145.600000
521.265930	146.780000
521.359680	147.640000
521.453308	147.840000
521.546997	147.520000
521.640625	147.560000
521.734314	146.600000
521.827942	146.140000
521.921692	146.240000
522.015320	146.300000
522.109009	146.000000
522.202698	145.900000
522.296326	145.740000
522.390015	145.880000
522.483704	145.920000
522.577393	146.280000
522.671021	146.280000
522.764709	145.680000
522.858337	145.820000
522.952026	145.700000
523.045654	146.000000
523.139404	146.920000
523.233032	147.440000
523.326721	146.780000
523.420349	146.820000
523.514038	146.320000
523.607666	146.220000
523.701355	145.740000
523.795044	145.720000
523.888733	145.780000
523.982361	146.440000
524.076050	145.940000
524.169678	146.600000
524.263367	146.580000
524.356995	146.240000
524.450684	145.880000
524.544373	145.780000
524.638062	145.840000
524.731750	146.180000
524.825378	146.480000
524.919067	145.920000
525.012695	145.580000
525.106384	145.180000
525.200012	145.400000
525.293701	145.620000
525.387329	146.460000
525.481018	147.000000
525.574646	147.320000
525.668396	146.960000
525.762024	147.080000
525.855713	146.940000
525.949341	146.700000
526.043030	146.360000
526.136658	146.360000
526.230347	145.960000
526.323975	145.640000
526.417664	145.260000
526.511292	145.660000
526.604980	145.660000
526.698608	145.580000
526.792297	145.920000
526.885925	146.560000
526.979614	146.540000
527.073303	146.640000
527.166931	146.800000
527.260620	146.700000
527.354309	146.920000
527.447998	147.040000
527.541626	146.460000
527.635315	146.680000
527.728943	147.100000
527.822632	147.200000
527.916260	146.800000
528.009949	147.460000
528.103577	147.120000
528.197266	146.180000
528.290894	145.780000
528.384583	146.020000
528.478210	146.180000
528.571899	146.200000
528.665527	146.800000
528.759216	147.120000
528.852844	147.500000
528.946533	147.280000
529.040161	147.420000
529.133850	147.360000
529.227478	147.160000
529.321167	147.240000
529.414856	147.680000
529.508484	148.120000
529.602173	147.740000
529.695801	147.720000
529.789490	147.500000
529.883057	147.360000
529.976746	147.120000
530.070374	147.620000
530.164062	147.520000
530.257690	147.600000
530.351379	147.460000
530.445007	147.540000
530.538696	146.840000
530.632324	147.000000
530.726013	147.060000
530.819641	147.020000
530.913330	147.040000
531.006958	147.420000
531.100647	147.680000
531.194275	147.060000
531.287964	146.780000
531.381592	146.460000
531.475220	146.600000
531.568848	145.980000
531.662537	145.960000
531.756226	146.220000
531.849854	145.920000
531.943542	145.780000
532.037170	145.080000
532.130859	145.560000
532.224487	145.200000
532.318176	145.100000
532.411804	145.880000
532.505432	146.600000
532.599060	146.260000
532.692749	146.620000
532.786377	147.180000
532.880066	146.140000
532.973694	146.000000
533.067383	146.120000
533.161011	145.660000
533.254639	145.320000
533.348267	145.280000
533.441956	145.560000
533.535583	145.600000
533.629272	146.080000
533.722900	145.700000
533.816589	146.140000
533.910156	146.560000
534.003845	146.140000
534.097534	146.360000
534.191162	147.100000
534.284851	147.240000
534.378479	146.900000
534.472107	147.180000
534.565735	146.820000
534.659424	146.760000
534.753052	146.700000
534.846741	146.180000
534.940369	146.760000
535.033997	146.720000
535.127625	146.820000
535.221313	147.300000
535.314941	147.660000
535.408630	146.680000
535.502197	146.880000
535.595886	146.360000
535.689514	145.580000
535.783203	146.020000
535.876831	146.820000
535.970459	146.660000
536.064087	146.800000
536.157776	147.120000
536.251404	146.960000
536.345093	146.620000
536.438721	146.600000
536.532349	146.840000
536.626038	146.600000
536.719666	146.460000
536.813293	146.060000
536.906921	146.060000
537.000610	146.260000
537.094238	146.140000
537.187866	146.120000
537.281494	146.420000
537.375183	146.460000
537.468811	146.300000
537.562439	146.340000
537.656067	146.220000
537.749756	146.500000
537.843384	147.000000
537.937012	146.860000
538.030640	147.000000
538.124329	146.900000
538.217896	146.940000
538.311584	146.820000
538.405212	146.660000
538.498901	146.940000
538.592468	147.640000
538.686157	147.100000
538.779785	146.040000
538.873413	146.100000
538.967102	145.600000
539.060730	144.660000
539.154358	145.160000
539.247986	145.880000
539.341675	146.000000
539.435242	146.280000
539.528931	146.680000
539.622559	146.000000
539.716187	146.640000
539.809814	146.360000
539.903503	146.460000
539.997070	146.360000
540.090759	147.000000
540.184387	146.420000
540.278015	147.280000
540.371643	147.100000
540.465332	147.220000
540.558899	147.000000
540.652588	146.960000
540.746216	146.240000
540.839844	146.320000
540.933472	146.420000
541.027100	146.380000
541.120728	146.600000
541.214417	147.040000
541.308044	147.500000
541.401672	147.300000
541.495300	146.840000
541.588928	146.440000
541.682617	145.980000
541.776184	145.240000
541.869873	145.340000
541.963440	145.840000
542.057129	146.020000
542.150757	146.100000
542.244385	146.060000
542.338013	145.880000
542.431641	145.560000
542.525269	145.380000
542.618958	145.760000
542.712524	146.160000
542.806213	146.160000
542.899780	146.400000
542.993469	146.300000
543.087036	145.740000
543.180725	145.160000
543.274292	145.300000
543.367981	145.540000
543.461548	145.700000
543.555237	146.140000
543.648926	146.660000
543.742493	147.400000
543.836182	147.160000
543.929749	147.200000
544.023437	147.040000
544.117004	146.960000
544.210693	146.720000
544.304260	146.860000
544.397949	146.900000
544.491516	147.160000
544.585205	147.100000
544.678772	146.460000
544.772461	146.940000
544.866028	146.740000
544.959717	146.700000
545.053284	146.660000
545.146973	146.980000
545.240540	146.620000
545.334229	147.300000
545.427795	147.240000
545.521423	147.340000
545.615051	147.400000
545.708679	147.920000
545.802307	147.800000
545.895935	148.040000
545.989624	148.700000
546.083191	148.540000
546.176880	148.140000
546.270447	147.720000
546.364136	147.680000
546.457703	147.220000
546.551331	147.260000
546.644958	147.280000
546.738586	147.580000
546.832214	147.200000
546.925842	146.580000
547.019409	146.740000
547.113098	146.160000
547.206665	145.780000
547.300354	146.000000
547.393921	146.560000
547.487549	146.440000
547.581177	146.500000
547.674805	146.560000
547.768433	145.880000
547.862061	145.900000
547.955627	145.380000
548.049316	145.920000
548.142883	146.380000
548.236572	147.160000
548.330139	147.340000
548.423767	147.460000
548.517456	147.100000
548.611023	147.180000
548.704651	146.520000
548.798279	146.440000
548.891907	147.140000
548.985474	147.200000
549.079163	146.980000
549.172729	146.760000
549.266357	146.100000
549.359985	145.700000
549.453613	145.280000
549.547180	145.020000
549.640869	145.680000
549.734436	145.900000
549.828064	146.600000
549.921631	146.860000
550.015320	146.500000
550.108887	147.040000
550.202515	147.100000
550.296143	146.120000
550.389771	146.180000
550.483337	146.380000
550.576965	145.580000
550.670593	146.100000
550.764221	146.360000
550.857849	146.160000
550.951477	145.780000
551.045105	145.640000
551.138672	145.120000
551.232300	144.960000
551.325928	145.460000
551.419556	145.880000
551.513123	146.060000
551.606750	145.820000
551.700378	145.780000
551.794006	145.420000
551.887573	145.400000
551.981201	145.620000
552.074768	145.940000
552.168457	146.040000
552.262024	146.780000
552.355652	146.820000
552.449219	147.180000
552.542847	147.260000
552.636475	147.260000
552.730103	146.480000
552.823669	146.560000
552.917297	146.040000
553.010864	146.000000
553.104553	145.880000
553.198181	145.680000
553.291748	145.860000
553.385376	146.520000
553.478943	146.580000
553.572571	146.860000
553.666199	147.280000
553.759827	146.880000
553.853394	146.360000
553.947021	146.360000
554.040588	146.160000
554.134216	146.120000
554.227783	147.040000
554.321411	147.540000
554.415039	146.940000
554.508667	146.800000
554.602234	147.240000
554.695862	146.260000
554.789429	145.660000
554.883057	145.920000
554.976624	146.100000
555.070251	145.640000
555.163818	145.700000
555.257507	145.820000
555.351074	145.780000
555.444702	146.780000
555.538330	146.360000
555.631897	146.680000
555.725525	146.600000
555.819092	146.840000
555.912720	145.720000
556.006287	146.460000
556.099915	146.160000
556.193481	146.000000
556.287109	146.020000
556.380676	146.040000
556.474304	145.820000
556.567871	146.280000
556.661499	145.980000
556.755066	145.900000
556.848694	146.040000
556.942261	146.020000
557.035889	145.820000
557.129517	146.480000
557.223145	146.760000
557.316711	146.720000
557.410339	146.960000
557.503906	146.740000
557.597473	146.560000
557.691040	146.480000
557.784668	146.120000
557.878296	146.000000
557.971863	146.420000
558.065491	146.600000
558.159058	146.200000
558.252686	147.220000
558.346252	147.560000
558.439880	146.980000
558.533447	146.500000
558.627075	146.660000
558.720642	145.640000
558.814270	145.400000
558.907837	145.080000
559.001465	145.060000
559.095032	145.920000
559.188660	146.620000
559.282227	145.800000
559.375854	146.920000
559.469360	146.700000
559.562988	146.460000
559.656555	146.120000
559.750183	146.620000
559.843750	146.600000
559.937378	147.080000
560.030945	146.640000
560.124573	0.000000
560.218140	0.000000
560.311707	0.000000
560.405334	0.000000
560.498901	0.000000
560.592529	0.000000
560.686096	0.000000
560.779724	0.000000
560.873291	0.000000
560.966858	0.000000
561.060425	0.000000
561.154053	0.000000
561.247620	0.000000
561.341248	0.000000
561.434814	0.000000
561.528381	0.000000
561.621948	0.000000
561.715576	0.000000
561.809143	0.000000
561.902771	0.000000
561.996277	0.000000
562.089905	0.000000
562.183472	0.000000
562.277100	0.000000
