Model Number: SPM-002-B   
Serial Number: 70087108
Firmware Version: 004.15.4
Exposure Time: 100000.000000us
Data Taken on: 11-12-2020 19:39:33.224
Wavelength	Amplitude
221.570786	0.000000
221.663406	0.000000
221.756027	0.000000
221.848648	0.000000
221.941269	0.000000
222.033905	0.000000
222.126526	0.000000
222.219162	0.000000
222.311798	0.000000
222.404419	0.000000
222.497055	0.000000
222.589676	0.000000
222.682312	0.000000
222.774933	0.000000
222.867569	0.000000
222.960205	0.000000
223.052841	0.000000
223.145462	0.000000
223.238098	0.000000
223.330734	0.000000
223.423386	0.000000
223.516022	0.000000
223.608658	0.000000
223.701309	0.000000
223.793945	0.000000
223.886581	0.000000
223.979218	0.000000
224.071869	0.000000
224.164505	0.000000
224.257156	0.000000
224.349792	0.000000
224.442444	0.000000
224.535095	0.000000
224.627747	0.000000
224.720398	0.000000
224.813034	0.000000
224.905685	0.000000
224.998337	145.900000
225.090988	145.620000
225.183640	145.280000
225.276291	144.980000
225.368942	145.240000
225.461594	145.420000
225.554245	145.660000
225.646912	145.960000
225.739578	146.460000
225.832230	146.760000
225.924896	146.120000
226.017548	146.580000
226.110199	146.940000
226.202866	146.180000
226.295532	145.880000
226.388184	146.080000
226.480850	145.320000
226.573517	145.040000
226.666168	145.720000
226.758835	146.100000
226.851501	146.560000
226.944183	146.880000
227.036850	146.180000
227.129517	146.300000
227.222183	146.360000
227.314850	146.160000
227.407516	146.520000
227.500198	147.780000
227.592865	147.220000
227.685532	146.720000
227.778214	146.800000
227.870880	146.820000
227.963562	147.040000
228.056229	147.400000
228.148926	147.480000
228.241592	147.800000
228.334274	147.620000
228.426956	146.660000
228.519638	146.840000
228.612305	146.440000
228.704987	146.240000
228.797668	145.900000
228.890350	146.060000
228.983032	145.240000
229.075714	146.180000
229.168396	145.700000
229.261108	145.440000
229.353790	145.060000
229.446472	145.380000
229.539169	144.960000
229.631851	144.440000
229.724533	145.080000
229.817230	145.780000
229.909912	146.760000
230.002609	146.660000
230.095306	147.300000
230.187988	146.900000
230.280685	146.400000
230.373383	145.260000
230.466095	145.200000
230.558792	145.560000
230.651474	145.600000
230.744171	145.600000
230.836868	145.820000
230.929581	146.040000
231.022278	145.640000
231.114975	145.940000
231.207672	145.740000
231.300369	146.020000
231.393082	146.240000
231.485779	146.160000
231.578506	146.080000
231.671204	146.440000
231.763916	146.400000
231.856613	146.200000
231.949326	146.560000
232.042023	146.460000
232.134735	146.260000
232.227448	146.080000
232.320160	146.440000
232.412872	146.460000
232.505585	147.360000
232.598297	147.800000
232.691010	147.440000
232.783722	146.740000
232.876450	147.260000
232.969162	146.460000
233.061874	146.020000
233.154587	146.160000
233.247314	146.720000
233.340027	145.900000
233.432739	146.360000
233.525467	146.200000
233.618179	146.580000
233.710907	146.000000
233.803635	146.540000
233.896347	146.100000
233.989090	146.840000
234.081818	146.520000
234.174545	146.560000
234.267258	145.980000
234.359985	146.140000
234.452713	145.740000
234.545441	145.580000
234.638168	145.420000
234.730896	145.820000
234.823639	145.580000
234.916367	145.820000
235.009094	146.280000
235.101822	146.460000
235.194580	146.040000
235.287308	146.040000
235.380051	145.500000
235.472778	145.580000
235.565521	146.000000
235.658249	145.960000
235.750992	146.160000
235.843719	146.260000
235.936462	146.040000
236.029205	145.520000
236.121948	145.380000
236.214691	145.580000
236.307449	146.260000
236.400192	145.840000
236.492935	145.680000
236.585678	145.860000
236.678421	145.500000
236.771164	145.120000
236.863907	145.920000
236.956665	146.280000
237.049408	147.640000
237.142151	147.440000
237.234909	148.100000
237.327652	147.960000
237.420410	147.720000
237.513153	146.680000
237.605927	146.620000
237.698669	145.840000
237.791428	145.240000
237.884186	146.000000
237.976944	145.340000
238.069702	145.520000
238.162445	145.300000
238.255203	145.760000
238.347961	145.740000
238.440720	146.000000
238.533478	145.920000
238.626266	146.120000
238.719025	146.180000
238.811783	146.000000
238.904541	146.220000
238.997314	146.400000
239.090073	146.020000
239.182831	146.160000
239.275604	146.780000
239.368362	146.520000
239.461136	146.660000
239.553909	146.640000
239.646667	146.140000
239.739441	145.600000
239.832214	145.960000
239.925003	146.020000
240.017761	146.780000
240.110535	147.340000
240.203308	146.900000
240.296082	146.860000
240.388855	146.600000
240.481628	146.540000
240.574417	146.460000
240.667191	146.700000
240.759964	146.460000
240.852737	146.580000
240.945526	145.900000
241.038315	145.720000
241.131088	146.000000
241.223877	146.100000
241.316650	145.700000
241.409439	145.920000
241.502228	145.880000
241.595001	146.160000
241.687790	146.060000
241.780579	146.360000
241.873367	146.940000
241.966141	146.960000
242.058929	145.940000
242.151718	146.380000
242.244507	146.680000
242.337311	145.860000
242.430099	146.400000
242.522903	146.900000
242.615692	146.280000
242.708481	146.240000
242.801270	146.840000
242.894073	146.380000
242.986862	146.460000
243.079651	147.500000
243.172455	147.100000
243.265244	146.820000
243.358063	146.120000
243.450867	146.260000
243.543655	145.420000
243.636459	145.660000
243.729263	146.280000
243.822067	147.140000
243.914856	147.280000
244.007660	147.580000
244.100464	147.260000
244.193268	146.500000
244.286072	146.020000
244.378876	145.520000
244.471680	145.240000
244.564499	145.620000
244.657318	146.280000
244.750122	146.820000
244.842926	146.560000
244.935745	146.960000
245.028549	146.300000
245.121368	145.960000
245.214172	146.040000
245.306992	146.460000
245.399796	145.720000
245.492615	146.080000
245.585434	145.880000
245.678253	145.320000
245.771072	144.880000
245.863892	145.860000
245.956711	146.080000
246.049530	145.960000
246.142349	145.720000
246.235168	146.060000
246.327988	146.200000
246.420807	145.940000
246.513626	145.920000
246.606445	145.860000
246.699280	145.960000
246.792099	145.400000
246.884918	145.060000
246.977753	145.180000
247.070587	145.560000
247.163422	145.560000
247.256241	145.300000
247.349075	146.040000
247.441895	145.980000
247.534729	145.740000
247.627563	145.280000
247.720383	145.980000
247.813217	145.580000
247.906052	145.720000
247.998886	145.680000
248.091736	145.680000
248.184570	145.320000
248.277405	145.440000
248.370239	146.180000
248.463074	147.220000
248.555908	147.600000
248.648743	147.400000
248.741592	147.520000
248.834427	146.620000
248.927261	145.580000
249.020111	145.680000
249.112946	146.660000
249.205795	146.340000
249.298630	146.900000
249.391495	147.080000
249.484344	146.860000
249.577179	146.220000
249.670029	146.200000
249.762878	146.200000
249.855728	146.460000
249.948563	146.440000
250.041412	145.860000
250.134262	146.200000
250.227112	146.300000
250.319962	146.240000
250.412827	146.280000
250.505692	146.240000
250.598541	146.140000
250.691391	145.480000
250.784241	145.320000
250.877106	145.660000
250.969955	145.760000
251.062805	146.220000
251.155670	147.140000
251.248520	147.220000
251.341385	147.160000
251.434235	147.000000
251.527100	146.660000
251.619965	145.940000
251.712814	146.740000
251.805695	146.800000
251.898560	147.340000
251.991425	147.220000
252.084290	147.460000
252.177155	146.520000
252.270020	146.280000
252.362885	145.820000
252.455750	146.080000
252.548615	145.900000
252.641479	145.660000
252.734360	145.500000
252.827240	145.660000
252.920105	145.240000
253.012970	144.860000
253.105850	145.020000
253.198715	144.580000
253.291595	144.720000
253.384460	144.740000
253.477341	144.900000
253.570221	145.040000
253.663086	145.380000
253.755966	145.860000
253.848846	145.920000
253.941727	146.320000
254.034592	146.320000
254.127472	145.880000
254.220367	145.700000
254.313248	145.880000
254.406128	145.300000
254.499008	145.520000
254.591904	146.800000
254.684784	147.080000
254.777664	146.940000
254.870544	147.120000
254.963440	146.840000
255.056335	146.440000
255.149216	145.940000
255.242111	146.620000
255.334991	146.900000
255.427887	147.060000
255.520767	146.780000
255.613663	147.060000
255.706558	145.940000
255.799438	145.660000
255.892334	145.520000
255.985229	145.580000
256.078125	145.180000
256.171021	145.560000
256.263916	145.940000
256.356812	146.240000
256.449707	146.460000
256.542603	146.500000
256.635498	147.040000
256.728394	146.900000
256.821289	146.580000
256.914215	146.620000
257.007080	146.800000
257.100006	146.700000
257.192932	146.960000
257.285828	147.180000
257.378723	146.940000
257.471619	146.760000
257.564545	146.340000
257.657440	146.100000
257.750336	146.440000
257.843262	146.000000
257.936157	147.220000
258.029053	147.620000
258.121979	147.760000
258.214874	147.280000
258.307800	147.300000
258.400696	146.040000
258.493622	145.920000
258.586517	145.140000
258.679443	145.440000
258.772339	145.520000
258.865265	145.620000
258.958160	145.260000
259.051086	146.400000
259.144012	146.240000
259.236938	146.900000
259.329834	147.160000
259.422791	146.840000
259.515717	146.040000
259.608612	145.840000
259.701538	145.640000
259.794464	145.220000
259.887390	145.500000
259.980316	145.720000
260.073212	145.420000
260.166138	144.500000
260.259064	144.920000
260.351990	145.620000
260.444916	145.580000
260.537842	146.260000
260.630768	147.300000
260.723694	147.140000
260.816620	146.480000
260.909546	146.280000
261.002472	145.880000
261.095398	145.160000
261.188354	145.340000
261.281281	145.020000
261.374207	145.180000
261.467133	145.840000
261.560089	146.340000
261.653015	145.820000
261.745972	146.900000
261.838867	147.200000
261.931824	147.200000
262.024780	146.560000
262.117706	147.120000
262.210663	147.000000
262.303589	146.720000
262.396515	146.500000
262.489471	147.720000
262.582397	147.360000
262.675354	146.440000
262.768280	146.460000
262.861237	146.300000
262.954163	145.740000
263.047119	145.800000
263.140045	145.820000
263.233002	145.960000
263.325958	146.080000
263.418884	145.660000
263.511841	145.800000
263.604797	146.200000
263.697723	146.140000
263.790680	146.180000
263.883636	147.020000
263.976593	146.920000
264.069550	147.060000
264.162476	146.780000
264.255463	146.620000
264.348419	146.080000
264.441376	146.300000
264.534332	145.720000
264.627289	146.120000
264.720245	146.460000
264.813202	145.940000
264.906158	145.920000
264.999115	146.440000
265.092072	146.060000
265.185028	146.240000
265.277985	146.840000
265.370941	146.760000
265.463898	146.480000
265.556854	146.560000
265.649811	145.440000
265.742798	145.320000
265.835754	145.340000
265.928711	145.920000
266.021667	145.800000
266.114655	146.400000
266.207611	146.540000
266.300568	146.060000
266.393585	145.340000
266.486511	145.940000
266.579498	145.120000
266.672485	145.040000
266.765442	144.820000
266.858429	145.360000
266.951385	144.880000
267.044342	145.360000
267.137329	145.120000
267.230316	145.800000
267.323273	145.280000
267.416260	145.860000
267.509216	145.680000
267.602203	145.960000
267.695160	145.940000
267.788147	146.200000
267.881134	145.400000
267.974091	146.060000
268.067078	145.920000
268.160065	145.900000
268.253052	145.760000
268.346008	146.080000
268.438995	145.580000
268.531982	145.660000
268.624969	145.220000
268.717987	145.680000
268.810944	145.700000
268.903961	145.900000
268.996948	145.660000
269.089905	146.000000
269.182892	146.080000
269.275879	146.300000
269.368866	145.820000
269.461853	146.240000
269.554871	146.220000
269.647858	146.000000
269.740845	146.040000
269.833832	146.540000
269.926819	145.780000
270.019806	145.880000
270.112793	145.420000
270.205811	145.540000
270.298798	145.140000
270.391785	146.100000
270.484772	145.800000
270.577789	146.100000
270.670776	145.480000
270.763763	145.900000
270.856750	145.480000
270.949768	145.300000
271.042786	145.420000
271.135773	145.700000
271.228790	146.160000
271.321808	146.000000
271.414795	146.080000
271.507782	145.680000
271.600800	145.280000
271.693817	144.900000
271.786804	145.360000
271.879822	145.380000
271.972809	145.420000
272.065826	146.160000
272.158844	145.580000
272.251831	145.980000
272.344849	146.280000
272.437866	145.860000
272.530853	145.640000
272.623871	146.020000
272.716888	144.820000
272.809906	144.940000
272.902893	145.280000
272.995911	144.820000
273.088928	144.820000
273.181946	145.340000
273.274963	145.000000
273.367981	144.860000
273.460999	145.200000
273.554047	145.780000
273.647003	146.240000
273.740051	146.260000
273.833069	147.000000
273.926086	146.820000
274.019135	146.420000
274.112152	146.240000
274.205170	146.360000
274.298187	146.220000
274.391205	145.900000
274.484222	145.740000
274.577240	145.560000
274.670258	145.280000
274.763306	144.940000
274.856323	145.800000
274.949341	145.660000
275.042358	145.920000
275.135406	145.980000
275.228424	146.240000
275.321442	145.740000
275.414490	145.740000
275.507507	146.040000
275.600525	146.400000
275.693573	146.260000
275.786591	146.180000
275.879669	146.440000
275.972656	145.760000
276.065735	145.660000
276.158752	146.140000
276.251801	146.900000
276.344818	147.060000
276.437866	146.980000
276.530884	146.800000
276.623932	146.100000
276.716980	145.680000
276.809998	145.660000
276.903046	146.240000
276.996094	147.060000
277.089111	147.780000
277.182159	148.160000
277.275208	147.880000
277.368256	147.240000
277.461304	146.880000
277.554321	146.060000
277.647369	145.900000
277.740417	145.980000
277.833466	146.240000
277.926514	145.680000
278.019562	146.440000
278.112610	145.560000
278.205688	145.680000
278.298706	145.440000
278.391785	145.500000
278.484833	144.840000
278.577881	144.960000
278.670929	144.840000
278.763977	145.080000
278.857025	145.580000
278.950073	145.820000
279.043121	145.900000
279.136169	145.840000
279.229248	145.680000
279.322296	145.500000
279.415344	144.960000
279.508392	145.080000
279.601440	145.500000
279.694519	145.220000
279.787567	145.100000
279.880615	145.280000
279.973694	145.200000
280.066742	144.800000
280.159790	145.200000
280.252869	144.980000
280.345917	145.380000
280.438995	145.700000
280.532074	145.760000
280.625122	146.180000
280.718201	146.920000
280.811279	146.860000
280.904327	146.840000
280.997406	147.140000
281.090454	146.760000
281.183533	146.020000
281.276581	145.960000
281.369659	145.440000
281.462738	145.460000
281.555786	145.540000
281.648865	145.600000
281.741943	145.580000
281.835022	146.600000
281.928070	146.120000
282.021149	145.960000
282.114227	146.040000
282.207306	145.940000
282.300385	145.820000
282.393433	146.200000
282.486511	146.080000
282.579590	146.520000
282.672668	146.920000
282.765747	146.300000
282.858856	145.640000
282.951904	145.960000
283.045013	146.060000
283.138062	146.060000
283.231171	146.380000
283.324249	147.360000
283.417328	147.380000
283.510406	146.680000
283.603485	146.460000
283.696564	146.020000
283.789642	145.540000
283.882751	145.440000
283.975830	146.100000
284.068909	145.860000
284.161987	146.900000
284.255066	146.500000
284.348175	146.600000
284.441254	146.280000
284.534332	146.880000
284.627441	146.280000
284.720520	146.380000
284.813599	146.380000
284.906708	146.260000
284.999786	145.500000
285.092896	145.000000
285.185974	146.100000
285.279053	145.480000
285.372192	145.560000
285.465240	146.400000
285.558380	146.500000
285.651459	145.680000
285.744568	146.760000
285.837677	146.460000
285.930756	146.100000
286.023865	146.340000
286.116943	146.220000
286.210052	145.920000
286.303162	146.280000
286.396240	146.080000
286.489349	145.860000
286.582458	146.320000
286.675568	145.940000
286.768646	145.580000
286.861755	146.200000
286.954865	146.920000
287.047974	146.300000
287.141083	146.600000
287.234161	146.620000
287.327271	146.400000
287.420380	146.640000
287.513519	146.520000
287.606598	146.120000
287.699738	146.580000
287.792816	146.220000
287.885956	145.700000
287.979034	145.740000
288.072174	145.920000
288.165283	145.360000
288.258392	145.640000
288.351501	144.980000
288.444611	145.240000
288.537720	145.540000
288.630859	145.780000
288.723969	145.780000
288.817078	146.180000
288.910187	146.100000
289.003296	145.240000
289.096436	145.120000
289.189545	145.000000
289.282654	144.720000
289.375763	145.180000
289.468903	146.100000
289.562012	146.300000
289.655121	146.240000
289.748260	146.340000
289.841400	146.340000
289.934509	146.100000
290.027649	146.240000
290.120728	146.280000
290.213898	146.480000
290.306976	145.920000
290.400146	145.800000
290.493256	145.640000
290.586395	145.760000
290.679535	145.860000
290.772644	145.860000
290.865784	145.280000
290.958893	145.140000
291.052032	145.100000
291.145172	144.820000
291.238281	144.760000
291.331421	145.200000
291.424561	145.640000
291.517670	145.100000
291.610809	145.460000
291.703949	145.260000
291.797089	145.520000
291.890228	144.960000
291.983337	145.120000
292.076477	144.840000
292.169617	145.520000
292.262756	145.140000
292.355927	145.260000
292.449036	145.400000
292.542206	145.520000
292.635315	145.500000
292.728485	145.840000
292.821625	145.540000
292.914764	146.560000
293.007904	146.760000
293.101044	146.560000
293.194183	146.560000
293.287323	147.140000
293.380463	146.260000
293.473602	146.060000
293.566742	146.280000
293.659882	146.580000
293.753021	146.600000
293.846191	146.560000
293.939331	146.080000
294.032471	145.700000
294.125610	145.260000
294.218781	145.500000
294.311920	145.900000
294.405060	146.580000
294.498230	146.840000
294.591370	146.980000
294.684540	146.260000
294.777679	145.440000
294.870850	145.600000
294.963959	145.400000
295.057159	145.240000
295.150299	145.580000
295.243469	145.860000
295.336609	145.160000
295.429779	145.200000
295.522919	145.380000
295.616089	145.720000
295.709229	146.220000
295.802399	146.460000
295.895569	146.220000
295.988708	145.940000
296.081879	145.920000
296.175018	145.360000
296.268188	145.620000
296.361359	146.140000
296.454529	146.500000
296.547668	146.060000
296.640839	146.420000
296.734009	145.940000
296.827179	145.900000
296.920319	146.000000
297.013519	146.040000
297.106659	146.320000
297.199860	146.540000
297.292999	146.660000
297.386200	146.400000
297.479309	146.140000
297.572510	145.920000
297.665680	145.800000
297.758850	145.580000
297.852020	145.620000
297.945190	145.820000
298.038361	145.380000
298.131531	146.220000
298.224701	145.920000
298.317871	145.780000
298.411072	145.380000
298.504242	145.300000
298.597412	144.680000
298.690582	145.120000
298.783752	145.240000
298.876923	145.820000
298.970093	146.240000
299.063293	146.220000
299.156464	146.460000
299.249634	146.500000
299.342834	146.260000
299.436005	146.540000
299.529205	146.600000
299.622345	146.380000
299.715576	145.840000
299.808716	145.940000
299.901917	145.600000
299.995117	145.880000
300.088287	145.940000
300.181488	145.940000
300.274658	145.800000
300.367828	145.940000
300.461029	145.660000
300.554199	145.620000
300.647400	145.880000
300.740601	146.400000
300.833771	146.140000
300.926971	146.180000
301.020142	146.020000
301.113342	146.020000
301.206512	145.680000
301.299713	145.920000
301.392914	146.200000
301.486084	146.320000
301.579285	146.320000
301.672516	146.900000
301.765686	146.620000
301.858887	146.060000
301.952057	146.100000
302.045288	146.060000
302.138458	145.600000
302.231659	145.780000
302.324860	146.040000
302.418060	145.680000
302.511261	145.620000
302.604462	145.560000
302.697662	145.240000
302.790863	145.220000
302.884064	145.040000
302.977264	145.220000
303.070465	145.540000
303.163666	146.480000
303.256866	146.720000
303.350067	146.980000
303.443268	146.860000
303.536469	147.000000
303.629669	146.280000
303.722870	146.380000
303.816071	146.100000
303.909271	146.080000
304.002472	145.020000
304.095673	145.040000
304.188934	144.460000
304.282104	145.440000
304.375336	145.380000
304.468506	145.780000
304.561768	145.460000
304.654968	145.980000
304.748169	145.180000
304.841370	145.040000
304.934601	145.340000
305.027802	145.340000
305.121002	144.740000
305.214233	144.920000
305.307434	145.160000
305.400665	145.660000
305.493866	145.720000
305.587097	146.200000
305.680298	145.980000
305.773499	146.360000
305.866730	145.860000
305.959930	146.480000
306.053162	146.620000
306.146393	146.520000
306.239594	146.120000
306.332825	146.100000
306.426025	146.140000
306.519287	145.500000
306.612488	145.740000
306.705719	145.640000
306.798920	145.400000
306.892181	144.760000
306.985352	144.940000
307.078613	144.460000
307.171844	144.880000
307.265045	144.820000
307.358276	144.500000
307.451508	144.700000
307.544739	145.380000
307.637970	145.020000
307.731201	145.020000
307.824402	146.060000
307.917633	146.560000
308.010864	146.720000
308.104095	146.980000
308.197327	147.020000
308.290558	146.980000
308.383789	146.520000
308.477020	146.040000
308.570251	145.400000
308.663483	145.240000
308.756714	144.640000
308.849976	144.480000
308.943176	145.000000
309.036438	145.160000
309.129639	145.260000
309.222900	145.360000
309.316101	145.540000
309.409393	144.900000
309.502625	144.800000
309.595856	144.820000
309.689087	144.900000
309.782318	144.620000
309.875580	145.000000
309.968811	145.240000
310.062042	145.100000
310.155273	145.000000
310.248535	145.380000
310.341766	145.220000
310.434998	145.060000
310.528259	144.880000
310.621490	145.280000
310.714722	144.700000
310.807983	144.960000
310.901215	145.060000
310.994476	145.280000
311.087708	144.720000
311.181000	145.040000
311.274200	144.440000
311.367462	144.440000
311.460693	144.540000
311.553986	145.460000
311.647186	145.620000
311.740479	146.180000
311.833710	146.140000
311.926971	146.120000
312.020203	144.960000
312.113464	144.900000
312.206726	144.540000
312.299957	144.840000
312.393219	145.380000
312.486481	145.560000
312.579712	145.600000
312.672974	145.480000
312.766235	145.320000
312.859497	145.100000
312.952759	145.320000
313.045990	146.060000
313.139252	146.080000
313.232513	146.260000
313.325775	146.520000
313.419037	146.260000
313.512299	145.180000
313.605530	145.640000
313.698822	145.820000
313.792053	145.500000
313.885345	145.480000
313.978577	145.920000
314.071869	145.360000
314.165131	145.440000
314.258392	145.580000
314.351654	146.080000
314.444916	145.320000
314.538177	145.940000
314.631439	145.860000
314.724701	145.620000
314.817993	145.360000
314.911255	145.720000
315.004517	145.000000
315.097778	144.700000
315.191040	145.280000
315.284302	145.620000
315.377594	145.560000
315.470856	145.840000
315.564117	145.400000
315.657379	144.720000
315.750671	143.960000
315.843933	144.080000
315.937195	143.720000
316.030518	144.100000
316.123749	144.280000
316.217041	145.520000
316.310303	145.740000
316.403595	146.260000
316.496857	146.600000
316.590149	146.880000
316.683411	146.100000
316.776703	145.460000
316.869965	145.380000
316.963257	144.880000
317.056519	144.080000
317.149811	144.040000
317.243073	144.280000
317.336365	144.580000
317.429626	145.180000
317.522919	146.000000
317.616180	146.120000
317.709473	146.220000
317.802765	145.960000
317.896027	145.760000
317.989319	145.900000
318.082611	145.920000
318.175873	145.860000
318.269165	145.960000
318.362488	145.780000
318.455750	145.220000
318.549042	145.380000
318.642303	145.900000
318.735626	145.640000
318.828888	145.780000
318.922211	145.500000
319.015472	146.180000
319.108765	145.520000
319.202057	145.440000
319.295349	145.580000
319.388641	145.740000
319.481934	144.900000
319.575226	144.740000
319.668518	145.100000
319.761810	145.180000
319.855103	145.380000
319.948395	145.740000
320.041687	146.120000
320.134979	146.020000
320.228271	145.540000
320.321564	145.300000
320.414856	145.040000
320.508148	144.840000
320.601440	144.640000
320.694763	144.680000
320.788025	145.440000
320.881348	145.240000
320.974640	145.300000
321.067963	145.060000
321.161224	145.380000
321.254547	144.540000
321.347839	145.140000
321.441162	144.820000
321.534454	144.980000
321.627747	144.560000
321.721069	145.340000
321.814362	145.220000
321.907654	145.580000
322.000946	145.620000
322.094269	146.340000
322.187561	145.540000
322.280884	145.540000
322.374176	145.780000
322.467468	146.220000
322.560791	145.840000
322.654083	146.620000
322.747406	146.560000
322.840698	146.700000
322.934021	146.840000
323.027344	147.100000
323.120636	146.500000
323.213959	146.540000
323.307251	145.960000
323.400574	145.620000
323.493866	144.840000
323.587219	145.260000
323.680511	145.420000
323.773834	145.880000
323.867157	145.700000
323.960449	146.140000
324.053772	145.980000
324.147095	145.860000
324.240387	146.140000
324.333710	146.180000
324.427032	146.500000
324.520355	146.320000
324.613647	146.020000
324.706970	145.800000
324.800293	145.580000
324.893616	145.520000
324.986938	145.920000
325.080231	145.820000
325.173553	145.860000
325.266876	146.460000
325.360199	146.420000
325.453522	145.940000
325.546875	145.800000
325.640167	145.960000
325.733521	146.060000
325.826813	146.180000
325.920166	146.420000
326.013489	146.400000
326.106812	145.500000
326.200134	144.960000
326.293457	144.360000
326.386780	144.380000
326.480103	144.240000
326.573425	144.500000
326.666748	144.620000
326.760071	145.380000
326.853424	145.380000
326.946747	145.440000
327.040070	146.700000
327.133392	146.520000
327.226715	145.740000
327.320068	145.060000
327.413391	145.800000
327.506714	144.800000
327.600037	145.120000
327.693390	145.300000
327.786713	145.780000
327.880066	145.360000
327.973358	145.340000
328.066742	145.520000
328.160034	145.720000
328.253418	146.160000
328.346710	145.880000
328.440063	145.580000
328.533417	145.260000
328.626740	145.360000
328.720093	144.920000
328.813416	145.180000
328.906769	145.200000
329.000092	145.260000
329.093445	145.100000
329.186768	144.980000
329.280121	145.380000
329.373444	146.080000
329.466797	146.240000
329.560120	146.320000
329.653473	146.720000
329.746796	146.240000
329.840149	145.660000
329.933502	145.820000
330.026825	145.760000
330.120178	145.340000
330.213562	145.180000
330.306854	145.360000
330.400238	145.040000
330.493561	144.620000
330.586945	145.240000
330.680237	145.640000
330.773621	145.580000
330.866974	145.720000
330.960327	146.260000
331.053680	145.740000
331.147003	145.760000
331.240356	146.160000
331.333710	146.440000
331.427063	146.260000
331.520416	146.400000
331.613770	146.200000
331.707123	145.960000
331.800476	145.640000
331.893829	146.540000
331.987152	146.860000
332.080505	146.660000
332.173859	146.300000
332.267212	145.840000
332.360565	144.640000
332.453918	143.960000
332.547333	144.060000
332.640656	144.580000
332.734039	145.020000
332.827362	145.140000
332.920746	145.480000
333.014069	145.800000
333.107452	146.040000
333.200806	146.180000
333.294159	146.280000
333.387543	145.800000
333.480896	145.240000
333.574249	145.000000
333.667603	144.340000
333.760956	144.640000
333.854340	145.140000
333.947693	145.400000
334.041046	145.320000
334.134430	146.160000
334.227783	145.820000
334.321136	145.640000
334.414520	145.460000
334.507874	145.760000
334.601227	145.420000
334.694611	145.380000
334.787964	145.720000
334.881348	146.220000
334.974701	146.040000
335.068085	146.000000
335.161438	146.280000
335.254822	146.000000
335.348175	145.960000
335.441559	145.520000
335.534943	146.200000
335.628296	146.100000
335.721680	145.940000
335.815033	146.100000
335.908417	146.400000
336.001770	145.960000
336.095154	145.780000
336.188538	145.700000
336.281891	144.880000
336.375275	144.380000
336.468658	144.220000
336.562012	144.320000
336.655396	144.680000
336.748779	145.540000
336.842133	145.660000
336.935516	145.820000
337.028900	145.720000
337.122284	145.380000
337.215637	145.340000
337.309021	145.480000
337.402435	145.060000
337.495789	144.960000
337.589203	145.120000
337.682526	144.760000
337.775940	145.380000
337.869324	145.800000
337.962708	145.600000
338.056091	146.160000
338.149475	145.640000
338.242859	144.980000
338.336243	144.800000
338.429626	145.120000
338.523010	144.560000
338.616394	144.800000
338.709778	145.240000
338.803162	145.400000
338.896545	145.600000
338.989929	145.420000
339.083313	145.580000
339.176697	145.200000
339.270081	145.160000
339.363464	145.220000
339.456848	145.840000
339.550232	145.560000
339.643616	145.480000
339.737030	145.220000
339.830383	145.140000
339.923828	144.660000
340.017181	144.980000
340.110596	145.140000
340.203949	145.180000
340.297363	144.620000
340.390778	144.760000
340.484161	144.360000
340.577545	144.160000
340.670959	144.240000
340.764343	144.580000
340.857727	144.740000
340.951111	144.540000
341.044525	145.000000
341.137909	144.460000
341.231293	144.340000
341.324707	143.940000
341.418091	144.640000
341.511505	144.400000
341.604889	144.920000
341.698303	144.900000
341.791687	144.960000
341.885071	144.620000
341.978485	144.640000
342.071899	144.840000
342.165283	145.360000
342.258698	145.620000
342.352081	146.020000
342.445496	146.720000
342.538879	146.560000
342.632324	146.180000
342.725708	146.340000
342.819122	146.020000
342.912506	145.340000
343.005920	145.260000
343.099335	146.300000
343.192719	146.060000
343.286133	146.240000
343.379547	146.520000
343.472931	146.560000
343.566345	145.660000
343.659760	146.000000
343.753143	145.660000
343.846558	145.120000
343.939972	145.120000
344.033386	145.960000
344.126770	145.460000
344.220184	145.760000
344.313599	146.500000
344.407043	146.660000
344.500427	145.720000
344.593872	146.300000
344.687225	146.060000
344.780670	145.320000
344.874054	145.080000
344.967499	145.300000
345.060913	145.300000
345.154327	145.180000
345.247742	145.120000
345.341156	144.980000
345.434570	145.020000
345.527985	144.640000
345.621399	145.080000
345.714813	145.280000
345.808228	145.320000
345.901642	144.840000
345.995056	144.660000
346.088470	144.620000
346.181885	144.840000
346.275299	144.720000
346.368713	145.000000
346.462128	144.640000
346.555573	144.440000
346.648987	144.360000
346.742401	144.640000
346.835815	145.160000
346.929260	145.060000
347.022644	145.060000
347.116119	145.280000
347.209503	145.140000
347.302948	145.520000
347.396362	146.420000
347.489807	146.640000
347.583221	146.760000
347.676636	146.600000
347.770050	145.320000
347.863495	144.700000
347.956909	144.900000
348.050323	144.340000
348.143768	144.520000
348.237183	144.680000
348.330597	145.220000
348.424042	145.500000
348.517456	145.820000
348.610901	145.960000
348.704315	146.240000
348.797760	145.680000
348.891174	144.720000
348.984619	144.220000
349.078033	144.540000
349.171448	144.960000
349.264923	145.240000
349.358337	145.380000
349.451782	145.480000
349.545197	144.800000
349.638641	144.040000
349.732086	143.480000
349.825500	144.020000
349.918945	144.000000
350.012390	144.500000
350.105804	145.300000
350.199249	145.940000
350.292664	146.040000
350.386108	146.520000
350.479553	147.000000
350.572968	146.380000
350.666412	146.480000
350.759857	146.140000
350.853302	146.260000
350.946716	145.620000
351.040161	145.900000
351.133606	145.600000
351.227081	145.700000
351.320465	146.000000
351.413940	146.040000
351.507355	146.400000
351.600830	146.820000
351.694244	146.400000
351.787720	145.940000
351.881104	145.920000
351.974579	145.520000
352.067993	146.200000
352.161469	146.280000
352.254883	145.780000
352.348358	145.720000
352.441803	145.600000
352.535248	144.700000
352.628693	145.400000
352.722137	145.700000
352.815582	145.720000
352.909027	145.840000
353.002472	146.020000
353.095917	145.640000
353.189362	146.020000
353.282806	145.900000
353.376251	145.480000
353.469696	144.960000
353.563141	145.240000
353.656586	144.840000
353.750061	144.760000
353.843475	145.060000
353.936981	145.580000
354.030396	144.860000
354.123871	145.240000
354.217285	146.020000
354.310760	146.420000
354.404175	146.320000
354.497681	146.500000
354.591095	146.140000
354.684570	145.400000
354.777985	144.880000
354.871490	144.680000
354.964935	145.100000
355.058380	145.360000
355.151855	145.440000
355.245300	146.100000
355.338745	146.440000
355.432220	146.240000
355.525665	145.700000
355.619110	146.000000
355.712585	145.660000
355.806030	145.380000
355.899475	144.960000
355.992950	145.560000
356.086426	145.820000
356.179871	145.780000
356.273346	145.760000
356.366791	146.200000
356.460266	146.420000
356.553711	145.700000
356.647186	145.580000
356.740631	145.460000
356.834106	145.300000
356.927551	145.040000
357.021027	145.240000
357.114471	145.360000
357.207947	145.320000
357.301422	145.700000
357.394867	145.720000
357.488342	146.020000
357.581818	146.000000
357.675262	146.500000
357.768738	146.020000
357.862213	145.500000
357.955658	145.540000
358.049133	145.380000
358.142609	145.480000
358.236053	145.460000
358.329529	145.680000
358.423035	145.500000
358.516449	145.340000
358.609955	145.660000
358.703400	146.380000
358.796906	146.500000
358.890350	146.040000
358.983826	146.560000
359.077271	145.600000
359.170776	145.260000
359.264221	145.340000
359.357727	145.760000
359.451172	145.900000
359.544647	146.260000
359.638123	146.340000
359.731598	146.620000
359.825073	146.960000
359.918549	146.820000
360.012024	147.280000
360.105499	146.800000
360.198975	146.700000
360.292450	146.760000
360.385925	146.500000
360.479401	145.560000
360.572876	146.080000
360.666351	146.160000
360.759857	145.940000
360.853302	146.140000
360.946808	146.120000
361.040253	146.180000
361.133759	145.520000
361.227203	145.640000
361.320709	145.400000
361.414154	145.900000
361.507660	145.760000
361.601105	146.320000
361.694641	146.620000
361.788086	146.300000
361.881592	146.600000
361.975067	146.480000
362.068542	146.640000
362.162018	146.040000
362.255524	145.960000
362.348999	145.780000
362.442474	146.180000
362.535950	145.640000
362.629456	145.340000
362.722931	145.600000
362.816406	145.520000
362.909882	145.340000
363.003387	145.140000
363.096863	146.000000
363.190338	145.920000
363.283875	145.840000
363.377319	145.440000
363.470825	146.000000
363.564301	145.480000
363.657806	145.840000
363.751282	145.560000
363.844788	146.680000
363.938232	146.180000
364.031769	146.600000
364.125214	146.800000
364.218750	147.560000
364.312225	146.060000
364.405731	146.400000
364.499207	145.860000
364.592712	145.320000
364.686188	144.860000
364.779694	145.360000
364.873169	145.080000
364.966675	145.020000
365.060150	144.840000
365.153656	145.160000
365.247131	145.140000
365.340637	145.660000
365.434143	146.080000
365.527618	146.360000
365.621155	145.460000
365.714600	145.460000
365.808136	145.400000
365.901611	144.680000
365.995117	144.480000
366.088593	144.900000
366.182129	144.600000
366.275604	144.380000
366.369110	144.800000
366.462585	144.740000
366.556122	145.440000
366.649567	145.580000
366.743103	145.780000
366.836609	145.260000
366.930115	145.980000
367.023590	145.700000
367.117096	145.700000
367.210602	145.540000
367.304108	146.220000
367.397614	146.300000
367.491119	146.200000
367.584595	146.480000
367.678101	146.540000
367.771606	145.960000
367.865112	145.480000
367.958649	144.720000
368.052124	144.540000
368.145660	144.400000
368.239136	145.300000
368.332672	145.320000
368.426147	145.980000
368.519684	145.860000
368.613159	145.900000
368.706696	145.360000
368.800171	145.300000
368.893707	145.160000
368.987183	145.380000
369.080719	145.660000
369.174225	145.680000
369.267731	145.920000
369.361237	145.800000
369.454742	145.540000
369.548248	145.600000
369.641754	145.380000
369.735260	145.160000
369.828766	144.360000
369.922272	144.960000
370.015808	144.660000
370.109314	144.480000
370.202820	144.160000
370.296356	145.680000
370.389832	145.120000
370.483368	144.840000
370.576874	145.040000
370.670410	145.620000
370.763885	144.540000
370.857422	144.860000
370.950928	144.820000
371.044464	145.440000
371.137939	145.360000
371.231476	145.820000
371.324982	146.300000
371.418518	146.520000
371.512024	146.280000
371.605560	145.920000
371.699066	146.100000
371.792572	145.340000
371.886108	145.700000
371.979614	145.740000
372.073120	146.420000
372.166656	146.100000
372.260162	146.420000
372.353668	146.180000
372.447205	145.500000
372.540710	145.220000
372.634277	144.980000
372.727753	145.260000
372.821320	145.240000
372.914795	145.520000
373.008362	145.400000
373.101837	145.800000
373.195404	145.340000
373.288879	145.100000
373.382446	145.880000
373.475922	145.940000
373.569489	146.580000
373.662964	146.960000
373.756531	146.980000
373.850037	146.680000
373.943573	146.560000
374.037109	145.620000
374.130615	145.660000
374.224152	145.940000
374.317657	145.720000
374.411194	146.400000
374.504730	146.480000
374.598236	146.160000
374.691772	145.860000
374.785309	145.940000
374.878815	145.040000
374.972351	145.460000
375.065887	145.080000
375.159454	145.860000
375.252930	145.600000
375.346497	145.980000
375.440002	146.260000
375.533569	146.520000
375.627045	145.840000
375.720612	146.040000
375.814117	146.280000
375.907684	145.820000
376.001160	145.700000
376.094727	145.380000
376.188232	145.820000
376.281799	145.500000
376.375336	145.340000
376.468872	145.940000
376.562408	146.240000
376.655914	145.540000
376.749451	145.500000
376.842987	145.800000
376.936523	145.000000
377.030060	145.000000
377.123596	145.340000
377.217133	145.020000
377.310669	144.860000
377.404205	145.420000
377.497772	145.880000
377.591278	145.880000
377.684845	146.680000
377.778351	146.860000
377.871918	146.520000
377.965424	145.840000
378.058990	145.540000
378.152496	145.120000
378.246063	145.260000
378.339569	145.460000
378.433136	145.860000
378.526642	146.080000
378.620209	146.160000
378.713745	145.580000
378.807312	145.900000
378.900848	145.700000
378.994385	145.720000
379.087921	144.860000
379.181458	145.080000
379.274994	144.520000
379.368530	144.640000
379.462097	144.900000
379.555634	145.900000
379.649170	145.680000
379.742706	145.640000
379.836273	145.640000
379.929810	145.180000
380.023376	144.620000
380.116882	144.880000
380.210449	145.020000
380.303986	144.540000
380.397552	144.400000
380.491058	144.540000
380.584656	144.200000
380.678162	144.560000
380.771729	144.840000
380.865265	145.580000
380.958832	145.780000
381.052368	146.180000
381.145935	146.240000
381.239471	146.880000
381.333008	146.420000
381.426575	146.200000
381.520111	146.260000
381.613647	146.220000
381.707214	145.580000
381.800751	145.300000
381.894318	145.800000
381.987854	145.300000
382.081421	144.880000
382.174988	144.940000
382.268524	144.540000
382.362091	144.520000
382.455627	145.820000
382.549194	145.840000
382.642731	145.320000
382.736298	145.700000
382.829834	144.980000
382.923401	144.980000
383.016937	145.100000
383.110504	145.620000
383.204041	145.860000
383.297607	146.640000
383.391174	145.520000
383.484741	146.020000
383.578278	145.800000
383.671844	145.440000
383.765411	144.460000
383.858948	145.100000
383.952515	144.760000
384.046051	145.320000
384.139618	145.880000
384.233185	146.480000
384.326721	146.220000
384.420288	146.660000
384.513855	146.260000
384.607422	146.240000
384.700989	146.640000
384.794525	146.080000
384.888123	145.940000
384.981659	146.320000
385.075226	145.920000
385.168762	145.660000
385.262360	145.780000
385.355896	144.860000
385.449463	144.580000
385.542999	144.720000
385.636597	145.000000
385.730164	145.440000
385.823730	145.560000
385.917267	145.020000
386.010834	145.200000
386.104401	145.020000
386.197968	144.940000
386.291534	145.600000
386.385101	146.240000
386.478668	146.540000
386.572235	146.480000
386.665802	146.160000
386.759338	145.580000
386.852905	145.060000
386.946472	144.680000
387.040070	144.560000
387.133606	144.800000
387.227203	144.660000
387.320740	145.000000
387.414337	144.660000
387.507874	144.580000
387.601471	144.980000
387.695007	145.200000
387.788605	145.020000
387.882141	145.460000
387.975739	145.620000
388.069275	145.060000
388.162872	145.220000
388.256439	145.560000
388.350037	145.360000
388.443604	145.080000
388.537170	145.100000
388.630737	145.660000
388.724304	145.340000
388.817871	145.160000
388.911438	145.380000
389.005005	145.660000
389.098602	145.560000
389.192169	145.280000
389.285736	145.920000
389.379333	146.140000
389.472870	145.640000
389.566467	145.340000
389.660034	145.940000
389.753632	145.080000
389.847168	145.240000
389.940765	145.620000
390.034332	145.880000
390.127930	145.400000
390.221466	145.540000
390.315063	144.620000
390.408630	143.580000
390.502228	142.620000
390.595795	142.660000
390.689362	142.700000
390.782959	143.320000
390.876526	144.280000
390.970093	144.800000
391.063690	145.480000
391.157257	145.780000
391.250824	146.100000
391.344421	146.120000
391.437988	146.440000
391.531555	146.240000
391.625153	146.520000
391.718750	146.580000
391.812317	146.400000
391.905914	146.080000
391.999481	146.080000
392.093079	145.800000
392.186615	145.700000
392.280243	145.720000
392.373779	145.600000
392.467407	145.980000
392.560944	145.680000
392.654572	145.380000
392.748108	145.600000
392.841736	145.820000
392.935303	145.040000
393.028900	145.400000
393.122467	145.260000
393.216064	144.880000
393.309631	144.400000
393.403229	144.400000
393.496796	144.160000
393.590393	143.580000
393.683990	144.060000
393.777557	144.580000
393.871155	144.960000
393.964722	145.380000
394.058350	146.080000
394.151917	145.700000
394.245514	145.300000
394.339081	145.360000
394.432678	145.440000
394.526245	145.220000
394.619873	145.060000
394.713409	145.260000
394.807037	144.800000
394.900604	144.780000
394.994202	145.060000
395.087769	145.440000
395.181396	145.120000
395.274994	146.140000
395.368561	145.180000
395.462158	145.280000
395.555756	144.780000
395.649353	145.340000
395.742920	144.500000
395.836517	145.780000
395.930115	145.240000
396.023712	145.720000
396.117279	145.840000
396.210876	145.680000
396.304474	145.080000
396.398071	145.600000
396.491669	145.820000
396.585266	145.260000
396.678833	145.200000
396.772461	145.640000
396.866028	145.500000
396.959656	145.600000
397.053223	146.280000
397.146851	146.440000
397.240417	146.720000
397.334015	147.820000
397.427582	148.360000
397.521210	149.540000
397.614807	151.640000
397.708405	153.620000
397.802002	155.900000
397.895599	159.900000
397.989197	163.980000
398.082794	169.020000
398.176392	175.520000
398.269989	183.080000
398.363586	192.420000
398.457184	204.380000
398.550781	218.620000
398.644379	233.840000
398.737976	251.940000
398.831573	270.480000
398.925201	289.360000
399.018768	309.440000
399.112396	330.120000
399.205963	350.100000
399.299591	370.480000
399.393158	391.140000
399.486786	412.120000
399.580353	431.840000
399.673981	450.580000
399.767578	470.580000
399.861206	489.880000
399.954773	506.580000
400.048401	519.820000
400.141998	529.320000
400.235596	531.220000
400.329193	526.880000
400.422791	516.800000
400.516418	502.720000
400.610016	486.680000
400.703613	469.240000
400.797211	449.240000
400.890808	428.440000
400.984436	408.120000
401.078033	385.000000
401.171631	361.160000
401.265259	338.300000
401.358826	316.500000
401.452484	294.380000
401.546051	275.040000
401.639679	255.700000
401.733246	237.880000
401.826904	220.280000
401.920471	204.860000
402.014099	191.180000
402.107697	180.440000
402.201324	171.840000
402.294891	165.600000
402.388550	160.900000
402.482147	156.940000
402.575745	154.080000
402.669373	151.320000
402.762970	149.320000
402.856567	148.200000
402.950195	147.520000
403.043793	146.640000
403.137390	147.080000
403.231018	145.980000
403.324615	146.200000
403.418243	145.740000
403.511841	146.280000
403.605469	145.880000
403.699066	146.660000
403.792694	146.380000
403.886292	146.540000
403.979919	146.320000
404.073517	146.020000
404.167145	146.000000
404.260712	145.780000
404.354370	145.520000
404.447937	145.560000
404.541595	145.700000
404.635162	145.900000
404.728821	146.280000
404.822418	146.060000
404.916046	145.840000
405.009644	145.900000
405.103271	146.060000
405.196899	145.760000
405.290497	145.840000
405.384125	146.220000
405.477722	146.020000
405.571350	145.520000
405.664948	145.760000
405.758575	145.640000
405.852203	144.800000
405.945801	144.920000
406.039429	144.800000
406.133057	144.400000
406.226654	144.600000
406.320312	145.000000
406.413879	145.140000
406.507538	145.700000
406.601135	145.300000
406.694763	145.480000
406.788361	145.280000
406.882019	144.880000
406.975586	144.780000
407.069244	145.640000
407.162872	145.500000
407.256470	145.440000
407.350098	145.500000
407.443726	145.300000
407.537323	144.660000
407.630951	144.900000
407.724579	144.720000
407.818207	145.000000
407.911804	144.760000
408.005432	144.960000
408.099060	144.880000
408.192688	145.520000
408.286285	145.460000
408.379913	145.280000
408.473572	145.280000
408.567169	144.600000
408.660828	144.520000
408.754395	144.620000
408.848053	144.840000
408.941650	145.080000
409.035309	145.100000
409.128906	145.000000
409.222565	144.760000
409.316132	145.140000
409.409790	144.820000
409.503387	145.100000
409.597046	145.000000
409.690674	145.160000
409.784302	145.080000
409.877930	145.000000
409.971558	145.040000
410.065186	144.960000
410.158783	144.940000
410.252411	144.700000
410.346039	145.140000
410.439667	145.260000
410.533295	145.600000
410.626923	145.580000
410.720551	145.560000
410.814209	146.080000
410.907806	146.120000
411.001465	145.660000
411.095062	145.920000
411.188721	145.900000
411.282318	145.100000
411.375977	144.960000
411.469574	145.260000
411.563232	145.020000
411.656830	144.840000
411.750488	144.740000
411.844086	144.460000
411.937744	144.480000
412.031372	144.480000
412.125000	144.980000
412.218628	144.940000
412.312256	145.720000
412.405884	146.060000
412.499512	146.100000
412.593170	146.140000
412.686798	146.580000
412.780426	145.860000
412.874054	146.080000
412.967682	145.800000
413.061310	146.140000
413.154968	146.100000
413.248566	146.700000
413.342224	146.140000
413.435852	146.440000
413.529510	146.040000
413.623108	145.840000
413.716766	145.280000
413.810364	145.760000
413.904022	145.480000
413.997650	145.360000
414.091309	145.800000
414.184906	145.980000
414.278564	145.480000
414.372192	146.200000
414.465851	146.040000
414.559479	145.520000
414.653107	146.240000
414.746735	146.380000
414.840393	145.920000
414.934021	146.460000
415.027649	146.220000
415.121277	145.820000
415.214935	146.320000
415.308563	146.400000
415.402191	145.860000
415.495850	146.360000
415.589478	146.060000
415.683136	145.280000
415.776733	145.480000
415.870422	145.840000
415.964020	145.120000
416.057678	145.280000
416.151306	145.380000
416.244965	145.140000
416.338562	144.880000
416.432251	145.700000
416.525848	146.440000
416.619507	147.020000
416.713165	147.420000
416.806793	147.400000
416.900421	147.420000
416.994080	146.600000
417.087708	145.880000
417.181366	145.220000
417.274994	145.460000
417.368622	145.400000
417.462280	145.960000
417.555908	146.240000
417.649567	146.280000
417.743195	146.260000
417.836853	146.220000
417.930481	146.140000
418.024170	146.340000
418.117767	146.860000
418.211426	146.980000
418.305054	147.060000
418.398712	146.420000
418.492340	146.340000
418.585999	146.620000
418.679626	146.520000
418.773285	146.680000
418.866913	147.260000
418.960571	147.680000
419.054230	147.240000
419.147858	147.540000
419.241516	147.380000
419.335144	146.960000
419.428802	146.500000
419.522461	146.200000
419.616089	145.380000
419.709747	145.180000
419.803375	145.260000
419.897034	144.860000
419.990662	144.740000
420.084320	145.260000
420.177979	145.620000
420.271606	145.720000
420.365295	146.420000
420.458893	146.580000
420.552582	146.720000
420.646210	146.280000
420.739868	146.100000
420.833496	145.700000
420.927155	145.440000
421.020782	144.980000
421.114471	144.680000
421.208069	144.880000
421.301758	145.140000
421.395386	145.460000
421.489044	145.740000
421.582703	146.160000
421.676361	146.380000
421.769989	146.040000
421.863647	146.380000
421.957306	146.260000
422.050934	146.300000
422.144592	145.940000
422.238251	145.680000
422.331909	145.500000
422.425537	145.200000
422.519196	145.160000
422.612854	145.360000
422.706543	145.180000
422.800140	145.200000
422.893829	145.160000
422.987457	144.880000
423.081146	144.860000
423.174744	145.640000
423.268433	145.420000
423.362061	145.340000
423.455750	145.300000
423.549347	145.200000
423.643036	144.440000
423.736664	144.980000
423.830353	145.200000
423.924011	145.880000
424.017639	145.380000
424.111298	145.520000
424.204956	145.200000
424.298615	145.380000
424.392273	144.540000
424.485931	144.920000
424.579559	145.340000
424.673218	145.020000
424.766876	145.220000
424.860535	145.320000
424.954193	144.800000
425.047882	144.960000
425.141510	145.140000
425.235199	145.000000
425.328796	144.920000
425.422485	145.340000
425.516113	144.720000
425.609802	144.840000
425.703430	144.760000
425.797119	144.840000
425.890747	144.900000
425.984436	145.320000
426.078064	144.880000
426.171753	145.140000
426.265411	145.100000
426.359070	145.100000
426.452728	144.840000
426.546356	145.040000
426.640015	144.420000
426.733673	144.740000
426.827332	144.440000
426.920990	145.100000
427.014648	144.900000
427.108307	145.460000
427.201965	145.740000
427.295624	146.340000
427.389282	145.680000
427.482941	146.060000
427.576630	145.820000
427.670258	144.980000
427.763947	144.520000
427.857574	144.500000
427.951263	144.400000
428.044922	144.060000
428.138611	144.540000
428.232239	145.180000
428.325928	145.820000
428.419556	146.260000
428.513245	146.140000
428.606903	146.220000
428.700562	145.680000
428.794220	144.840000
428.887878	143.980000
428.981537	144.340000
429.075195	144.340000
429.168854	144.660000
429.262512	144.960000
429.356201	145.460000
429.449860	145.380000
429.543518	145.080000
429.637177	145.100000
429.730835	145.060000
429.824493	144.860000
429.918182	145.240000
430.011810	145.120000
430.105530	144.680000
430.199158	144.880000
430.292847	144.780000
430.386475	144.480000
430.480164	144.300000
430.573792	144.180000
430.667511	143.880000
430.761139	143.940000
430.854828	144.220000
430.948456	144.680000
431.042145	145.240000
431.135834	145.120000
431.229492	145.580000
431.323151	145.620000
431.416809	145.560000
431.510468	145.460000
431.604156	145.680000
431.697815	145.300000
431.791473	144.760000
431.885132	144.500000
431.978821	144.680000
432.072479	144.920000
432.166138	145.460000
432.259827	145.540000
432.353485	146.200000
432.447174	146.220000
432.540802	145.820000
432.634491	145.640000
432.728149	145.960000
432.821838	145.940000
432.915466	145.520000
433.009186	145.760000
433.102814	144.980000
433.196503	144.760000
433.290131	144.760000
433.383850	145.240000
433.477509	145.300000
433.571167	146.340000
433.664856	146.980000
433.758514	146.920000
433.852173	146.500000
433.945862	146.180000
434.039520	145.820000
434.133179	145.040000
434.226868	144.520000
434.320526	144.280000
434.414185	145.080000
434.507874	144.740000
434.601562	145.400000
434.695221	145.540000
434.788910	145.600000
434.882538	145.180000
434.976257	144.980000
435.069885	144.520000
435.163574	144.900000
435.257233	144.640000
435.350922	144.500000
435.444580	144.340000
435.538269	144.360000
435.631897	144.360000
435.725616	145.440000
435.819275	145.900000
435.912964	146.880000
436.006622	147.340000
436.100311	147.240000
436.193970	146.180000
436.287628	145.800000
436.381317	145.320000
436.474976	144.660000
436.568665	144.160000
436.662323	144.380000
436.756012	144.440000
436.849670	144.320000
436.943390	144.540000
437.037018	144.780000
437.130737	144.940000
437.224365	144.860000
437.318085	144.940000
437.411713	145.200000
437.505432	145.620000
437.599060	145.860000
437.692780	146.560000
437.786407	146.560000
437.880127	146.520000
437.973755	146.240000
438.067474	145.920000
438.161133	145.220000
438.254822	145.560000
438.348480	145.200000
438.442169	145.560000
438.535828	146.060000
438.629517	145.980000
438.723175	145.180000
438.816864	145.660000
438.910553	145.160000
439.004211	144.860000
439.097900	144.780000
439.191559	145.320000
439.285248	144.580000
439.378906	144.980000
439.472626	144.580000
439.566284	144.360000
439.659973	144.680000
439.753632	144.800000
439.847321	144.940000
439.940979	145.360000
440.034698	145.520000
440.128326	144.820000
440.222046	144.800000
440.315674	144.040000
440.409393	144.080000
440.503082	144.300000
440.596741	144.600000
440.690430	144.820000
440.784088	144.940000
440.877777	144.240000
440.971466	144.200000
441.065125	144.120000
441.158813	144.140000
441.252502	144.340000
441.346161	145.100000
441.439850	145.260000
441.533539	145.060000
441.627197	145.220000
441.720886	145.040000
441.814606	145.180000
441.908234	145.440000
442.001953	145.600000
442.095612	145.640000
442.189301	146.220000
442.282959	146.120000
442.376678	145.260000
442.470306	146.020000
442.564026	145.680000
442.657684	145.460000
442.751404	145.460000
442.845032	146.440000
442.938751	145.720000
443.032440	145.900000
443.126099	145.600000
443.219788	145.860000
443.313477	145.460000
443.407166	145.660000
443.500824	145.960000
443.594513	146.600000
443.688202	146.360000
443.781891	145.720000
443.875549	145.120000
443.969238	144.900000
444.062927	144.540000
444.156647	144.620000
444.250275	145.380000
444.343994	145.720000
444.437653	145.780000
444.531372	145.720000
444.625031	145.440000
444.718719	145.040000
444.812378	145.380000
444.906097	145.440000
444.999756	144.900000
445.093445	144.800000
445.187103	145.140000
445.280823	145.600000
445.374512	144.920000
445.468201	145.320000
445.561859	145.440000
445.655548	145.420000
445.749237	144.460000
445.842926	144.860000
445.936615	145.460000
446.030304	145.220000
446.123962	145.440000
446.217651	145.620000
446.311340	145.860000
446.405029	145.020000
446.498749	144.920000
446.592407	144.320000
446.686096	144.520000
446.779755	144.420000
446.873474	144.740000
446.967133	145.280000
447.060852	145.200000
447.154510	145.120000
447.248230	145.180000
447.341858	145.300000
447.435577	144.840000
447.529236	144.860000
447.622955	144.820000
447.716644	144.640000
447.810333	144.680000
447.904022	145.040000
447.997711	145.320000
448.091400	145.620000
448.185059	145.720000
448.278748	145.860000
448.372437	145.460000
448.466125	145.580000
448.559814	145.500000
448.653503	145.720000
448.747192	145.600000
448.840912	146.300000
448.934570	146.160000
449.028290	146.360000
449.121948	145.900000
449.215637	145.620000
449.309296	145.140000
449.403015	145.100000
449.496674	144.960000
449.590393	145.080000
449.684052	144.900000
449.777771	145.340000
449.871429	144.900000
449.965149	144.540000
450.058838	145.000000
450.152527	145.740000
450.246216	145.500000
450.339905	145.980000
450.433594	146.000000
450.527283	146.360000
450.620972	145.740000
450.714661	145.600000
450.808350	145.620000
450.902039	146.120000
450.995728	145.600000
451.089417	145.360000
451.183105	145.460000
451.276794	145.780000
451.370514	145.000000
451.464172	144.300000
451.557892	144.360000
451.651550	144.620000
451.745270	144.220000
451.838928	144.080000
451.932648	144.600000
452.026306	145.300000
452.120026	144.800000
452.213684	145.040000
452.307404	145.480000
452.401062	145.580000
452.494781	145.380000
452.588470	145.640000
452.682159	145.340000
452.775848	145.400000
452.869537	144.900000
452.963226	144.620000
453.056915	144.140000
453.150604	144.040000
453.244293	144.060000
453.337982	144.880000
453.431671	145.200000
453.525360	145.780000
453.619049	145.980000
453.712769	145.860000
453.806427	145.480000
453.900146	145.060000
453.993805	144.940000
454.087555	145.100000
454.181213	145.300000
454.274933	145.100000
454.368591	145.200000
454.462311	144.920000
454.555969	144.700000
454.649689	145.340000
454.743347	145.100000
454.837067	145.620000
454.930756	146.500000
455.024445	146.600000
455.118134	146.240000
455.211853	146.520000
455.305542	145.860000
455.399231	145.300000
455.492920	145.140000
455.586609	144.940000
455.680298	145.280000
455.773987	145.460000
455.867676	145.300000
455.961365	145.740000
456.055084	145.580000
456.148773	145.040000
456.242493	145.340000
456.336151	145.460000
456.429871	145.520000
456.523529	145.780000
456.617249	145.640000
456.710907	145.920000
456.804626	146.020000
456.898315	145.360000
456.992035	145.180000
457.085693	145.320000
457.179413	144.560000
457.273102	145.320000
457.366791	145.560000
457.460480	146.040000
457.554199	146.840000
457.647888	147.020000
457.741577	146.300000
457.835266	146.360000
457.928955	146.120000
458.022644	145.760000
458.116364	145.920000
458.210052	145.600000
458.303741	145.880000
458.397461	145.240000
458.491119	144.780000
458.584839	144.820000
458.678528	144.800000
458.772247	144.320000
458.865906	144.720000
458.959625	145.720000
459.053284	145.860000
459.147003	145.860000
459.240692	146.440000
459.334412	146.600000
459.428070	145.840000
459.521790	145.660000
459.615479	145.460000
459.709198	145.420000
459.802887	145.300000
459.896576	145.360000
459.990265	145.460000
460.083954	145.780000
460.177673	145.200000
460.271362	145.140000
460.365051	144.980000
460.458740	144.540000
460.552429	144.180000
460.646149	144.320000
460.739838	144.000000
460.833527	144.300000
460.927246	144.240000
461.020905	144.520000
461.114655	144.560000
461.208313	144.940000
461.302032	144.320000
461.395691	144.720000
461.489441	144.740000
461.583099	144.700000
461.676819	144.160000
461.770477	144.700000
461.864197	144.260000
461.957916	144.020000
462.051605	143.620000
462.145294	144.980000
462.238983	144.640000
462.332703	145.260000
462.426392	145.940000
462.520081	146.360000
462.613770	145.480000
462.707489	145.820000
462.801178	145.540000
462.894867	145.220000
462.988556	145.380000
463.082275	145.560000
463.175964	145.100000
463.269684	145.600000
463.363342	145.300000
463.457092	144.700000
463.550751	144.860000
463.644470	145.280000
463.738129	144.820000
463.831879	145.180000
463.925537	146.180000
464.019257	145.940000
464.112946	146.040000
464.206665	145.820000
464.300323	145.660000
464.394043	145.200000
464.487762	145.180000
464.581451	145.680000
464.675140	145.980000
464.768829	146.300000
464.862549	146.380000
464.956238	146.540000
465.049927	146.100000
465.143646	146.160000
465.237335	145.820000
465.331024	146.400000
465.424713	146.020000
465.518433	146.020000
465.612152	145.620000
465.705811	145.640000
465.799561	144.960000
465.893219	145.060000
465.986938	144.860000
466.080597	145.040000
466.174347	145.320000
466.268005	145.360000
466.361725	145.480000
466.455414	145.640000
466.549133	145.400000
466.642792	145.540000
466.736542	145.320000
466.830231	145.360000
466.923920	145.140000
467.017609	145.620000
467.111328	144.920000
467.205017	144.900000
467.298706	144.760000
467.392426	144.960000
467.486115	144.900000
467.579803	144.900000
467.673523	145.400000
467.767212	145.520000
467.860901	145.440000
467.954651	145.200000
468.048309	145.360000
468.142029	144.980000
468.235718	144.940000
468.329437	144.820000
468.423096	145.260000
468.516846	145.160000
468.610504	144.960000
468.704224	144.720000
468.797913	144.420000
468.891632	144.260000
468.985291	144.640000
469.079010	144.680000
469.172729	144.480000
469.266418	145.500000
469.360107	145.220000
469.453827	144.900000
469.547516	145.160000
469.641205	145.800000
469.734924	145.580000
469.828613	146.280000
469.922302	146.620000
470.016022	146.680000
470.109711	146.480000
470.203430	145.700000
470.297150	144.580000
470.390808	144.700000
470.484558	144.480000
470.578217	144.520000
470.671936	145.160000
470.765625	146.060000
470.859344	145.840000
470.953003	146.200000
471.046753	145.880000
471.140411	145.340000
471.234131	145.380000
471.327820	145.860000
471.421539	146.080000
471.515228	146.000000
471.608948	146.220000
471.702637	145.520000
471.796326	144.860000
471.890045	144.780000
471.983734	144.880000
472.077423	144.500000
472.171143	144.880000
472.264832	145.000000
472.358521	144.520000
472.452240	144.480000
472.545929	145.460000
472.639648	145.320000
472.733337	145.820000
472.827057	146.020000
472.920746	146.140000
473.014465	146.080000
473.108124	146.460000
473.201874	146.220000
473.295532	145.980000
473.389252	146.420000
473.482941	146.480000
473.576660	146.140000
473.670319	145.980000
473.764069	146.380000
473.857727	146.220000
473.951477	145.980000
474.045166	146.440000
474.138855	146.280000
474.232574	146.200000
474.326263	146.220000
474.419952	146.260000
474.513672	146.420000
474.607361	146.320000
474.701050	146.400000
474.794769	146.740000
474.888458	146.960000
474.982178	146.580000
475.075867	146.880000
475.169586	146.700000
475.263275	146.100000
475.356995	146.040000
475.450653	145.780000
475.544403	145.440000
475.638062	146.160000
475.731812	145.900000
475.825470	145.320000
475.919189	145.580000
476.012878	145.880000
476.106598	145.080000
476.200256	145.760000
476.294006	145.920000
476.387695	145.680000
476.481384	145.400000
476.575104	145.400000
476.668793	144.780000
476.762512	144.540000
476.856201	145.260000
476.949890	145.220000
477.043610	144.980000
477.137299	145.180000
477.230988	145.320000
477.324707	144.540000
477.418396	145.160000
477.512146	145.460000
477.605804	145.400000
477.699524	145.860000
477.793213	145.800000
477.886932	145.100000
477.980591	144.520000
478.074341	144.320000
478.167999	143.320000
478.261749	143.600000
478.355408	143.780000
478.449127	144.680000
478.542816	145.540000
478.636536	146.500000
478.730225	146.780000
478.823944	147.360000
478.917633	146.980000
479.011322	147.120000
479.105042	146.980000
479.198730	146.960000
479.292450	146.520000
479.386139	146.860000
479.479828	146.280000
479.573547	146.520000
479.667267	145.960000
479.760925	145.940000
479.854675	145.960000
479.948334	146.180000
480.042084	145.540000
480.135742	146.020000
480.229462	145.760000
480.323151	145.560000
480.416870	144.880000
480.510529	145.280000
480.604279	144.900000
480.697937	145.440000
480.791656	144.900000
480.885345	144.960000
480.979065	144.700000
481.072754	145.020000
481.166473	145.440000
481.260132	145.760000
481.353882	146.200000
481.447540	146.220000
481.541260	146.180000
481.635010	145.440000
481.728668	145.160000
481.822388	144.940000
481.916077	144.900000
482.009796	144.680000
482.103485	145.040000
482.197205	145.340000
482.290863	145.360000
482.384613	145.300000
482.478271	144.980000
482.571991	144.880000
482.665680	145.100000
482.759399	145.860000
482.853058	146.620000
482.946808	146.620000
483.040466	146.320000
483.134216	145.840000
483.227875	145.280000
483.321594	145.360000
483.415283	145.800000
483.509003	145.800000
483.602661	145.820000
483.696411	145.720000
483.790070	145.100000
483.883789	144.940000
483.977478	145.340000
484.071198	145.740000
484.164917	145.440000
484.258606	144.900000
484.352325	145.420000
484.445984	145.120000
484.539734	144.760000
484.633392	144.560000
484.727142	145.520000
484.820801	144.920000
484.914520	144.940000
485.008209	145.400000
485.101929	146.200000
485.195587	145.740000
485.289337	145.820000
485.382996	146.000000
485.476715	145.840000
485.570404	145.900000
485.664124	145.900000
485.757782	146.380000
485.851532	145.980000
485.945190	145.820000
486.038910	145.880000
486.132599	146.380000
486.226318	145.680000
486.319977	145.540000
486.413727	146.100000
486.507446	145.320000
486.601105	144.640000
486.694855	144.620000
486.788513	144.720000
486.882233	144.420000
486.975922	144.760000
487.069641	144.700000
487.163300	144.760000
487.257050	145.860000
487.350708	145.380000
487.444427	145.020000
487.538116	144.940000
487.631836	144.880000
487.725494	144.060000
487.819214	144.420000
487.912903	144.780000
488.006622	145.360000
488.100281	145.820000
488.194031	145.980000
488.287689	146.400000
488.381409	147.200000
488.475098	147.100000
488.568817	147.220000
488.662476	146.820000
488.756226	146.060000
488.849945	144.760000
488.943604	144.540000
489.037354	144.480000
489.131012	144.540000
489.224731	144.360000
489.318390	144.780000
489.412140	144.960000
489.505798	144.700000
489.599518	144.480000
489.693207	145.280000
489.786926	145.060000
489.880585	144.680000
489.974335	145.200000
490.067993	146.600000
490.161713	146.480000
490.255371	147.380000
490.349121	147.820000
490.442780	147.300000
490.536499	145.920000
490.630188	146.000000
490.723907	145.380000
490.817566	145.140000
490.911285	145.460000
491.004974	145.500000
491.098694	145.140000
491.192413	145.860000
491.286102	146.000000
491.379822	146.020000
491.473480	146.200000
491.567200	146.220000
491.660889	145.200000
491.754608	144.940000
491.848267	144.780000
491.941986	144.980000
492.035675	144.980000
492.129395	145.480000
492.223053	145.520000
492.316772	145.720000
492.410461	145.580000
492.504181	145.780000
492.597839	145.540000
492.691559	145.860000
492.785248	145.660000
492.878967	145.600000
492.972626	144.920000
493.066345	144.920000
493.160034	144.340000
493.253754	144.440000
493.347412	144.160000
493.441132	144.640000
493.534882	144.920000
493.628540	145.440000
493.722260	145.300000
493.815918	145.600000
493.909668	146.380000
494.003326	146.680000
494.097046	146.520000
494.190704	146.500000
494.284454	146.840000
494.378113	146.460000
494.471832	145.960000
494.565491	145.800000
494.659210	145.820000
494.752899	145.460000
494.846619	145.280000
494.940277	145.360000
495.033997	145.420000
495.127686	144.980000
495.221405	144.900000
495.315063	145.080000
495.408783	145.300000
495.502441	145.540000
495.596191	146.060000
495.689850	145.800000
495.783569	145.800000
495.877228	145.800000
495.970947	145.500000
496.064697	145.400000
496.158356	146.320000
496.252075	146.340000
496.345734	146.040000
496.439453	146.960000
496.533142	146.880000
496.626862	146.960000
496.720520	146.780000
496.814240	147.320000
496.907898	146.680000
497.001617	147.100000
497.095306	145.900000
497.189026	145.900000
497.282684	145.740000
497.376404	146.200000
497.470062	145.540000
497.563782	146.260000
497.657471	146.120000
497.751190	145.560000
497.844849	145.220000
497.938568	145.780000
498.032227	145.840000
498.125946	146.000000
498.219635	145.980000
498.313354	145.740000
498.407074	145.540000
498.500732	145.620000
498.594452	145.620000
498.688110	145.520000
498.781830	145.520000
498.875519	145.280000
498.969238	144.700000
499.062897	144.320000
499.156616	144.820000
499.250275	144.920000
499.343994	144.360000
499.437653	144.600000
499.531372	145.040000
499.625061	145.600000
499.718781	145.540000
499.812439	146.120000
499.906158	146.220000
499.999817	145.820000
500.093536	145.240000
500.187195	145.500000
500.280914	145.440000
500.374573	145.500000
500.468323	145.580000
500.561981	145.560000
500.655701	145.140000
500.749420	145.360000
500.843079	145.500000
500.936798	145.840000
501.030457	146.380000
501.124176	146.520000
501.217834	146.420000
501.311554	146.320000
501.405212	145.980000
501.498962	145.320000
501.592621	145.360000
501.686340	145.860000
501.779999	145.820000
501.873718	146.020000
501.967377	145.960000
502.061096	146.220000
502.154755	145.640000
502.248474	145.800000
502.342133	145.920000
502.435852	146.160000
502.529510	146.620000
502.623230	147.360000
502.716888	146.820000
502.810608	146.560000
502.904266	147.080000
502.997986	146.360000
503.091705	145.520000
503.185364	145.780000
503.279083	145.780000
503.372772	145.300000
503.466492	145.020000
503.560150	145.100000
503.653870	145.400000
503.747528	145.600000
503.841248	145.620000
503.934906	146.020000
504.028625	145.720000
504.122284	145.920000
504.216003	146.520000
504.309662	146.180000
504.403381	146.380000
504.497040	146.680000
504.590759	146.060000
504.684418	145.720000
504.778137	146.240000
504.871796	146.180000
504.965515	146.060000
505.059174	146.260000
505.152893	145.700000
505.246521	145.260000
505.340240	145.040000
505.433899	145.280000
505.527618	145.480000
505.621338	145.920000
505.714996	145.700000
505.808716	145.760000
505.902374	146.220000
505.996094	146.420000
506.089752	145.780000
506.183472	145.920000
506.277130	146.000000
506.370850	145.840000
506.464508	145.300000
506.558228	145.800000
506.651886	145.660000
506.745605	145.640000
506.839264	145.540000
506.932983	145.640000
507.026611	145.480000
507.120331	145.840000
507.213989	145.260000
507.307709	145.100000
507.401367	145.420000
507.495087	146.340000
507.588745	145.960000
507.682465	147.000000
507.776123	146.980000
507.869843	146.840000
507.963531	146.200000
508.057190	146.660000
508.150909	145.660000
508.244568	145.640000
508.338287	145.360000
508.431946	145.080000
508.525665	144.940000
508.619324	145.160000
508.713013	145.640000
508.806671	146.240000
508.900391	146.920000
508.994049	147.020000
509.087769	146.860000
509.181427	146.400000
509.275146	145.740000
509.368774	144.920000
509.462494	144.920000
509.556152	144.860000
509.649872	145.640000
509.743530	146.060000
509.837250	146.420000
509.930878	146.340000
510.024597	146.540000
510.118256	145.920000
510.211975	145.660000
510.305695	145.320000
510.399353	145.700000
510.493042	146.000000
510.586700	145.960000
510.680420	146.340000
510.774078	146.480000
510.867798	146.540000
510.961426	146.180000
511.055145	146.080000
511.148804	145.440000
511.242523	145.720000
511.336151	145.460000
511.429871	145.980000
511.523529	145.860000
511.617249	146.020000
511.710876	145.680000
511.804596	145.200000
511.898254	144.840000
511.991974	145.500000
512.085632	145.540000
512.179321	145.800000
512.272949	146.260000
512.366699	146.780000
512.460327	146.080000
512.554077	146.900000
512.647766	146.620000
512.741394	146.400000
512.835144	146.420000
512.928772	146.620000
513.022461	146.140000
513.116150	146.000000
513.209839	146.660000
513.303467	145.980000
513.397217	145.520000
513.490845	145.100000
513.584595	145.100000
513.678223	144.360000
513.771912	144.000000
513.865601	144.600000
513.959290	144.600000
514.052917	144.680000
514.146667	145.520000
514.240295	146.200000
514.333984	146.160000
514.427673	146.460000
514.521362	146.960000
514.614990	145.900000
514.708740	145.820000
514.802368	145.860000
514.896057	145.860000
514.989746	146.400000
515.083435	146.800000
515.177124	146.820000
515.270752	146.580000
515.364502	146.600000
515.458130	146.300000
515.551819	146.120000
515.645508	146.040000
515.739197	145.960000
515.832825	145.900000
515.926575	145.340000
516.020203	145.560000
516.113892	145.920000
516.207520	146.200000
516.301270	146.200000
516.394897	146.320000
516.488586	146.620000
516.582275	146.320000
516.675964	145.840000
516.769592	145.560000
516.863281	146.480000
516.956970	146.640000
517.050659	146.560000
517.144287	146.840000
517.238037	147.240000
517.331665	146.120000
517.425354	145.480000
517.519043	145.460000
517.612732	145.780000
517.706421	145.360000
517.800049	145.440000
517.893738	145.360000
517.987427	145.200000
518.081116	145.100000
518.174744	144.920000
518.268433	145.300000
518.362122	146.040000
518.455811	146.220000
518.549438	146.680000
518.643127	147.800000
518.736816	147.380000
518.830505	146.780000
518.924133	146.900000
519.017822	146.720000
519.111511	145.860000
519.205200	146.340000
519.298828	146.400000
519.392517	145.920000
519.486206	145.960000
519.579895	146.400000
519.673523	145.980000
519.767212	146.040000
519.860901	146.760000
519.954590	146.200000
520.048279	145.560000
520.141907	145.560000
520.235596	146.100000
520.329224	146.220000
520.422974	146.360000
520.516602	146.380000
520.610291	146.360000
520.703918	146.180000
520.797607	145.440000
520.891296	145.320000
520.984985	145.980000
521.078613	146.380000
521.172302	145.760000
521.265930	146.860000
521.359680	147.420000
521.453308	147.060000
521.546997	147.060000
521.640625	147.320000
521.734314	146.320000
521.827942	146.000000
521.921692	146.340000
522.015320	146.020000
522.109009	145.620000
522.202698	145.660000
522.296326	145.640000
522.390015	145.820000
522.483704	145.860000
522.577393	146.000000
522.671021	146.120000
522.764709	145.740000
522.858337	145.900000
522.952026	145.900000
523.045654	146.300000
523.139404	146.900000
523.233032	147.540000
523.326721	146.820000
523.420349	146.960000
523.514038	146.660000
523.607666	146.640000
523.701355	145.800000
523.795044	146.020000
523.888733	146.000000
523.982361	146.280000
524.076050	145.960000
524.169678	146.640000
524.263367	146.160000
524.356995	145.740000
524.450684	145.360000
524.544373	144.940000
524.638062	145.080000
524.731750	145.540000
524.825378	145.780000
524.919067	145.440000
525.012695	145.500000
525.106384	144.880000
525.200012	144.900000
525.293701	144.540000
525.387329	145.360000
525.481018	145.740000
525.574646	146.080000
525.668396	146.240000
525.762024	146.960000
525.855713	146.780000
525.949341	146.580000
526.043030	146.580000
526.136658	145.840000
526.230347	145.620000
526.323975	145.320000
526.417664	144.900000
526.511292	145.100000
526.604980	145.560000
526.698608	145.340000
526.792297	145.500000
526.885925	146.160000
526.979614	146.080000
527.073303	146.040000
527.166931	146.200000
527.260620	146.180000
527.354309	146.260000
527.447998	146.280000
527.541626	146.080000
527.635315	145.800000
527.728943	146.380000
527.822632	146.300000
527.916260	146.280000
528.009949	146.620000
528.103577	146.640000
528.197266	145.860000
528.290894	145.920000
528.384583	145.640000
528.478210	145.580000
528.571899	145.980000
528.665527	146.360000
528.759216	146.440000
528.852844	146.900000
528.946533	146.800000
529.040161	146.480000
529.133850	146.100000
529.227478	146.140000
529.321167	146.160000
529.414856	146.660000
529.508484	147.300000
529.602173	147.120000
529.695801	146.960000
529.789490	146.840000
529.883057	146.440000
529.976746	146.180000
530.070374	146.960000
530.164062	146.720000
530.257690	146.960000
530.351379	147.080000
530.445007	146.920000
530.538696	146.160000
530.632324	146.580000
530.726013	146.320000
530.819641	146.180000
530.913330	146.280000
531.006958	146.760000
531.100647	146.660000
531.194275	146.560000
531.287964	146.500000
531.381592	146.180000
531.475220	146.040000
531.568848	145.960000
531.662537	145.860000
531.756226	146.340000
531.849854	146.400000
531.943542	146.540000
532.037170	145.880000
532.130859	146.320000
532.224487	145.820000
532.318176	145.560000
532.411804	146.080000
532.505432	146.680000
532.599060	146.220000
532.692749	146.380000
532.786377	147.120000
532.880066	146.160000
532.973694	145.680000
533.067383	146.040000
533.161011	145.940000
533.254639	145.660000
533.348267	145.780000
533.441956	146.160000
533.535583	145.780000
533.629272	145.740000
533.722900	145.280000
533.816589	145.480000
533.910156	145.820000
534.003845	145.500000
534.097534	145.840000
534.191162	146.760000
534.284851	146.800000
534.378479	146.200000
534.472107	146.360000
534.565735	145.940000
534.659424	145.880000
534.753052	145.980000
534.846741	145.900000
534.940369	146.600000
535.033997	146.960000
535.127625	146.480000
535.221313	147.000000
535.314941	146.960000
535.408630	146.200000
535.502197	146.720000
535.595886	146.740000
535.689514	146.120000
535.783203	146.860000
535.876831	147.560000
535.970459	147.160000
536.064087	146.720000
536.157776	146.780000
536.251404	146.480000
536.345093	146.160000
536.438721	145.780000
536.532349	146.000000
536.626038	145.880000
536.719666	146.060000
536.813293	145.880000
536.906921	146.040000
537.000610	146.700000
537.094238	146.860000
537.187866	146.580000
537.281494	146.460000
537.375183	146.480000
537.468811	145.920000
537.562439	145.840000
537.656067	145.720000
537.749756	145.700000
537.843384	146.400000
537.937012	146.440000
538.030640	146.240000
538.124329	146.280000
538.217896	146.600000
538.311584	145.900000
538.405212	145.820000
538.498901	146.100000
538.592468	146.980000
538.686157	146.600000
538.779785	145.880000
538.873413	145.840000
538.967102	145.500000
539.060730	144.640000
539.154358	145.140000
539.247986	145.860000
539.341675	145.760000
539.435242	145.960000
539.528931	145.960000
539.622559	145.200000
539.716187	145.800000
539.809814	146.100000
539.903503	146.000000
539.997070	145.920000
540.090759	146.300000
540.184387	145.760000
540.278015	146.060000
540.371643	146.200000
540.465332	146.240000
540.558899	146.140000
540.652588	146.020000
540.746216	145.480000
540.839844	146.020000
540.933472	146.280000
541.027100	146.320000
541.120728	146.280000
541.214417	146.520000
541.308044	146.200000
541.401672	145.980000
541.495300	146.020000
541.588928	146.080000
541.682617	145.920000
541.776184	145.600000
541.869873	145.920000
541.963440	146.020000
542.057129	145.860000
542.150757	145.940000
542.244385	145.740000
542.338013	145.120000
542.431641	145.020000
542.525269	145.120000
542.618958	145.560000
542.712524	146.100000
542.806213	145.900000
542.899780	146.080000
542.993469	145.860000
543.087036	145.480000
543.180725	144.920000
543.274292	145.520000
543.367981	145.540000
543.461548	146.160000
543.555237	145.880000
543.648926	146.600000
543.742493	147.240000
543.836182	147.480000
543.929749	147.140000
544.023437	147.260000
544.117004	146.740000
544.210693	146.340000
544.304260	146.140000
544.397949	145.960000
544.491516	146.080000
544.585205	146.240000
544.678772	145.740000
544.772461	145.900000
544.866028	145.820000
544.959717	146.120000
545.053284	145.840000
545.146973	146.360000
545.240540	146.280000
545.334229	147.300000
545.427795	147.300000
545.521423	147.420000
545.615051	147.260000
545.708679	147.580000
545.802307	147.120000
545.895935	147.300000
545.989624	148.040000
546.083191	147.660000
546.176880	147.480000
546.270447	146.960000
546.364136	146.780000
546.457703	146.200000
546.551331	146.360000
546.644958	146.400000
546.738586	146.680000
546.832214	146.360000
546.925842	146.500000
547.019409	146.640000
547.113098	146.060000
547.206665	145.840000
547.300354	146.080000
547.393921	145.980000
547.487549	146.200000
547.581177	146.160000
547.674805	146.160000
547.768433	145.400000
547.862061	145.400000
547.955627	144.680000
548.049316	145.360000
548.142883	145.480000
548.236572	146.140000
548.330139	146.180000
548.423767	146.520000
548.517456	146.400000
548.611023	146.540000
548.704651	146.000000
548.798279	146.040000
548.891907	146.320000
548.985474	146.200000
549.079163	146.280000
549.172729	146.280000
549.266357	145.840000
549.359985	145.580000
549.453613	144.960000
549.547180	144.880000
549.640869	145.380000
549.734436	145.200000
549.828064	145.320000
549.921631	145.300000
550.015320	144.800000
550.108887	145.180000
550.202515	145.440000
550.296143	145.140000
550.389771	145.740000
550.483337	146.200000
550.576965	145.560000
550.670593	146.020000
550.764221	146.120000
550.857849	145.940000
550.951477	145.460000
551.045105	145.480000
551.138672	145.340000
551.232300	145.200000
551.325928	145.520000
551.419556	145.800000
551.513123	145.820000
551.606750	145.580000
551.700378	145.900000
551.794006	145.720000
551.887573	145.680000
551.981201	146.180000
552.074768	146.020000
552.168457	145.680000
552.262024	146.420000
552.355652	146.240000
552.449219	146.640000
552.542847	146.960000
552.636475	146.880000
552.730103	145.860000
552.823669	145.760000
552.917297	145.000000
553.010864	144.720000
553.104553	144.940000
553.198181	144.640000
553.291748	145.340000
553.385376	145.760000
553.478943	145.720000
553.572571	145.720000
553.666199	146.180000
553.759827	145.760000
553.853394	144.960000
553.947021	145.160000
554.040588	145.180000
554.134216	145.160000
554.227783	145.800000
554.321411	146.640000
554.415039	146.320000
554.508667	146.100000
554.602234	146.520000
554.695862	145.840000
554.789429	145.660000
554.883057	145.860000
554.976624	146.040000
555.070251	145.460000
555.163818	145.340000
555.257507	145.280000
555.351074	145.120000
555.444702	146.040000
555.538330	146.000000
555.631897	146.400000
555.725525	146.240000
555.819092	146.500000
555.912720	145.480000
556.006287	146.000000
556.099915	145.560000
556.193481	145.560000
556.287109	145.760000
556.380676	145.840000
556.474304	145.460000
556.567871	145.740000
556.661499	145.180000
556.755066	145.080000
556.848694	145.360000
556.942261	145.460000
557.035889	145.580000
557.129517	146.220000
557.223145	146.360000
557.316711	146.120000
557.410339	146.400000
557.503906	146.200000
557.597473	146.220000
557.691040	146.140000
557.784668	146.280000
557.878296	146.220000
557.971863	146.600000
558.065491	146.800000
558.159058	146.320000
558.252686	146.940000
558.346252	147.400000
558.439880	146.720000
558.533447	145.920000
558.627075	145.920000
558.720642	145.140000
558.814270	144.680000
558.907837	145.020000
559.001465	145.280000
559.095032	146.040000
559.188660	146.600000
559.282227	146.140000
559.375854	146.680000
559.469360	146.440000
559.562988	146.600000
559.656555	146.320000
559.750183	146.660000
559.843750	146.560000
559.937378	147.000000
560.030945	146.480000
560.124573	0.000000
560.218140	0.000000
560.311707	0.000000
560.405334	0.000000
560.498901	0.000000
560.592529	0.000000
560.686096	0.000000
560.779724	0.000000
560.873291	0.000000
560.966858	0.000000
561.060425	0.000000
561.154053	0.000000
561.247620	0.000000
561.341248	0.000000
561.434814	0.000000
561.528381	0.000000
561.621948	0.000000
561.715576	0.000000
561.809143	0.000000
561.902771	0.000000
561.996277	0.000000
562.089905	0.000000
562.183472	0.000000
562.277100	0.000000
