Model Number: SPM-002-B   
Serial Number: 70087108
Firmware Version: 004.15.4
Exposure Time: 100000.000000us
Data Taken on: 11-12-2020 19:39:38.535
Wavelength	Amplitude
221.570786	0.000000
221.663406	0.000000
221.756027	0.000000
221.848648	0.000000
221.941269	0.000000
222.033905	0.000000
222.126526	0.000000
222.219162	0.000000
222.311798	0.000000
222.404419	0.000000
222.497055	0.000000
222.589676	0.000000
222.682312	0.000000
222.774933	0.000000
222.867569	0.000000
222.960205	0.000000
223.052841	0.000000
223.145462	0.000000
223.238098	0.000000
223.330734	0.000000
223.423386	0.000000
223.516022	0.000000
223.608658	0.000000
223.701309	0.000000
223.793945	0.000000
223.886581	0.000000
223.979218	0.000000
224.071869	0.000000
224.164505	0.000000
224.257156	0.000000
224.349792	0.000000
224.442444	0.000000
224.535095	0.000000
224.627747	0.000000
224.720398	0.000000
224.813034	0.000000
224.905685	0.000000
224.998337	145.540000
225.090988	145.220000
225.183640	145.120000
225.276291	145.040000
225.368942	145.760000
225.461594	146.320000
225.554245	146.680000
225.646912	146.440000
225.739578	146.820000
225.832230	146.980000
225.924896	146.340000
226.017548	146.520000
226.110199	147.200000
226.202866	146.520000
226.295532	146.240000
226.388184	146.200000
226.480850	145.600000
226.573517	145.300000
226.666168	145.800000
226.758835	145.960000
226.851501	146.620000
226.944183	146.560000
227.036850	145.900000
227.129517	145.580000
227.222183	145.680000
227.314850	145.280000
227.407516	145.880000
227.500198	146.820000
227.592865	146.660000
227.685532	146.300000
227.778214	146.100000
227.870880	146.280000
227.963562	146.540000
228.056229	146.940000
228.148926	146.780000
228.241592	147.720000
228.334274	147.340000
228.426956	146.940000
228.519638	146.920000
228.612305	146.880000
228.704987	146.220000
228.797668	146.320000
228.890350	145.880000
228.983032	145.380000
229.075714	145.820000
229.168396	145.660000
229.261108	145.220000
229.353790	145.360000
229.446472	145.800000
229.539169	145.640000
229.631851	145.600000
229.724533	145.880000
229.817230	146.060000
229.909912	146.840000
230.002609	147.060000
230.095306	147.100000
230.187988	147.280000
230.280685	147.300000
230.373383	146.160000
230.466095	145.860000
230.558792	146.120000
230.651474	145.800000
230.744171	145.600000
230.836868	145.740000
230.929581	145.920000
231.022278	145.820000
231.114975	145.900000
231.207672	145.560000
231.300369	145.460000
231.393082	145.600000
231.485779	145.320000
231.578506	145.260000
231.671204	145.840000
231.763916	146.180000
231.856613	146.100000
231.949326	146.520000
232.042023	146.320000
232.134735	146.200000
232.227448	145.640000
232.320160	145.960000
232.412872	145.780000
232.505585	146.720000
232.598297	146.940000
232.691010	147.140000
232.783722	146.460000
232.876450	146.780000
232.969162	146.240000
233.061874	145.940000
233.154587	145.760000
233.247314	146.200000
233.340027	145.800000
233.432739	146.200000
233.525467	146.220000
233.618179	146.700000
233.710907	145.940000
233.803635	146.500000
233.896347	145.940000
233.989090	146.460000
234.081818	146.280000
234.174545	147.020000
234.267258	146.460000
234.359985	146.580000
234.452713	146.460000
234.545441	146.040000
234.638168	145.760000
234.730896	146.260000
234.823639	146.440000
234.916367	146.640000
235.009094	146.900000
235.101822	147.160000
235.194580	146.660000
235.287308	146.640000
235.380051	145.700000
235.472778	146.200000
235.565521	145.780000
235.658249	145.540000
235.750992	145.400000
235.843719	145.820000
235.936462	145.980000
236.029205	146.060000
236.121948	145.840000
236.214691	146.160000
236.307449	146.560000
236.400192	146.120000
236.492935	146.120000
236.585678	146.600000
236.678421	146.640000
236.771164	146.500000
236.863907	146.940000
236.956665	147.080000
237.049408	148.700000
237.142151	148.100000
237.234909	148.580000
237.327652	148.180000
237.420410	147.900000
237.513153	146.640000
237.605927	146.800000
237.698669	146.240000
237.791428	145.720000
237.884186	146.300000
237.976944	145.760000
238.069702	145.820000
238.162445	145.680000
238.255203	146.140000
238.347961	146.240000
238.440720	146.460000
238.533478	146.300000
238.626266	146.080000
238.719025	146.360000
238.811783	146.020000
238.904541	146.120000
238.997314	146.380000
239.090073	146.260000
239.182831	146.540000
239.275604	147.140000
239.368362	146.960000
239.461136	146.940000
239.553909	146.840000
239.646667	146.480000
239.739441	146.180000
239.832214	146.420000
239.925003	146.500000
240.017761	147.400000
240.110535	147.720000
240.203308	147.020000
240.296082	147.120000
240.388855	146.860000
240.481628	146.580000
240.574417	146.480000
240.667191	146.840000
240.759964	146.300000
240.852737	146.180000
240.945526	145.580000
241.038315	145.220000
241.131088	145.300000
241.223877	145.640000
241.316650	145.520000
241.409439	146.040000
241.502228	145.620000
241.595001	146.180000
241.687790	146.060000
241.780579	146.360000
241.873367	146.620000
241.966141	147.420000
242.058929	146.880000
242.151718	147.480000
242.244507	148.060000
242.337311	147.200000
242.430099	147.520000
242.522903	147.480000
242.615692	146.820000
242.708481	146.200000
242.801270	146.720000
242.894073	146.280000
242.986862	146.400000
243.079651	146.880000
243.172455	146.860000
243.265244	147.060000
243.358063	146.500000
243.450867	146.800000
243.543655	146.640000
243.636459	146.740000
243.729263	146.980000
243.822067	147.360000
243.914856	147.520000
244.007660	147.520000
244.100464	147.620000
244.193268	147.020000
244.286072	147.000000
244.378876	146.040000
244.471680	145.760000
244.564499	145.880000
244.657318	146.760000
244.750122	147.020000
244.842926	147.180000
244.935745	147.620000
245.028549	147.120000
245.121368	146.260000
245.214172	146.200000
245.306992	146.620000
245.399796	145.940000
245.492615	146.060000
245.585434	146.260000
245.678253	146.200000
245.771072	145.920000
245.863892	146.640000
245.956711	146.980000
246.049530	146.640000
246.142349	146.320000
246.235168	146.700000
246.327988	146.940000
246.420807	146.720000
246.513626	147.120000
246.606445	147.100000
246.699280	146.780000
246.792099	146.400000
246.884918	145.920000
246.977753	145.380000
247.070587	145.220000
247.163422	145.080000
247.256241	145.020000
247.349075	145.760000
247.441895	146.200000
247.534729	146.420000
247.627563	146.480000
247.720383	147.080000
247.813217	146.760000
247.906052	146.560000
247.998886	146.660000
248.091736	146.640000
248.184570	146.300000
248.277405	146.280000
248.370239	147.100000
248.463074	148.080000
248.555908	148.540000
248.648743	147.960000
248.741592	148.320000
248.834427	147.520000
248.927261	146.220000
249.020111	146.320000
249.112946	147.300000
249.205795	146.780000
249.298630	147.040000
249.391495	147.200000
249.484344	146.820000
249.577179	146.480000
249.670029	146.960000
249.762878	147.340000
249.855728	147.600000
249.948563	147.600000
250.041412	146.920000
250.134262	147.080000
250.227112	146.980000
250.319962	146.940000
250.412827	146.580000
250.505692	146.380000
250.598541	146.240000
250.691391	145.740000
250.784241	145.540000
250.877106	146.020000
250.969955	146.120000
251.062805	146.400000
251.155670	147.020000
251.248520	147.200000
251.341385	147.300000
251.434235	147.480000
251.527100	147.000000
251.619965	146.400000
251.712814	146.980000
251.805695	146.700000
251.898560	146.720000
251.991425	147.140000
252.084290	147.480000
252.177155	146.760000
252.270020	146.600000
252.362885	146.460000
252.455750	146.400000
252.548615	146.040000
252.641479	145.980000
252.734360	146.060000
252.827240	146.100000
252.920105	145.840000
253.012970	145.700000
253.105850	145.780000
253.198715	145.600000
253.291595	145.800000
253.384460	145.760000
253.477341	145.840000
253.570221	145.800000
253.663086	145.560000
253.755966	146.140000
253.848846	146.120000
253.941727	146.460000
254.034592	146.480000
254.127472	146.320000
254.220367	145.760000
254.313248	145.800000
254.406128	145.340000
254.499008	145.700000
254.591904	146.720000
254.684784	147.580000
254.777664	147.480000
254.870544	147.460000
254.963440	147.100000
255.056335	146.740000
255.149216	146.000000
255.242111	146.380000
255.334991	146.700000
255.427887	147.040000
255.520767	147.220000
255.613663	147.280000
255.706558	146.580000
255.799438	146.440000
255.892334	146.040000
255.985229	145.680000
256.078125	145.720000
256.171021	145.960000
256.263916	146.440000
256.356812	146.740000
256.449707	146.940000
256.542603	146.600000
256.635498	147.080000
256.728394	146.600000
256.821289	146.420000
256.914215	146.500000
257.007080	147.020000
257.100006	146.940000
257.192932	147.540000
257.285828	147.820000
257.378723	147.720000
257.471619	147.060000
257.564545	146.600000
257.657440	146.380000
257.750336	146.640000
257.843262	146.660000
257.936157	148.220000
258.029053	148.340000
258.121979	148.340000
258.214874	147.940000
258.307800	147.820000
258.400696	146.460000
258.493622	146.600000
258.586517	145.900000
258.679443	146.280000
258.772339	146.000000
258.865265	145.900000
258.958160	145.360000
259.051086	146.160000
259.144012	145.900000
259.236938	146.700000
259.329834	146.920000
259.422791	146.940000
259.515717	146.140000
259.608612	145.420000
259.701538	145.160000
259.794464	144.920000
259.887390	144.980000
259.980316	145.160000
260.073212	145.400000
260.166138	144.560000
260.259064	145.060000
260.351990	145.780000
260.444916	145.820000
260.537842	146.420000
260.630768	147.500000
260.723694	147.220000
260.816620	146.800000
260.909546	146.800000
261.002472	146.160000
261.095398	145.340000
261.188354	145.640000
261.281281	145.500000
261.374207	145.540000
261.467133	146.340000
261.560089	146.860000
261.653015	146.340000
261.745972	146.980000
261.838867	147.360000
261.931824	147.220000
262.024780	146.460000
262.117706	146.740000
262.210663	146.500000
262.303589	146.320000
262.396515	146.300000
262.489471	147.400000
262.582397	147.140000
262.675354	146.800000
262.768280	146.880000
262.861237	147.020000
262.954163	146.680000
263.047119	146.940000
263.140045	146.860000
263.233002	146.640000
263.325958	146.180000
263.418884	145.720000
263.511841	145.660000
263.604797	145.760000
263.697723	146.000000
263.790680	146.000000
263.883636	146.700000
263.976593	146.440000
264.069550	146.540000
264.162476	146.300000
264.255463	146.480000
264.348419	145.840000
264.441376	146.520000
264.534332	146.100000
264.627289	146.300000
264.720245	146.700000
264.813202	146.420000
264.906158	146.180000
264.999115	146.640000
265.092072	146.560000
265.185028	146.640000
265.277985	147.140000
265.370941	147.080000
265.463898	146.880000
265.556854	146.620000
265.649811	145.740000
265.742798	145.740000
265.835754	145.760000
265.928711	146.640000
266.021667	146.580000
266.114655	146.780000
266.207611	147.040000
266.300568	146.320000
266.393585	145.120000
266.486511	145.780000
266.579498	145.380000
266.672485	145.340000
266.765442	145.640000
266.858429	146.340000
266.951385	145.800000
267.044342	146.180000
267.137329	145.980000
267.230316	146.220000
267.323273	145.940000
267.416260	146.700000
267.509216	146.720000
267.602203	146.640000
267.695160	147.080000
267.788147	147.060000
267.881134	146.300000
267.974091	146.520000
268.067078	146.520000
268.160065	146.300000
268.253052	146.220000
268.346008	146.380000
268.438995	146.060000
268.531982	146.180000
268.624969	145.660000
268.717987	146.320000
268.810944	146.420000
268.903961	146.740000
268.996948	146.660000
269.089905	147.520000
269.182892	147.300000
269.275879	147.440000
269.368866	146.940000
269.461853	147.100000
269.554871	146.960000
269.647858	146.920000
269.740845	147.060000
269.833832	147.500000
269.926819	147.180000
270.019806	146.800000
270.112793	146.100000
270.205811	145.980000
270.298798	145.640000
270.391785	146.340000
270.484772	146.160000
270.577789	146.680000
270.670776	146.160000
270.763763	146.440000
270.856750	145.880000
270.949768	145.640000
271.042786	145.700000
271.135773	145.780000
271.228790	145.940000
271.321808	145.860000
271.414795	145.840000
271.507782	145.680000
271.600800	145.420000
271.693817	145.400000
271.786804	145.740000
271.879822	146.080000
271.972809	146.240000
272.065826	147.060000
272.158844	146.660000
272.251831	146.900000
272.344849	146.940000
272.437866	146.600000
272.530853	146.420000
272.623871	146.880000
272.716888	145.840000
272.809906	145.880000
272.902893	145.700000
272.995911	145.000000
273.088928	144.840000
273.181946	145.380000
273.274963	145.160000
273.367981	145.540000
273.460999	146.200000
273.554047	146.220000
273.647003	146.880000
273.740051	147.260000
273.833069	147.200000
273.926086	147.100000
274.019135	146.940000
274.112152	146.060000
274.205170	145.880000
274.298187	146.380000
274.391205	145.900000
274.484222	145.960000
274.577240	146.240000
274.670258	146.220000
274.763306	145.700000
274.856323	146.360000
274.949341	146.440000
275.042358	146.600000
275.135406	146.500000
275.228424	146.520000
275.321442	146.100000
275.414490	145.700000
275.507507	146.040000
275.600525	146.460000
275.693573	146.320000
275.786591	146.180000
275.879669	146.440000
275.972656	145.940000
276.065735	145.580000
276.158752	146.100000
276.251801	146.900000
276.344818	147.040000
276.437866	147.040000
276.530884	146.940000
276.623932	146.240000
276.716980	146.180000
276.809998	146.240000
276.903046	146.660000
276.996094	147.520000
277.089111	148.340000
277.182159	148.560000
277.275208	148.220000
277.368256	148.120000
277.461304	147.580000
277.554321	146.300000
277.647369	145.900000
277.740417	146.100000
277.833466	145.820000
277.926514	145.720000
278.019562	146.880000
278.112610	146.240000
278.205688	146.060000
278.298706	145.980000
278.391785	145.760000
278.484833	145.020000
278.577881	145.060000
278.670929	145.540000
278.763977	145.540000
278.857025	145.900000
278.950073	146.260000
279.043121	146.260000
279.136169	146.020000
279.229248	145.820000
279.322296	146.020000
279.415344	145.860000
279.508392	146.140000
279.601440	145.980000
279.694519	146.040000
279.787567	145.700000
279.880615	145.640000
279.973694	145.720000
280.066742	145.640000
280.159790	145.840000
280.252869	145.520000
280.345917	145.880000
280.438995	145.480000
280.532074	145.580000
280.625122	145.860000
280.718201	146.760000
280.811279	146.960000
280.904327	147.240000
280.997406	147.440000
281.090454	147.240000
281.183533	146.280000
281.276581	145.640000
281.369659	145.260000
281.462738	145.080000
281.555786	145.200000
281.648865	145.420000
281.741943	145.620000
281.835022	146.240000
281.928070	145.900000
282.021149	145.820000
282.114227	145.640000
282.207306	145.560000
282.300385	145.460000
282.393433	145.920000
282.486511	145.900000
282.579590	146.560000
282.672668	146.940000
282.765747	146.480000
282.858856	146.280000
282.951904	146.400000
283.045013	146.420000
283.138062	146.520000
283.231171	147.300000
283.324249	147.560000
283.417328	147.360000
283.510406	147.060000
283.603485	146.660000
283.696564	146.000000
283.789642	146.200000
283.882751	146.080000
283.975830	146.300000
284.068909	146.000000
284.161987	146.940000
284.255066	146.200000
284.348175	146.360000
284.441254	146.060000
284.534332	146.640000
284.627441	145.720000
284.720520	145.660000
284.813599	145.800000
284.906708	145.880000
284.999786	145.360000
285.092896	145.260000
285.185974	146.480000
285.279053	145.900000
285.372192	146.000000
285.465240	146.820000
285.558380	147.100000
285.651459	146.300000
285.744568	147.360000
285.837677	146.920000
285.930756	146.560000
286.023865	146.420000
286.116943	146.260000
286.210052	146.120000
286.303162	146.640000
286.396240	146.720000
286.489349	146.980000
286.582458	147.280000
286.675568	146.940000
286.768646	146.880000
286.861755	146.880000
286.954865	147.440000
287.047974	147.040000
287.141083	146.980000
287.234161	146.700000
287.327271	146.640000
287.420380	146.700000
287.513519	146.700000
287.606598	146.980000
287.699738	147.140000
287.792816	147.060000
287.885956	146.560000
287.979034	146.780000
288.072174	146.760000
288.165283	146.800000
288.258392	147.120000
288.351501	146.740000
288.444611	146.960000
288.537720	147.100000
288.630859	146.960000
288.723969	146.940000
288.817078	147.460000
288.910187	147.140000
289.003296	146.660000
289.096436	146.260000
289.189545	145.880000
289.282654	145.180000
289.375763	145.740000
289.468903	145.980000
289.562012	146.280000
289.655121	146.300000
289.748260	146.560000
289.841400	146.520000
289.934509	146.320000
290.027649	146.600000
290.120728	146.700000
290.213898	146.880000
290.306976	146.600000
290.400146	146.720000
290.493256	146.220000
290.586395	146.300000
290.679535	146.720000
290.772644	146.620000
290.865784	145.980000
290.958893	146.300000
291.052032	145.900000
291.145172	145.560000
291.238281	145.220000
291.331421	145.480000
291.424561	145.620000
291.517670	145.640000
291.610809	145.980000
291.703949	145.920000
291.797089	146.400000
291.890228	145.860000
291.983337	145.960000
292.076477	145.480000
292.169617	145.640000
292.262756	145.420000
292.355927	145.580000
292.449036	145.480000
292.542206	145.620000
292.635315	145.980000
292.728485	146.100000
292.821625	146.040000
292.914764	146.900000
293.007904	146.880000
293.101044	146.760000
293.194183	146.520000
293.287323	146.740000
293.380463	146.220000
293.473602	146.160000
293.566742	146.300000
293.659882	146.840000
293.753021	147.100000
293.846191	146.680000
293.939331	146.080000
294.032471	145.720000
294.125610	145.120000
294.218781	145.000000
294.311920	145.560000
294.405060	146.340000
294.498230	146.500000
294.591370	146.580000
294.684540	146.060000
294.777679	145.660000
294.870850	145.880000
294.963959	145.860000
295.057159	145.840000
295.150299	146.560000
295.243469	146.580000
295.336609	145.940000
295.429779	146.080000
295.522919	146.520000
295.616089	146.420000
295.709229	147.200000
295.802399	147.420000
295.895569	146.980000
295.988708	146.300000
296.081879	146.120000
296.175018	145.400000
296.268188	145.300000
296.361359	146.000000
296.454529	146.260000
296.547668	146.160000
296.640839	146.420000
296.734009	146.180000
296.827179	146.300000
296.920319	146.740000
297.013519	146.720000
297.106659	146.620000
297.199860	147.000000
297.292999	146.600000
297.386200	146.240000
297.479309	145.920000
297.572510	145.880000
297.665680	145.280000
297.758850	145.420000
297.852020	145.420000
297.945190	145.780000
298.038361	145.460000
298.131531	146.840000
298.224701	146.400000
298.317871	146.400000
298.411072	145.880000
298.504242	145.800000
298.597412	144.780000
298.690582	145.220000
298.783752	144.980000
298.876923	145.900000
298.970093	146.240000
299.063293	146.740000
299.156464	146.800000
299.249634	147.140000
299.342834	146.900000
299.436005	147.180000
299.529205	146.600000
299.622345	146.300000
299.715576	145.740000
299.808716	145.560000
299.901917	145.460000
299.995117	146.280000
300.088287	146.700000
300.181488	146.600000
300.274658	146.420000
300.367828	146.280000
300.461029	145.740000
300.554199	146.020000
300.647400	146.520000
300.740601	146.940000
300.833771	146.680000
300.926971	147.160000
301.020142	146.380000
301.113342	146.260000
301.206512	146.100000
301.299713	146.620000
301.392914	146.300000
301.486084	146.820000
301.579285	146.660000
301.672516	147.380000
301.765686	147.000000
301.858887	146.500000
301.952057	146.160000
302.045288	146.580000
302.138458	145.980000
302.231659	145.940000
302.324860	146.100000
302.418060	145.880000
302.511261	145.480000
302.604462	145.580000
302.697662	145.600000
302.790863	145.620000
302.884064	145.380000
302.977264	145.300000
303.070465	145.500000
303.163666	146.020000
303.256866	146.380000
303.350067	146.400000
303.443268	146.720000
303.536469	146.620000
303.629669	146.240000
303.722870	146.300000
303.816071	146.380000
303.909271	146.440000
304.002472	145.460000
304.095673	145.140000
304.188934	144.460000
304.282104	145.400000
304.375336	145.260000
304.468506	145.480000
304.561768	145.040000
304.654968	145.760000
304.748169	145.180000
304.841370	145.100000
304.934601	145.720000
305.027802	145.980000
305.121002	145.460000
305.214233	145.600000
305.307434	145.700000
305.400665	146.200000
305.493866	146.280000
305.587097	146.680000
305.680298	146.100000
305.773499	146.400000
305.866730	145.880000
305.959930	146.300000
306.053162	146.380000
306.146393	146.500000
306.239594	145.820000
306.332825	145.820000
306.426025	146.280000
306.519287	145.740000
306.612488	146.060000
306.705719	146.360000
306.798920	146.300000
306.892181	145.440000
306.985352	145.420000
307.078613	144.920000
307.171844	145.240000
307.265045	145.080000
307.358276	144.960000
307.451508	145.600000
307.544739	146.340000
307.637970	146.020000
307.731201	145.840000
307.824402	146.520000
307.917633	146.300000
308.010864	146.700000
308.104095	147.080000
308.197327	147.260000
308.290558	147.100000
308.383789	146.480000
308.477020	145.640000
308.570251	144.920000
308.663483	144.540000
308.756714	144.240000
308.849976	144.800000
308.943176	145.120000
309.036438	145.240000
309.129639	145.240000
309.222900	145.320000
309.316101	145.000000
309.409393	144.420000
309.502625	144.180000
309.595856	144.420000
309.689087	144.780000
309.782318	144.840000
309.875580	145.180000
309.968811	145.520000
310.062042	145.400000
310.155273	144.920000
310.248535	145.340000
310.341766	145.400000
310.434998	145.320000
310.528259	145.560000
310.621490	146.180000
310.714722	145.740000
310.807983	145.620000
310.901215	145.580000
310.994476	145.860000
311.087708	145.340000
311.181000	145.520000
311.274200	145.440000
311.367462	145.520000
311.460693	145.000000
311.553986	145.900000
311.647186	146.060000
311.740479	146.700000
311.833710	146.500000
311.926971	146.560000
312.020203	145.420000
312.113464	145.160000
312.206726	144.200000
312.299957	144.680000
312.393219	144.980000
312.486481	145.400000
312.579712	145.560000
312.672974	145.900000
312.766235	145.700000
312.859497	145.560000
312.952759	145.440000
313.045990	146.200000
313.139252	145.820000
313.232513	146.200000
313.325775	146.260000
313.419037	146.180000
313.512299	145.160000
313.605530	145.700000
313.698822	145.560000
313.792053	145.720000
313.885345	145.720000
313.978577	145.760000
314.071869	145.600000
314.165131	145.620000
314.258392	145.740000
314.351654	145.820000
314.444916	145.420000
314.538177	145.900000
314.631439	146.220000
314.724701	145.960000
314.817993	145.940000
314.911255	146.260000
315.004517	145.420000
315.097778	145.020000
315.191040	145.460000
315.284302	145.880000
315.377594	145.700000
315.470856	146.040000
315.564117	145.540000
315.657379	144.560000
315.750671	143.900000
315.843933	144.460000
315.937195	144.180000
316.030518	144.360000
316.123749	144.580000
316.217041	145.360000
316.310303	145.400000
316.403595	145.820000
316.496857	146.040000
316.590149	146.400000
316.683411	145.540000
316.776703	145.440000
316.869965	145.440000
316.963257	145.420000
317.056519	145.000000
317.149811	145.120000
317.243073	144.920000
317.336365	144.760000
317.429626	144.960000
317.522919	145.540000
317.616180	145.720000
317.709473	145.320000
317.802765	145.280000
317.896027	145.000000
317.989319	145.120000
318.082611	144.960000
318.175873	145.120000
318.269165	145.200000
318.362488	145.420000
318.455750	145.160000
318.549042	145.880000
318.642303	146.840000
318.735626	147.020000
318.828888	146.940000
318.922211	146.580000
319.015472	146.600000
319.108765	145.740000
319.202057	145.560000
319.295349	145.620000
319.388641	145.680000
319.481934	145.180000
319.575226	145.020000
319.668518	145.220000
319.761810	145.300000
319.855103	145.460000
319.948395	145.560000
320.041687	145.940000
320.134979	145.880000
320.228271	145.780000
320.321564	145.640000
320.414856	145.580000
320.508148	145.200000
320.601440	144.840000
320.694763	144.720000
320.788025	145.480000
320.881348	145.340000
320.974640	145.500000
321.067963	145.260000
321.161224	145.180000
321.254547	144.380000
321.347839	145.060000
321.441162	145.020000
321.534454	146.040000
321.627747	145.860000
321.721069	146.380000
321.814362	145.980000
321.907654	145.900000
322.000946	145.320000
322.094269	146.180000
322.187561	145.960000
322.280884	146.380000
322.374176	146.800000
322.467468	147.100000
322.560791	146.840000
322.654083	146.940000
322.747406	146.820000
322.840698	146.540000
322.934021	146.880000
323.027344	146.780000
323.120636	146.700000
323.213959	146.360000
323.307251	145.960000
323.400574	145.440000
323.493866	144.960000
323.587219	145.040000
323.680511	145.480000
323.773834	146.060000
323.867157	146.360000
323.960449	146.840000
324.053772	146.540000
324.147095	146.300000
324.240387	146.800000
324.333710	146.660000
324.427032	146.560000
324.520355	146.900000
324.613647	146.500000
324.706970	146.140000
324.800293	145.860000
324.893616	146.120000
324.986938	146.080000
325.080231	146.060000
325.173553	146.120000
325.266876	146.580000
325.360199	146.540000
325.453522	146.120000
325.546875	145.960000
325.640167	146.180000
325.733521	146.320000
325.826813	146.220000
325.920166	146.200000
326.013489	146.360000
326.106812	145.420000
326.200134	145.000000
326.293457	144.840000
326.386780	145.120000
326.480103	144.840000
326.573425	145.220000
326.666748	145.260000
326.760071	145.600000
326.853424	145.660000
326.946747	146.000000
327.040070	146.680000
327.133392	146.560000
327.226715	145.900000
327.320068	145.560000
327.413391	146.320000
327.506714	145.440000
327.600037	145.560000
327.693390	145.880000
327.786713	145.880000
327.880066	145.440000
327.973358	145.880000
328.066742	146.300000
328.160034	146.260000
328.253418	146.720000
328.346710	146.340000
328.440063	146.040000
328.533417	145.360000
328.626740	145.640000
328.720093	145.240000
328.813416	145.280000
328.906769	145.280000
329.000092	145.420000
329.093445	145.140000
329.186768	145.060000
329.280121	145.580000
329.373444	145.940000
329.466797	146.280000
329.560120	146.680000
329.653473	146.800000
329.746796	146.300000
329.840149	145.880000
329.933502	145.620000
330.026825	145.200000
330.120178	145.460000
330.213562	145.540000
330.306854	145.720000
330.400238	145.380000
330.493561	145.440000
330.586945	146.060000
330.680237	146.220000
330.773621	146.460000
330.866974	146.840000
330.960327	146.920000
331.053680	146.060000
331.147003	146.100000
331.240356	146.020000
331.333710	145.840000
331.427063	145.420000
331.520416	145.400000
331.613770	145.160000
331.707123	145.200000
331.800476	145.480000
331.893829	146.620000
331.987152	147.040000
332.080505	147.020000
332.173859	146.900000
332.267212	146.460000
332.360565	145.540000
332.453918	145.120000
332.547333	145.040000
332.640656	145.420000
332.734039	145.780000
332.827362	145.740000
332.920746	146.240000
333.014069	146.680000
333.107452	146.860000
333.200806	146.980000
333.294159	147.600000
333.387543	147.160000
333.480896	146.680000
333.574249	146.300000
333.667603	145.960000
333.760956	145.840000
333.854340	145.800000
333.947693	145.980000
334.041046	145.960000
334.134430	146.620000
334.227783	146.060000
334.321136	145.820000
334.414520	145.460000
334.507874	145.640000
334.601227	145.180000
334.694611	145.440000
334.787964	145.700000
334.881348	146.520000
334.974701	146.320000
335.068085	146.080000
335.161438	146.200000
335.254822	146.080000
335.348175	145.900000
335.441559	145.520000
335.534943	146.240000
335.628296	146.220000
335.721680	146.340000
335.815033	146.540000
335.908417	146.840000
336.001770	146.400000
336.095154	146.000000
336.188538	145.700000
336.281891	144.980000
336.375275	144.620000
336.468658	144.180000
336.562012	144.560000
336.655396	145.080000
336.748779	145.620000
336.842133	145.860000
336.935516	146.460000
337.028900	145.940000
337.122284	145.860000
337.215637	145.940000
337.309021	146.000000
337.402435	145.320000
337.495789	145.540000
337.589203	145.400000
337.682526	144.940000
337.775940	145.200000
337.869324	145.720000
337.962708	145.460000
338.056091	146.240000
338.149475	146.180000
338.242859	146.000000
338.336243	145.600000
338.429626	146.000000
338.523010	145.300000
338.616394	145.160000
338.709778	145.300000
338.803162	145.760000
338.896545	145.700000
338.989929	145.320000
339.083313	145.700000
339.176697	145.400000
339.270081	145.100000
339.363464	145.380000
339.456848	145.780000
339.550232	145.100000
339.643616	144.840000
339.737030	144.800000
339.830383	144.500000
339.923828	144.580000
340.017181	145.060000
340.110596	145.260000
340.203949	145.240000
340.297363	145.060000
340.390778	144.940000
340.484161	144.680000
340.577545	144.840000
340.670959	145.000000
340.764343	145.280000
340.857727	145.480000
340.951111	145.540000
341.044525	145.800000
341.137909	145.200000
341.231293	145.180000
341.324707	144.700000
341.418091	145.660000
341.511505	145.220000
341.604889	145.920000
341.698303	146.080000
341.791687	146.320000
341.885071	145.460000
341.978485	145.660000
342.071899	145.800000
342.165283	145.680000
342.258698	146.160000
342.352081	146.540000
342.445496	146.900000
342.538879	146.600000
342.632324	146.280000
342.725708	145.900000
342.819122	145.560000
342.912506	144.720000
343.005920	144.760000
343.099335	145.660000
343.192719	145.700000
343.286133	145.780000
343.379547	146.580000
343.472931	146.840000
343.566345	146.140000
343.659760	146.500000
343.753143	146.160000
343.846558	145.500000
343.939972	145.240000
344.033386	145.840000
344.126770	145.380000
344.220184	145.640000
344.313599	146.160000
344.407043	146.240000
344.500427	145.520000
344.593872	145.940000
344.687225	145.780000
344.780670	145.340000
344.874054	145.280000
344.967499	145.860000
345.060913	145.760000
345.154327	145.720000
345.247742	145.500000
345.341156	145.460000
345.434570	145.120000
345.527985	144.900000
345.621399	144.940000
345.714813	145.260000
345.808228	145.380000
345.901642	145.160000
345.995056	145.000000
346.088470	145.260000
346.181885	145.180000
346.275299	144.780000
346.368713	144.680000
346.462128	144.420000
346.555573	144.380000
346.648987	144.720000
346.742401	145.020000
346.835815	145.780000
346.929260	145.740000
347.022644	146.040000
347.116119	145.900000
347.209503	145.760000
347.302948	146.400000
347.396362	147.220000
347.489807	147.260000
347.583221	147.900000
347.676636	147.860000
347.770050	146.400000
347.863495	145.520000
347.956909	145.120000
348.050323	144.280000
348.143768	144.400000
348.237183	144.380000
348.330597	145.120000
348.424042	145.620000
348.517456	146.180000
348.610901	146.440000
348.704315	146.520000
348.797760	145.660000
348.891174	145.000000
348.984619	144.460000
349.078033	144.780000
349.171448	145.660000
349.264923	146.040000
349.358337	146.160000
349.451782	146.220000
349.545197	145.320000
349.638641	144.420000
349.732086	143.820000
349.825500	144.200000
349.918945	144.100000
350.012390	144.800000
350.105804	145.380000
350.199249	146.020000
350.292664	146.260000
350.386108	146.640000
350.479553	146.880000
350.572968	146.780000
350.666412	146.960000
350.759857	146.460000
350.853302	146.660000
350.946716	146.340000
351.040161	146.320000
351.133606	146.120000
351.227081	146.120000
351.320465	146.740000
351.413940	146.620000
351.507355	146.780000
351.600830	147.060000
351.694244	146.740000
351.787720	145.940000
351.881104	145.900000
351.974579	145.420000
352.067993	146.100000
352.161469	146.280000
352.254883	145.860000
352.348358	145.680000
352.441803	145.860000
352.535248	145.400000
352.628693	146.060000
352.722137	146.120000
352.815582	146.300000
352.909027	146.400000
353.002472	145.760000
353.095917	145.340000
353.189362	145.740000
353.282806	145.520000
353.376251	145.280000
353.469696	145.220000
353.563141	145.480000
353.656586	144.920000
353.750061	144.620000
353.843475	144.740000
353.936981	145.220000
354.030396	144.780000
354.123871	145.020000
354.217285	145.960000
354.310760	146.280000
354.404175	146.440000
354.497681	146.000000
354.591095	146.000000
354.684570	145.040000
354.777985	144.540000
354.871490	144.020000
354.964935	144.840000
355.058380	145.220000
355.151855	145.380000
355.245300	145.680000
355.338745	146.040000
355.432220	146.140000
355.525665	145.580000
355.619110	145.960000
355.712585	146.040000
355.806030	146.020000
355.899475	145.440000
355.992950	145.900000
356.086426	146.260000
356.179871	146.260000
356.273346	146.100000
356.366791	146.760000
356.460266	146.880000
356.553711	146.260000
356.647186	146.220000
356.740631	145.740000
356.834106	145.040000
356.927551	145.000000
357.021027	145.220000
357.114471	145.260000
357.207947	145.900000
357.301422	146.340000
357.394867	146.120000
357.488342	146.240000
357.581818	146.300000
357.675262	146.240000
357.768738	145.960000
357.862213	145.400000
357.955658	145.560000
358.049133	145.300000
358.142609	145.780000
358.236053	145.840000
358.329529	146.400000
358.423035	146.380000
358.516449	146.080000
358.609955	146.200000
358.703400	146.780000
358.796906	146.840000
358.890350	146.300000
358.983826	146.840000
359.077271	146.040000
359.170776	145.380000
359.264221	145.120000
359.357727	145.500000
359.451172	145.460000
359.544647	145.340000
359.638123	145.580000
359.731598	145.880000
359.825073	146.140000
359.918549	146.200000
360.012024	146.740000
360.105499	146.400000
360.198975	146.440000
360.292450	146.300000
360.385925	146.100000
360.479401	145.540000
360.572876	145.600000
360.666351	145.760000
360.759857	145.480000
360.853302	145.580000
360.946808	145.640000
361.040253	145.800000
361.133759	145.500000
361.227203	145.660000
361.320709	145.220000
361.414154	145.400000
361.507660	145.740000
361.601105	146.200000
361.694641	146.720000
361.788086	146.700000
361.881592	147.220000
361.975067	146.700000
362.068542	146.900000
362.162018	146.640000
362.255524	146.460000
362.348999	146.240000
362.442474	146.680000
362.535950	145.960000
362.629456	145.700000
362.722931	146.080000
362.816406	146.180000
362.909882	146.440000
363.003387	146.340000
363.096863	146.920000
363.190338	146.760000
363.283875	146.480000
363.377319	146.040000
363.470825	146.580000
363.564301	145.880000
363.657806	145.880000
363.751282	145.360000
363.844788	146.120000
363.938232	145.540000
364.031769	146.040000
364.125214	146.400000
364.218750	147.340000
364.312225	146.140000
364.405731	146.400000
364.499207	146.080000
364.592712	145.860000
364.686188	145.600000
364.779694	146.020000
364.873169	145.960000
364.966675	145.800000
365.060150	145.700000
365.153656	145.940000
365.247131	145.840000
365.340637	146.100000
365.434143	146.940000
365.527618	147.240000
365.621155	146.380000
365.714600	146.580000
365.808136	146.300000
365.901611	144.960000
365.995117	144.960000
366.088593	145.500000
366.182129	145.180000
366.275604	145.480000
366.369110	146.040000
366.462585	145.840000
366.556122	146.260000
366.649567	146.460000
366.743103	146.180000
366.836609	145.800000
366.930115	146.040000
367.023590	146.020000
367.117096	145.720000
367.210602	145.780000
367.304108	146.520000
367.397614	146.840000
367.491119	146.800000
367.584595	147.400000
367.678101	147.680000
367.771606	147.300000
367.865112	146.820000
367.958649	146.160000
368.052124	145.640000
368.145660	145.260000
368.239136	145.700000
368.332672	145.720000
368.426147	146.080000
368.519684	145.960000
368.613159	146.220000
368.706696	145.660000
368.800171	145.620000
368.893707	145.420000
368.987183	145.760000
369.080719	145.580000
369.174225	145.400000
369.267731	145.620000
369.361237	145.880000
369.454742	145.760000
369.548248	146.280000
369.641754	146.300000
369.735260	146.040000
369.828766	145.260000
369.922272	146.040000
370.015808	145.700000
370.109314	145.680000
370.202820	145.640000
370.296356	147.000000
370.389832	146.260000
370.483368	145.940000
370.576874	146.000000
370.670410	146.360000
370.763885	145.140000
370.857422	145.120000
370.950928	145.120000
371.044464	145.640000
371.137939	145.420000
371.231476	145.900000
371.324982	146.420000
371.418518	146.580000
371.512024	146.340000
371.605560	146.240000
371.699066	146.340000
371.792572	145.600000
371.886108	146.160000
371.979614	145.900000
372.073120	146.480000
372.166656	146.220000
372.260162	146.920000
372.353668	146.480000
372.447205	146.480000
372.540710	146.140000
372.634277	146.020000
372.727753	145.780000
372.821320	145.460000
372.914795	145.600000
373.008362	145.440000
373.101837	145.560000
373.195404	145.520000
373.288879	145.920000
373.382446	146.580000
373.475922	146.580000
373.569489	147.140000
373.662964	147.280000
373.756531	147.340000
373.850037	147.140000
373.943573	147.120000
374.037109	146.360000
374.130615	146.460000
374.224152	146.260000
374.317657	145.960000
374.411194	146.920000
374.504730	146.860000
374.598236	146.620000
374.691772	146.340000
374.785309	146.480000
374.878815	145.140000
374.972351	145.660000
375.065887	145.660000
375.159454	146.620000
375.252930	146.360000
375.346497	146.960000
375.440002	147.440000
375.533569	147.340000
375.627045	146.360000
375.720612	146.660000
375.814117	146.760000
375.907684	146.160000
376.001160	145.840000
376.094727	145.720000
376.188232	146.140000
376.281799	146.340000
376.375336	146.400000
376.468872	147.160000
376.562408	147.560000
376.655914	146.820000
376.749451	146.360000
376.842987	146.540000
376.936523	145.920000
377.030060	145.760000
377.123596	146.180000
377.217133	145.940000
377.310669	145.860000
377.404205	146.300000
377.497772	146.800000
377.591278	146.580000
377.684845	147.420000
377.778351	147.500000
377.871918	147.420000
377.965424	146.840000
378.058990	146.680000
378.152496	146.200000
378.246063	146.380000
378.339569	146.680000
378.433136	146.620000
378.526642	146.620000
378.620209	146.480000
378.713745	146.040000
378.807312	146.240000
378.900848	146.260000
378.994385	146.680000
379.087921	146.140000
379.181458	146.560000
379.274994	145.740000
379.368530	145.840000
379.462097	145.840000
379.555634	146.520000
379.649170	145.900000
379.742706	145.600000
379.836273	145.840000
379.929810	145.280000
380.023376	144.960000
380.116882	145.340000
380.210449	145.640000
380.303986	145.120000
380.397552	145.160000
380.491058	145.600000
380.584656	145.120000
380.678162	145.660000
380.771729	146.080000
380.865265	146.760000
380.958832	146.900000
381.052368	147.300000
381.145935	147.280000
381.239471	147.660000
381.333008	147.280000
381.426575	146.880000
381.520111	147.120000
381.613647	147.240000
381.707214	146.700000
381.800751	146.160000
381.894318	146.260000
381.987854	145.840000
382.081421	145.500000
382.174988	145.720000
382.268524	145.700000
382.362091	146.020000
382.455627	147.020000
382.549194	146.820000
382.642731	146.180000
382.736298	146.220000
382.829834	145.760000
382.923401	145.580000
383.016937	145.960000
383.110504	146.420000
383.204041	146.820000
383.297607	147.180000
383.391174	146.220000
383.484741	146.540000
383.578278	146.100000
383.671844	145.760000
383.765411	145.080000
383.858948	145.580000
383.952515	145.360000
384.046051	146.100000
384.139618	146.480000
384.233185	146.880000
384.326721	146.720000
384.420288	147.100000
384.513855	146.900000
384.607422	147.160000
384.700989	147.740000
384.794525	147.560000
384.888123	147.080000
384.981659	147.200000
385.075226	146.700000
385.168762	146.120000
385.262360	146.020000
385.355896	145.540000
385.449463	145.580000
385.542999	145.540000
385.636597	146.060000
385.730164	146.180000
385.823730	146.060000
385.917267	145.460000
386.010834	145.920000
386.104401	145.640000
386.197968	146.000000
386.291534	146.360000
386.385101	146.620000
386.478668	146.620000
386.572235	146.300000
386.665802	145.820000
386.759338	145.540000
386.852905	145.180000
386.946472	144.660000
387.040070	144.980000
387.133606	145.320000
387.227203	145.320000
387.320740	145.860000
387.414337	145.760000
387.507874	145.420000
387.601471	145.340000
387.695007	145.340000
387.788605	145.140000
387.882141	145.360000
387.975739	145.600000
388.069275	145.220000
388.162872	145.180000
388.256439	145.140000
388.350037	145.080000
388.443604	144.760000
388.537170	144.960000
388.630737	145.720000
388.724304	145.840000
388.817871	145.840000
388.911438	146.300000
389.005005	146.720000
389.098602	146.620000
389.192169	146.380000
389.285736	146.700000
389.379333	146.640000
389.472870	146.160000
389.566467	146.020000
389.660034	146.180000
389.753632	145.840000
389.847168	146.040000
389.940765	146.300000
390.034332	146.540000
390.127930	146.340000
390.221466	146.500000
390.315063	145.900000
390.408630	145.220000
390.502228	144.380000
390.595795	144.780000
390.689362	144.660000
390.782959	145.160000
390.876526	146.000000
390.970093	146.080000
391.063690	146.380000
391.157257	146.520000
391.250824	146.780000
391.344421	146.300000
391.437988	146.860000
391.531555	146.840000
391.625153	146.820000
391.718750	146.680000
391.812317	146.560000
391.905914	146.420000
391.999481	146.240000
392.093079	146.260000
392.186615	146.240000
392.280243	146.720000
392.373779	146.580000
392.467407	147.160000
392.560944	147.080000
392.654572	146.820000
392.748108	146.580000
392.841736	146.980000
392.935303	146.500000
393.028900	146.480000
393.122467	146.620000
393.216064	146.200000
393.309631	145.360000
393.403229	144.980000
393.496796	144.700000
393.590393	143.780000
393.683990	144.320000
393.777557	144.820000
393.871155	144.880000
393.964722	145.720000
394.058350	146.520000
394.151917	146.340000
394.245514	146.260000
394.339081	146.700000
394.432678	146.620000
394.526245	146.520000
394.619873	146.040000
394.713409	146.060000
394.807037	145.820000
394.900604	145.760000
394.994202	145.980000
395.087769	146.720000
395.181396	146.400000
395.274994	147.200000
395.368561	146.580000
395.462158	146.320000
395.555756	145.760000
395.649353	146.460000
395.742920	145.600000
395.836517	146.300000
395.930115	145.940000
396.023712	146.460000
396.117279	146.480000
396.210876	146.140000
396.304474	146.120000
396.398071	146.180000
396.491669	146.140000
396.585266	145.880000
396.678833	145.900000
396.772461	145.700000
396.866028	145.880000
396.959656	146.560000
397.053223	146.680000
397.146851	147.020000
397.240417	147.720000
397.334015	149.220000
397.427582	149.420000
397.521210	150.540000
397.614807	152.300000
397.708405	154.280000
397.802002	156.140000
397.895599	159.960000
397.989197	163.940000
398.082794	168.900000
398.176392	174.960000
398.269989	182.260000
398.363586	190.580000
398.457184	201.440000
398.550781	214.420000
398.644379	228.280000
398.737976	244.560000
398.831573	262.180000
398.925201	280.140000
399.018768	298.400000
399.112396	317.180000
399.205963	336.160000
399.299591	354.860000
399.393158	373.400000
399.486786	391.820000
399.580353	409.360000
399.673981	425.480000
399.767578	442.780000
399.861206	460.120000
399.954773	476.380000
400.048401	490.200000
400.141998	500.440000
400.235596	504.400000
400.329193	502.480000
400.422791	494.380000
400.516418	482.740000
400.610016	468.980000
400.703613	453.860000
400.797211	435.220000
400.890808	416.640000
400.984436	397.320000
401.078033	376.160000
401.171631	354.500000
401.265259	334.020000
401.358826	313.780000
401.452484	293.160000
401.546051	274.500000
401.639679	255.020000
401.733246	237.640000
401.826904	220.420000
401.920471	205.400000
402.014099	191.880000
402.107697	181.380000
402.201324	172.740000
402.294891	166.560000
402.388550	161.960000
402.482147	158.220000
402.575745	155.100000
402.669373	152.340000
402.762970	150.660000
402.856567	149.220000
402.950195	148.280000
403.043793	147.680000
403.137390	148.060000
403.231018	146.700000
403.324615	147.200000
403.418243	146.680000
403.511841	146.980000
403.605469	146.240000
403.699066	147.040000
403.792694	146.540000
403.886292	146.820000
403.979919	146.500000
404.073517	146.380000
404.167145	146.640000
404.260712	146.440000
404.354370	146.300000
404.447937	146.400000
404.541595	146.880000
404.635162	146.820000
404.728821	147.400000
404.822418	146.940000
404.916046	146.520000
405.009644	146.660000
405.103271	146.580000
405.196899	145.860000
405.290497	146.420000
405.384125	147.020000
405.477722	146.240000
405.571350	145.900000
405.664948	146.500000
405.758575	146.260000
405.852203	145.640000
405.945801	146.040000
406.039429	145.900000
406.133057	145.220000
406.226654	145.080000
406.320312	145.500000
406.413879	145.380000
406.507538	145.880000
406.601135	145.660000
406.694763	146.200000
406.788361	145.840000
406.882019	146.020000
406.975586	146.340000
407.069244	147.280000
407.162872	147.160000
407.256470	146.960000
407.350098	146.700000
407.443726	146.080000
407.537323	145.420000
407.630951	145.580000
407.724579	145.560000
407.818207	146.140000
407.911804	146.240000
408.005432	146.360000
408.099060	146.360000
408.192688	146.860000
408.286285	146.440000
408.379913	146.080000
408.473572	146.420000
408.567169	145.620000
408.660828	145.440000
408.754395	145.560000
408.848053	145.800000
408.941650	145.660000
409.035309	145.720000
409.128906	145.540000
409.222565	145.300000
409.316132	145.680000
409.409790	145.200000
409.503387	145.500000
409.597046	145.620000
409.690674	145.860000
409.784302	145.620000
409.877930	145.740000
409.971558	145.840000
410.065186	145.840000
410.158783	145.660000
410.252411	145.880000
410.346039	146.240000
410.439667	145.960000
410.533295	146.080000
410.626923	146.520000
410.720551	146.140000
410.814209	146.640000
410.907806	147.160000
411.001465	146.580000
411.095062	146.440000
411.188721	146.620000
411.282318	145.720000
411.375977	145.200000
411.469574	145.860000
411.563232	145.620000
411.656830	145.460000
411.750488	145.460000
411.844086	145.300000
411.937744	145.200000
412.031372	145.080000
412.125000	145.160000
412.218628	145.300000
412.312256	146.260000
412.405884	146.700000
412.499512	146.820000
412.593170	147.060000
412.686798	147.440000
412.780426	146.820000
412.874054	146.700000
412.967682	146.680000
413.061310	146.960000
413.154968	146.920000
413.248566	146.800000
413.342224	146.320000
413.435852	146.660000
413.529510	146.180000
413.623108	145.840000
413.716766	146.020000
413.810364	146.600000
413.904022	145.960000
413.997650	145.420000
414.091309	145.940000
414.184906	145.800000
414.278564	145.260000
414.372192	145.720000
414.465851	146.280000
414.559479	145.840000
414.653107	146.800000
414.746735	146.660000
414.840393	146.480000
414.934021	146.660000
415.027649	146.140000
415.121277	145.500000
415.214935	146.080000
415.308563	146.360000
415.402191	145.540000
415.495850	146.080000
415.589478	145.900000
415.683136	145.540000
415.776733	145.560000
415.870422	146.560000
415.964020	146.100000
416.057678	146.320000
416.151306	146.280000
416.244965	146.080000
416.338562	145.840000
416.432251	146.660000
416.525848	147.220000
416.619507	147.640000
416.713165	148.100000
416.806793	147.900000
416.900421	147.780000
416.994080	146.980000
417.087708	146.660000
417.181366	146.000000
417.274994	146.060000
417.368622	146.020000
417.462280	146.480000
417.555908	146.300000
417.649567	146.180000
417.743195	146.200000
417.836853	146.180000
417.930481	146.100000
418.024170	146.460000
418.117767	146.960000
418.211426	147.380000
418.305054	147.520000
418.398712	147.140000
418.492340	147.080000
418.585999	147.540000
418.679626	147.240000
418.773285	146.840000
418.866913	147.140000
418.960571	147.480000
419.054230	147.080000
419.147858	147.120000
419.241516	147.480000
419.335144	147.060000
419.428802	146.740000
419.522461	146.420000
419.616089	146.200000
419.709747	146.280000
419.803375	146.700000
419.897034	146.540000
419.990662	146.500000
420.084320	146.700000
420.177979	147.000000
420.271606	146.920000
420.365295	147.520000
420.458893	147.860000
420.552582	147.920000
420.646210	147.420000
420.739868	147.120000
420.833496	146.340000
420.927155	145.880000
421.020782	145.400000
421.114471	144.960000
421.208069	145.360000
421.301758	146.020000
421.395386	146.400000
421.489044	146.660000
421.582703	146.960000
421.676361	147.220000
421.769989	146.680000
421.863647	147.040000
421.957306	147.280000
422.050934	147.300000
422.144592	146.800000
422.238251	146.780000
422.331909	146.020000
422.425537	145.680000
422.519196	145.960000
422.612854	145.580000
422.706543	145.220000
422.800140	145.520000
422.893829	145.120000
422.987457	144.420000
423.081146	145.040000
423.174744	145.720000
423.268433	145.480000
423.362061	145.680000
423.455750	145.800000
423.549347	145.760000
423.643036	145.420000
423.736664	146.180000
423.830353	146.280000
423.924011	146.800000
424.017639	146.340000
424.111298	146.240000
424.204956	145.820000
424.298615	146.080000
424.392273	145.700000
424.485931	146.020000
424.579559	146.320000
424.673218	146.080000
424.766876	145.940000
424.860535	145.920000
424.954193	145.720000
425.047882	146.100000
425.141510	146.260000
425.235199	146.300000
425.328796	146.080000
425.422485	146.080000
425.516113	145.300000
425.609802	145.200000
425.703430	144.980000
425.797119	145.000000
425.890747	145.200000
425.984436	145.400000
426.078064	145.480000
426.171753	145.660000
426.265411	145.840000
426.359070	145.860000
426.452728	145.760000
426.546356	145.580000
426.640015	145.680000
426.733673	145.560000
426.827332	145.220000
426.920990	145.780000
427.014648	145.620000
427.108307	145.720000
427.201965	146.120000
427.295624	146.740000
427.389282	146.060000
427.482941	146.660000
427.576630	146.580000
427.670258	146.220000
427.763947	145.880000
427.857574	146.320000
427.951263	146.000000
428.044922	145.520000
428.138611	145.540000
428.232239	146.000000
428.325928	145.920000
428.419556	146.320000
428.513245	146.420000
428.606903	146.760000
428.700562	146.040000
428.794220	145.800000
428.887878	144.860000
428.981537	145.320000
429.075195	145.440000
429.168854	145.920000
429.262512	145.840000
429.356201	146.380000
429.449860	146.140000
429.543518	145.680000
429.637177	145.700000
429.730835	145.660000
429.824493	145.720000
429.918182	145.720000
430.011810	145.520000
430.105530	144.900000
430.199158	145.360000
430.292847	144.940000
430.386475	144.720000
430.480164	144.640000
430.573792	144.580000
430.667511	144.240000
430.761139	144.560000
430.854828	145.020000
430.948456	145.380000
431.042145	146.020000
431.135834	145.820000
431.229492	145.620000
431.323151	145.700000
431.416809	145.640000
431.510468	145.200000
431.604156	145.620000
431.697815	146.100000
431.791473	145.880000
431.885132	145.640000
431.978821	146.500000
432.072479	146.540000
432.166138	146.660000
432.259827	146.180000
432.353485	146.760000
432.447174	146.340000
432.540802	146.020000
432.634491	145.940000
432.728149	146.600000
432.821838	146.700000
432.915466	146.360000
433.009186	146.680000
433.102814	146.140000
433.196503	145.660000
433.290131	145.200000
433.383850	145.660000
433.477509	145.760000
433.571167	146.400000
433.664856	147.000000
433.758514	147.520000
433.852173	147.280000
433.945862	146.880000
434.039520	146.540000
434.133179	146.080000
434.226868	145.640000
434.320526	145.280000
434.414185	145.920000
434.507874	145.720000
434.601562	145.940000
434.695221	145.800000
434.788910	145.980000
434.882538	146.020000
434.976257	145.800000
435.069885	145.800000
435.163574	146.100000
435.257233	145.800000
435.350922	145.680000
435.444580	145.600000
435.538269	145.200000
435.631897	145.580000
435.725616	146.500000
435.819275	146.540000
435.912964	147.120000
436.006622	147.680000
436.100311	147.320000
436.193970	146.060000
436.287628	145.840000
436.381317	145.700000
436.474976	145.020000
436.568665	144.780000
436.662323	145.440000
436.756012	145.160000
436.849670	144.760000
436.943390	145.140000
437.037018	144.900000
437.130737	144.860000
437.224365	144.740000
437.318085	145.000000
437.411713	144.980000
437.505432	145.740000
437.599060	146.420000
437.692780	147.240000
437.786407	147.120000
437.880127	147.140000
437.973755	146.700000
438.067474	145.740000
438.161133	145.360000
438.254822	146.200000
438.348480	146.320000
438.442169	147.060000
438.535828	147.700000
438.629517	147.360000
438.723175	146.220000
438.816864	146.400000
438.910553	145.520000
439.004211	145.200000
439.097900	145.080000
439.191559	145.520000
439.285248	144.900000
439.378906	145.500000
439.472626	145.420000
439.566284	145.600000
439.659973	146.060000
439.753632	146.040000
439.847321	146.200000
439.940979	146.200000
440.034698	146.180000
440.128326	145.600000
440.222046	145.600000
440.315674	144.520000
440.409393	144.480000
440.503082	144.360000
440.596741	144.660000
440.690430	145.000000
440.784088	145.160000
440.877777	144.660000
440.971466	144.880000
441.065125	144.600000
441.158813	144.420000
441.252502	144.860000
441.346161	145.720000
441.439850	145.980000
441.533539	145.820000
441.627197	146.280000
441.720886	146.160000
441.814606	146.360000
441.908234	146.400000
442.001953	146.780000
442.095612	146.520000
442.189301	146.520000
442.282959	146.200000
442.376678	145.400000
442.470306	145.820000
442.564026	145.480000
442.657684	145.600000
442.751404	145.580000
442.845032	146.820000
442.938751	146.400000
443.032440	146.740000
443.126099	146.500000
443.219788	147.120000
443.313477	146.740000
443.407166	146.960000
443.500824	146.960000
443.594513	147.100000
443.688202	146.520000
443.781891	145.700000
443.875549	145.220000
443.969238	145.200000
444.062927	145.420000
444.156647	145.240000
444.250275	146.000000
444.343994	146.200000
444.437653	146.240000
444.531372	146.320000
444.625031	146.340000
444.718719	145.820000
444.812378	146.020000
444.906097	145.880000
444.999756	145.280000
445.093445	145.500000
445.187103	145.580000
445.280823	145.700000
445.374512	145.020000
445.468201	145.140000
445.561859	144.860000
445.655548	145.160000
445.749237	144.560000
445.842926	145.320000
445.936615	145.640000
446.030304	145.540000
446.123962	145.680000
446.217651	145.680000
446.311340	145.580000
446.405029	145.600000
446.498749	145.380000
446.592407	144.880000
446.686096	145.180000
446.779755	145.280000
446.873474	145.260000
446.967133	145.780000
447.060852	145.720000
447.154510	145.460000
447.248230	145.340000
447.341858	145.300000
447.435577	144.920000
447.529236	144.960000
447.622955	144.840000
447.716644	145.040000
447.810333	145.200000
447.904022	145.680000
447.997711	145.680000
448.091400	146.440000
448.185059	146.580000
448.278748	146.700000
448.372437	146.400000
448.466125	146.740000
448.559814	146.260000
448.653503	146.440000
448.747192	146.080000
448.840912	146.520000
448.934570	146.280000
449.028290	146.560000
449.121948	146.140000
449.215637	146.280000
449.309296	145.680000
449.403015	145.960000
449.496674	146.140000
449.590393	146.040000
449.684052	145.600000
449.777771	146.460000
449.871429	145.800000
449.965149	145.680000
450.058838	145.900000
450.152527	146.500000
450.246216	145.940000
450.339905	146.380000
450.433594	145.660000
450.527283	146.120000
450.620972	145.800000
450.714661	145.980000
450.808350	145.960000
450.902039	146.480000
450.995728	146.020000
451.089417	145.640000
451.183105	145.600000
451.276794	146.000000
451.370514	145.660000
451.464172	145.280000
451.557892	145.560000
451.651550	145.520000
451.745270	144.760000
451.838928	144.660000
451.932648	145.040000
452.026306	145.460000
452.120026	144.980000
452.213684	145.480000
452.307404	145.920000
452.401062	145.840000
452.494781	145.840000
452.588470	146.180000
452.682159	145.820000
452.775848	145.940000
452.869537	145.560000
452.963226	145.240000
453.056915	145.220000
453.150604	145.520000
453.244293	145.380000
453.337982	146.040000
453.431671	146.260000
453.525360	147.080000
453.619049	147.020000
453.712769	146.760000
453.806427	146.560000
453.900146	145.920000
453.993805	145.240000
454.087555	145.620000
454.181213	145.880000
454.274933	145.400000
454.368591	145.760000
454.462311	145.580000
454.555969	145.060000
454.649689	145.840000
454.743347	145.880000
454.837067	146.760000
454.930756	147.140000
455.024445	147.320000
455.118134	146.600000
455.211853	147.140000
455.305542	146.280000
455.399231	146.120000
455.492920	145.880000
455.586609	145.920000
455.680298	145.860000
455.773987	145.800000
455.867676	145.900000
455.961365	146.220000
456.055084	146.100000
456.148773	145.580000
456.242493	145.660000
456.336151	145.680000
456.429871	145.680000
456.523529	146.000000
456.617249	145.900000
456.710907	146.480000
456.804626	146.380000
456.898315	145.920000
456.992035	145.980000
457.085693	145.920000
457.179413	144.840000
457.273102	145.380000
457.366791	145.960000
457.460480	146.120000
457.554199	147.060000
457.647888	147.560000
457.741577	146.920000
457.835266	146.980000
457.928955	146.900000
458.022644	146.960000
458.116364	147.460000
458.210052	147.300000
458.303741	147.060000
458.397461	146.500000
458.491119	145.760000
458.584839	145.260000
458.678528	145.340000
458.772247	145.100000
458.865906	145.300000
458.959625	146.320000
459.053284	146.280000
459.147003	146.280000
459.240692	146.880000
459.334412	146.780000
459.428070	146.080000
459.521790	145.920000
459.615479	145.920000
459.709198	146.180000
459.802887	146.100000
459.896576	145.860000
459.990265	146.240000
460.083954	146.180000
460.177673	145.320000
460.271362	145.400000
460.365051	145.340000
460.458740	144.880000
460.552429	144.500000
460.646149	144.680000
460.739838	144.660000
460.833527	144.920000
460.927246	144.780000
461.020905	145.040000
461.114655	145.120000
461.208313	145.180000
461.302032	144.920000
461.395691	145.560000
461.489441	145.700000
461.583099	145.440000
461.676819	144.980000
461.770477	145.400000
461.864197	145.060000
461.957916	145.000000
462.051605	144.800000
462.145294	146.080000
462.238983	145.820000
462.332703	146.280000
462.426392	146.760000
462.520081	146.940000
462.613770	145.860000
462.707489	145.940000
462.801178	145.480000
462.894867	145.120000
462.988556	145.040000
463.082275	145.560000
463.175964	145.160000
463.269684	145.520000
463.363342	145.460000
463.457092	145.080000
463.550751	145.020000
463.644470	145.280000
463.738129	144.840000
463.831879	144.820000
463.925537	145.920000
464.019257	145.860000
464.112946	146.140000
464.206665	146.080000
464.300323	146.140000
464.394043	145.640000
464.487762	145.660000
464.581451	145.820000
464.675140	145.980000
464.768829	146.200000
464.862549	146.200000
464.956238	146.360000
465.049927	146.080000
465.143646	146.260000
465.237335	145.900000
465.331024	146.580000
465.424713	146.500000
465.518433	146.620000
465.612152	146.440000
465.705811	146.600000
465.799561	145.900000
465.893219	145.340000
465.986938	144.960000
466.080597	144.800000
466.174347	145.080000
466.268005	145.360000
466.361725	145.520000
466.455414	145.920000
466.549133	145.940000
466.642792	145.860000
466.736542	145.200000
466.830231	145.620000
466.923920	145.340000
467.017609	145.420000
467.111328	144.860000
467.205017	145.160000
467.298706	144.680000
467.392426	144.760000
467.486115	144.960000
467.579803	145.060000
467.673523	145.320000
467.767212	145.400000
467.860901	145.200000
467.954651	145.140000
468.048309	145.380000
468.142029	145.020000
468.235718	145.300000
468.329437	145.000000
468.423096	145.000000
468.516846	144.720000
468.610504	144.720000
468.704224	144.260000
468.797913	144.620000
468.891632	144.860000
468.985291	145.100000
469.079010	145.340000
469.172729	145.060000
469.266418	145.560000
469.360107	145.460000
469.453827	145.320000
469.547516	145.300000
469.641205	146.040000
469.734924	145.900000
469.828613	146.240000
469.922302	146.340000
470.016022	146.160000
470.109711	145.720000
470.203430	144.900000
470.297150	143.860000
470.390808	144.260000
470.484558	144.260000
470.578217	144.880000
470.671936	145.980000
470.765625	146.900000
470.859344	146.360000
470.953003	146.560000
471.046753	145.980000
471.140411	145.260000
471.234131	144.980000
471.327820	145.480000
471.421539	145.540000
471.515228	145.440000
471.608948	145.600000
471.702637	145.340000
471.796326	144.860000
471.890045	145.180000
471.983734	145.400000
472.077423	145.400000
472.171143	145.620000
472.264832	145.880000
472.358521	145.540000
472.452240	145.280000
472.545929	145.780000
472.639648	145.880000
472.733337	146.040000
472.827057	146.220000
472.920746	146.260000
473.014465	146.000000
473.108124	145.960000
473.201874	145.940000
473.295532	145.420000
473.389252	145.960000
473.482941	146.320000
473.576660	146.000000
473.670319	145.660000
473.764069	146.300000
473.857727	146.300000
473.951477	145.980000
474.045166	146.500000
474.138855	146.440000
474.232574	145.980000
474.326263	145.920000
474.419952	146.220000
474.513672	146.040000
474.607361	146.100000
474.701050	146.260000
474.794769	146.460000
474.888458	146.580000
474.982178	146.520000
475.075867	146.860000
475.169586	146.940000
475.263275	146.700000
475.356995	146.260000
475.450653	146.000000
475.544403	145.580000
475.638062	146.260000
475.731812	145.760000
475.825470	145.560000
475.919189	145.620000
476.012878	145.860000
476.106598	144.800000
476.200256	145.760000
476.294006	145.880000
476.387695	146.300000
476.481384	146.180000
476.575104	146.380000
476.668793	145.480000
476.762512	145.340000
476.856201	145.440000
476.949890	145.180000
477.043610	144.800000
477.137299	144.920000
477.230988	145.140000
477.324707	144.780000
477.418396	145.420000
477.512146	145.760000
477.605804	145.880000
477.699524	145.820000
477.793213	145.540000
477.886932	145.320000
477.980591	145.240000
478.074341	144.900000
478.167999	144.440000
478.261749	145.080000
478.355408	144.840000
478.449127	145.560000
478.542816	146.460000
478.636536	147.360000
478.730225	147.080000
478.823944	147.240000
478.917633	146.560000
479.011322	146.620000
479.105042	146.480000
479.198730	146.660000
479.292450	146.580000
479.386139	146.760000
479.479828	146.640000
479.573547	146.700000
479.667267	146.240000
479.760925	146.480000
479.854675	146.840000
479.948334	146.760000
480.042084	146.240000
480.135742	146.680000
480.229462	146.060000
480.323151	145.680000
480.416870	144.980000
480.510529	145.320000
480.604279	144.800000
480.697937	145.480000
480.791656	145.160000
480.885345	145.260000
480.979065	144.800000
481.072754	145.260000
481.166473	145.340000
481.260132	145.680000
481.353882	145.760000
481.447540	145.920000
481.541260	145.980000
481.635010	145.420000
481.728668	145.400000
481.822388	145.420000
481.916077	145.480000
482.009796	144.940000
482.103485	145.400000
482.197205	145.340000
482.290863	145.500000
482.384613	145.040000
482.478271	144.960000
482.571991	144.660000
482.665680	144.680000
482.759399	145.300000
482.853058	146.000000
482.946808	146.280000
483.040466	146.160000
483.134216	145.940000
483.227875	145.300000
483.321594	145.440000
483.415283	145.440000
483.509003	145.600000
483.602661	145.500000
483.696411	145.640000
483.790070	145.640000
483.883789	146.040000
483.977478	146.220000
484.071198	146.500000
484.164917	145.940000
484.258606	145.320000
484.352325	145.360000
484.445984	145.260000
484.539734	145.200000
484.633392	145.160000
484.727142	145.380000
484.820801	144.960000
484.914520	145.060000
485.008209	145.120000
485.101929	145.840000
485.195587	145.900000
485.289337	145.980000
485.382996	145.880000
485.476715	145.860000
485.570404	145.920000
485.664124	145.740000
485.757782	146.280000
485.851532	145.860000
485.945190	145.880000
486.038910	145.860000
486.132599	146.260000
486.226318	145.500000
486.319977	145.900000
486.413727	146.420000
486.507446	146.080000
486.601105	145.600000
486.694855	145.820000
486.788513	145.780000
486.882233	145.400000
486.975922	145.360000
487.069641	145.380000
487.163300	145.140000
487.257050	145.780000
487.350708	145.280000
487.444427	145.040000
487.538116	145.360000
487.631836	145.260000
487.725494	145.020000
487.819214	145.320000
487.912903	145.660000
488.006622	145.840000
488.100281	146.180000
488.194031	145.980000
488.287689	146.500000
488.381409	147.060000
488.475098	146.700000
488.568817	146.940000
488.662476	146.800000
488.756226	146.240000
488.849945	145.060000
488.943604	145.120000
489.037354	145.060000
489.131012	144.900000
489.224731	144.940000
489.318390	145.340000
489.412140	145.400000
489.505798	144.920000
489.599518	144.860000
489.693207	145.100000
489.786926	145.020000
489.880585	144.840000
489.974335	145.560000
490.067993	146.540000
490.161713	146.480000
490.255371	147.260000
490.349121	147.380000
490.442780	146.900000
490.536499	145.980000
490.630188	146.120000
490.723907	145.480000
490.817566	145.480000
490.911285	145.580000
491.004974	145.460000
491.098694	145.180000
491.192413	145.900000
491.286102	145.700000
491.379822	145.900000
491.473480	146.080000
491.567200	145.900000
491.660889	145.320000
491.754608	145.560000
491.848267	145.520000
491.941986	145.460000
492.035675	145.700000
492.129395	146.000000
492.223053	145.820000
492.316772	145.820000
492.410461	146.120000
492.504181	146.360000
492.597839	145.920000
492.691559	146.080000
492.785248	146.240000
492.878967	146.160000
492.972626	145.440000
493.066345	145.580000
493.160034	145.300000
493.253754	144.820000
493.347412	144.360000
493.441132	145.040000
493.534882	145.200000
493.628540	145.500000
493.722260	145.780000
493.815918	146.360000
493.909668	146.460000
494.003326	146.720000
494.097046	146.440000
494.190704	146.200000
494.284454	146.000000
494.378113	146.120000
494.471832	145.800000
494.565491	145.880000
494.659210	145.860000
494.752899	145.920000
494.846619	145.640000
494.940277	145.940000
495.033997	145.900000
495.127686	145.760000
495.221405	145.360000
495.315063	145.360000
495.408783	145.140000
495.502441	145.280000
495.596191	145.700000
495.689850	145.620000
495.783569	145.800000
495.877228	145.860000
495.970947	145.580000
496.064697	145.340000
496.158356	146.400000
496.252075	146.420000
496.345734	146.100000
496.439453	146.940000
496.533142	146.960000
496.626862	147.000000
496.720520	146.600000
496.814240	147.000000
496.907898	146.360000
497.001617	146.680000
497.095306	145.740000
497.189026	146.000000
497.282684	145.960000
497.376404	146.340000
497.470062	145.760000
497.563782	145.940000
497.657471	145.640000
497.751190	145.140000
497.844849	144.880000
497.938568	145.560000
498.032227	145.500000
498.125946	145.660000
498.219635	145.800000
498.313354	146.060000
498.407074	145.560000
498.500732	146.000000
498.594452	146.120000
498.688110	145.900000
498.781830	145.600000
498.875519	145.600000
498.969238	145.380000
499.062897	145.260000
499.156616	145.860000
499.250275	146.160000
499.343994	145.700000
499.437653	145.500000
499.531372	145.780000
499.625061	146.240000
499.718781	146.240000
499.812439	146.980000
499.906158	147.100000
499.999817	146.740000
500.093536	146.100000
500.187195	146.100000
500.280914	145.980000
500.374573	146.080000
500.468323	145.700000
500.561981	145.840000
500.655701	145.320000
500.749420	145.360000
500.843079	145.440000
500.936798	146.020000
501.030457	146.320000
501.124176	146.780000
501.217834	146.740000
501.311554	146.640000
501.405212	146.480000
501.498962	145.620000
501.592621	145.340000
501.686340	145.420000
501.779999	145.500000
501.873718	145.420000
501.967377	145.880000
502.061096	146.300000
502.154755	146.000000
502.248474	146.020000
502.342133	146.280000
502.435852	146.160000
502.529510	146.640000
502.623230	147.040000
502.716888	146.660000
502.810608	146.520000
502.904266	147.060000
502.997986	146.140000
503.091705	145.720000
503.185364	145.720000
503.279083	145.880000
503.372772	145.360000
503.466492	145.460000
503.560150	145.760000
503.653870	146.100000
503.747528	146.040000
503.841248	146.080000
503.934906	146.300000
504.028625	145.720000
504.122284	145.960000
504.216003	146.400000
504.309662	146.140000
504.403381	146.320000
504.497040	146.600000
504.590759	145.840000
504.684418	145.700000
504.778137	146.560000
504.871796	146.460000
504.965515	146.520000
505.059174	147.040000
505.152893	146.240000
505.246521	145.220000
505.340240	145.060000
505.433899	145.320000
505.527618	145.380000
505.621338	146.080000
505.714996	146.240000
505.808716	146.100000
505.902374	146.540000
505.996094	146.620000
506.089752	146.120000
506.183472	146.540000
506.277130	146.680000
506.370850	146.300000
506.464508	145.840000
506.558228	145.920000
506.651886	145.540000
506.745605	145.340000
506.839264	145.280000
506.932983	145.380000
507.026611	145.440000
507.120331	146.120000
507.213989	145.740000
507.307709	145.860000
507.401367	146.480000
507.495087	147.300000
507.588745	146.500000
507.682465	147.620000
507.776123	147.600000
507.869843	147.100000
507.963531	146.580000
508.057190	147.040000
508.150909	146.100000
508.244568	146.020000
508.338287	145.600000
508.431946	145.420000
508.525665	145.240000
508.619324	145.320000
508.713013	145.660000
508.806671	146.360000
508.900391	146.960000
508.994049	147.000000
509.087769	146.840000
509.181427	146.400000
509.275146	145.880000
509.368774	144.900000
509.462494	144.880000
509.556152	145.100000
509.649872	145.540000
509.743530	145.800000
509.837250	146.340000
509.930878	146.480000
510.024597	146.600000
510.118256	146.240000
510.211975	145.920000
510.305695	145.680000
510.399353	145.840000
510.493042	146.260000
510.586700	146.500000
510.680420	147.360000
510.774078	147.480000
510.867798	147.440000
510.961426	146.840000
511.055145	146.680000
511.148804	145.960000
511.242523	146.260000
511.336151	146.180000
511.429871	146.560000
511.523529	146.360000
511.617249	146.240000
511.710876	145.760000
511.804596	145.100000
511.898254	145.000000
511.991974	145.040000
512.085632	145.000000
512.179321	145.180000
512.272949	145.800000
512.366699	145.920000
512.460327	145.900000
512.554077	147.060000
512.647766	146.880000
512.741394	146.880000
512.835144	147.380000
512.928772	147.180000
513.022461	146.700000
513.116150	146.480000
513.209839	146.960000
513.303467	145.920000
513.397217	145.820000
513.490845	145.280000
513.584595	145.360000
513.678223	144.400000
513.771912	144.180000
513.865601	144.600000
513.959290	144.440000
514.052917	144.720000
514.146667	145.800000
514.240295	146.520000
514.333984	146.880000
514.427673	147.100000
514.521362	147.420000
514.614990	146.280000
514.708740	146.200000
514.802368	146.000000
514.896057	146.140000
514.989746	146.360000
515.083435	146.680000
515.177124	146.760000
515.270752	146.280000
515.364502	146.060000
515.458130	145.740000
515.551819	145.800000
515.645508	145.660000
515.739197	146.040000
515.832825	146.240000
515.926575	145.880000
516.020203	145.960000
516.113892	146.480000
516.207520	146.240000
516.301270	146.280000
516.394897	146.540000
516.488586	147.160000
516.582275	146.620000
516.675964	146.220000
516.769592	146.100000
516.863281	146.740000
516.956970	146.360000
517.050659	146.480000
517.144287	146.780000
517.238037	146.900000
517.331665	145.960000
517.425354	145.660000
517.519043	145.600000
517.612732	146.020000
517.706421	145.880000
517.800049	145.600000
517.893738	145.320000
517.987427	145.220000
518.081116	144.800000
518.174744	144.580000
518.268433	145.060000
518.362122	145.960000
518.455811	146.040000
518.549438	146.420000
518.643127	147.540000
518.736816	147.340000
518.830505	146.780000
518.924133	146.420000
519.017822	146.420000
519.111511	145.680000
519.205200	146.500000
519.298828	146.420000
519.392517	146.500000
519.486206	146.640000
519.579895	146.960000
519.673523	146.540000
519.767212	146.600000
519.860901	147.080000
519.954590	146.600000
520.048279	146.080000
520.141907	145.760000
520.235596	146.620000
520.329224	147.020000
520.422974	147.260000
520.516602	147.200000
520.610291	147.000000
520.703918	146.660000
520.797607	145.940000
520.891296	145.840000
520.984985	146.180000
521.078613	146.820000
521.172302	146.120000
521.265930	146.820000
521.359680	147.580000
521.453308	147.260000
521.546997	146.920000
521.640625	147.340000
521.734314	146.600000
521.827942	146.100000
521.921692	146.180000
522.015320	146.200000
522.109009	145.900000
522.202698	145.960000
522.296326	145.960000
522.390015	146.180000
522.483704	146.280000
522.577393	146.100000
522.671021	146.080000
522.764709	145.660000
522.858337	146.100000
522.952026	145.800000
523.045654	146.620000
523.139404	147.100000
523.233032	147.260000
523.326721	146.840000
523.420349	146.960000
523.514038	146.260000
523.607666	146.500000
523.701355	146.280000
523.795044	146.360000
523.888733	146.480000
523.982361	146.720000
524.076050	146.200000
524.169678	146.820000
524.263367	146.260000
524.356995	146.080000
524.450684	145.820000
524.544373	145.600000
524.638062	145.240000
524.731750	145.740000
524.825378	145.620000
524.919067	145.520000
525.012695	145.680000
525.106384	145.320000
525.200012	145.200000
525.293701	145.240000
525.387329	145.620000
525.481018	145.720000
525.574646	146.040000
525.668396	146.100000
525.762024	146.480000
525.855713	146.640000
525.949341	146.240000
526.043030	146.300000
526.136658	146.060000
526.230347	145.920000
526.323975	145.540000
526.417664	145.280000
526.511292	145.460000
526.604980	145.620000
526.698608	145.280000
526.792297	144.980000
526.885925	145.800000
526.979614	145.800000
527.073303	145.820000
527.166931	146.080000
527.260620	146.720000
527.354309	146.920000
527.447998	146.840000
527.541626	146.600000
527.635315	146.700000
527.728943	146.820000
527.822632	146.560000
527.916260	146.660000
528.009949	147.020000
528.103577	146.740000
528.197266	146.260000
528.290894	146.240000
528.384583	146.100000
528.478210	145.920000
528.571899	146.320000
528.665527	146.680000
528.759216	146.860000
528.852844	147.220000
528.946533	147.280000
529.040161	147.180000
529.133850	146.960000
529.227478	147.260000
529.321167	147.420000
529.414856	147.600000
529.508484	147.700000
529.602173	147.480000
529.695801	147.120000
529.789490	146.560000
529.883057	146.400000
529.976746	146.560000
530.070374	147.360000
530.164062	147.160000
530.257690	147.520000
530.351379	147.600000
530.445007	147.400000
530.538696	146.140000
530.632324	146.380000
530.726013	146.280000
530.819641	146.200000
530.913330	146.140000
531.006958	146.700000
531.100647	146.580000
531.194275	146.340000
531.287964	146.200000
531.381592	145.880000
531.475220	146.080000
531.568848	145.900000
531.662537	145.580000
531.756226	145.860000
531.849854	145.780000
531.943542	145.600000
532.037170	145.340000
532.130859	145.780000
532.224487	145.400000
532.318176	145.480000
532.411804	146.220000
532.505432	146.620000
532.599060	146.480000
532.692749	146.640000
532.786377	147.020000
532.880066	146.140000
532.973694	145.800000
533.067383	145.800000
533.161011	145.740000
533.254639	145.480000
533.348267	145.300000
533.441956	145.540000
533.535583	145.500000
533.629272	145.640000
533.722900	145.460000
533.816589	145.940000
533.910156	146.100000
534.003845	145.760000
534.097534	146.040000
534.191162	146.800000
534.284851	146.540000
534.378479	145.980000
534.472107	146.260000
534.565735	145.700000
534.659424	145.460000
534.753052	145.780000
534.846741	145.840000
534.940369	146.560000
535.033997	146.680000
535.127625	146.660000
535.221313	147.160000
535.314941	147.000000
535.408630	146.060000
535.502197	146.440000
535.595886	146.100000
535.689514	145.040000
535.783203	145.780000
535.876831	146.260000
535.970459	146.280000
536.064087	146.240000
536.157776	146.780000
536.251404	146.400000
536.345093	146.300000
536.438721	146.160000
536.532349	146.540000
536.626038	146.260000
536.719666	146.740000
536.813293	146.260000
536.906921	145.960000
537.000610	146.020000
537.094238	146.040000
537.187866	145.800000
537.281494	145.820000
537.375183	146.320000
537.468811	145.940000
537.562439	145.700000
537.656067	145.400000
537.749756	145.740000
537.843384	146.000000
537.937012	146.200000
538.030640	146.440000
538.124329	146.300000
538.217896	146.440000
538.311584	146.000000
538.405212	145.860000
538.498901	146.040000
538.592468	146.720000
538.686157	146.400000
538.779785	145.720000
538.873413	145.620000
538.967102	145.320000
539.060730	144.860000
539.154358	145.420000
539.247986	146.140000
539.341675	146.240000
539.435242	146.240000
539.528931	146.460000
539.622559	145.560000
539.716187	146.140000
539.809814	146.240000
539.903503	146.320000
539.997070	146.060000
540.090759	146.320000
540.184387	145.620000
540.278015	146.080000
540.371643	146.520000
540.465332	146.540000
540.558899	146.660000
540.652588	146.600000
540.746216	146.080000
540.839844	145.940000
540.933472	145.900000
541.027100	145.800000
541.120728	145.900000
541.214417	146.080000
541.308044	146.040000
541.401672	146.000000
541.495300	146.080000
541.588928	146.040000
541.682617	145.740000
541.776184	145.480000
541.869873	145.780000
541.963440	146.000000
542.057129	146.160000
542.150757	146.380000
542.244385	146.060000
542.338013	145.720000
542.431641	145.700000
542.525269	145.380000
542.618958	145.880000
542.712524	146.440000
542.806213	146.520000
542.899780	146.660000
542.993469	146.640000
543.087036	146.080000
543.180725	145.400000
543.274292	145.760000
543.367981	145.720000
543.461548	146.160000
543.555237	146.200000
543.648926	146.880000
543.742493	147.280000
543.836182	147.240000
543.929749	146.960000
544.023437	146.880000
544.117004	146.940000
544.210693	146.480000
544.304260	146.320000
544.397949	146.160000
544.491516	146.520000
544.585205	146.380000
544.678772	145.940000
544.772461	146.500000
544.866028	146.300000
544.959717	146.200000
545.053284	145.940000
545.146973	146.440000
545.240540	146.120000
545.334229	147.040000
545.427795	147.280000
545.521423	147.420000
545.615051	147.380000
545.708679	147.480000
545.802307	147.040000
545.895935	147.180000
545.989624	147.800000
546.083191	147.500000
546.176880	147.520000
546.270447	147.080000
546.364136	147.020000
546.457703	146.660000
546.551331	146.500000
546.644958	146.520000
546.738586	146.860000
546.832214	146.360000
546.925842	146.100000
547.019409	146.420000
547.113098	145.840000
547.206665	145.720000
547.300354	145.960000
547.393921	146.020000
547.487549	146.160000
547.581177	146.120000
547.674805	146.180000
547.768433	145.480000
547.862061	145.760000
547.955627	145.020000
548.049316	145.300000
548.142883	145.540000
548.236572	146.180000
548.330139	145.920000
548.423767	146.300000
548.517456	146.440000
548.611023	146.320000
548.704651	145.640000
548.798279	145.760000
548.891907	146.360000
548.985474	146.140000
549.079163	146.460000
549.172729	146.560000
549.266357	146.000000
549.359985	145.700000
549.453613	145.380000
549.547180	145.060000
549.640869	145.660000
549.734436	145.820000
549.828064	145.840000
549.921631	145.740000
550.015320	145.260000
550.108887	145.200000
550.202515	145.300000
550.296143	145.020000
550.389771	145.460000
550.483337	146.220000
550.576965	146.320000
550.670593	146.860000
550.764221	146.840000
550.857849	146.660000
550.951477	145.760000
551.045105	145.280000
551.138672	144.960000
551.232300	144.720000
551.325928	144.980000
551.419556	145.580000
551.513123	145.580000
551.606750	145.360000
551.700378	145.520000
551.794006	145.400000
551.887573	144.940000
551.981201	145.380000
552.074768	145.580000
552.168457	145.620000
552.262024	146.760000
552.355652	146.840000
552.449219	147.200000
552.542847	147.380000
552.636475	147.080000
552.730103	145.820000
552.823669	145.900000
552.917297	145.220000
553.010864	144.940000
553.104553	145.400000
553.198181	145.140000
553.291748	145.600000
553.385376	146.080000
553.478943	146.080000
553.572571	146.120000
553.666199	146.440000
553.759827	146.000000
553.853394	145.400000
553.947021	145.140000
554.040588	145.140000
554.134216	145.180000
554.227783	145.920000
554.321411	146.360000
554.415039	146.360000
554.508667	146.380000
554.602234	146.780000
554.695862	146.240000
554.789429	146.140000
554.883057	146.320000
554.976624	146.260000
555.070251	146.020000
555.163818	145.920000
555.257507	146.080000
555.351074	146.180000
555.444702	147.220000
555.538330	147.060000
555.631897	147.280000
555.725525	146.720000
555.819092	146.480000
555.912720	145.280000
556.006287	145.700000
556.099915	145.360000
556.193481	145.740000
556.287109	146.000000
556.380676	145.720000
556.474304	145.380000
556.567871	145.820000
556.661499	145.320000
556.755066	145.200000
556.848694	145.500000
556.942261	145.400000
557.035889	145.240000
557.129517	145.780000
557.223145	146.120000
557.316711	146.060000
557.410339	146.380000
557.503906	146.080000
557.597473	146.000000
557.691040	145.700000
557.784668	145.820000
557.878296	145.620000
557.971863	145.900000
558.065491	146.260000
558.159058	146.220000
558.252686	146.820000
558.346252	147.640000
558.439880	147.320000
558.533447	146.560000
558.627075	146.100000
558.720642	145.480000
558.814270	144.920000
558.907837	145.000000
559.001465	144.980000
559.095032	146.060000
559.188660	146.400000
559.282227	145.920000
559.375854	146.380000
559.469360	146.440000
559.562988	146.680000
559.656555	146.440000
559.750183	146.920000
559.843750	146.860000
559.937378	147.060000
560.030945	146.320000
560.124573	0.000000
560.218140	0.000000
560.311707	0.000000
560.405334	0.000000
560.498901	0.000000
560.592529	0.000000
560.686096	0.000000
560.779724	0.000000
560.873291	0.000000
560.966858	0.000000
561.060425	0.000000
561.154053	0.000000
561.247620	0.000000
561.341248	0.000000
561.434814	0.000000
561.528381	0.000000
561.621948	0.000000
561.715576	0.000000
561.809143	0.000000
561.902771	0.000000
561.996277	0.000000
562.089905	0.000000
562.183472	0.000000
562.277100	0.000000
