Model Number: SPM-002-B   
Serial Number: 70087108
Firmware Version: 004.15.4
Exposure Time: 100000.000000us
Data Taken on: 11-12-2020 19:39:44.663
Wavelength	Amplitude
221.570786	0.000000
221.663406	0.000000
221.756027	0.000000
221.848648	0.000000
221.941269	0.000000
222.033905	0.000000
222.126526	0.000000
222.219162	0.000000
222.311798	0.000000
222.404419	0.000000
222.497055	0.000000
222.589676	0.000000
222.682312	0.000000
222.774933	0.000000
222.867569	0.000000
222.960205	0.000000
223.052841	0.000000
223.145462	0.000000
223.238098	0.000000
223.330734	0.000000
223.423386	0.000000
223.516022	0.000000
223.608658	0.000000
223.701309	0.000000
223.793945	0.000000
223.886581	0.000000
223.979218	0.000000
224.071869	0.000000
224.164505	0.000000
224.257156	0.000000
224.349792	0.000000
224.442444	0.000000
224.535095	0.000000
224.627747	0.000000
224.720398	0.000000
224.813034	0.000000
224.905685	0.000000
224.998337	145.040000
225.090988	144.800000
225.183640	144.800000
225.276291	145.160000
225.368942	145.900000
225.461594	146.220000
225.554245	146.560000
225.646912	146.480000
225.739578	146.380000
225.832230	146.220000
225.924896	145.280000
226.017548	145.360000
226.110199	145.940000
226.202866	145.320000
226.295532	145.420000
226.388184	145.540000
226.480850	145.040000
226.573517	144.740000
226.666168	145.260000
226.758835	145.340000
226.851501	146.140000
226.944183	146.500000
227.036850	145.820000
227.129517	145.760000
227.222183	145.940000
227.314850	145.900000
227.407516	145.840000
227.500198	146.920000
227.592865	146.640000
227.685532	146.200000
227.778214	145.480000
227.870880	146.020000
227.963562	146.180000
228.056229	146.580000
228.148926	146.660000
228.241592	147.780000
228.334274	147.440000
228.426956	147.040000
228.519638	147.080000
228.612305	146.840000
228.704987	146.640000
228.797668	146.580000
228.890350	146.240000
228.983032	145.880000
229.075714	146.460000
229.168396	145.840000
229.261108	145.400000
229.353790	145.340000
229.446472	145.540000
229.539169	145.400000
229.631851	145.060000
229.724533	145.700000
229.817230	145.820000
229.909912	146.780000
230.002609	146.580000
230.095306	146.880000
230.187988	146.600000
230.280685	146.560000
230.373383	145.240000
230.466095	145.220000
230.558792	145.360000
230.651474	145.540000
230.744171	145.380000
230.836868	145.540000
230.929581	145.880000
231.022278	146.080000
231.114975	146.100000
231.207672	146.100000
231.300369	146.460000
231.393082	146.540000
231.485779	146.340000
231.578506	145.900000
231.671204	146.360000
231.763916	146.060000
231.856613	145.580000
231.949326	145.820000
232.042023	145.700000
232.134735	145.340000
232.227448	145.140000
232.320160	145.600000
232.412872	145.440000
232.505585	146.380000
232.598297	146.740000
232.691010	146.700000
232.783722	146.160000
232.876450	146.800000
232.969162	145.940000
233.061874	145.340000
233.154587	145.100000
233.247314	145.440000
233.340027	144.640000
233.432739	145.480000
233.525467	145.680000
233.618179	146.500000
233.710907	146.340000
233.803635	146.560000
233.896347	146.200000
233.989090	146.840000
234.081818	146.580000
234.174545	146.900000
234.267258	146.760000
234.359985	146.700000
234.452713	146.160000
234.545441	146.060000
234.638168	145.420000
234.730896	146.080000
234.823639	145.960000
234.916367	146.240000
235.009094	146.260000
235.101822	146.680000
235.194580	146.000000
235.287308	145.960000
235.380051	145.640000
235.472778	145.860000
235.565521	145.960000
235.658249	145.840000
235.750992	146.040000
235.843719	146.000000
235.936462	146.180000
236.029205	145.820000
236.121948	145.720000
236.214691	146.200000
236.307449	146.660000
236.400192	146.140000
236.492935	146.140000
236.585678	146.220000
236.678421	146.080000
236.771164	145.920000
236.863907	146.420000
236.956665	146.620000
237.049408	148.180000
237.142151	147.300000
237.234909	148.020000
237.327652	147.760000
237.420410	147.520000
237.513153	146.640000
237.605927	147.180000
237.698669	146.240000
237.791428	146.080000
237.884186	146.520000
237.976944	145.820000
238.069702	145.860000
238.162445	145.580000
238.255203	145.620000
238.347961	145.780000
238.440720	145.840000
238.533478	145.620000
238.626266	145.660000
238.719025	146.000000
238.811783	145.660000
238.904541	145.740000
238.997314	145.740000
239.090073	145.580000
239.182831	145.240000
239.275604	146.100000
239.368362	145.800000
239.461136	146.200000
239.553909	146.140000
239.646667	146.200000
239.739441	145.460000
239.832214	145.800000
239.925003	145.740000
240.017761	146.520000
240.110535	146.800000
240.203308	146.340000
240.296082	146.520000
240.388855	146.340000
240.481628	146.240000
240.574417	146.360000
240.667191	146.980000
240.759964	146.760000
240.852737	146.860000
240.945526	146.900000
241.038315	146.600000
241.131088	146.700000
241.223877	147.100000
241.316650	146.560000
241.409439	146.500000
241.502228	146.360000
241.595001	146.740000
241.687790	146.320000
241.780579	146.740000
241.873367	147.020000
241.966141	147.500000
242.058929	146.380000
242.151718	146.820000
242.244507	146.840000
242.337311	146.020000
242.430099	145.960000
242.522903	146.540000
242.615692	146.040000
242.708481	146.020000
242.801270	146.560000
242.894073	146.520000
242.986862	146.620000
243.079651	147.400000
243.172455	147.260000
243.265244	147.040000
243.358063	146.280000
243.450867	146.440000
243.543655	146.000000
243.636459	146.100000
243.729263	146.760000
243.822067	147.480000
243.914856	147.660000
244.007660	147.700000
244.100464	147.520000
244.193268	146.860000
244.286072	146.700000
244.378876	145.960000
244.471680	145.920000
244.564499	146.600000
244.657318	147.260000
244.750122	147.500000
244.842926	147.320000
244.935745	147.280000
245.028549	146.680000
245.121368	146.200000
245.214172	146.100000
245.306992	146.560000
245.399796	146.380000
245.492615	146.480000
245.585434	146.420000
245.678253	146.240000
245.771072	146.240000
245.863892	146.640000
245.956711	146.900000
246.049530	146.540000
246.142349	146.280000
246.235168	146.360000
246.327988	146.480000
246.420807	146.260000
246.513626	146.620000
246.606445	146.680000
246.699280	146.560000
246.792099	146.220000
246.884918	145.900000
246.977753	145.660000
247.070587	145.860000
247.163422	145.540000
247.256241	145.580000
247.349075	145.940000
247.441895	146.080000
247.534729	146.080000
247.627563	146.200000
247.720383	146.660000
247.813217	146.660000
247.906052	146.640000
247.998886	146.800000
248.091736	146.860000
248.184570	146.360000
248.277405	146.400000
248.370239	147.140000
248.463074	147.900000
248.555908	148.220000
248.648743	148.160000
248.741592	148.200000
248.834427	147.420000
248.927261	146.340000
249.020111	146.600000
249.112946	146.980000
249.205795	146.640000
249.298630	146.980000
249.391495	147.000000
249.484344	146.240000
249.577179	146.360000
249.670029	146.720000
249.762878	147.120000
249.855728	147.260000
249.948563	147.420000
250.041412	146.620000
250.134262	146.720000
250.227112	146.520000
250.319962	146.640000
250.412827	146.880000
250.505692	146.800000
250.598541	146.800000
250.691391	146.360000
250.784241	146.120000
250.877106	145.960000
250.969955	146.000000
251.062805	146.220000
251.155670	147.020000
251.248520	146.980000
251.341385	147.240000
251.434235	147.280000
251.527100	146.820000
251.619965	146.200000
251.712814	147.000000
251.805695	146.980000
251.898560	147.300000
251.991425	147.480000
252.084290	147.300000
252.177155	146.420000
252.270020	146.060000
252.362885	146.000000
252.455750	145.860000
252.548615	145.700000
252.641479	145.580000
252.734360	145.320000
252.827240	145.240000
252.920105	145.160000
253.012970	145.020000
253.105850	145.140000
253.198715	145.220000
253.291595	145.260000
253.384460	145.000000
253.477341	145.180000
253.570221	145.580000
253.663086	145.300000
253.755966	145.820000
253.848846	146.100000
253.941727	146.400000
254.034592	145.880000
254.127472	145.960000
254.220367	145.720000
254.313248	145.860000
254.406128	145.480000
254.499008	146.100000
254.591904	146.900000
254.684784	147.120000
254.777664	147.120000
254.870544	146.740000
254.963440	146.400000
255.056335	146.320000
255.149216	145.900000
255.242111	146.240000
255.334991	146.940000
255.427887	147.000000
255.520767	146.660000
255.613663	146.760000
255.706558	145.780000
255.799438	145.420000
255.892334	145.080000
255.985229	145.040000
256.078125	145.020000
256.171021	145.620000
256.263916	146.180000
256.356812	146.660000
256.449707	146.960000
256.542603	146.800000
256.635498	147.000000
256.728394	146.560000
256.821289	146.320000
256.914215	146.340000
257.007080	146.720000
257.100006	146.720000
257.192932	147.000000
257.285828	147.180000
257.378723	146.840000
257.471619	146.480000
257.564545	145.800000
257.657440	145.960000
257.750336	146.420000
257.843262	146.520000
257.936157	147.780000
258.029053	148.260000
258.121979	148.040000
258.214874	147.320000
258.307800	147.120000
258.400696	145.640000
258.493622	145.800000
258.586517	145.400000
258.679443	145.760000
258.772339	145.320000
258.865265	145.280000
258.958160	144.700000
259.051086	145.300000
259.144012	145.020000
259.236938	145.960000
259.329834	145.920000
259.422791	145.680000
259.515717	145.240000
259.608612	145.320000
259.701538	145.240000
259.794464	145.380000
259.887390	145.780000
259.980316	145.600000
260.073212	145.200000
260.166138	144.200000
260.259064	144.460000
260.351990	144.940000
260.444916	145.080000
260.537842	145.540000
260.630768	146.540000
260.723694	146.680000
260.816620	146.760000
260.909546	146.860000
261.002472	146.620000
261.095398	146.060000
261.188354	145.860000
261.281281	145.180000
261.374207	145.200000
261.467133	146.120000
261.560089	146.400000
261.653015	146.020000
261.745972	146.680000
261.838867	147.160000
261.931824	146.860000
262.024780	146.420000
262.117706	147.380000
262.210663	147.360000
262.303589	146.920000
262.396515	146.980000
262.489471	148.080000
262.582397	147.640000
262.675354	147.040000
262.768280	147.120000
262.861237	146.920000
262.954163	146.500000
263.047119	146.400000
263.140045	146.680000
263.233002	146.600000
263.325958	146.360000
263.418884	145.780000
263.511841	145.740000
263.604797	145.760000
263.697723	145.720000
263.790680	145.580000
263.883636	146.080000
263.976593	146.020000
264.069550	146.100000
264.162476	145.840000
264.255463	146.040000
264.348419	145.820000
264.441376	145.980000
264.534332	145.360000
264.627289	145.780000
264.720245	146.060000
264.813202	145.680000
264.906158	145.980000
264.999115	146.600000
265.092072	146.460000
265.185028	146.820000
265.277985	147.200000
265.370941	146.560000
265.463898	146.400000
265.556854	146.380000
265.649811	145.260000
265.742798	145.220000
265.835754	145.800000
265.928711	145.960000
266.021667	145.660000
266.114655	146.000000
266.207611	145.960000
266.300568	145.200000
266.393585	144.860000
266.486511	145.580000
266.579498	144.900000
266.672485	144.980000
266.765442	145.020000
266.858429	145.580000
266.951385	145.220000
267.044342	145.580000
267.137329	145.760000
267.230316	146.100000
267.323273	145.680000
267.416260	146.120000
267.509216	146.280000
267.602203	146.320000
267.695160	146.740000
267.788147	146.860000
267.881134	146.220000
267.974091	146.460000
268.067078	146.120000
268.160065	145.720000
268.253052	145.440000
268.346008	145.520000
268.438995	145.460000
268.531982	145.800000
268.624969	145.800000
268.717987	146.440000
268.810944	146.300000
268.903961	146.320000
268.996948	146.000000
269.089905	146.260000
269.182892	146.060000
269.275879	146.580000
269.368866	146.100000
269.461853	146.040000
269.554871	146.000000
269.647858	145.760000
269.740845	145.760000
269.833832	146.360000
269.926819	146.360000
270.019806	146.320000
270.112793	146.180000
270.205811	145.980000
270.298798	145.600000
270.391785	146.240000
270.484772	146.140000
270.577789	146.420000
270.670776	146.220000
270.763763	146.100000
270.856750	145.900000
270.949768	145.440000
271.042786	145.240000
271.135773	145.400000
271.228790	145.920000
271.321808	145.380000
271.414795	145.180000
271.507782	145.180000
271.600800	145.080000
271.693817	144.980000
271.786804	145.580000
271.879822	146.220000
271.972809	145.980000
272.065826	146.520000
272.158844	146.100000
272.251831	146.500000
272.344849	146.320000
272.437866	146.220000
272.530853	145.960000
272.623871	146.480000
272.716888	145.380000
272.809906	145.700000
272.902893	145.760000
272.995911	145.440000
273.088928	145.160000
273.181946	145.660000
273.274963	145.440000
273.367981	145.560000
273.460999	145.860000
273.554047	146.480000
273.647003	147.040000
273.740051	146.820000
273.833069	147.340000
273.926086	147.060000
274.019135	146.460000
274.112152	146.040000
274.205170	146.460000
274.298187	146.580000
274.391205	146.500000
274.484222	146.480000
274.577240	146.340000
274.670258	145.960000
274.763306	145.560000
274.856323	145.900000
274.949341	146.160000
275.042358	146.420000
275.135406	146.560000
275.228424	146.360000
275.321442	146.100000
275.414490	145.900000
275.507507	146.260000
275.600525	146.520000
275.693573	146.580000
275.786591	146.480000
275.879669	146.820000
275.972656	146.340000
276.065735	146.300000
276.158752	146.700000
276.251801	147.640000
276.344818	147.540000
276.437866	147.580000
276.530884	147.420000
276.623932	146.700000
276.716980	146.280000
276.809998	146.200000
276.903046	146.140000
276.996094	146.560000
277.089111	147.220000
277.182159	147.620000
277.275208	147.060000
277.368256	146.760000
277.461304	146.480000
277.554321	145.700000
277.647369	145.320000
277.740417	145.600000
277.833466	145.680000
277.926514	145.720000
278.019562	146.580000
278.112610	146.140000
278.205688	146.640000
278.298706	146.840000
278.391785	146.440000
278.484833	145.520000
278.577881	145.420000
278.670929	145.320000
278.763977	145.400000
278.857025	145.800000
278.950073	146.400000
279.043121	146.400000
279.136169	146.120000
279.229248	145.760000
279.322296	145.600000
279.415344	145.420000
279.508392	145.140000
279.601440	144.940000
279.694519	144.720000
279.787567	144.680000
279.880615	144.420000
279.973694	144.780000
280.066742	145.020000
280.159790	145.600000
280.252869	145.340000
280.345917	146.100000
280.438995	146.120000
280.532074	145.980000
280.625122	146.240000
280.718201	147.400000
280.811279	147.140000
280.904327	147.140000
280.997406	147.620000
281.090454	147.400000
281.183533	146.500000
281.276581	146.220000
281.369659	145.840000
281.462738	145.680000
281.555786	145.580000
281.648865	145.400000
281.741943	145.420000
281.835022	146.540000
281.928070	146.260000
282.021149	146.100000
282.114227	146.140000
282.207306	146.000000
282.300385	145.880000
282.393433	146.180000
282.486511	146.140000
282.579590	146.560000
282.672668	147.220000
282.765747	146.380000
282.858856	146.180000
282.951904	146.300000
283.045013	146.360000
283.138062	146.180000
283.231171	146.840000
283.324249	147.040000
283.417328	147.040000
283.510406	146.280000
283.603485	146.100000
283.696564	145.940000
283.789642	145.840000
283.882751	145.680000
283.975830	146.720000
284.068909	146.500000
284.161987	146.960000
284.255066	146.600000
284.348175	147.080000
284.441254	146.580000
284.534332	147.160000
284.627441	146.520000
284.720520	146.340000
284.813599	145.860000
284.906708	146.080000
284.999786	145.200000
285.092896	144.720000
285.185974	145.780000
285.279053	145.480000
285.372192	145.320000
285.465240	146.200000
285.558380	146.560000
285.651459	145.680000
285.744568	146.720000
285.837677	146.360000
285.930756	146.080000
286.023865	146.140000
286.116943	145.900000
286.210052	145.720000
286.303162	145.860000
286.396240	145.900000
286.489349	145.800000
286.582458	146.840000
286.675568	146.400000
286.768646	146.380000
286.861755	146.600000
286.954865	147.360000
287.047974	146.280000
287.141083	146.300000
287.234161	146.020000
287.327271	145.600000
287.420380	145.560000
287.513519	145.960000
287.606598	145.920000
287.699738	146.380000
287.792816	146.300000
287.885956	146.220000
287.979034	146.320000
288.072174	146.520000
288.165283	146.320000
288.258392	146.980000
288.351501	146.460000
288.444611	146.880000
288.537720	147.300000
288.630859	147.420000
288.723969	147.220000
288.817078	147.300000
288.910187	146.880000
289.003296	146.020000
289.096436	145.560000
289.189545	145.240000
289.282654	145.240000
289.375763	145.560000
289.468903	146.040000
289.562012	146.600000
289.655121	146.440000
289.748260	146.360000
289.841400	146.520000
289.934509	146.580000
290.027649	146.360000
290.120728	146.220000
290.213898	146.180000
290.306976	145.600000
290.400146	145.420000
290.493256	145.300000
290.586395	145.820000
290.679535	146.280000
290.772644	146.280000
290.865784	145.620000
290.958893	145.780000
291.052032	145.540000
291.145172	145.240000
291.238281	144.720000
291.331421	145.220000
291.424561	145.580000
291.517670	145.300000
291.610809	145.620000
291.703949	146.160000
291.797089	146.620000
291.890228	146.180000
291.983337	146.540000
292.076477	146.120000
292.169617	146.260000
292.262756	146.020000
292.355927	146.000000
292.449036	145.920000
292.542206	146.340000
292.635315	146.600000
292.728485	146.500000
292.821625	146.160000
292.914764	147.220000
293.007904	147.040000
293.101044	146.840000
293.194183	146.720000
293.287323	147.240000
293.380463	146.520000
293.473602	146.220000
293.566742	146.380000
293.659882	146.940000
293.753021	147.060000
293.846191	146.820000
293.939331	146.500000
294.032471	146.160000
294.125610	145.780000
294.218781	145.880000
294.311920	146.240000
294.405060	146.660000
294.498230	146.920000
294.591370	147.040000
294.684540	146.600000
294.777679	145.980000
294.870850	146.140000
294.963959	145.840000
295.057159	145.620000
295.150299	145.960000
295.243469	146.080000
295.336609	145.220000
295.429779	145.480000
295.522919	145.900000
295.616089	145.760000
295.709229	146.320000
295.802399	146.700000
295.895569	146.560000
295.988708	146.100000
296.081879	146.280000
296.175018	145.480000
296.268188	145.740000
296.361359	146.140000
296.454529	146.200000
296.547668	145.880000
296.640839	146.500000
296.734009	146.220000
296.827179	146.060000
296.920319	146.300000
297.013519	146.260000
297.106659	146.000000
297.199860	145.980000
297.292999	145.780000
297.386200	145.540000
297.479309	145.600000
297.572510	145.560000
297.665680	145.560000
297.758850	145.500000
297.852020	145.420000
297.945190	145.140000
298.038361	144.660000
298.131531	145.480000
298.224701	145.380000
298.317871	145.100000
298.411072	144.920000
298.504242	145.160000
298.597412	144.460000
298.690582	144.800000
298.783752	145.120000
298.876923	145.820000
298.970093	145.680000
299.063293	146.360000
299.156464	146.500000
299.249634	146.820000
299.342834	146.840000
299.436005	147.580000
299.529205	147.180000
299.622345	147.060000
299.715576	146.300000
299.808716	145.880000
299.901917	145.580000
299.995117	145.800000
300.088287	146.020000
300.181488	146.080000
300.274658	146.000000
300.367828	146.180000
300.461029	145.980000
300.554199	146.260000
300.647400	146.360000
300.740601	146.920000
300.833771	146.460000
300.926971	146.860000
301.020142	145.940000
301.113342	146.140000
301.206512	146.040000
301.299713	146.460000
301.392914	146.060000
301.486084	146.360000
301.579285	146.060000
301.672516	146.300000
301.765686	146.260000
301.858887	146.240000
301.952057	146.400000
302.045288	146.720000
302.138458	146.320000
302.231659	145.860000
302.324860	145.480000
302.418060	145.120000
302.511261	145.060000
302.604462	145.200000
302.697662	145.160000
302.790863	145.300000
302.884064	145.140000
302.977264	145.100000
303.070465	145.540000
303.163666	146.020000
303.256866	146.320000
303.350067	146.520000
303.443268	146.760000
303.536469	146.560000
303.629669	146.280000
303.722870	146.280000
303.816071	145.880000
303.909271	145.820000
304.002472	144.860000
304.095673	144.440000
304.188934	143.820000
304.282104	144.900000
304.375336	144.860000
304.468506	145.440000
304.561768	145.800000
304.654968	146.780000
304.748169	146.240000
304.841370	146.100000
304.934601	146.320000
305.027802	145.940000
305.121002	145.460000
305.214233	145.680000
305.307434	145.560000
305.400665	146.020000
305.493866	146.100000
305.587097	146.240000
305.680298	145.880000
305.773499	146.480000
305.866730	146.020000
305.959930	146.700000
306.053162	146.820000
306.146393	146.720000
306.239594	145.840000
306.332825	145.780000
306.426025	145.940000
306.519287	145.320000
306.612488	145.240000
306.705719	145.420000
306.798920	145.420000
306.892181	144.560000
306.985352	144.560000
307.078613	144.380000
307.171844	144.900000
307.265045	144.580000
307.358276	144.560000
307.451508	145.380000
307.544739	145.900000
307.637970	145.360000
307.731201	145.380000
307.824402	146.120000
307.917633	146.260000
308.010864	146.460000
308.104095	147.120000
308.197327	147.200000
308.290558	146.980000
308.383789	146.480000
308.477020	146.000000
308.570251	145.260000
308.663483	145.120000
308.756714	145.000000
308.849976	145.080000
308.943176	145.560000
309.036438	145.740000
309.129639	145.760000
309.222900	145.960000
309.316101	145.460000
309.409393	145.080000
309.502625	144.780000
309.595856	145.080000
309.689087	144.740000
309.782318	145.040000
309.875580	145.060000
309.968811	145.160000
310.062042	144.780000
310.155273	144.860000
310.248535	145.320000
310.341766	145.340000
310.434998	145.640000
310.528259	145.720000
310.621490	146.320000
310.714722	145.600000
310.807983	145.400000
310.901215	145.440000
310.994476	145.580000
311.087708	144.840000
311.181000	145.180000
311.274200	144.980000
311.367462	145.020000
311.460693	144.700000
311.553986	145.580000
311.647186	145.800000
311.740479	146.700000
311.833710	146.420000
311.926971	146.500000
312.020203	145.680000
312.113464	145.340000
312.206726	144.740000
312.299957	145.120000
312.393219	145.660000
312.486481	145.760000
312.579712	146.020000
312.672974	146.000000
312.766235	145.640000
312.859497	145.520000
312.952759	145.360000
313.045990	145.980000
313.139252	145.540000
313.232513	145.840000
313.325775	145.940000
313.419037	146.200000
313.512299	145.200000
313.605530	145.980000
313.698822	146.400000
313.792053	146.240000
313.885345	145.980000
313.978577	146.300000
314.071869	146.040000
314.165131	145.820000
314.258392	146.540000
314.351654	146.920000
314.444916	146.180000
314.538177	146.820000
314.631439	147.040000
314.724701	146.360000
314.817993	146.160000
314.911255	146.660000
315.004517	145.860000
315.097778	145.700000
315.191040	146.060000
315.284302	146.500000
315.377594	146.400000
315.470856	146.500000
315.564117	145.840000
315.657379	145.340000
315.750671	144.640000
315.843933	145.200000
315.937195	144.960000
316.030518	145.120000
316.123749	144.940000
316.217041	145.880000
316.310303	145.720000
316.403595	146.160000
316.496857	146.440000
316.590149	146.920000
316.683411	146.220000
316.776703	145.940000
316.869965	145.860000
316.963257	145.640000
317.056519	144.980000
317.149811	145.120000
317.243073	145.340000
317.336365	145.360000
317.429626	145.820000
317.522919	146.480000
317.616180	146.500000
317.709473	146.420000
317.802765	146.420000
317.896027	146.000000
317.989319	146.200000
318.082611	145.980000
318.175873	145.720000
318.269165	145.720000
318.362488	145.700000
318.455750	145.140000
318.549042	145.720000
318.642303	146.020000
318.735626	145.820000
318.828888	146.020000
318.922211	145.720000
319.015472	145.860000
319.108765	145.520000
319.202057	144.980000
319.295349	144.900000
319.388641	145.260000
319.481934	144.580000
319.575226	144.520000
319.668518	144.980000
319.761810	145.120000
319.855103	145.140000
319.948395	145.300000
320.041687	145.620000
320.134979	145.780000
320.228271	145.460000
320.321564	145.520000
320.414856	145.600000
320.508148	145.180000
320.601440	145.100000
320.694763	145.380000
320.788025	146.040000
320.881348	146.040000
320.974640	146.140000
321.067963	145.800000
321.161224	145.680000
321.254547	144.720000
321.347839	145.300000
321.441162	145.060000
321.534454	145.580000
321.627747	145.660000
321.721069	146.480000
321.814362	146.240000
321.907654	146.700000
322.000946	146.680000
322.094269	147.260000
322.187561	146.660000
322.280884	146.740000
322.374176	146.560000
322.467468	146.920000
322.560791	146.480000
322.654083	147.160000
322.747406	147.100000
322.840698	147.440000
322.934021	147.540000
323.027344	147.800000
323.120636	147.360000
323.213959	147.240000
323.307251	146.680000
323.400574	145.780000
323.493866	145.080000
323.587219	145.020000
323.680511	145.180000
323.773834	145.360000
323.867157	145.560000
323.960449	145.840000
324.053772	145.800000
324.147095	145.280000
324.240387	145.820000
324.333710	146.440000
324.427032	146.700000
324.520355	146.700000
324.613647	146.500000
324.706970	145.960000
324.800293	145.420000
324.893616	145.740000
324.986938	145.920000
325.080231	145.980000
325.173553	146.560000
325.266876	147.160000
325.360199	146.720000
325.453522	146.160000
325.546875	146.180000
325.640167	146.140000
325.733521	146.160000
325.826813	146.560000
325.920166	146.520000
326.013489	146.480000
326.106812	145.320000
326.200134	144.720000
326.293457	143.960000
326.386780	144.220000
326.480103	143.820000
326.573425	144.260000
326.666748	144.220000
326.760071	144.660000
326.853424	144.800000
326.946747	145.500000
327.040070	146.380000
327.133392	146.620000
327.226715	146.100000
327.320068	145.620000
327.413391	145.800000
327.506714	144.900000
327.600037	144.780000
327.693390	144.960000
327.786713	145.100000
327.880066	145.100000
327.973358	145.860000
328.066742	146.160000
328.160034	146.460000
328.253418	147.040000
328.346710	146.520000
328.440063	145.980000
328.533417	145.760000
328.626740	145.780000
328.720093	145.380000
328.813416	145.800000
328.906769	145.800000
329.000092	145.900000
329.093445	145.780000
329.186768	145.640000
329.280121	146.100000
329.373444	146.700000
329.466797	146.680000
329.560120	146.660000
329.653473	146.880000
329.746796	146.320000
329.840149	145.540000
329.933502	145.360000
330.026825	145.340000
330.120178	145.040000
330.213562	145.160000
330.306854	145.660000
330.400238	145.740000
330.493561	145.820000
330.586945	146.800000
330.680237	146.800000
330.773621	146.980000
330.866974	147.000000
330.960327	147.260000
331.053680	146.440000
331.147003	146.720000
331.240356	146.560000
331.333710	146.700000
331.427063	146.180000
331.520416	146.020000
331.613770	145.660000
331.707123	145.920000
331.800476	146.080000
331.893829	147.280000
331.987152	147.740000
332.080505	147.780000
332.173859	147.240000
332.267212	146.780000
332.360565	145.700000
332.453918	145.400000
332.547333	145.300000
332.640656	145.500000
332.734039	145.860000
332.827362	146.040000
332.920746	146.420000
333.014069	146.800000
333.107452	147.060000
333.200806	146.840000
333.294159	146.860000
333.387543	146.280000
333.480896	145.580000
333.574249	145.520000
333.667603	145.240000
333.760956	145.460000
333.854340	145.640000
333.947693	145.960000
334.041046	145.800000
334.134430	146.280000
334.227783	145.680000
334.321136	145.520000
334.414520	145.060000
334.507874	145.280000
334.601227	145.060000
334.694611	145.220000
334.787964	145.240000
334.881348	145.500000
334.974701	145.280000
335.068085	144.900000
335.161438	145.400000
335.254822	145.620000
335.348175	145.860000
335.441559	145.740000
335.534943	146.680000
335.628296	145.960000
335.721680	145.900000
335.815033	146.200000
335.908417	146.320000
336.001770	146.000000
336.095154	146.200000
336.188538	145.980000
336.281891	145.200000
336.375275	144.860000
336.468658	144.460000
336.562012	144.380000
336.655396	144.720000
336.748779	145.300000
336.842133	145.320000
336.935516	145.420000
337.028900	145.420000
337.122284	145.240000
337.215637	145.500000
337.309021	145.480000
337.402435	145.220000
337.495789	145.320000
337.589203	145.100000
337.682526	144.720000
337.775940	145.420000
337.869324	145.860000
337.962708	145.360000
338.056091	146.220000
338.149475	145.760000
338.242859	145.300000
338.336243	145.120000
338.429626	145.720000
338.523010	145.460000
338.616394	145.860000
338.709778	146.300000
338.803162	146.220000
338.896545	146.540000
338.989929	146.080000
339.083313	145.960000
339.176697	145.440000
339.270081	145.520000
339.363464	145.560000
339.456848	145.940000
339.550232	145.500000
339.643616	145.400000
339.737030	145.460000
339.830383	144.920000
339.923828	144.780000
340.017181	145.060000
340.110596	145.060000
340.203949	144.940000
340.297363	144.580000
340.390778	144.760000
340.484161	144.800000
340.577545	145.060000
340.670959	145.300000
340.764343	145.820000
340.857727	145.680000
340.951111	145.100000
341.044525	145.240000
341.137909	144.620000
341.231293	144.380000
341.324707	143.940000
341.418091	145.140000
341.511505	145.040000
341.604889	145.520000
341.698303	146.020000
341.791687	146.280000
341.885071	145.740000
341.978485	145.320000
342.071899	145.280000
342.165283	144.880000
342.258698	145.280000
342.352081	145.480000
342.445496	146.240000
342.538879	146.200000
342.632324	146.300000
342.725708	146.100000
342.819122	145.720000
342.912506	145.380000
343.005920	145.620000
343.099335	146.340000
343.192719	146.200000
343.286133	146.300000
343.379547	146.400000
343.472931	146.340000
343.566345	145.240000
343.659760	145.600000
343.753143	145.560000
343.846558	145.200000
343.939972	144.920000
344.033386	145.840000
344.126770	145.540000
344.220184	145.780000
344.313599	146.360000
344.407043	146.640000
344.500427	145.960000
344.593872	146.360000
344.687225	146.040000
344.780670	145.400000
344.874054	145.300000
344.967499	145.760000
345.060913	145.640000
345.154327	145.820000
345.247742	145.820000
345.341156	145.620000
345.434570	145.380000
345.527985	145.140000
345.621399	145.200000
345.714813	145.180000
345.808228	145.420000
345.901642	145.060000
345.995056	144.820000
346.088470	144.900000
346.181885	145.220000
346.275299	145.120000
346.368713	145.080000
346.462128	144.980000
346.555573	145.240000
346.648987	145.280000
346.742401	145.260000
346.835815	145.900000
346.929260	145.820000
347.022644	145.560000
347.116119	145.860000
347.209503	146.180000
347.302948	146.880000
347.396362	147.500000
347.489807	147.360000
347.583221	147.620000
347.676636	147.420000
347.770050	146.120000
347.863495	145.720000
347.956909	145.960000
348.050323	145.160000
348.143768	145.340000
348.237183	145.340000
348.330597	145.920000
348.424042	145.900000
348.517456	146.540000
348.610901	146.580000
348.704315	146.600000
348.797760	145.920000
348.891174	145.480000
348.984619	144.720000
349.078033	144.800000
349.171448	145.220000
349.264923	145.260000
349.358337	145.420000
349.451782	145.740000
349.545197	145.420000
349.638641	145.000000
349.732086	144.860000
349.825500	145.420000
349.918945	145.120000
350.012390	145.180000
350.105804	146.020000
350.199249	146.280000
350.292664	146.160000
350.386108	146.500000
350.479553	147.000000
350.572968	146.520000
350.666412	146.920000
350.759857	146.740000
350.853302	146.860000
350.946716	146.160000
351.040161	146.280000
351.133606	145.800000
351.227081	145.740000
351.320465	146.460000
351.413940	146.580000
351.507355	146.640000
351.600830	146.840000
351.694244	146.420000
351.787720	145.680000
351.881104	145.800000
351.974579	145.620000
352.067993	146.220000
352.161469	146.560000
352.254883	146.060000
352.348358	146.260000
352.441803	146.260000
352.535248	145.840000
352.628693	146.260000
352.722137	146.460000
352.815582	146.360000
352.909027	146.460000
353.002472	146.120000
353.095917	145.820000
353.189362	146.160000
353.282806	146.000000
353.376251	145.720000
353.469696	145.380000
353.563141	145.960000
353.656586	145.660000
353.750061	145.340000
353.843475	145.700000
353.936981	146.560000
354.030396	145.840000
354.123871	145.760000
354.217285	146.700000
354.310760	146.560000
354.404175	146.420000
354.497681	146.100000
354.591095	146.340000
354.684570	145.380000
354.777985	145.220000
354.871490	144.900000
354.964935	145.760000
355.058380	146.020000
355.151855	146.100000
355.245300	146.620000
355.338745	146.920000
355.432220	146.740000
355.525665	146.080000
355.619110	146.580000
355.712585	146.100000
355.806030	146.160000
355.899475	145.560000
355.992950	145.920000
356.086426	146.160000
356.179871	146.340000
356.273346	146.240000
356.366791	146.900000
356.460266	147.160000
356.553711	146.560000
356.647186	146.600000
356.740631	146.260000
356.834106	145.900000
356.927551	146.040000
357.021027	146.180000
357.114471	146.160000
357.207947	146.320000
357.301422	146.400000
357.394867	146.140000
357.488342	146.400000
357.581818	146.400000
357.675262	146.700000
357.768738	146.340000
357.862213	145.600000
357.955658	145.600000
358.049133	145.300000
358.142609	145.540000
358.236053	145.760000
358.329529	146.180000
358.423035	146.180000
358.516449	146.160000
358.609955	146.180000
358.703400	146.760000
358.796906	146.960000
358.890350	146.400000
358.983826	146.780000
359.077271	146.000000
359.170776	145.800000
359.264221	145.540000
359.357727	145.900000
359.451172	146.080000
359.544647	146.440000
359.638123	146.120000
359.731598	146.200000
359.825073	146.280000
359.918549	146.020000
360.012024	146.240000
360.105499	145.720000
360.198975	146.080000
360.292450	145.960000
360.385925	145.960000
360.479401	145.400000
360.572876	146.060000
360.666351	146.200000
360.759857	146.440000
360.853302	146.520000
360.946808	146.440000
361.040253	146.660000
361.133759	145.980000
361.227203	145.760000
361.320709	145.560000
361.414154	146.140000
361.507660	145.980000
361.601105	146.460000
361.694641	147.040000
361.788086	146.920000
361.881592	147.100000
361.975067	146.640000
362.068542	147.060000
362.162018	146.760000
362.255524	146.260000
362.348999	145.960000
362.442474	146.200000
362.535950	145.540000
362.629456	145.200000
362.722931	145.600000
362.816406	145.800000
362.909882	146.060000
363.003387	145.760000
363.096863	146.120000
363.190338	146.060000
363.283875	145.900000
363.377319	145.700000
363.470825	146.300000
363.564301	145.700000
363.657806	146.060000
363.751282	145.540000
363.844788	146.120000
363.938232	145.540000
364.031769	146.140000
364.125214	146.020000
364.218750	146.760000
364.312225	145.900000
364.405731	146.520000
364.499207	146.200000
364.592712	146.060000
364.686188	145.460000
364.779694	145.700000
364.873169	145.380000
364.966675	145.120000
365.060150	144.960000
365.153656	145.620000
365.247131	145.720000
365.340637	146.060000
365.434143	146.680000
365.527618	146.940000
365.621155	145.900000
365.714600	145.880000
365.808136	145.740000
365.901611	144.860000
365.995117	144.640000
366.088593	144.880000
366.182129	144.800000
366.275604	144.700000
366.369110	144.980000
366.462585	144.840000
366.556122	145.900000
366.649567	145.980000
366.743103	146.180000
366.836609	145.980000
366.930115	146.420000
367.023590	146.180000
367.117096	145.960000
367.210602	145.820000
367.304108	146.460000
367.397614	146.740000
367.491119	146.780000
367.584595	146.880000
367.678101	147.160000
367.771606	146.980000
367.865112	146.660000
367.958649	145.880000
368.052124	146.120000
368.145660	145.660000
368.239136	146.020000
368.332672	146.100000
368.426147	146.480000
368.519684	146.160000
368.613159	146.640000
368.706696	145.980000
368.800171	146.100000
368.893707	145.680000
368.987183	145.800000
369.080719	145.700000
369.174225	145.760000
369.267731	145.780000
369.361237	146.200000
369.454742	146.160000
369.548248	146.220000
369.641754	146.060000
369.735260	145.520000
369.828766	144.600000
369.922272	145.120000
370.015808	144.820000
370.109314	144.820000
370.202820	144.900000
370.296356	146.320000
370.389832	145.760000
370.483368	145.520000
370.576874	145.640000
370.670410	146.260000
370.763885	145.180000
370.857422	145.360000
370.950928	145.500000
371.044464	146.300000
371.137939	145.740000
371.231476	146.340000
371.324982	146.460000
371.418518	146.400000
371.512024	145.820000
371.605560	145.740000
371.699066	145.960000
371.792572	145.480000
371.886108	145.820000
371.979614	145.600000
372.073120	146.280000
372.166656	145.780000
372.260162	146.220000
372.353668	145.940000
372.447205	145.720000
372.540710	145.620000
372.634277	145.640000
372.727753	145.760000
372.821320	145.800000
372.914795	146.280000
373.008362	145.900000
373.101837	146.160000
373.195404	145.560000
373.288879	145.600000
373.382446	146.180000
373.475922	146.140000
373.569489	146.220000
373.662964	147.160000
373.756531	147.080000
373.850037	146.880000
373.943573	146.760000
374.037109	145.960000
374.130615	145.640000
374.224152	145.800000
374.317657	145.240000
374.411194	145.940000
374.504730	146.160000
374.598236	145.540000
374.691772	145.020000
374.785309	145.320000
374.878815	144.500000
374.972351	145.100000
375.065887	145.380000
375.159454	146.400000
375.252930	145.980000
375.346497	146.420000
375.440002	146.560000
375.533569	146.540000
375.627045	145.780000
375.720612	145.960000
375.814117	146.080000
375.907684	145.660000
376.001160	145.320000
376.094727	144.980000
376.188232	145.860000
376.281799	146.120000
376.375336	145.900000
376.468872	146.940000
376.562408	147.400000
376.655914	146.700000
376.749451	146.420000
376.842987	146.860000
376.936523	146.180000
377.030060	146.060000
377.123596	146.100000
377.217133	145.780000
377.310669	145.660000
377.404205	145.980000
377.497772	146.500000
377.591278	146.580000
377.684845	147.340000
377.778351	147.520000
377.871918	147.520000
377.965424	146.900000
378.058990	146.420000
378.152496	145.780000
378.246063	145.860000
378.339569	145.920000
378.433136	145.820000
378.526642	146.240000
378.620209	145.980000
378.713745	145.620000
378.807312	146.000000
378.900848	146.000000
378.994385	146.160000
379.087921	145.960000
379.181458	146.260000
379.274994	145.360000
379.368530	145.740000
379.462097	145.700000
379.555634	146.260000
379.649170	145.780000
379.742706	145.940000
379.836273	145.940000
379.929810	145.400000
380.023376	145.040000
380.116882	145.240000
380.210449	145.240000
380.303986	144.920000
380.397552	144.940000
380.491058	145.340000
380.584656	145.040000
380.678162	145.320000
380.771729	145.480000
380.865265	146.340000
380.958832	146.440000
381.052368	147.100000
381.145935	147.240000
381.239471	147.400000
381.333008	147.000000
381.426575	146.940000
381.520111	147.020000
381.613647	147.200000
381.707214	147.120000
381.800751	146.500000
381.894318	146.460000
381.987854	145.600000
382.081421	145.160000
382.174988	145.200000
382.268524	145.220000
382.362091	145.240000
382.455627	146.520000
382.549194	146.380000
382.642731	145.880000
382.736298	145.800000
382.829834	145.660000
382.923401	145.780000
383.016937	146.160000
383.110504	146.780000
383.204041	147.160000
383.297607	147.360000
383.391174	146.240000
383.484741	146.900000
383.578278	146.240000
383.671844	145.880000
383.765411	145.380000
383.858948	145.880000
383.952515	145.000000
384.046051	145.840000
384.139618	146.300000
384.233185	146.620000
384.326721	146.240000
384.420288	146.860000
384.513855	146.780000
384.607422	147.080000
384.700989	147.380000
384.794525	147.120000
384.888123	146.680000
384.981659	146.640000
385.075226	145.880000
385.168762	145.400000
385.262360	145.760000
385.355896	145.020000
385.449463	144.760000
385.542999	144.960000
385.636597	145.620000
385.730164	145.560000
385.823730	145.660000
385.917267	145.440000
386.010834	145.740000
386.104401	145.580000
386.197968	145.600000
386.291534	146.220000
386.385101	146.420000
386.478668	146.940000
386.572235	146.660000
386.665802	146.620000
386.759338	145.920000
386.852905	145.740000
386.946472	145.180000
387.040070	145.280000
387.133606	145.420000
387.227203	145.380000
387.320740	145.720000
387.414337	145.480000
387.507874	145.440000
387.601471	145.360000
387.695007	145.760000
387.788605	145.560000
387.882141	145.820000
387.975739	145.720000
388.069275	145.760000
388.162872	145.700000
388.256439	145.600000
388.350037	145.500000
388.443604	145.320000
388.537170	145.300000
388.630737	146.020000
388.724304	146.300000
388.817871	146.360000
388.911438	146.640000
389.005005	146.640000
389.098602	146.520000
389.192169	146.320000
389.285736	146.640000
389.379333	146.320000
389.472870	145.920000
389.566467	145.620000
389.660034	145.700000
389.753632	145.300000
389.847168	146.080000
389.940765	146.660000
390.034332	146.760000
390.127930	146.080000
390.221466	146.120000
390.315063	145.460000
390.408630	144.580000
390.502228	144.020000
390.595795	144.660000
390.689362	144.640000
390.782959	144.980000
390.876526	145.760000
390.970093	145.740000
391.063690	146.160000
391.157257	146.220000
391.250824	146.420000
391.344421	146.340000
391.437988	146.940000
391.531555	146.560000
391.625153	146.880000
391.718750	147.060000
391.812317	146.820000
391.905914	146.400000
391.999481	146.540000
392.093079	146.420000
392.186615	146.300000
392.280243	146.320000
392.373779	146.580000
392.467407	146.840000
392.560944	146.400000
392.654572	145.980000
392.748108	145.940000
392.841736	145.900000
392.935303	145.420000
393.028900	145.540000
393.122467	145.660000
393.216064	145.420000
393.309631	145.060000
393.403229	144.960000
393.496796	144.920000
393.590393	144.280000
393.683990	144.780000
393.777557	145.300000
393.871155	145.720000
393.964722	146.060000
394.058350	146.420000
394.151917	146.380000
394.245514	146.100000
394.339081	146.300000
394.432678	146.600000
394.526245	146.760000
394.619873	146.040000
394.713409	146.220000
394.807037	145.640000
394.900604	145.260000
394.994202	145.220000
395.087769	145.840000
395.181396	145.520000
395.274994	146.240000
395.368561	145.760000
395.462158	145.960000
395.555756	145.840000
395.649353	146.120000
395.742920	145.800000
395.836517	146.580000
395.930115	145.820000
396.023712	146.060000
396.117279	146.100000
396.210876	145.620000
396.304474	145.400000
396.398071	145.980000
396.491669	146.200000
396.585266	146.060000
396.678833	146.120000
396.772461	146.440000
396.866028	146.400000
396.959656	146.460000
397.053223	146.740000
397.146851	146.980000
397.240417	147.320000
397.334015	148.320000
397.427582	148.960000
397.521210	150.520000
397.614807	152.340000
397.708405	154.280000
397.802002	156.420000
397.895599	160.160000
397.989197	163.960000
398.082794	168.740000
398.176392	174.820000
398.269989	182.260000
398.363586	190.920000
398.457184	202.060000
398.550781	215.380000
398.644379	229.300000
398.737976	245.520000
398.831573	262.480000
398.925201	279.540000
399.018768	296.440000
399.112396	314.380000
399.205963	332.140000
399.299591	349.800000
399.393158	366.800000
399.486786	384.660000
399.580353	401.080000
399.673981	415.220000
399.767578	430.680000
399.861206	445.560000
399.954773	458.700000
400.048401	469.220000
400.141998	476.820000
400.235596	479.060000
400.329193	476.180000
400.422791	467.960000
400.516418	456.080000
400.610016	443.980000
400.703613	430.060000
400.797211	413.400000
400.890808	397.420000
400.984436	381.180000
401.078033	361.520000
401.171631	341.160000
401.265259	321.520000
401.358826	301.720000
401.452484	282.120000
401.546051	264.800000
401.639679	246.620000
401.733246	230.860000
401.826904	214.680000
401.920471	200.460000
402.014099	187.960000
402.107697	178.560000
402.201324	170.620000
402.294891	165.280000
402.388550	161.060000
402.482147	157.720000
402.575745	154.660000
402.669373	151.960000
402.762970	149.980000
402.856567	148.840000
402.950195	148.040000
403.043793	147.300000
403.137390	148.080000
403.231018	147.560000
403.324615	147.580000
403.418243	147.040000
403.511841	147.260000
403.605469	146.380000
403.699066	146.880000
403.792694	146.840000
403.886292	146.960000
403.979919	147.060000
404.073517	146.720000
404.167145	146.360000
404.260712	146.340000
404.354370	146.140000
404.447937	146.100000
404.541595	146.360000
404.635162	146.660000
404.728821	146.840000
404.822418	146.640000
404.916046	146.460000
405.009644	146.800000
405.103271	147.180000
405.196899	146.740000
405.290497	146.800000
405.384125	147.000000
405.477722	146.400000
405.571350	145.780000
405.664948	146.140000
405.758575	146.180000
405.852203	145.760000
405.945801	146.300000
406.039429	146.500000
406.133057	145.980000
406.226654	145.740000
406.320312	145.960000
406.413879	145.720000
406.507538	145.660000
406.601135	145.440000
406.694763	145.840000
406.788361	145.420000
406.882019	145.160000
406.975586	145.540000
407.069244	146.340000
407.162872	146.260000
407.256470	146.320000
407.350098	146.400000
407.443726	145.840000
407.537323	145.340000
407.630951	145.860000
407.724579	145.820000
407.818207	146.280000
407.911804	146.040000
408.005432	146.160000
408.099060	146.020000
408.192688	146.240000
408.286285	145.960000
408.379913	146.040000
408.473572	146.140000
408.567169	145.580000
408.660828	145.420000
408.754395	145.060000
408.848053	145.080000
408.941650	144.800000
409.035309	144.540000
409.128906	144.900000
409.222565	145.340000
409.316132	145.820000
409.409790	145.800000
409.503387	145.980000
409.597046	146.120000
409.690674	146.240000
409.784302	146.060000
409.877930	145.760000
409.971558	146.080000
410.065186	145.580000
410.158783	145.220000
410.252411	144.800000
410.346039	145.480000
410.439667	145.500000
410.533295	145.660000
410.626923	145.860000
410.720551	146.220000
410.814209	146.500000
410.907806	146.240000
411.001465	146.040000
411.095062	146.360000
411.188721	146.460000
411.282318	145.680000
411.375977	145.780000
411.469574	146.000000
411.563232	145.700000
411.656830	145.400000
411.750488	145.640000
411.844086	145.300000
411.937744	145.120000
412.031372	144.860000
412.125000	144.800000
412.218628	144.840000
412.312256	145.420000
412.405884	146.020000
412.499512	146.180000
412.593170	146.480000
412.686798	146.500000
412.780426	146.280000
412.874054	146.180000
412.967682	146.100000
413.061310	146.560000
413.154968	146.740000
413.248566	146.840000
413.342224	146.580000
413.435852	146.780000
413.529510	146.140000
413.623108	145.460000
413.716766	145.240000
413.810364	145.760000
413.904022	145.580000
413.997650	145.420000
414.091309	146.460000
414.184906	146.400000
414.278564	145.780000
414.372192	146.000000
414.465851	146.220000
414.559479	145.640000
414.653107	146.440000
414.746735	146.260000
414.840393	146.100000
414.934021	146.480000
415.027649	146.180000
415.121277	145.900000
415.214935	146.380000
415.308563	146.520000
415.402191	145.800000
415.495850	146.180000
415.589478	145.860000
415.683136	145.620000
415.776733	145.460000
415.870422	146.460000
415.964020	145.700000
416.057678	145.880000
416.151306	145.700000
416.244965	145.980000
416.338562	145.540000
416.432251	146.640000
416.525848	146.940000
416.619507	147.720000
416.713165	147.600000
416.806793	147.300000
416.900421	147.220000
416.994080	146.540000
417.087708	145.940000
417.181366	145.740000
417.274994	145.800000
417.368622	145.940000
417.462280	146.760000
417.555908	146.820000
417.649567	146.560000
417.743195	146.600000
417.836853	146.420000
417.930481	146.220000
418.024170	146.320000
418.117767	146.860000
418.211426	147.320000
418.305054	147.500000
418.398712	147.160000
418.492340	147.160000
418.585999	147.500000
418.679626	147.180000
418.773285	146.840000
418.866913	147.060000
418.960571	147.120000
419.054230	146.980000
419.147858	147.280000
419.241516	147.680000
419.335144	147.300000
419.428802	147.320000
419.522461	146.720000
419.616089	146.080000
419.709747	145.820000
419.803375	146.080000
419.897034	145.720000
419.990662	145.980000
420.084320	146.580000
420.177979	146.620000
420.271606	146.880000
420.365295	147.420000
420.458893	147.540000
420.552582	147.600000
420.646210	147.340000
420.739868	146.840000
420.833496	146.360000
420.927155	145.940000
421.020782	145.700000
421.114471	145.700000
421.208069	145.500000
421.301758	145.880000
421.395386	146.200000
421.489044	146.260000
421.582703	146.300000
421.676361	147.280000
421.769989	146.560000
421.863647	147.020000
421.957306	146.760000
422.050934	146.780000
422.144592	146.200000
422.238251	146.400000
422.331909	145.540000
422.425537	145.640000
422.519196	145.740000
422.612854	145.260000
422.706543	144.900000
422.800140	145.340000
422.893829	145.040000
422.987457	144.720000
423.081146	145.200000
423.174744	146.280000
423.268433	146.000000
423.362061	145.840000
423.455750	145.940000
423.549347	145.860000
423.643036	144.800000
423.736664	145.200000
423.830353	145.280000
423.924011	145.620000
424.017639	145.280000
424.111298	145.500000
424.204956	145.520000
424.298615	145.600000
424.392273	145.160000
424.485931	145.780000
424.579559	146.220000
424.673218	145.840000
424.766876	146.140000
424.860535	145.920000
424.954193	145.340000
425.047882	145.700000
425.141510	145.980000
425.235199	145.840000
425.328796	145.780000
425.422485	145.900000
425.516113	144.740000
425.609802	144.760000
425.703430	144.680000
425.797119	144.920000
425.890747	145.080000
425.984436	145.640000
426.078064	145.500000
426.171753	145.540000
426.265411	145.340000
426.359070	145.420000
426.452728	145.340000
426.546356	145.240000
426.640015	145.120000
426.733673	145.440000
426.827332	145.120000
426.920990	146.060000
427.014648	145.640000
427.108307	145.760000
427.201965	145.900000
427.295624	146.200000
427.389282	145.160000
427.482941	145.760000
427.576630	145.720000
427.670258	145.360000
427.763947	145.220000
427.857574	145.780000
427.951263	145.780000
428.044922	145.660000
428.138611	145.920000
428.232239	146.260000
428.325928	146.280000
428.419556	146.460000
428.513245	146.260000
428.606903	146.300000
428.700562	145.840000
428.794220	145.240000
428.887878	144.540000
428.981537	145.000000
429.075195	144.880000
429.168854	145.200000
429.262512	145.520000
429.356201	145.960000
429.449860	145.700000
429.543518	145.640000
429.637177	145.720000
429.730835	145.640000
429.824493	145.600000
429.918182	146.000000
430.011810	145.580000
430.105530	145.160000
430.199158	145.640000
430.292847	145.560000
430.386475	145.180000
430.480164	145.340000
430.573792	145.240000
430.667511	144.620000
430.761139	144.580000
430.854828	145.020000
430.948456	145.260000
431.042145	145.820000
431.135834	145.640000
431.229492	146.020000
431.323151	146.260000
431.416809	146.160000
431.510468	145.740000
431.604156	145.940000
431.697815	145.700000
431.791473	145.120000
431.885132	144.800000
431.978821	145.160000
432.072479	145.600000
432.166138	146.000000
432.259827	145.980000
432.353485	146.760000
432.447174	146.760000
432.540802	146.140000
432.634491	146.260000
432.728149	146.440000
432.821838	146.460000
432.915466	146.040000
433.009186	146.480000
433.102814	145.660000
433.196503	145.640000
433.290131	145.460000
433.383850	145.740000
433.477509	145.780000
433.571167	146.400000
433.664856	146.720000
433.758514	146.980000
433.852173	146.740000
433.945862	146.540000
434.039520	146.240000
434.133179	145.580000
434.226868	145.000000
434.320526	144.740000
434.414185	145.220000
434.507874	145.240000
434.601562	145.380000
434.695221	145.440000
434.788910	145.980000
434.882538	145.840000
434.976257	145.560000
435.069885	145.740000
435.163574	145.940000
435.257233	145.400000
435.350922	145.320000
435.444580	145.120000
435.538269	144.820000
435.631897	145.040000
435.725616	145.860000
435.819275	146.260000
435.912964	147.120000
436.006622	147.940000
436.100311	147.980000
436.193970	147.280000
436.287628	146.960000
436.381317	146.520000
436.474976	145.540000
436.568665	145.020000
436.662323	145.020000
436.756012	144.920000
436.849670	144.720000
436.943390	145.080000
437.037018	145.100000
437.130737	145.240000
437.224365	144.880000
437.318085	145.180000
437.411713	145.480000
437.505432	145.980000
437.599060	146.460000
437.692780	147.460000
437.786407	147.420000
437.880127	147.080000
437.973755	147.140000
438.067474	146.320000
438.161133	145.460000
438.254822	145.640000
438.348480	145.580000
438.442169	145.620000
438.535828	146.420000
438.629517	146.440000
438.723175	145.820000
438.816864	146.320000
438.910553	145.880000
439.004211	145.460000
439.097900	145.180000
439.191559	145.540000
439.285248	144.860000
439.378906	145.140000
439.472626	145.020000
439.566284	145.200000
439.659973	145.560000
439.753632	145.560000
439.847321	146.080000
439.940979	146.300000
440.034698	146.580000
440.128326	145.860000
440.222046	145.900000
440.315674	144.820000
440.409393	145.040000
440.503082	144.840000
440.596741	145.380000
440.690430	145.700000
440.784088	145.640000
440.877777	144.960000
440.971466	145.020000
441.065125	144.280000
441.158813	143.840000
441.252502	144.140000
441.346161	144.740000
441.439850	145.040000
441.533539	145.380000
441.627197	145.940000
441.720886	145.800000
441.814606	145.840000
441.908234	146.100000
442.001953	146.080000
442.095612	146.140000
442.189301	146.780000
442.282959	147.100000
442.376678	145.940000
442.470306	146.880000
442.564026	146.600000
442.657684	146.320000
442.751404	146.000000
442.845032	147.340000
442.938751	146.660000
443.032440	146.860000
443.126099	146.480000
443.219788	146.740000
443.313477	146.560000
443.407166	146.780000
443.500824	146.800000
443.594513	147.200000
443.688202	146.940000
443.781891	145.820000
443.875549	145.400000
443.969238	145.200000
444.062927	145.340000
444.156647	145.260000
444.250275	146.100000
444.343994	146.040000
444.437653	146.160000
444.531372	145.860000
444.625031	145.800000
444.718719	145.200000
444.812378	145.080000
444.906097	144.680000
444.999756	144.180000
445.093445	144.180000
445.187103	144.400000
445.280823	145.320000
445.374512	145.140000
445.468201	145.560000
445.561859	145.380000
445.655548	145.600000
445.749237	144.780000
445.842926	145.240000
445.936615	145.660000
446.030304	145.480000
446.123962	145.780000
446.217651	145.760000
446.311340	145.840000
446.405029	145.340000
446.498749	145.540000
446.592407	145.020000
446.686096	145.340000
446.779755	145.140000
446.873474	145.400000
446.967133	145.560000
447.060852	145.560000
447.154510	145.460000
447.248230	145.700000
447.341858	145.440000
447.435577	144.880000
447.529236	144.820000
447.622955	144.620000
447.716644	144.280000
447.810333	144.520000
447.904022	145.220000
447.997711	145.180000
448.091400	145.680000
448.185059	145.980000
448.278748	146.020000
448.372437	145.580000
448.466125	145.960000
448.559814	145.640000
448.653503	145.920000
448.747192	146.200000
448.840912	146.900000
448.934570	146.800000
449.028290	147.360000
449.121948	146.860000
449.215637	146.380000
449.309296	145.780000
449.403015	145.900000
449.496674	145.560000
449.590393	145.780000
449.684052	145.320000
449.777771	146.000000
449.871429	145.420000
449.965149	145.240000
450.058838	145.440000
450.152527	146.300000
450.246216	146.060000
450.339905	146.240000
450.433594	146.120000
450.527283	146.440000
450.620972	146.020000
450.714661	145.700000
450.808350	145.960000
450.902039	146.580000
450.995728	146.200000
451.089417	146.160000
451.183105	146.560000
451.276794	146.900000
451.370514	145.820000
451.464172	145.260000
451.557892	145.340000
451.651550	145.160000
451.745270	144.480000
451.838928	144.340000
451.932648	144.660000
452.026306	145.160000
452.120026	144.540000
452.213684	145.220000
452.307404	145.860000
452.401062	146.040000
452.494781	145.920000
452.588470	146.440000
452.682159	145.940000
452.775848	145.760000
452.869537	145.360000
452.963226	145.080000
453.056915	144.860000
453.150604	144.820000
453.244293	145.160000
453.337982	145.680000
453.431671	146.000000
453.525360	146.660000
453.619049	146.560000
453.712769	146.500000
453.806427	145.680000
453.900146	145.080000
453.993805	144.620000
454.087555	145.300000
454.181213	145.440000
454.274933	145.800000
454.368591	145.880000
454.462311	145.800000
454.555969	145.200000
454.649689	146.040000
454.743347	145.880000
454.837067	146.360000
454.930756	147.000000
455.024445	147.100000
455.118134	146.080000
455.211853	146.540000
455.305542	146.060000
455.399231	145.600000
455.492920	145.680000
455.586609	145.920000
455.680298	145.900000
455.773987	145.780000
455.867676	146.040000
455.961365	146.180000
456.055084	146.120000
456.148773	145.740000
456.242493	146.080000
456.336151	145.920000
456.429871	146.100000
456.523529	146.320000
456.617249	146.200000
456.710907	146.580000
456.804626	146.360000
456.898315	145.600000
456.992035	145.200000
457.085693	145.100000
457.179413	144.160000
457.273102	144.920000
457.366791	145.340000
457.460480	145.720000
457.554199	146.680000
457.647888	147.140000
457.741577	146.680000
457.835266	146.600000
457.928955	146.660000
458.022644	146.420000
458.116364	146.740000
458.210052	146.360000
458.303741	146.560000
458.397461	145.880000
458.491119	145.400000
458.584839	145.220000
458.678528	145.440000
458.772247	144.980000
458.865906	145.180000
458.959625	145.940000
459.053284	145.800000
459.147003	145.320000
459.240692	146.160000
459.334412	146.420000
459.428070	145.980000
459.521790	145.920000
459.615479	146.000000
459.709198	146.100000
459.802887	145.460000
459.896576	145.320000
459.990265	145.540000
460.083954	145.820000
460.177673	145.060000
460.271362	145.480000
460.365051	145.320000
460.458740	144.920000
460.552429	144.580000
460.646149	144.760000
460.739838	144.620000
460.833527	145.020000
460.927246	144.920000
461.020905	145.060000
461.114655	145.220000
461.208313	145.440000
461.302032	145.120000
461.395691	145.540000
461.489441	145.600000
461.583099	145.260000
461.676819	145.140000
461.770477	145.500000
461.864197	145.300000
461.957916	145.280000
462.051605	144.880000
462.145294	145.860000
462.238983	145.480000
462.332703	145.660000
462.426392	146.400000
462.520081	146.800000
462.613770	145.680000
462.707489	146.180000
462.801178	145.840000
462.894867	145.140000
462.988556	145.460000
463.082275	145.960000
463.175964	145.200000
463.269684	145.640000
463.363342	145.580000
463.457092	144.780000
463.550751	144.580000
463.644470	145.220000
463.738129	144.900000
463.831879	145.020000
463.925537	145.960000
464.019257	146.260000
464.112946	145.940000
464.206665	145.960000
464.300323	146.160000
464.394043	145.680000
464.487762	145.180000
464.581451	145.480000
464.675140	145.680000
464.768829	145.700000
464.862549	145.880000
464.956238	146.260000
465.049927	146.280000
465.143646	146.260000
465.237335	145.980000
465.331024	146.380000
465.424713	146.280000
465.518433	146.320000
465.612152	146.140000
465.705811	146.060000
465.799561	145.540000
465.893219	145.440000
465.986938	145.180000
466.080597	145.120000
466.174347	145.380000
466.268005	145.520000
466.361725	145.600000
466.455414	145.700000
466.549133	145.540000
466.642792	145.880000
466.736542	145.440000
466.830231	145.380000
466.923920	145.380000
467.017609	145.820000
467.111328	145.320000
467.205017	145.780000
467.298706	145.960000
467.392426	146.000000
467.486115	145.960000
467.579803	145.740000
467.673523	145.780000
467.767212	145.940000
467.860901	146.180000
467.954651	146.360000
468.048309	146.700000
468.142029	146.500000
468.235718	146.380000
468.329437	145.640000
468.423096	145.400000
468.516846	145.300000
468.610504	145.220000
468.704224	144.760000
468.797913	145.020000
468.891632	145.080000
468.985291	144.740000
469.079010	144.740000
469.172729	144.240000
469.266418	144.820000
469.360107	144.900000
469.453827	145.120000
469.547516	145.240000
469.641205	146.040000
469.734924	145.820000
469.828613	146.000000
469.922302	146.420000
470.016022	146.680000
470.109711	146.320000
470.203430	145.820000
470.297150	145.220000
470.390808	145.260000
470.484558	144.980000
470.578217	145.680000
470.671936	146.320000
470.765625	146.920000
470.859344	146.580000
470.953003	146.860000
471.046753	146.580000
471.140411	145.740000
471.234131	145.760000
471.327820	146.240000
471.421539	145.920000
471.515228	145.360000
471.608948	145.520000
471.702637	145.120000
471.796326	144.700000
471.890045	145.020000
471.983734	145.540000
472.077423	145.520000
472.171143	145.560000
472.264832	145.600000
472.358521	145.240000
472.452240	144.920000
472.545929	145.740000
472.639648	145.780000
472.733337	146.020000
472.827057	146.020000
472.920746	146.200000
473.014465	146.280000
473.108124	146.680000
473.201874	146.560000
473.295532	146.580000
473.389252	146.980000
473.482941	146.740000
473.576660	145.860000
473.670319	145.760000
473.764069	146.160000
473.857727	145.740000
473.951477	145.940000
474.045166	147.040000
474.138855	147.000000
474.232574	147.140000
474.326263	147.240000
474.419952	147.180000
474.513672	146.720000
474.607361	146.700000
474.701050	146.360000
474.794769	146.820000
474.888458	146.580000
474.982178	146.740000
475.075867	146.640000
475.169586	147.000000
475.263275	146.340000
475.356995	146.360000
475.450653	145.800000
475.544403	145.660000
475.638062	145.780000
475.731812	145.500000
475.825470	144.940000
475.919189	145.520000
476.012878	145.680000
476.106598	145.020000
476.200256	145.400000
476.294006	145.760000
476.387695	145.520000
476.481384	145.300000
476.575104	145.560000
476.668793	145.300000
476.762512	145.000000
476.856201	145.440000
476.949890	145.480000
477.043610	144.880000
477.137299	145.220000
477.230988	145.620000
477.324707	145.080000
477.418396	145.580000
477.512146	145.980000
477.605804	146.040000
477.699524	146.220000
477.793213	146.220000
477.886932	145.860000
477.980591	145.580000
478.074341	145.040000
478.167999	144.320000
478.261749	144.500000
478.355408	144.500000
478.449127	145.000000
478.542816	146.220000
478.636536	147.240000
478.730225	147.400000
478.823944	147.720000
478.917633	147.740000
479.011322	147.160000
479.105042	146.600000
479.198730	146.480000
479.292450	146.160000
479.386139	146.100000
479.479828	146.260000
479.573547	146.820000
479.667267	146.660000
479.760925	146.540000
479.854675	146.820000
479.948334	146.820000
480.042084	146.160000
480.135742	146.660000
480.229462	146.420000
480.323151	146.180000
480.416870	145.520000
480.510529	145.640000
480.604279	144.880000
480.697937	145.720000
480.791656	145.480000
480.885345	145.500000
480.979065	145.280000
481.072754	145.800000
481.166473	145.640000
481.260132	145.560000
481.353882	145.940000
481.447540	145.880000
481.541260	145.740000
481.635010	145.500000
481.728668	145.520000
481.822388	145.080000
481.916077	145.320000
482.009796	145.240000
482.103485	145.600000
482.197205	145.960000
482.290863	146.360000
482.384613	145.960000
482.478271	145.580000
482.571991	145.480000
482.665680	145.100000
482.759399	145.500000
482.853058	146.280000
482.946808	146.500000
483.040466	146.340000
483.134216	146.280000
483.227875	145.760000
483.321594	145.820000
483.415283	145.880000
483.509003	145.680000
483.602661	145.700000
483.696411	145.800000
483.790070	145.380000
483.883789	145.440000
483.977478	145.620000
484.071198	145.700000
484.164917	145.500000
484.258606	145.280000
484.352325	145.300000
484.445984	145.300000
484.539734	145.220000
484.633392	144.980000
484.727142	145.640000
484.820801	145.640000
484.914520	145.720000
485.008209	146.140000
485.101929	146.820000
485.195587	146.400000
485.289337	146.480000
485.382996	146.440000
485.476715	146.480000
485.570404	146.760000
485.664124	146.860000
485.757782	147.380000
485.851532	147.100000
485.945190	146.880000
486.038910	146.980000
486.132599	147.280000
486.226318	146.380000
486.319977	146.360000
486.413727	146.880000
486.507446	146.200000
486.601105	145.420000
486.694855	145.560000
486.788513	145.520000
486.882233	145.400000
486.975922	145.440000
487.069641	145.760000
487.163300	145.620000
487.257050	146.900000
487.350708	146.320000
487.444427	146.020000
487.538116	146.200000
487.631836	146.380000
487.725494	145.420000
487.819214	145.440000
487.912903	145.520000
488.006622	145.480000
488.100281	145.580000
488.194031	145.720000
488.287689	146.240000
488.381409	147.020000
488.475098	147.100000
488.568817	147.140000
488.662476	146.920000
488.756226	146.060000
488.849945	145.060000
488.943604	145.120000
489.037354	145.220000
489.131012	145.040000
489.224731	145.540000
489.318390	145.860000
489.412140	145.780000
489.505798	145.500000
489.599518	145.180000
489.693207	145.120000
489.786926	145.140000
489.880585	144.940000
489.974335	145.280000
490.067993	146.580000
490.161713	147.040000
490.255371	147.640000
490.349121	147.700000
490.442780	147.400000
490.536499	146.460000
490.630188	146.260000
490.723907	145.400000
490.817566	145.580000
490.911285	145.840000
491.004974	145.780000
491.098694	145.500000
491.192413	146.420000
491.286102	146.180000
491.379822	146.220000
491.473480	146.560000
491.567200	146.800000
491.660889	146.000000
491.754608	145.920000
491.848267	145.460000
491.941986	145.280000
492.035675	144.940000
492.129395	145.500000
492.223053	145.540000
492.316772	146.100000
492.410461	145.820000
492.504181	146.120000
492.597839	145.520000
492.691559	145.900000
492.785248	145.580000
492.878967	145.920000
492.972626	145.380000
493.066345	145.480000
493.160034	144.640000
493.253754	144.700000
493.347412	144.700000
493.441132	144.960000
493.534882	145.480000
493.628540	146.120000
493.722260	146.260000
493.815918	146.240000
493.909668	146.640000
494.003326	146.840000
494.097046	146.620000
494.190704	146.380000
494.284454	146.680000
494.378113	146.900000
494.471832	146.280000
494.565491	146.060000
494.659210	146.140000
494.752899	145.780000
494.846619	145.060000
494.940277	145.420000
495.033997	145.760000
495.127686	145.600000
495.221405	145.540000
495.315063	145.860000
495.408783	145.940000
495.502441	146.000000
495.596191	145.980000
495.689850	145.800000
495.783569	145.840000
495.877228	145.640000
495.970947	145.420000
496.064697	145.360000
496.158356	146.420000
496.252075	146.380000
496.345734	145.940000
496.439453	146.720000
496.533142	146.880000
496.626862	146.600000
496.720520	146.460000
496.814240	147.200000
496.907898	146.540000
497.001617	146.480000
497.095306	145.700000
497.189026	145.720000
497.282684	145.500000
497.376404	145.660000
497.470062	145.680000
497.563782	146.140000
497.657471	146.200000
497.751190	145.800000
497.844849	145.640000
497.938568	145.940000
498.032227	145.580000
498.125946	145.340000
498.219635	145.220000
498.313354	145.480000
498.407074	145.180000
498.500732	145.580000
498.594452	146.040000
498.688110	146.060000
498.781830	145.620000
498.875519	145.580000
498.969238	145.320000
499.062897	144.800000
499.156616	145.360000
499.250275	145.420000
499.343994	145.180000
499.437653	145.320000
499.531372	145.660000
499.625061	146.180000
499.718781	146.400000
499.812439	147.080000
499.906158	146.960000
499.999817	146.780000
500.093536	146.020000
500.187195	146.180000
500.280914	145.800000
500.374573	146.020000
500.468323	145.840000
500.561981	146.360000
500.655701	146.040000
500.749420	146.320000
500.843079	146.520000
500.936798	146.980000
501.030457	147.020000
501.124176	147.340000
501.217834	147.320000
501.311554	147.000000
501.405212	146.680000
501.498962	145.700000
501.592621	145.540000
501.686340	145.560000
501.779999	145.520000
501.873718	145.720000
501.967377	146.160000
502.061096	146.500000
502.154755	146.120000
502.248474	146.220000
502.342133	146.340000
502.435852	146.300000
502.529510	146.460000
502.623230	146.820000
502.716888	146.200000
502.810608	146.020000
502.904266	146.540000
502.997986	146.040000
503.091705	145.520000
503.185364	146.160000
503.279083	146.200000
503.372772	145.880000
503.466492	145.380000
503.560150	145.700000
503.653870	145.700000
503.747528	145.940000
503.841248	145.680000
503.934906	146.280000
504.028625	146.200000
504.122284	146.380000
504.216003	146.840000
504.309662	146.560000
504.403381	146.580000
504.497040	146.540000
504.590759	146.000000
504.684418	145.700000
504.778137	146.160000
504.871796	146.580000
504.965515	146.460000
505.059174	146.540000
505.152893	145.980000
505.246521	145.560000
505.340240	144.900000
505.433899	145.080000
505.527618	145.360000
505.621338	145.600000
505.714996	145.440000
505.808716	145.440000
505.902374	145.880000
505.996094	145.720000
506.089752	145.540000
506.183472	145.800000
506.277130	146.040000
506.370850	145.800000
506.464508	145.660000
506.558228	145.720000
506.651886	145.640000
506.745605	145.500000
506.839264	145.480000
506.932983	145.780000
507.026611	145.800000
507.120331	146.240000
507.213989	145.840000
507.307709	145.880000
507.401367	146.200000
507.495087	146.860000
507.588745	146.460000
507.682465	147.320000
507.776123	147.320000
507.869843	147.100000
507.963531	146.660000
508.057190	147.300000
508.150909	146.540000
508.244568	146.360000
508.338287	145.920000
508.431946	145.680000
508.525665	145.160000
508.619324	145.020000
508.713013	145.180000
508.806671	145.580000
508.900391	146.440000
508.994049	146.840000
509.087769	146.760000
509.181427	146.960000
509.275146	146.600000
509.368774	145.580000
509.462494	145.440000
509.556152	145.740000
509.649872	145.880000
509.743530	145.740000
509.837250	146.160000
509.930878	146.120000
510.024597	146.080000
510.118256	145.700000
510.211975	146.000000
510.305695	145.800000
510.399353	145.960000
510.493042	146.540000
510.586700	146.740000
510.680420	147.360000
510.774078	147.100000
510.867798	147.160000
510.961426	146.620000
511.055145	146.240000
511.148804	145.560000
511.242523	145.940000
511.336151	145.680000
511.429871	146.060000
511.523529	146.700000
511.617249	146.600000
511.710876	146.400000
511.804596	146.300000
511.898254	146.140000
511.991974	145.760000
512.085632	145.540000
512.179321	145.780000
512.272949	146.220000
512.366699	146.480000
512.460327	146.360000
512.554077	147.640000
512.647766	147.220000
512.741394	147.000000
512.835144	147.120000
512.928772	146.880000
513.022461	146.320000
513.116150	146.420000
513.209839	146.740000
513.303467	145.980000
513.397217	145.840000
513.490845	145.740000
513.584595	145.700000
513.678223	145.280000
513.771912	145.120000
513.865601	145.820000
513.959290	145.520000
514.052917	145.660000
514.146667	146.300000
514.240295	146.800000
514.333984	146.820000
514.427673	146.860000
514.521362	147.300000
514.614990	146.400000
514.708740	146.460000
514.802368	146.260000
514.896057	146.600000
514.989746	147.180000
515.083435	147.400000
515.177124	147.620000
515.270752	147.480000
515.364502	147.260000
515.458130	146.780000
515.551819	146.600000
515.645508	146.520000
515.739197	146.440000
515.832825	146.380000
515.926575	146.000000
516.020203	146.340000
516.113892	146.520000
516.207520	146.420000
516.301270	146.340000
516.394897	146.300000
516.488586	146.500000
516.582275	146.320000
516.675964	145.900000
516.769592	145.840000
516.863281	146.660000
516.956970	146.920000
517.050659	146.800000
517.144287	146.880000
517.238037	147.100000
517.331665	146.080000
517.425354	145.300000
517.519043	145.220000
517.612732	145.740000
517.706421	145.520000
517.800049	145.480000
517.893738	145.420000
517.987427	145.400000
518.081116	145.260000
518.174744	145.040000
518.268433	145.260000
518.362122	145.980000
518.455811	145.880000
518.549438	146.660000
518.643127	147.980000
518.736816	147.880000
518.830505	147.300000
518.924133	147.400000
519.017822	146.980000
519.111511	145.960000
519.205200	146.780000
519.298828	146.820000
519.392517	146.660000
519.486206	146.800000
519.579895	147.040000
519.673523	146.360000
519.767212	146.380000
519.860901	146.680000
519.954590	146.200000
520.048279	145.800000
520.141907	145.580000
520.235596	146.540000
520.329224	146.860000
520.422974	146.880000
520.516602	146.840000
520.610291	146.760000
520.703918	146.280000
520.797607	145.780000
520.891296	146.080000
520.984985	146.660000
521.078613	147.340000
521.172302	146.680000
521.265930	147.460000
521.359680	147.840000
521.453308	147.520000
521.546997	147.260000
521.640625	147.740000
521.734314	147.020000
521.827942	146.680000
521.921692	147.060000
522.015320	146.880000
522.109009	146.260000
522.202698	146.240000
522.296326	146.100000
522.390015	146.080000
522.483704	146.360000
522.577393	146.640000
522.671021	146.480000
522.764709	146.000000
522.858337	146.180000
522.952026	145.960000
523.045654	146.400000
523.139404	147.000000
523.233032	147.460000
523.326721	147.060000
523.420349	146.920000
523.514038	146.420000
523.607666	146.480000
523.701355	146.160000
523.795044	146.180000
523.888733	146.640000
523.982361	147.040000
524.076050	146.700000
524.169678	147.280000
524.263367	147.160000
524.356995	146.720000
524.450684	146.220000
524.544373	146.360000
524.638062	145.940000
524.731750	146.000000
524.825378	146.140000
524.919067	145.900000
525.012695	145.540000
525.106384	145.760000
525.200012	145.900000
525.293701	145.560000
525.387329	146.320000
525.481018	146.660000
525.574646	146.520000
525.668396	146.260000
525.762024	146.680000
525.855713	146.600000
525.949341	146.240000
526.043030	146.480000
526.136658	146.380000
526.230347	146.320000
526.323975	146.140000
526.417664	146.040000
526.511292	145.780000
526.604980	145.980000
526.698608	145.680000
526.792297	145.660000
526.885925	145.880000
526.979614	146.040000
527.073303	145.940000
527.166931	146.380000
527.260620	146.520000
527.354309	146.960000
527.447998	147.020000
527.541626	146.580000
527.635315	146.380000
527.728943	147.080000
527.822632	146.940000
527.916260	146.840000
528.009949	147.500000
528.103577	147.320000
528.197266	146.180000
528.290894	145.980000
528.384583	145.920000
528.478210	145.740000
528.571899	146.040000
528.665527	146.560000
528.759216	146.880000
528.852844	147.220000
528.946533	147.440000
529.040161	147.320000
529.133850	147.100000
529.227478	146.960000
529.321167	147.140000
529.414856	147.400000
529.508484	147.560000
529.602173	147.280000
529.695801	146.940000
529.789490	146.520000
529.883057	146.220000
529.976746	146.200000
530.070374	146.760000
530.164062	147.100000
530.257690	147.320000
530.351379	147.360000
530.445007	147.280000
530.538696	146.560000
530.632324	146.760000
530.726013	146.660000
530.819641	146.660000
530.913330	147.000000
531.006958	147.140000
531.100647	146.780000
531.194275	146.920000
531.287964	146.600000
531.381592	145.980000
531.475220	146.320000
531.568848	146.180000
531.662537	145.560000
531.756226	146.240000
531.849854	146.700000
531.943542	146.460000
532.037170	146.240000
532.130859	146.960000
532.224487	146.260000
532.318176	145.640000
532.411804	146.380000
532.505432	146.660000
532.599060	146.100000
532.692749	146.160000
532.786377	146.740000
532.880066	145.900000
532.973694	145.400000
533.067383	145.660000
533.161011	145.580000
533.254639	145.620000
533.348267	145.700000
533.441956	146.120000
533.535583	145.920000
533.629272	146.380000
533.722900	145.660000
533.816589	145.700000
533.910156	146.380000
534.003845	146.100000
534.097534	146.260000
534.191162	147.300000
534.284851	147.380000
534.378479	146.780000
534.472107	147.240000
534.565735	146.860000
534.659424	146.780000
534.753052	146.920000
534.846741	146.560000
534.940369	147.040000
535.033997	147.180000
535.127625	146.780000
535.221313	147.200000
535.314941	147.540000
535.408630	146.840000
535.502197	147.120000
535.595886	146.840000
535.689514	146.300000
535.783203	146.780000
535.876831	147.460000
535.970459	147.080000
536.064087	146.920000
536.157776	146.900000
536.251404	146.620000
536.345093	145.920000
536.438721	145.880000
536.532349	146.280000
536.626038	146.280000
536.719666	146.140000
536.813293	146.100000
536.906921	146.260000
537.000610	146.500000
537.094238	146.460000
537.187866	146.540000
537.281494	146.540000
537.375183	146.520000
537.468811	146.140000
537.562439	146.120000
537.656067	145.980000
537.749756	146.080000
537.843384	146.360000
537.937012	146.580000
538.030640	146.340000
538.124329	146.480000
538.217896	146.720000
538.311584	146.860000
538.405212	146.860000
538.498901	147.180000
538.592468	147.720000
538.686157	147.160000
538.779785	146.200000
538.873413	146.440000
538.967102	146.420000
539.060730	145.740000
539.154358	146.220000
539.247986	146.680000
539.341675	146.000000
539.435242	146.060000
539.528931	146.140000
539.622559	145.820000
539.716187	146.360000
539.809814	146.700000
539.903503	146.780000
539.997070	146.500000
540.090759	146.440000
540.184387	145.820000
540.278015	146.160000
540.371643	146.440000
540.465332	146.680000
540.558899	146.560000
540.652588	146.840000
540.746216	146.320000
540.839844	145.980000
540.933472	146.000000
541.027100	146.080000
541.120728	146.220000
541.214417	146.460000
541.308044	146.760000
541.401672	146.700000
541.495300	146.700000
541.588928	146.100000
541.682617	145.800000
541.776184	145.340000
541.869873	145.660000
541.963440	145.920000
542.057129	146.080000
542.150757	146.320000
542.244385	146.380000
542.338013	145.760000
542.431641	145.300000
542.525269	145.420000
542.618958	146.060000
542.712524	146.060000
542.806213	145.780000
542.899780	146.240000
542.993469	145.620000
543.087036	144.920000
543.180725	144.700000
543.274292	145.440000
543.367981	145.760000
543.461548	146.500000
543.555237	146.480000
543.648926	147.200000
543.742493	147.480000
543.836182	147.280000
543.929749	147.020000
544.023437	147.040000
544.117004	146.480000
544.210693	146.360000
544.304260	145.920000
544.397949	145.720000
544.491516	146.040000
544.585205	146.120000
544.678772	145.520000
544.772461	146.260000
544.866028	146.260000
544.959717	145.920000
545.053284	145.840000
545.146973	146.260000
545.240540	146.160000
545.334229	147.000000
545.427795	147.640000
545.521423	147.740000
545.615051	147.840000
545.708679	148.020000
545.802307	147.500000
545.895935	147.360000
545.989624	147.860000
546.083191	147.560000
546.176880	147.260000
546.270447	147.080000
546.364136	147.200000
546.457703	146.840000
546.551331	147.000000
546.644958	147.240000
546.738586	147.540000
546.832214	147.160000
546.925842	147.040000
547.019409	147.040000
547.113098	146.360000
547.206665	145.620000
547.300354	145.700000
547.393921	145.660000
547.487549	146.040000
547.581177	146.020000
547.674805	146.440000
547.768433	145.600000
547.862061	145.900000
547.955627	145.100000
548.049316	145.700000
548.142883	145.880000
548.236572	146.500000
548.330139	146.500000
548.423767	146.540000
548.517456	146.380000
548.611023	146.640000
548.704651	146.180000
548.798279	146.060000
548.891907	146.480000
548.985474	146.280000
549.079163	146.020000
549.172729	145.880000
549.266357	145.280000
549.359985	145.220000
549.453613	144.700000
549.547180	144.400000
549.640869	145.260000
549.734436	145.320000
549.828064	145.820000
549.921631	146.140000
550.015320	146.100000
550.108887	146.340000
550.202515	146.460000
550.296143	145.460000
550.389771	145.580000
550.483337	145.880000
550.576965	145.300000
550.670593	145.740000
550.764221	146.380000
550.857849	146.400000
550.951477	145.900000
551.045105	145.460000
551.138672	145.380000
551.232300	145.120000
551.325928	145.400000
551.419556	145.860000
551.513123	146.420000
551.606750	145.980000
551.700378	146.160000
551.794006	146.040000
551.887573	145.960000
551.981201	146.300000
552.074768	146.580000
552.168457	146.140000
552.262024	146.780000
552.355652	146.760000
552.449219	146.920000
552.542847	146.880000
552.636475	146.660000
552.730103	145.560000
552.823669	145.400000
552.917297	144.740000
553.010864	144.700000
553.104553	145.220000
553.198181	145.240000
553.291748	145.840000
553.385376	145.940000
553.478943	145.900000
553.572571	145.760000
553.666199	145.960000
553.759827	145.320000
553.853394	144.980000
553.947021	145.020000
554.040588	145.480000
554.134216	145.560000
554.227783	146.460000
554.321411	147.160000
554.415039	146.880000
554.508667	146.600000
554.602234	146.840000
554.695862	146.140000
554.789429	145.980000
554.883057	146.460000
554.976624	146.300000
555.070251	146.140000
555.163818	145.900000
555.257507	145.820000
555.351074	145.740000
555.444702	146.940000
555.538330	146.580000
555.631897	147.060000
555.725525	147.140000
555.819092	146.900000
555.912720	145.480000
556.006287	145.940000
556.099915	145.480000
556.193481	145.080000
556.287109	145.440000
556.380676	145.360000
556.474304	145.640000
556.567871	146.060000
556.661499	146.100000
556.755066	146.000000
556.848694	146.420000
556.942261	145.860000
557.035889	145.960000
557.129517	145.840000
557.223145	146.040000
557.316711	146.060000
557.410339	146.460000
557.503906	146.460000
557.597473	146.800000
557.691040	146.440000
557.784668	146.600000
557.878296	146.460000
557.971863	146.400000
558.065491	146.680000
558.159058	146.580000
558.252686	146.900000
558.346252	147.260000
558.439880	146.860000
558.533447	146.120000
558.627075	145.840000
558.720642	145.440000
558.814270	145.080000
558.907837	145.260000
559.001465	145.300000
559.095032	146.080000
559.188660	146.120000
559.282227	145.520000
559.375854	146.180000
559.469360	146.080000
559.562988	145.960000
559.656555	146.000000
559.750183	146.640000
559.843750	146.200000
559.937378	146.680000
560.030945	146.720000
560.124573	0.000000
560.218140	0.000000
560.311707	0.000000
560.405334	0.000000
560.498901	0.000000
560.592529	0.000000
560.686096	0.000000
560.779724	0.000000
560.873291	0.000000
560.966858	0.000000
561.060425	0.000000
561.154053	0.000000
561.247620	0.000000
561.341248	0.000000
561.434814	0.000000
561.528381	0.000000
561.621948	0.000000
561.715576	0.000000
561.809143	0.000000
561.902771	0.000000
561.996277	0.000000
562.089905	0.000000
562.183472	0.000000
562.277100	0.000000
