Model Number: SPM-002-B   
Serial Number: 70087108
Firmware Version: 004.15.4
Exposure Time: 100000.000000us
Data Taken on: 11-12-2020 19:39:55.386
Wavelength	Amplitude
221.570786	0.000000
221.663406	0.000000
221.756027	0.000000
221.848648	0.000000
221.941269	0.000000
222.033905	0.000000
222.126526	0.000000
222.219162	0.000000
222.311798	0.000000
222.404419	0.000000
222.497055	0.000000
222.589676	0.000000
222.682312	0.000000
222.774933	0.000000
222.867569	0.000000
222.960205	0.000000
223.052841	0.000000
223.145462	0.000000
223.238098	0.000000
223.330734	0.000000
223.423386	0.000000
223.516022	0.000000
223.608658	0.000000
223.701309	0.000000
223.793945	0.000000
223.886581	0.000000
223.979218	0.000000
224.071869	0.000000
224.164505	0.000000
224.257156	0.000000
224.349792	0.000000
224.442444	0.000000
224.535095	0.000000
224.627747	0.000000
224.720398	0.000000
224.813034	0.000000
224.905685	0.000000
224.998337	145.480000
225.090988	145.860000
225.183640	145.760000
225.276291	145.260000
225.368942	145.560000
225.461594	146.120000
225.554245	145.860000
225.646912	146.000000
225.739578	146.680000
225.832230	147.180000
225.924896	146.440000
226.017548	147.060000
226.110199	147.380000
226.202866	146.660000
226.295532	146.540000
226.388184	146.460000
226.480850	145.800000
226.573517	145.340000
226.666168	145.600000
226.758835	145.840000
226.851501	146.460000
226.944183	146.660000
227.036850	146.200000
227.129517	146.360000
227.222183	146.400000
227.314850	146.300000
227.407516	146.600000
227.500198	147.620000
227.592865	147.300000
227.685532	146.740000
227.778214	146.420000
227.870880	146.540000
227.963562	146.820000
228.056229	146.920000
228.148926	147.020000
228.241592	147.920000
228.334274	147.140000
228.426956	146.380000
228.519638	146.560000
228.612305	145.840000
228.704987	145.380000
228.797668	145.880000
228.890350	145.840000
228.983032	145.060000
229.075714	146.240000
229.168396	145.980000
229.261108	145.400000
229.353790	145.700000
229.446472	146.480000
229.539169	146.200000
229.631851	145.820000
229.724533	146.400000
229.817230	146.500000
229.909912	147.300000
230.002609	147.060000
230.095306	147.320000
230.187988	147.120000
230.280685	147.000000
230.373383	145.580000
230.466095	145.640000
230.558792	145.880000
230.651474	146.000000
230.744171	145.980000
230.836868	146.320000
230.929581	146.400000
231.022278	146.420000
231.114975	146.380000
231.207672	145.940000
231.300369	146.480000
231.393082	146.640000
231.485779	146.520000
231.578506	146.300000
231.671204	146.880000
231.763916	146.580000
231.856613	146.540000
231.949326	146.540000
232.042023	146.680000
232.134735	146.560000
232.227448	146.320000
232.320160	146.720000
232.412872	146.720000
232.505585	147.240000
232.598297	147.340000
232.691010	147.240000
232.783722	146.880000
232.876450	147.820000
232.969162	147.260000
233.061874	146.960000
233.154587	146.600000
233.247314	146.560000
233.340027	145.740000
233.432739	146.560000
233.525467	146.640000
233.618179	147.320000
233.710907	147.040000
233.803635	147.440000
233.896347	146.640000
233.989090	147.120000
234.081818	146.860000
234.174545	147.160000
234.267258	146.620000
234.359985	147.060000
234.452713	146.640000
234.545441	146.740000
234.638168	146.480000
234.730896	146.740000
234.823639	146.640000
234.916367	146.920000
235.009094	147.000000
235.101822	146.980000
235.194580	146.840000
235.287308	146.620000
235.380051	146.020000
235.472778	146.060000
235.565521	146.240000
235.658249	146.140000
235.750992	146.360000
235.843719	146.420000
235.936462	146.460000
236.029205	146.340000
236.121948	146.060000
236.214691	146.220000
236.307449	147.000000
236.400192	146.660000
236.492935	146.800000
236.585678	147.120000
236.678421	147.200000
236.771164	146.740000
236.863907	147.500000
236.956665	147.400000
237.049408	148.840000
237.142151	148.160000
237.234909	148.700000
237.327652	148.380000
237.420410	148.220000
237.513153	147.020000
237.605927	147.300000
237.698669	146.700000
237.791428	146.260000
237.884186	146.420000
237.976944	146.140000
238.069702	146.460000
238.162445	146.060000
238.255203	146.400000
238.347961	147.300000
238.440720	147.280000
238.533478	147.040000
238.626266	146.960000
238.719025	146.900000
238.811783	146.140000
238.904541	146.040000
238.997314	145.640000
239.090073	145.620000
239.182831	145.800000
239.275604	146.520000
239.368362	146.700000
239.461136	147.140000
239.553909	147.380000
239.646667	146.920000
239.739441	146.320000
239.832214	146.360000
239.925003	146.180000
240.017761	146.720000
240.110535	147.540000
240.203308	147.160000
240.296082	147.440000
240.388855	147.340000
240.481628	147.320000
240.574417	147.220000
240.667191	147.440000
240.759964	146.880000
240.852737	147.020000
240.945526	146.540000
241.038315	146.220000
241.131088	146.400000
241.223877	146.680000
241.316650	146.360000
241.409439	146.560000
241.502228	145.920000
241.595001	145.960000
241.687790	145.560000
241.780579	145.740000
241.873367	145.960000
241.966141	146.660000
242.058929	146.280000
242.151718	146.900000
242.244507	147.240000
242.337311	146.500000
242.430099	146.880000
242.522903	147.080000
242.615692	146.560000
242.708481	146.600000
242.801270	147.160000
242.894073	146.840000
242.986862	146.940000
243.079651	147.620000
243.172455	147.000000
243.265244	147.240000
243.358063	146.700000
243.450867	147.060000
243.543655	146.800000
243.636459	147.000000
243.729263	147.080000
243.822067	147.520000
243.914856	147.380000
244.007660	147.160000
244.100464	147.380000
244.193268	146.920000
244.286072	146.700000
244.378876	146.240000
244.471680	146.120000
244.564499	146.280000
244.657318	146.920000
244.750122	147.360000
244.842926	147.120000
244.935745	147.640000
245.028549	146.960000
245.121368	146.460000
245.214172	146.360000
245.306992	147.040000
245.399796	146.780000
245.492615	147.260000
245.585434	146.920000
245.678253	146.620000
245.771072	146.220000
245.863892	146.460000
245.956711	146.760000
246.049530	146.920000
246.142349	146.660000
246.235168	146.980000
246.327988	147.320000
246.420807	147.080000
246.513626	147.200000
246.606445	147.060000
246.699280	146.700000
246.792099	146.080000
246.884918	145.800000
246.977753	145.560000
247.070587	146.000000
247.163422	145.980000
247.256241	146.100000
247.349075	146.480000
247.441895	146.880000
247.534729	146.580000
247.627563	146.360000
247.720383	147.000000
247.813217	146.600000
247.906052	146.260000
247.998886	146.460000
248.091736	146.440000
248.184570	145.820000
248.277405	145.800000
248.370239	146.660000
248.463074	147.480000
248.555908	147.780000
248.648743	147.320000
248.741592	147.660000
248.834427	146.780000
248.927261	145.640000
249.020111	146.100000
249.112946	147.160000
249.205795	146.480000
249.298630	146.840000
249.391495	147.180000
249.484344	146.780000
249.577179	146.240000
249.670029	146.840000
249.762878	147.140000
249.855728	147.360000
249.948563	147.520000
250.041412	146.940000
250.134262	147.080000
250.227112	146.900000
250.319962	146.780000
250.412827	146.720000
250.505692	146.620000
250.598541	146.580000
250.691391	146.160000
250.784241	146.180000
250.877106	146.140000
250.969955	146.200000
251.062805	146.660000
251.155670	147.420000
251.248520	147.120000
251.341385	147.280000
251.434235	147.560000
251.527100	147.180000
251.619965	146.520000
251.712814	147.280000
251.805695	147.240000
251.898560	147.320000
251.991425	147.280000
252.084290	147.380000
252.177155	146.400000
252.270020	146.240000
252.362885	146.200000
252.455750	146.400000
252.548615	146.100000
252.641479	146.220000
252.734360	145.780000
252.827240	145.600000
252.920105	145.300000
253.012970	145.340000
253.105850	145.340000
253.198715	145.420000
253.291595	145.500000
253.384460	145.260000
253.477341	145.260000
253.570221	145.600000
253.663086	145.420000
253.755966	146.080000
253.848846	146.200000
253.941727	146.240000
254.034592	146.000000
254.127472	145.740000
254.220367	145.560000
254.313248	145.780000
254.406128	145.680000
254.499008	145.860000
254.591904	146.960000
254.684784	147.360000
254.777664	147.380000
254.870544	147.300000
254.963440	147.180000
255.056335	147.100000
255.149216	146.380000
255.242111	146.680000
255.334991	147.360000
255.427887	147.720000
255.520767	147.340000
255.613663	147.540000
255.706558	146.780000
255.799438	145.960000
255.892334	145.620000
255.985229	145.580000
256.078125	145.380000
256.171021	145.700000
256.263916	146.360000
256.356812	146.400000
256.449707	146.400000
256.542603	146.260000
256.635498	146.660000
256.728394	146.540000
256.821289	146.340000
256.914215	146.800000
257.007080	147.140000
257.100006	147.200000
257.192932	147.620000
257.285828	147.860000
257.378723	147.480000
257.471619	147.120000
257.564545	146.220000
257.657440	146.060000
257.750336	146.500000
257.843262	146.160000
257.936157	147.440000
258.029053	147.980000
258.121979	148.100000
258.214874	147.900000
258.307800	148.080000
258.400696	146.860000
258.493622	146.720000
258.586517	145.780000
258.679443	145.900000
258.772339	145.740000
258.865265	145.580000
258.958160	145.260000
259.051086	146.140000
259.144012	145.880000
259.236938	146.520000
259.329834	146.900000
259.422791	146.940000
259.515717	146.340000
259.608612	146.220000
259.701538	146.440000
259.794464	146.100000
259.887390	146.160000
259.980316	145.980000
260.073212	145.480000
260.166138	144.300000
260.259064	145.080000
260.351990	145.680000
260.444916	146.040000
260.537842	146.920000
260.630768	147.940000
260.723694	147.460000
260.816620	147.320000
260.909546	147.260000
261.002472	146.700000
261.095398	146.200000
261.188354	146.220000
261.281281	145.800000
261.374207	145.980000
261.467133	146.720000
261.560089	147.020000
261.653015	146.700000
261.745972	147.500000
261.838867	147.640000
261.931824	147.640000
262.024780	146.900000
262.117706	147.520000
262.210663	147.240000
262.303589	147.320000
262.396515	147.140000
262.489471	148.140000
262.582397	147.680000
262.675354	147.060000
262.768280	146.940000
262.861237	147.060000
262.954163	146.700000
263.047119	146.880000
263.140045	146.620000
263.233002	146.300000
263.325958	145.760000
263.418884	145.400000
263.511841	145.380000
263.604797	145.540000
263.697723	145.800000
263.790680	146.020000
263.883636	146.340000
263.976593	146.380000
264.069550	146.900000
264.162476	146.600000
264.255463	146.480000
264.348419	146.400000
264.441376	146.340000
264.534332	145.780000
264.627289	146.040000
264.720245	146.340000
264.813202	146.080000
264.906158	146.300000
264.999115	146.880000
265.092072	147.020000
265.185028	147.440000
265.277985	147.480000
265.370941	147.220000
265.463898	147.000000
265.556854	146.740000
265.649811	145.740000
265.742798	146.020000
265.835754	146.120000
265.928711	146.600000
266.021667	146.820000
266.114655	147.060000
266.207611	147.340000
266.300568	146.720000
266.393585	145.880000
266.486511	146.100000
266.579498	145.520000
266.672485	145.200000
266.765442	145.540000
266.858429	146.300000
266.951385	145.660000
267.044342	146.160000
267.137329	145.880000
267.230316	146.140000
267.323273	145.580000
267.416260	146.240000
267.509216	146.100000
267.602203	146.020000
267.695160	146.420000
267.788147	146.740000
267.881134	146.080000
267.974091	146.540000
268.067078	146.660000
268.160065	146.360000
268.253052	146.520000
268.346008	146.500000
268.438995	146.040000
268.531982	146.100000
268.624969	145.680000
268.717987	145.600000
268.810944	145.780000
268.903961	146.020000
268.996948	146.080000
269.089905	146.760000
269.182892	146.560000
269.275879	146.880000
269.368866	146.460000
269.461853	146.500000
269.554871	146.060000
269.647858	146.160000
269.740845	146.320000
269.833832	146.860000
269.926819	146.900000
270.019806	146.940000
270.112793	146.500000
270.205811	146.220000
270.298798	145.860000
270.391785	146.320000
270.484772	146.180000
270.577789	146.520000
270.670776	146.420000
270.763763	146.440000
270.856750	146.320000
270.949768	146.240000
271.042786	146.200000
271.135773	146.320000
271.228790	146.740000
271.321808	146.140000
271.414795	145.560000
271.507782	145.320000
271.600800	144.720000
271.693817	144.600000
271.786804	145.260000
271.879822	146.040000
271.972809	145.980000
272.065826	146.860000
272.158844	146.500000
272.251831	146.940000
272.344849	147.000000
272.437866	146.880000
272.530853	146.580000
272.623871	147.000000
272.716888	145.860000
272.809906	145.960000
272.902893	146.220000
272.995911	145.440000
273.088928	145.580000
273.181946	145.840000
273.274963	145.460000
273.367981	145.280000
273.460999	145.820000
273.554047	146.040000
273.647003	146.660000
273.740051	146.760000
273.833069	147.180000
273.926086	147.300000
274.019135	146.840000
274.112152	146.480000
274.205170	146.500000
274.298187	146.940000
274.391205	146.360000
274.484222	146.360000
274.577240	146.120000
274.670258	145.980000
274.763306	145.520000
274.856323	146.340000
274.949341	146.300000
275.042358	146.680000
275.135406	146.680000
275.228424	146.560000
275.321442	146.520000
275.414490	146.380000
275.507507	146.860000
275.600525	147.260000
275.693573	147.080000
275.786591	146.620000
275.879669	146.840000
275.972656	145.820000
276.065735	145.580000
276.158752	145.940000
276.251801	146.880000
276.344818	147.000000
276.437866	147.460000
276.530884	147.520000
276.623932	146.820000
276.716980	146.620000
276.809998	146.580000
276.903046	146.220000
276.996094	146.860000
277.089111	147.800000
277.182159	148.020000
277.275208	147.460000
277.368256	147.420000
277.461304	147.160000
277.554321	146.280000
277.647369	145.940000
277.740417	146.240000
277.833466	146.300000
277.926514	145.900000
278.019562	146.920000
278.112610	146.260000
278.205688	146.500000
278.298706	146.700000
278.391785	146.520000
278.484833	145.620000
278.577881	145.600000
278.670929	145.720000
278.763977	145.700000
278.857025	146.060000
278.950073	146.300000
279.043121	146.240000
279.136169	146.060000
279.229248	145.940000
279.322296	145.740000
279.415344	145.640000
279.508392	145.980000
279.601440	146.040000
279.694519	146.240000
279.787567	146.100000
279.880615	145.820000
279.973694	145.940000
280.066742	145.820000
280.159790	145.740000
280.252869	145.740000
280.345917	146.140000
280.438995	145.880000
280.532074	145.940000
280.625122	146.160000
280.718201	147.120000
280.811279	147.100000
280.904327	147.080000
280.997406	147.140000
281.090454	146.940000
281.183533	146.000000
281.276581	145.860000
281.369659	145.360000
281.462738	145.300000
281.555786	145.520000
281.648865	145.680000
281.741943	146.060000
281.835022	147.100000
281.928070	146.940000
282.021149	146.500000
282.114227	146.440000
282.207306	146.120000
282.300385	146.180000
282.393433	146.120000
282.486511	146.360000
282.579590	146.760000
282.672668	147.120000
282.765747	146.360000
282.858856	146.220000
282.951904	146.320000
283.045013	146.380000
283.138062	146.560000
283.231171	147.180000
283.324249	147.640000
283.417328	147.620000
283.510406	147.240000
283.603485	146.860000
283.696564	146.740000
283.789642	146.680000
283.882751	146.740000
283.975830	147.440000
284.068909	147.400000
284.161987	147.660000
284.255066	147.400000
284.348175	147.620000
284.441254	147.120000
284.534332	147.460000
284.627441	147.420000
284.720520	147.180000
284.813599	146.720000
284.906708	146.720000
284.999786	146.220000
285.092896	145.600000
285.185974	146.680000
285.279053	146.420000
285.372192	146.380000
285.465240	147.180000
285.558380	147.240000
285.651459	146.780000
285.744568	147.560000
285.837677	147.180000
285.930756	146.980000
286.023865	147.160000
286.116943	146.680000
286.210052	146.560000
286.303162	146.580000
286.396240	146.240000
286.489349	145.800000
286.582458	146.340000
286.675568	146.040000
286.768646	145.920000
286.861755	146.380000
286.954865	147.480000
287.047974	146.900000
287.141083	146.860000
287.234161	147.140000
287.327271	146.840000
287.420380	146.320000
287.513519	146.480000
287.606598	146.460000
287.699738	146.740000
287.792816	146.360000
287.885956	146.240000
287.979034	146.320000
288.072174	146.540000
288.165283	146.040000
288.258392	146.480000
288.351501	146.380000
288.444611	146.360000
288.537720	146.620000
288.630859	146.700000
288.723969	146.780000
288.817078	146.820000
288.910187	146.820000
289.003296	146.080000
289.096436	145.800000
289.189545	145.240000
289.282654	144.960000
289.375763	145.320000
289.468903	145.840000
289.562012	146.060000
289.655121	146.340000
289.748260	146.720000
289.841400	146.840000
289.934509	146.660000
290.027649	147.140000
290.120728	147.000000
290.213898	146.660000
290.306976	146.620000
290.400146	146.800000
290.493256	146.200000
290.586395	146.460000
290.679535	147.100000
290.772644	146.660000
290.865784	145.780000
290.958893	146.060000
291.052032	145.780000
291.145172	145.620000
291.238281	145.320000
291.331421	145.900000
291.424561	146.400000
291.517670	146.180000
291.610809	146.280000
291.703949	146.520000
291.797089	146.540000
291.890228	145.720000
291.983337	145.980000
292.076477	145.580000
292.169617	146.060000
292.262756	146.180000
292.355927	146.360000
292.449036	146.000000
292.542206	146.200000
292.635315	145.700000
292.728485	145.800000
292.821625	145.720000
292.914764	147.020000
293.007904	146.840000
293.101044	146.740000
293.194183	146.440000
293.287323	146.480000
293.380463	145.700000
293.473602	145.820000
293.566742	146.340000
293.659882	147.080000
293.753021	147.300000
293.846191	147.180000
293.939331	147.120000
294.032471	146.780000
294.125610	146.180000
294.218781	146.580000
294.311920	146.880000
294.405060	146.980000
294.498230	146.920000
294.591370	147.140000
294.684540	146.320000
294.777679	146.000000
294.870850	146.020000
294.963959	146.020000
295.057159	145.640000
295.150299	146.180000
295.243469	146.020000
295.336609	145.620000
295.429779	145.880000
295.522919	146.140000
295.616089	146.260000
295.709229	147.100000
295.802399	147.240000
295.895569	146.920000
295.988708	146.900000
296.081879	146.780000
296.175018	145.880000
296.268188	145.800000
296.361359	146.120000
296.454529	146.300000
296.547668	146.160000
296.640839	146.460000
296.734009	146.300000
296.827179	146.460000
296.920319	146.600000
297.013519	146.380000
297.106659	146.240000
297.199860	146.500000
297.292999	146.420000
297.386200	145.900000
297.479309	146.040000
297.572510	146.300000
297.665680	145.960000
297.758850	145.780000
297.852020	145.780000
297.945190	145.680000
298.038361	145.520000
298.131531	146.600000
298.224701	146.600000
298.317871	146.640000
298.411072	146.440000
298.504242	146.160000
298.597412	145.440000
298.690582	145.640000
298.783752	145.940000
298.876923	146.440000
298.970093	146.840000
299.063293	146.940000
299.156464	146.940000
299.249634	146.900000
299.342834	146.920000
299.436005	147.300000
299.529205	147.180000
299.622345	147.480000
299.715576	146.660000
299.808716	146.280000
299.901917	145.740000
299.995117	146.040000
300.088287	145.840000
300.181488	146.040000
300.274658	145.980000
300.367828	145.980000
300.461029	145.920000
300.554199	146.080000
300.647400	146.480000
300.740601	147.120000
300.833771	146.980000
300.926971	147.360000
301.020142	146.820000
301.113342	146.540000
301.206512	146.280000
301.299713	146.640000
301.392914	146.500000
301.486084	147.020000
301.579285	147.060000
301.672516	147.440000
301.765686	147.160000
301.858887	147.000000
301.952057	146.520000
302.045288	146.800000
302.138458	146.520000
302.231659	146.500000
302.324860	146.220000
302.418060	146.280000
302.511261	146.040000
302.604462	146.100000
302.697662	146.080000
302.790863	145.920000
302.884064	145.500000
302.977264	145.420000
303.070465	145.660000
303.163666	146.240000
303.256866	146.620000
303.350067	146.720000
303.443268	146.780000
303.536469	146.640000
303.629669	146.000000
303.722870	146.060000
303.816071	145.900000
303.909271	146.340000
304.002472	145.620000
304.095673	145.620000
304.188934	144.900000
304.282104	146.180000
304.375336	145.720000
304.468506	145.980000
304.561768	145.960000
304.654968	146.760000
304.748169	145.840000
304.841370	145.960000
304.934601	146.320000
305.027802	146.180000
305.121002	145.860000
305.214233	145.780000
305.307434	145.820000
305.400665	146.280000
305.493866	146.220000
305.587097	146.400000
305.680298	146.320000
305.773499	146.580000
305.866730	145.920000
305.959930	146.600000
306.053162	146.720000
306.146393	146.720000
306.239594	145.860000
306.332825	146.040000
306.426025	146.100000
306.519287	145.840000
306.612488	145.860000
306.705719	146.260000
306.798920	146.360000
306.892181	145.700000
306.985352	145.280000
307.078613	145.280000
307.171844	145.560000
307.265045	145.120000
307.358276	144.960000
307.451508	145.520000
307.544739	146.240000
307.637970	146.220000
307.731201	145.980000
307.824402	146.780000
307.917633	147.060000
308.010864	147.220000
308.104095	147.280000
308.197327	147.600000
308.290558	147.320000
308.383789	146.580000
308.477020	145.660000
308.570251	145.080000
308.663483	144.580000
308.756714	144.360000
308.849976	144.620000
308.943176	145.280000
309.036438	145.260000
309.129639	145.320000
309.222900	145.560000
309.316101	145.660000
309.409393	145.060000
309.502625	145.100000
309.595856	145.500000
309.689087	145.620000
309.782318	145.420000
309.875580	145.520000
309.968811	145.620000
310.062042	145.340000
310.155273	145.240000
310.248535	145.700000
310.341766	145.660000
310.434998	145.580000
310.528259	145.780000
310.621490	145.800000
310.714722	145.260000
310.807983	145.720000
310.901215	145.900000
310.994476	146.180000
311.087708	146.020000
311.181000	146.340000
311.274200	145.480000
311.367462	145.540000
311.460693	145.120000
311.553986	145.880000
311.647186	145.980000
311.740479	146.700000
311.833710	146.500000
311.926971	146.720000
312.020203	145.960000
312.113464	145.700000
312.206726	145.120000
312.299957	145.440000
312.393219	145.940000
312.486481	145.920000
312.579712	145.940000
312.672974	146.240000
312.766235	146.440000
312.859497	146.020000
312.952759	145.900000
313.045990	146.640000
313.139252	146.340000
313.232513	146.240000
313.325775	146.420000
313.419037	146.540000
313.512299	145.560000
313.605530	146.040000
313.698822	145.780000
313.792053	145.620000
313.885345	145.280000
313.978577	145.560000
314.071869	145.240000
314.165131	145.600000
314.258392	145.960000
314.351654	146.500000
314.444916	146.280000
314.538177	147.100000
314.631439	147.360000
314.724701	146.720000
314.817993	146.340000
314.911255	146.560000
315.004517	145.640000
315.097778	145.140000
315.191040	145.700000
315.284302	146.120000
315.377594	145.880000
315.470856	146.140000
315.564117	145.700000
315.657379	145.260000
315.750671	144.820000
315.843933	145.320000
315.937195	144.940000
316.030518	145.360000
316.123749	145.380000
316.217041	146.180000
316.310303	145.740000
316.403595	146.140000
316.496857	146.300000
316.590149	146.660000
316.683411	145.740000
316.776703	145.680000
316.869965	145.540000
316.963257	145.380000
317.056519	144.620000
317.149811	144.760000
317.243073	144.980000
317.336365	145.140000
317.429626	145.320000
317.522919	145.980000
317.616180	146.020000
317.709473	145.880000
317.802765	145.840000
317.896027	145.720000
317.989319	146.060000
318.082611	146.180000
318.175873	146.340000
318.269165	146.480000
318.362488	146.600000
318.455750	146.160000
318.549042	146.400000
318.642303	146.580000
318.735626	146.300000
318.828888	146.400000
318.922211	146.000000
319.015472	146.540000
319.108765	146.000000
319.202057	145.620000
319.295349	145.740000
319.388641	145.760000
319.481934	145.180000
319.575226	145.320000
319.668518	145.920000
319.761810	145.880000
319.855103	146.260000
319.948395	146.340000
320.041687	146.440000
320.134979	146.360000
320.228271	146.180000
320.321564	145.840000
320.414856	145.480000
320.508148	145.080000
320.601440	145.020000
320.694763	144.800000
320.788025	145.740000
320.881348	146.060000
320.974640	146.100000
321.067963	145.840000
321.161224	145.660000
321.254547	144.720000
321.347839	145.160000
321.441162	145.300000
321.534454	145.540000
321.627747	145.900000
321.721069	146.640000
321.814362	146.520000
321.907654	146.360000
322.000946	146.280000
322.094269	146.840000
322.187561	146.320000
322.280884	146.340000
322.374176	146.660000
322.467468	147.040000
322.560791	146.660000
322.654083	146.960000
322.747406	146.880000
322.840698	147.220000
322.934021	147.480000
323.027344	147.660000
323.120636	147.580000
323.213959	147.120000
323.307251	146.220000
323.400574	145.720000
323.493866	145.180000
323.587219	145.300000
323.680511	145.760000
323.773834	146.380000
323.867157	146.540000
323.960449	146.820000
324.053772	146.420000
324.147095	146.160000
324.240387	146.560000
324.333710	146.160000
324.427032	146.360000
324.520355	146.680000
324.613647	146.700000
324.706970	146.240000
324.800293	146.520000
324.893616	146.640000
324.986938	146.700000
325.080231	146.360000
325.173553	146.980000
325.266876	147.480000
325.360199	147.220000
325.453522	146.460000
325.546875	146.400000
325.640167	146.280000
325.733521	146.520000
325.826813	146.720000
325.920166	147.180000
326.013489	147.260000
326.106812	146.480000
326.200134	145.800000
326.293457	145.160000
326.386780	145.160000
326.480103	145.140000
326.573425	145.180000
326.666748	145.340000
326.760071	145.840000
326.853424	145.800000
326.946747	145.900000
327.040070	146.900000
327.133392	146.540000
327.226715	145.920000
327.320068	145.560000
327.413391	146.280000
327.506714	145.040000
327.600037	145.140000
327.693390	145.340000
327.786713	145.780000
327.880066	145.280000
327.973358	145.920000
328.066742	146.260000
328.160034	146.540000
328.253418	146.820000
328.346710	146.660000
328.440063	146.420000
328.533417	146.000000
328.626740	146.200000
328.720093	145.900000
328.813416	145.860000
328.906769	145.740000
329.000092	146.080000
329.093445	145.940000
329.186768	145.700000
329.280121	146.300000
329.373444	146.800000
329.466797	146.460000
329.560120	146.500000
329.653473	146.660000
329.746796	146.220000
329.840149	145.860000
329.933502	146.020000
330.026825	145.820000
330.120178	145.760000
330.213562	145.620000
330.306854	145.640000
330.400238	145.720000
330.493561	145.600000
330.586945	145.920000
330.680237	146.000000
330.773621	146.100000
330.866974	145.820000
330.960327	146.120000
331.053680	145.760000
331.147003	146.120000
331.240356	146.280000
331.333710	146.560000
331.427063	146.280000
331.520416	146.420000
331.613770	146.000000
331.707123	145.960000
331.800476	146.020000
331.893829	146.600000
331.987152	146.600000
332.080505	146.540000
332.173859	146.380000
332.267212	145.620000
332.360565	144.940000
332.453918	145.020000
332.547333	144.940000
332.640656	145.260000
332.734039	145.700000
332.827362	146.020000
332.920746	146.120000
333.014069	146.640000
333.107452	146.620000
333.200806	146.820000
333.294159	146.840000
333.387543	146.380000
333.480896	145.780000
333.574249	145.640000
333.667603	145.280000
333.760956	145.320000
333.854340	145.460000
333.947693	145.980000
334.041046	145.860000
334.134430	146.200000
334.227783	145.640000
334.321136	145.780000
334.414520	145.140000
334.507874	145.300000
334.601227	145.240000
334.694611	145.380000
334.787964	145.320000
334.881348	145.900000
334.974701	145.760000
335.068085	145.260000
335.161438	145.640000
335.254822	145.460000
335.348175	145.200000
335.441559	144.820000
335.534943	145.960000
335.628296	145.820000
335.721680	145.960000
335.815033	146.220000
335.908417	146.780000
336.001770	146.380000
336.095154	146.320000
336.188538	146.080000
336.281891	145.720000
336.375275	145.040000
336.468658	144.660000
336.562012	144.900000
336.655396	145.400000
336.748779	145.760000
336.842133	146.280000
336.935516	146.540000
337.028900	146.200000
337.122284	146.160000
337.215637	146.080000
337.309021	146.220000
337.402435	146.040000
337.495789	146.040000
337.589203	145.740000
337.682526	145.800000
337.775940	145.660000
337.869324	145.780000
337.962708	145.460000
338.056091	146.060000
338.149475	145.640000
338.242859	145.900000
338.336243	146.000000
338.429626	146.560000
338.523010	146.200000
338.616394	145.960000
338.709778	145.580000
338.803162	145.680000
338.896545	145.420000
338.989929	145.160000
339.083313	145.660000
339.176697	145.720000
339.270081	145.460000
339.363464	145.780000
339.456848	146.220000
339.550232	145.680000
339.643616	145.740000
339.737030	145.700000
339.830383	145.560000
339.923828	145.440000
340.017181	146.080000
340.110596	146.280000
340.203949	146.380000
340.297363	145.960000
340.390778	145.880000
340.484161	145.720000
340.577545	145.480000
340.670959	145.540000
340.764343	145.860000
340.857727	146.120000
340.951111	145.520000
341.044525	145.940000
341.137909	145.520000
341.231293	145.380000
341.324707	144.900000
341.418091	146.000000
341.511505	145.500000
341.604889	145.700000
341.698303	145.800000
341.791687	146.020000
341.885071	145.260000
341.978485	145.280000
342.071899	145.560000
342.165283	146.180000
342.258698	146.280000
342.352081	147.080000
342.445496	147.680000
342.538879	147.340000
342.632324	146.700000
342.725708	146.520000
342.819122	145.720000
342.912506	145.360000
343.005920	145.340000
343.099335	146.440000
343.192719	146.220000
343.286133	146.560000
343.379547	146.560000
343.472931	146.720000
343.566345	145.620000
343.659760	146.020000
343.753143	145.760000
343.846558	145.680000
343.939972	145.600000
344.033386	145.980000
344.126770	145.560000
344.220184	145.680000
344.313599	146.180000
344.407043	146.340000
344.500427	145.740000
344.593872	146.600000
344.687225	146.540000
344.780670	145.660000
344.874054	145.500000
344.967499	146.340000
345.060913	146.180000
345.154327	146.180000
345.247742	146.260000
345.341156	146.000000
345.434570	145.380000
345.527985	144.980000
345.621399	145.040000
345.714813	145.260000
345.808228	145.620000
345.901642	145.420000
345.995056	145.080000
346.088470	145.200000
346.181885	145.120000
346.275299	144.820000
346.368713	144.960000
346.462128	144.920000
346.555573	144.660000
346.648987	144.900000
346.742401	144.900000
346.835815	145.340000
346.929260	145.360000
347.022644	145.660000
347.116119	145.760000
347.209503	146.060000
347.302948	146.620000
347.396362	147.440000
347.489807	147.600000
347.583221	148.100000
347.676636	147.820000
347.770050	146.700000
347.863495	145.940000
347.956909	145.560000
348.050323	144.920000
348.143768	145.000000
348.237183	145.100000
348.330597	145.720000
348.424042	146.140000
348.517456	146.300000
348.610901	146.480000
348.704315	146.680000
348.797760	145.980000
348.891174	145.100000
348.984619	144.900000
349.078033	145.400000
349.171448	145.880000
349.264923	145.780000
349.358337	146.120000
349.451782	146.140000
349.545197	145.460000
349.638641	144.600000
349.732086	144.520000
349.825500	144.980000
349.918945	144.580000
350.012390	145.000000
350.105804	145.560000
350.199249	145.840000
350.292664	146.160000
350.386108	146.420000
350.479553	146.600000
350.572968	146.340000
350.666412	146.660000
350.759857	146.380000
350.853302	146.620000
350.946716	146.260000
351.040161	146.600000
351.133606	146.560000
351.227081	146.200000
351.320465	146.840000
351.413940	146.940000
351.507355	147.000000
351.600830	147.120000
351.694244	146.880000
351.787720	146.420000
351.881104	146.280000
351.974579	145.960000
352.067993	146.620000
352.161469	146.840000
352.254883	146.040000
352.348358	145.960000
352.441803	145.940000
352.535248	145.300000
352.628693	145.760000
352.722137	146.200000
352.815582	146.360000
352.909027	146.780000
353.002472	146.500000
353.095917	146.160000
353.189362	146.540000
353.282806	146.500000
353.376251	146.340000
353.469696	146.320000
353.563141	146.800000
353.656586	146.360000
353.750061	146.040000
353.843475	145.880000
353.936981	146.320000
354.030396	145.660000
354.123871	145.840000
354.217285	146.720000
354.310760	146.780000
354.404175	146.640000
354.497681	146.280000
354.591095	146.340000
354.684570	145.520000
354.777985	145.440000
354.871490	144.980000
354.964935	145.860000
355.058380	145.840000
355.151855	145.800000
355.245300	146.060000
355.338745	146.520000
355.432220	146.500000
355.525665	146.240000
355.619110	146.660000
355.712585	146.520000
355.806030	146.480000
355.899475	145.800000
355.992950	146.260000
356.086426	146.600000
356.179871	146.560000
356.273346	146.220000
356.366791	146.860000
356.460266	146.760000
356.553711	146.160000
356.647186	146.340000
356.740631	146.500000
356.834106	146.200000
356.927551	146.180000
357.021027	146.160000
357.114471	145.960000
357.207947	146.040000
357.301422	146.300000
357.394867	146.440000
357.488342	146.700000
357.581818	146.480000
357.675262	146.840000
357.768738	146.560000
357.862213	145.800000
357.955658	145.480000
358.049133	145.340000
358.142609	145.180000
358.236053	145.020000
358.329529	145.280000
358.423035	146.060000
358.516449	145.840000
358.609955	146.000000
358.703400	146.840000
358.796906	147.220000
358.890350	146.480000
358.983826	147.240000
359.077271	146.500000
359.170776	146.080000
359.264221	145.460000
359.357727	145.640000
359.451172	145.980000
359.544647	146.340000
359.638123	145.900000
359.731598	146.620000
359.825073	147.000000
359.918549	146.420000
360.012024	146.660000
360.105499	146.220000
360.198975	146.140000
360.292450	145.960000
360.385925	145.900000
360.479401	145.240000
360.572876	145.980000
360.666351	146.160000
360.759857	146.040000
360.853302	146.200000
360.946808	146.140000
361.040253	145.940000
361.133759	145.100000
361.227203	144.860000
361.320709	144.540000
361.414154	145.060000
361.507660	145.400000
361.601105	146.160000
361.694641	147.060000
361.788086	146.940000
361.881592	147.260000
361.975067	146.800000
362.068542	146.940000
362.162018	146.440000
362.255524	146.320000
362.348999	146.040000
362.442474	146.580000
362.535950	145.860000
362.629456	145.760000
362.722931	146.020000
362.816406	146.460000
362.909882	146.600000
363.003387	146.640000
363.096863	146.840000
363.190338	146.720000
363.283875	146.680000
363.377319	146.260000
363.470825	146.900000
363.564301	146.540000
363.657806	146.900000
363.751282	146.100000
363.844788	146.700000
363.938232	146.140000
364.031769	146.740000
364.125214	146.780000
364.218750	147.520000
364.312225	146.580000
364.405731	146.920000
364.499207	146.280000
364.592712	146.240000
364.686188	146.020000
364.779694	146.460000
364.873169	146.120000
364.966675	145.900000
365.060150	145.760000
365.153656	146.000000
365.247131	145.960000
365.340637	146.200000
365.434143	146.960000
365.527618	147.300000
365.621155	146.460000
365.714600	146.640000
365.808136	146.900000
365.901611	146.180000
365.995117	145.860000
366.088593	146.100000
366.182129	145.920000
366.275604	145.740000
366.369110	145.720000
366.462585	145.620000
366.556122	146.240000
366.649567	146.140000
366.743103	146.280000
366.836609	146.500000
366.930115	146.660000
367.023590	146.440000
367.117096	146.380000
367.210602	146.080000
367.304108	146.360000
367.397614	147.000000
367.491119	147.240000
367.584595	147.460000
367.678101	147.660000
367.771606	147.200000
367.865112	146.440000
367.958649	145.680000
368.052124	145.260000
368.145660	145.260000
368.239136	146.120000
368.332672	146.400000
368.426147	146.820000
368.519684	146.840000
368.613159	146.860000
368.706696	146.160000
368.800171	146.040000
368.893707	145.720000
368.987183	145.900000
369.080719	146.260000
369.174225	146.260000
369.267731	146.460000
369.361237	146.680000
369.454742	146.720000
369.548248	146.740000
369.641754	146.680000
369.735260	146.340000
369.828766	145.660000
369.922272	146.280000
370.015808	145.740000
370.109314	145.420000
370.202820	145.320000
370.296356	146.500000
370.389832	145.840000
370.483368	145.580000
370.576874	145.680000
370.670410	146.020000
370.763885	145.020000
370.857422	145.100000
370.950928	145.120000
371.044464	145.900000
371.137939	145.940000
371.231476	146.700000
371.324982	147.140000
371.418518	147.560000
371.512024	147.260000
371.605560	147.100000
371.699066	146.920000
371.792572	146.440000
371.886108	146.960000
371.979614	146.700000
372.073120	147.060000
372.166656	146.760000
372.260162	147.260000
372.353668	146.680000
372.447205	146.620000
372.540710	146.320000
372.634277	146.480000
372.727753	146.340000
372.821320	146.220000
372.914795	146.400000
373.008362	146.380000
373.101837	146.580000
373.195404	146.420000
373.288879	146.400000
373.382446	147.060000
373.475922	147.000000
373.569489	147.400000
373.662964	147.660000
373.756531	147.760000
373.850037	147.580000
373.943573	147.720000
374.037109	146.940000
374.130615	147.160000
374.224152	147.360000
374.317657	146.900000
374.411194	147.580000
374.504730	147.600000
374.598236	147.220000
374.691772	147.000000
374.785309	147.460000
374.878815	146.300000
374.972351	146.680000
375.065887	146.520000
375.159454	147.100000
375.252930	146.640000
375.346497	147.200000
375.440002	147.600000
375.533569	147.540000
375.627045	146.740000
375.720612	146.860000
375.814117	147.140000
375.907684	146.520000
376.001160	146.460000
376.094727	146.240000
376.188232	146.660000
376.281799	146.620000
376.375336	146.660000
376.468872	147.440000
376.562408	147.880000
376.655914	147.540000
376.749451	147.260000
376.842987	147.180000
376.936523	146.680000
377.030060	146.540000
377.123596	146.580000
377.217133	146.260000
377.310669	146.560000
377.404205	146.620000
377.497772	146.960000
377.591278	146.460000
377.684845	147.320000
377.778351	147.300000
377.871918	147.240000
377.965424	146.640000
378.058990	146.860000
378.152496	146.380000
378.246063	146.360000
378.339569	146.600000
378.433136	146.740000
378.526642	147.060000
378.620209	146.880000
378.713745	146.820000
378.807312	147.160000
378.900848	147.160000
378.994385	147.380000
379.087921	146.780000
379.181458	146.860000
379.274994	145.640000
379.368530	145.540000
379.462097	145.460000
379.555634	146.220000
379.649170	145.580000
379.742706	145.860000
379.836273	146.400000
379.929810	145.840000
380.023376	145.560000
380.116882	146.060000
380.210449	146.480000
380.303986	145.740000
380.397552	145.560000
380.491058	145.700000
380.584656	145.380000
380.678162	145.200000
380.771729	145.380000
380.865265	146.180000
380.958832	146.060000
381.052368	146.300000
381.145935	146.540000
381.239471	147.160000
381.333008	147.100000
381.426575	147.220000
381.520111	147.420000
381.613647	147.260000
381.707214	146.720000
381.800751	145.860000
381.894318	145.980000
381.987854	145.720000
382.081421	145.620000
382.174988	145.880000
382.268524	145.980000
382.362091	145.880000
382.455627	146.640000
382.549194	146.600000
382.642731	145.800000
382.736298	145.820000
382.829834	145.720000
382.923401	145.620000
383.016937	145.760000
383.110504	146.420000
383.204041	146.560000
383.297607	146.860000
383.391174	146.120000
383.484741	147.020000
383.578278	146.460000
383.671844	146.340000
383.765411	145.500000
383.858948	146.000000
383.952515	145.000000
384.046051	146.060000
384.139618	146.480000
384.233185	147.280000
384.326721	146.960000
384.420288	147.620000
384.513855	147.140000
384.607422	147.480000
384.700989	147.480000
384.794525	147.440000
384.888123	147.200000
384.981659	147.340000
385.075226	146.560000
385.168762	146.140000
385.262360	146.300000
385.355896	145.420000
385.449463	145.360000
385.542999	145.320000
385.636597	145.860000
385.730164	145.840000
385.823730	145.960000
385.917267	145.620000
386.010834	145.880000
386.104401	145.780000
386.197968	145.780000
386.291534	146.380000
386.385101	146.600000
386.478668	146.880000
386.572235	146.680000
386.665802	146.200000
386.759338	145.640000
386.852905	145.340000
386.946472	145.020000
387.040070	145.200000
387.133606	145.660000
387.227203	145.620000
387.320740	146.100000
387.414337	145.960000
387.507874	145.760000
387.601471	145.960000
387.695007	145.960000
387.788605	145.800000
387.882141	145.960000
387.975739	145.700000
388.069275	145.360000
388.162872	145.620000
388.256439	145.540000
388.350037	145.620000
388.443604	145.820000
388.537170	145.780000
388.630737	146.280000
388.724304	146.400000
388.817871	146.240000
388.911438	146.440000
389.005005	146.800000
389.098602	146.740000
389.192169	146.080000
389.285736	146.700000
389.379333	146.560000
389.472870	146.080000
389.566467	145.980000
389.660034	146.480000
389.753632	145.780000
389.847168	146.100000
389.940765	146.240000
390.034332	146.260000
390.127930	145.780000
390.221466	145.940000
390.315063	145.280000
390.408630	144.680000
390.502228	143.700000
390.595795	144.100000
390.689362	144.180000
390.782959	144.640000
390.876526	145.580000
390.970093	146.300000
391.063690	146.840000
391.157257	146.840000
391.250824	147.140000
391.344421	146.660000
391.437988	146.760000
391.531555	146.680000
391.625153	146.880000
391.718750	147.080000
391.812317	146.900000
391.905914	146.360000
391.999481	146.360000
392.093079	146.260000
392.186615	146.220000
392.280243	146.500000
392.373779	146.920000
392.467407	147.260000
392.560944	146.900000
392.654572	146.320000
392.748108	146.200000
392.841736	146.140000
392.935303	145.500000
393.028900	145.660000
393.122467	145.680000
393.216064	145.660000
393.309631	145.320000
393.403229	145.040000
393.496796	145.100000
393.590393	144.600000
393.683990	144.940000
393.777557	145.720000
393.871155	146.140000
393.964722	146.600000
394.058350	147.200000
394.151917	146.780000
394.245514	146.520000
394.339081	146.880000
394.432678	146.840000
394.526245	146.560000
394.619873	146.520000
394.713409	146.460000
394.807037	146.040000
394.900604	145.920000
394.994202	146.060000
395.087769	146.500000
395.181396	146.280000
395.274994	146.960000
395.368561	146.380000
395.462158	146.600000
395.555756	146.220000
395.649353	146.740000
395.742920	146.300000
395.836517	147.280000
395.930115	146.540000
396.023712	146.860000
396.117279	146.700000
396.210876	146.480000
396.304474	146.160000
396.398071	146.920000
396.491669	147.340000
396.585266	147.240000
396.678833	146.920000
396.772461	146.880000
396.866028	146.460000
396.959656	146.340000
397.053223	146.600000
397.146851	146.760000
397.240417	147.360000
397.334015	148.640000
397.427582	149.180000
397.521210	150.120000
397.614807	151.940000
397.708405	153.540000
397.802002	155.560000
397.895599	159.020000
397.989197	162.720000
398.082794	166.980000
398.176392	172.720000
398.269989	179.320000
398.363586	187.400000
398.457184	197.540000
398.550781	210.100000
398.644379	223.420000
398.737976	239.160000
398.831573	256.020000
398.925201	273.120000
399.018768	290.480000
399.112396	308.520000
399.205963	326.300000
399.299591	343.840000
399.393158	360.940000
399.486786	378.900000
399.580353	396.100000
399.673981	412.660000
399.767578	430.800000
399.861206	449.440000
399.954773	466.560000
400.048401	479.060000
400.141998	487.660000
400.235596	489.440000
400.329193	484.940000
400.422791	474.640000
400.516418	461.940000
400.610016	447.640000
400.703613	431.920000
400.797211	414.280000
400.890808	396.240000
400.984436	378.540000
401.078033	358.380000
401.171631	338.760000
401.265259	320.100000
401.358826	301.620000
401.452484	282.600000
401.546051	265.820000
401.639679	247.520000
401.733246	230.880000
401.826904	214.800000
401.920471	200.600000
402.014099	188.240000
402.107697	178.820000
402.201324	171.060000
402.294891	165.380000
402.388550	161.080000
402.482147	157.380000
402.575745	154.280000
402.669373	152.020000
402.762970	150.060000
402.856567	149.060000
402.950195	148.400000
403.043793	148.060000
403.137390	148.280000
403.231018	147.800000
403.324615	148.260000
403.418243	147.780000
403.511841	148.300000
403.605469	147.760000
403.699066	148.040000
403.792694	147.640000
403.886292	147.820000
403.979919	147.320000
404.073517	147.040000
404.167145	147.180000
404.260712	147.100000
404.354370	147.080000
404.447937	147.260000
404.541595	147.200000
404.635162	147.400000
404.728821	147.740000
404.822418	147.240000
404.916046	146.760000
405.009644	147.380000
405.103271	147.180000
405.196899	146.780000
405.290497	146.920000
405.384125	147.280000
405.477722	146.340000
405.571350	145.900000
405.664948	145.920000
405.758575	146.100000
405.852203	145.420000
405.945801	146.060000
406.039429	146.160000
406.133057	145.860000
406.226654	145.780000
406.320312	146.420000
406.413879	146.400000
406.507538	146.760000
406.601135	146.480000
406.694763	146.880000
406.788361	146.340000
406.882019	146.080000
406.975586	146.360000
407.069244	147.160000
407.162872	147.080000
407.256470	147.480000
407.350098	147.180000
407.443726	146.740000
407.537323	146.280000
407.630951	146.560000
407.724579	146.100000
407.818207	146.780000
407.911804	146.580000
408.005432	146.360000
408.099060	146.340000
408.192688	146.900000
408.286285	146.420000
408.379913	146.220000
408.473572	146.540000
408.567169	145.820000
408.660828	145.580000
408.754395	145.560000
408.848053	145.620000
408.941650	145.740000
409.035309	145.560000
409.128906	145.840000
409.222565	146.020000
409.316132	146.000000
409.409790	145.580000
409.503387	145.900000
409.597046	145.680000
409.690674	146.000000
409.784302	146.480000
409.877930	146.520000
409.971558	146.940000
410.065186	146.960000
410.158783	146.420000
410.252411	146.160000
410.346039	146.720000
410.439667	146.340000
410.533295	146.460000
410.626923	146.680000
410.720551	146.380000
410.814209	146.440000
410.907806	146.760000
411.001465	146.160000
411.095062	146.200000
411.188721	146.620000
411.282318	146.000000
411.375977	145.380000
411.469574	145.740000
411.563232	145.640000
411.656830	145.620000
411.750488	145.800000
411.844086	145.780000
411.937744	146.220000
412.031372	145.960000
412.125000	145.880000
412.218628	145.700000
412.312256	146.580000
412.405884	146.380000
412.499512	146.440000
412.593170	146.460000
412.686798	146.960000
412.780426	146.120000
412.874054	146.380000
412.967682	146.480000
413.061310	147.020000
413.154968	146.640000
413.248566	146.940000
413.342224	146.600000
413.435852	146.820000
413.529510	146.140000
413.623108	145.880000
413.716766	145.880000
413.810364	146.340000
413.904022	145.880000
413.997650	145.800000
414.091309	146.600000
414.184906	146.580000
414.278564	145.920000
414.372192	146.260000
414.465851	146.480000
414.559479	146.000000
414.653107	146.760000
414.746735	147.020000
414.840393	147.180000
414.934021	147.520000
415.027649	147.200000
415.121277	146.740000
415.214935	146.780000
415.308563	146.620000
415.402191	145.840000
415.495850	145.940000
415.589478	145.640000
415.683136	145.380000
415.776733	145.560000
415.870422	146.080000
415.964020	145.580000
416.057678	145.780000
416.151306	146.040000
416.244965	145.960000
416.338562	145.740000
416.432251	146.660000
416.525848	147.480000
416.619507	147.480000
416.713165	147.780000
416.806793	147.840000
416.900421	147.900000
416.994080	146.740000
417.087708	146.680000
417.181366	146.120000
417.274994	146.160000
417.368622	145.980000
417.462280	146.380000
417.555908	146.220000
417.649567	146.100000
417.743195	146.040000
417.836853	146.020000
417.930481	146.140000
418.024170	146.340000
418.117767	146.920000
418.211426	147.360000
418.305054	147.460000
418.398712	147.100000
418.492340	147.200000
418.585999	147.420000
418.679626	147.400000
418.773285	147.400000
418.866913	147.800000
418.960571	147.980000
419.054230	147.860000
419.147858	147.720000
419.241516	147.900000
419.335144	147.540000
419.428802	147.200000
419.522461	146.980000
419.616089	146.680000
419.709747	147.000000
419.803375	147.260000
419.897034	147.060000
419.990662	146.740000
420.084320	147.120000
420.177979	146.840000
420.271606	146.940000
420.365295	147.920000
420.458893	148.200000
420.552582	148.060000
420.646210	147.880000
420.739868	147.340000
420.833496	146.380000
420.927155	145.960000
421.020782	145.680000
421.114471	145.180000
421.208069	145.600000
421.301758	145.980000
421.395386	146.440000
421.489044	146.380000
421.582703	146.700000
421.676361	147.020000
421.769989	146.380000
421.863647	146.920000
421.957306	147.080000
422.050934	147.020000
422.144592	146.620000
422.238251	146.820000
422.331909	146.160000
422.425537	146.240000
422.519196	146.420000
422.612854	145.860000
422.706543	145.660000
422.800140	145.820000
422.893829	145.320000
422.987457	144.940000
423.081146	145.620000
423.174744	146.380000
423.268433	145.860000
423.362061	146.100000
423.455750	145.900000
423.549347	145.680000
423.643036	145.000000
423.736664	145.600000
423.830353	145.500000
423.924011	146.100000
424.017639	145.780000
424.111298	146.040000
424.204956	146.040000
424.298615	146.400000
424.392273	146.220000
424.485931	146.280000
424.579559	146.040000
424.673218	145.660000
424.766876	145.900000
424.860535	145.700000
424.954193	145.760000
425.047882	146.540000
425.141510	146.580000
425.235199	146.300000
425.328796	145.960000
425.422485	146.000000
425.516113	145.140000
425.609802	145.160000
425.703430	144.980000
425.797119	145.560000
425.890747	145.560000
425.984436	145.780000
426.078064	146.040000
426.171753	146.160000
426.265411	145.860000
426.359070	146.240000
426.452728	146.040000
426.546356	145.780000
426.640015	145.700000
426.733673	145.760000
426.827332	145.440000
426.920990	146.400000
427.014648	146.080000
427.108307	145.980000
427.201965	146.840000
427.295624	146.980000
427.389282	146.180000
427.482941	146.460000
427.576630	146.900000
427.670258	145.840000
427.763947	145.580000
427.857574	145.760000
427.951263	145.960000
428.044922	145.420000
428.138611	145.860000
428.232239	146.480000
428.325928	146.800000
428.419556	147.260000
428.513245	147.180000
428.606903	147.280000
428.700562	146.620000
428.794220	145.880000
428.887878	144.940000
428.981537	145.140000
429.075195	144.700000
429.168854	145.080000
429.262512	145.240000
429.356201	145.800000
429.449860	145.940000
429.543518	146.060000
429.637177	146.220000
429.730835	146.160000
429.824493	145.900000
429.918182	146.200000
430.011810	146.040000
430.105530	145.240000
430.199158	145.520000
430.292847	145.420000
430.386475	144.880000
430.480164	145.100000
430.573792	145.340000
430.667511	145.120000
430.761139	145.220000
430.854828	145.680000
430.948456	145.640000
431.042145	146.180000
431.135834	146.180000
431.229492	146.620000
431.323151	146.540000
431.416809	146.560000
431.510468	145.940000
431.604156	145.860000
431.697815	145.320000
431.791473	145.220000
431.885132	144.880000
431.978821	145.540000
432.072479	145.980000
432.166138	146.540000
432.259827	146.180000
432.353485	146.640000
432.447174	146.480000
432.540802	146.120000
432.634491	146.040000
432.728149	146.380000
432.821838	146.660000
432.915466	146.200000
433.009186	146.460000
433.102814	145.720000
433.196503	145.300000
433.290131	145.060000
433.383850	145.740000
433.477509	145.540000
433.571167	146.660000
433.664856	147.300000
433.758514	147.860000
433.852173	147.160000
433.945862	147.020000
434.039520	146.340000
434.133179	145.860000
434.226868	144.960000
434.320526	144.820000
434.414185	145.660000
434.507874	145.540000
434.601562	145.840000
434.695221	145.820000
434.788910	146.440000
434.882538	146.000000
434.976257	145.720000
435.069885	145.700000
435.163574	145.980000
435.257233	145.540000
435.350922	145.620000
435.444580	145.580000
435.538269	145.400000
435.631897	145.800000
435.725616	146.280000
435.819275	146.560000
435.912964	147.220000
436.006622	147.480000
436.100311	147.080000
436.193970	146.380000
436.287628	145.960000
436.381317	145.440000
436.474976	144.980000
436.568665	144.920000
436.662323	145.400000
436.756012	145.200000
436.849670	145.260000
436.943390	145.460000
437.037018	145.220000
437.130737	145.080000
437.224365	145.120000
437.318085	145.600000
437.411713	145.620000
437.505432	146.160000
437.599060	146.580000
437.692780	147.120000
437.786407	146.680000
437.880127	146.860000
437.973755	146.640000
438.067474	146.360000
438.161133	146.140000
438.254822	146.760000
438.348480	146.420000
438.442169	146.600000
438.535828	146.900000
438.629517	146.720000
438.723175	146.120000
438.816864	146.820000
438.910553	146.220000
439.004211	145.920000
439.097900	145.620000
439.191559	145.880000
439.285248	145.320000
439.378906	145.920000
439.472626	145.880000
439.566284	145.620000
439.659973	145.700000
439.753632	145.620000
439.847321	145.900000
439.940979	145.940000
440.034698	146.520000
440.128326	145.980000
440.222046	145.980000
440.315674	145.360000
440.409393	145.400000
440.503082	145.320000
440.596741	145.880000
440.690430	146.040000
440.784088	145.940000
440.877777	145.440000
440.971466	145.460000
441.065125	145.100000
441.158813	144.680000
441.252502	144.840000
441.346161	145.060000
441.439850	145.040000
441.533539	144.880000
441.627197	145.640000
441.720886	145.520000
441.814606	145.880000
441.908234	146.400000
442.001953	146.740000
442.095612	146.240000
442.189301	146.420000
442.282959	146.420000
442.376678	145.540000
442.470306	146.140000
442.564026	146.160000
442.657684	146.580000
442.751404	146.640000
442.845032	147.820000
442.938751	146.980000
443.032440	146.880000
443.126099	146.280000
443.219788	146.700000
443.313477	146.040000
443.407166	146.480000
443.500824	146.640000
443.594513	147.140000
443.688202	146.600000
443.781891	146.240000
443.875549	145.740000
443.969238	145.880000
444.062927	145.640000
444.156647	145.400000
444.250275	145.860000
444.343994	146.300000
444.437653	146.600000
444.531372	146.680000
444.625031	146.780000
444.718719	146.380000
444.812378	146.240000
444.906097	145.880000
444.999756	145.380000
445.093445	145.600000
445.187103	145.880000
445.280823	146.280000
445.374512	146.120000
445.468201	146.380000
445.561859	145.920000
445.655548	145.780000
445.749237	144.840000
445.842926	145.100000
445.936615	145.520000
446.030304	145.540000
446.123962	145.800000
446.217651	146.140000
446.311340	146.180000
446.405029	145.460000
446.498749	145.520000
446.592407	144.980000
446.686096	145.180000
446.779755	144.880000
446.873474	145.420000
446.967133	145.600000
447.060852	145.460000
447.154510	145.600000
447.248230	145.620000
447.341858	145.420000
447.435577	144.920000
447.529236	144.880000
447.622955	144.520000
447.716644	144.720000
447.810333	144.720000
447.904022	145.580000
447.997711	145.800000
448.091400	145.940000
448.185059	145.860000
448.278748	146.240000
448.372437	145.880000
448.466125	146.280000
448.559814	146.340000
448.653503	146.760000
448.747192	146.780000
448.840912	146.900000
448.934570	146.600000
449.028290	146.900000
449.121948	146.300000
449.215637	145.760000
449.309296	145.340000
449.403015	145.440000
449.496674	145.400000
449.590393	145.540000
449.684052	145.600000
449.777771	146.360000
449.871429	145.920000
449.965149	145.840000
450.058838	146.040000
450.152527	146.580000
450.246216	146.540000
450.339905	146.580000
450.433594	146.500000
450.527283	147.040000
450.620972	146.580000
450.714661	146.360000
450.808350	146.980000
450.902039	147.300000
450.995728	146.820000
451.089417	146.180000
451.183105	146.080000
451.276794	146.240000
451.370514	145.580000
451.464172	144.880000
451.557892	145.280000
451.651550	145.380000
451.745270	144.820000
451.838928	144.360000
451.932648	145.080000
452.026306	145.600000
452.120026	145.280000
452.213684	145.740000
452.307404	146.440000
452.401062	146.220000
452.494781	146.600000
452.588470	146.680000
452.682159	146.180000
452.775848	146.020000
452.869537	145.600000
452.963226	144.680000
453.056915	144.640000
453.150604	145.000000
453.244293	145.300000
453.337982	146.260000
453.431671	146.860000
453.525360	147.340000
453.619049	147.160000
453.712769	146.840000
453.806427	146.400000
453.900146	145.740000
453.993805	145.360000
454.087555	145.620000
454.181213	145.860000
454.274933	145.400000
454.368591	145.780000
454.462311	145.820000
454.555969	145.380000
454.649689	146.040000
454.743347	146.240000
454.837067	146.980000
454.930756	147.580000
455.024445	148.020000
455.118134	147.340000
455.211853	147.580000
455.305542	146.800000
455.399231	146.260000
455.492920	146.140000
455.586609	146.360000
455.680298	146.480000
455.773987	146.240000
455.867676	146.320000
455.961365	146.460000
456.055084	146.200000
456.148773	145.740000
456.242493	145.900000
456.336151	145.780000
456.429871	145.800000
456.523529	146.120000
456.617249	146.340000
456.710907	146.920000
456.804626	146.940000
456.898315	146.520000
456.992035	146.360000
457.085693	145.960000
457.179413	145.240000
457.273102	145.960000
457.366791	145.980000
457.460480	146.240000
457.554199	147.320000
457.647888	147.600000
457.741577	147.120000
457.835266	147.340000
457.928955	147.540000
458.022644	147.400000
458.116364	147.500000
458.210052	147.160000
458.303741	147.500000
458.397461	146.700000
458.491119	146.080000
458.584839	146.060000
458.678528	146.020000
458.772247	145.500000
458.865906	145.720000
458.959625	146.500000
459.053284	146.340000
459.147003	146.620000
459.240692	147.320000
459.334412	147.440000
459.428070	146.780000
459.521790	146.760000
459.615479	146.420000
459.709198	146.500000
459.802887	146.220000
459.896576	146.080000
459.990265	146.260000
460.083954	146.720000
460.177673	146.020000
460.271362	146.100000
460.365051	146.300000
460.458740	146.020000
460.552429	145.620000
460.646149	145.860000
460.739838	145.940000
460.833527	146.100000
460.927246	146.060000
461.020905	145.920000
461.114655	145.980000
461.208313	145.860000
461.302032	145.260000
461.395691	145.600000
461.489441	145.820000
461.583099	145.440000
461.676819	145.300000
461.770477	145.900000
461.864197	145.540000
461.957916	145.540000
462.051605	145.320000
462.145294	146.300000
462.238983	146.180000
462.332703	146.680000
462.426392	147.240000
462.520081	147.460000
462.613770	146.740000
462.707489	146.640000
462.801178	146.420000
462.894867	145.740000
462.988556	145.860000
463.082275	145.740000
463.175964	145.320000
463.269684	145.480000
463.363342	145.780000
463.457092	145.060000
463.550751	145.380000
463.644470	145.940000
463.738129	145.620000
463.831879	145.600000
463.925537	146.660000
464.019257	146.680000
464.112946	146.460000
464.206665	146.200000
464.300323	145.840000
464.394043	145.680000
464.487762	145.520000
464.581451	145.780000
464.675140	146.260000
464.768829	146.680000
464.862549	146.320000
464.956238	146.620000
465.049927	146.720000
465.143646	146.580000
465.237335	146.260000
465.331024	146.720000
465.424713	146.340000
465.518433	146.180000
465.612152	145.900000
465.705811	145.860000
465.799561	145.760000
465.893219	145.980000
465.986938	145.940000
466.080597	146.220000
466.174347	146.780000
466.268005	146.940000
466.361725	146.460000
466.455414	146.140000
466.549133	145.680000
466.642792	145.380000
466.736542	144.700000
466.830231	145.180000
466.923920	145.620000
467.017609	146.160000
467.111328	145.780000
467.205017	146.080000
467.298706	145.960000
467.392426	145.800000
467.486115	145.860000
467.579803	145.620000
467.673523	145.780000
467.767212	145.860000
467.860901	146.000000
467.954651	145.920000
468.048309	146.780000
468.142029	146.740000
468.235718	146.720000
468.329437	146.300000
468.423096	146.240000
468.516846	145.760000
468.610504	145.320000
468.704224	144.820000
468.797913	144.900000
468.891632	145.020000
468.985291	145.180000
469.079010	145.420000
469.172729	145.220000
469.266418	145.720000
469.360107	145.780000
469.453827	145.700000
469.547516	145.700000
469.641205	146.320000
469.734924	146.220000
469.828613	146.480000
469.922302	146.700000
470.016022	147.040000
470.109711	146.860000
470.203430	146.340000
470.297150	145.320000
470.390808	145.380000
470.484558	145.060000
470.578217	145.400000
470.671936	146.000000
470.765625	147.040000
470.859344	146.600000
470.953003	147.020000
471.046753	146.640000
471.140411	145.940000
471.234131	146.020000
471.327820	146.460000
471.421539	146.140000
471.515228	145.920000
471.608948	146.240000
471.702637	145.600000
471.796326	145.160000
471.890045	145.300000
471.983734	145.300000
472.077423	145.120000
472.171143	145.360000
472.264832	145.600000
472.358521	145.460000
472.452240	145.560000
472.545929	146.160000
472.639648	146.120000
472.733337	146.240000
472.827057	146.260000
472.920746	146.500000
473.014465	146.700000
473.108124	146.800000
473.201874	146.640000
473.295532	146.840000
473.389252	147.140000
473.482941	147.020000
473.576660	146.440000
473.670319	146.460000
473.764069	146.520000
473.857727	146.600000
473.951477	146.720000
474.045166	147.640000
474.138855	147.560000
474.232574	147.080000
474.326263	146.800000
474.419952	146.880000
474.513672	146.800000
474.607361	147.000000
474.701050	147.600000
474.794769	148.020000
474.888458	147.880000
474.982178	147.380000
475.075867	147.120000
475.169586	146.860000
475.263275	146.460000
475.356995	146.140000
475.450653	146.120000
475.544403	146.080000
475.638062	146.900000
475.731812	146.420000
475.825470	145.960000
475.919189	145.980000
476.012878	146.060000
476.106598	144.980000
476.200256	145.540000
476.294006	145.960000
476.387695	146.120000
476.481384	146.060000
476.575104	146.160000
476.668793	145.740000
476.762512	145.140000
476.856201	145.440000
476.949890	145.320000
477.043610	145.000000
477.137299	145.260000
477.230988	146.000000
477.324707	145.440000
477.418396	146.020000
477.512146	146.160000
477.605804	146.000000
477.699524	146.120000
477.793213	146.160000
477.886932	145.820000
477.980591	145.920000
478.074341	145.900000
478.167999	145.320000
478.261749	145.440000
478.355408	145.320000
478.449127	145.580000
478.542816	146.440000
478.636536	146.980000
478.730225	147.000000
478.823944	147.160000
478.917633	146.940000
479.011322	146.540000
479.105042	146.300000
479.198730	146.540000
479.292450	146.340000
479.386139	146.520000
479.479828	146.520000
479.573547	146.980000
479.667267	146.880000
479.760925	147.000000
479.854675	147.160000
479.948334	147.220000
480.042084	146.460000
480.135742	146.620000
480.229462	146.200000
480.323151	146.200000
480.416870	145.540000
480.510529	145.820000
480.604279	145.620000
480.697937	146.380000
480.791656	145.900000
480.885345	145.640000
480.979065	145.360000
481.072754	145.600000
481.166473	145.620000
481.260132	145.640000
481.353882	146.220000
481.447540	146.520000
481.541260	146.380000
481.635010	145.820000
481.728668	145.780000
481.822388	145.660000
481.916077	145.600000
482.009796	145.420000
482.103485	145.920000
482.197205	146.300000
482.290863	146.500000
482.384613	146.280000
482.478271	146.160000
482.571991	145.880000
482.665680	145.440000
482.759399	146.160000
482.853058	146.820000
482.946808	146.640000
483.040466	146.360000
483.134216	146.760000
483.227875	145.880000
483.321594	146.200000
483.415283	146.620000
483.509003	146.820000
483.602661	146.420000
483.696411	146.720000
483.790070	146.240000
483.883789	146.080000
483.977478	146.220000
484.071198	146.320000
484.164917	145.860000
484.258606	145.280000
484.352325	145.600000
484.445984	145.880000
484.539734	145.780000
484.633392	145.660000
484.727142	146.220000
484.820801	145.660000
484.914520	145.420000
485.008209	145.820000
485.101929	146.460000
485.195587	146.160000
485.289337	146.420000
485.382996	146.420000
485.476715	146.220000
485.570404	146.340000
485.664124	146.140000
485.757782	146.680000
485.851532	146.300000
485.945190	145.960000
486.038910	145.880000
486.132599	146.560000
486.226318	145.600000
486.319977	145.460000
486.413727	146.500000
486.507446	145.920000
486.601105	145.040000
486.694855	145.300000
486.788513	145.520000
486.882233	145.080000
486.975922	145.060000
487.069641	145.160000
487.163300	144.900000
487.257050	146.020000
487.350708	145.480000
487.444427	145.540000
487.538116	145.720000
487.631836	145.980000
487.725494	145.100000
487.819214	145.280000
487.912903	145.360000
488.006622	145.780000
488.100281	146.080000
488.194031	145.920000
488.287689	146.460000
488.381409	147.120000
488.475098	146.880000
488.568817	146.960000
488.662476	147.060000
488.756226	146.440000
488.849945	145.360000
488.943604	145.440000
489.037354	145.120000
489.131012	145.060000
489.224731	145.000000
489.318390	145.080000
489.412140	145.100000
489.505798	145.240000
489.599518	145.080000
489.693207	145.600000
489.786926	145.700000
489.880585	145.540000
489.974335	145.480000
490.067993	146.700000
490.161713	146.840000
490.255371	147.700000
490.349121	148.120000
490.442780	148.040000
490.536499	146.840000
490.630188	146.500000
490.723907	145.920000
490.817566	145.680000
490.911285	145.700000
491.004974	145.700000
491.098694	145.380000
491.192413	145.960000
491.286102	145.720000
491.379822	146.040000
491.473480	146.180000
491.567200	146.480000
491.660889	145.700000
491.754608	145.800000
491.848267	145.400000
491.941986	145.420000
492.035675	145.500000
492.129395	145.880000
492.223053	145.760000
492.316772	146.340000
492.410461	146.200000
492.504181	145.880000
492.597839	145.480000
492.691559	145.780000
492.785248	145.620000
492.878967	145.920000
492.972626	145.980000
493.066345	146.340000
493.160034	145.800000
493.253754	145.600000
493.347412	145.400000
493.441132	145.580000
493.534882	145.880000
493.628540	146.580000
493.722260	147.140000
493.815918	147.300000
493.909668	147.640000
494.003326	147.840000
494.097046	147.480000
494.190704	146.740000
494.284454	146.760000
494.378113	146.680000
494.471832	145.980000
494.565491	145.760000
494.659210	145.940000
494.752899	146.020000
494.846619	145.580000
494.940277	145.940000
495.033997	146.160000
495.127686	145.740000
495.221405	145.460000
495.315063	145.980000
495.408783	146.060000
495.502441	145.960000
495.596191	146.140000
495.689850	146.020000
495.783569	146.160000
495.877228	146.200000
495.970947	146.160000
496.064697	146.320000
496.158356	147.280000
496.252075	146.820000
496.345734	146.440000
496.439453	146.920000
496.533142	147.160000
496.626862	146.900000
496.720520	146.960000
496.814240	147.240000
496.907898	146.900000
497.001617	146.720000
497.095306	145.980000
497.189026	145.980000
497.282684	146.080000
497.376404	146.260000
497.470062	145.980000
497.563782	146.240000
497.657471	146.400000
497.751190	146.080000
497.844849	145.700000
497.938568	146.220000
498.032227	145.940000
498.125946	145.680000
498.219635	145.420000
498.313354	146.080000
498.407074	145.720000
498.500732	146.400000
498.594452	146.260000
498.688110	146.160000
498.781830	145.340000
498.875519	145.320000
498.969238	144.960000
499.062897	145.020000
499.156616	145.680000
499.250275	146.000000
499.343994	145.980000
499.437653	145.800000
499.531372	146.060000
499.625061	146.440000
499.718781	146.800000
499.812439	147.220000
499.906158	147.360000
499.999817	146.940000
500.093536	146.100000
500.187195	145.920000
500.280914	145.660000
500.374573	145.960000
500.468323	145.980000
500.561981	146.420000
500.655701	146.180000
500.749420	146.180000
500.843079	145.920000
500.936798	146.120000
501.030457	146.320000
501.124176	146.420000
501.217834	146.360000
501.311554	146.700000
501.405212	146.520000
501.498962	145.960000
501.592621	146.020000
501.686340	146.340000
501.779999	146.120000
501.873718	146.400000
501.967377	146.500000
502.061096	146.700000
502.154755	146.400000
502.248474	146.560000
502.342133	146.640000
502.435852	146.720000
502.529510	147.180000
502.623230	147.600000
502.716888	147.020000
502.810608	146.700000
502.904266	147.060000
502.997986	146.340000
503.091705	145.800000
503.185364	145.900000
503.279083	146.200000
503.372772	145.940000
503.466492	145.480000
503.560150	145.820000
503.653870	146.020000
503.747528	145.740000
503.841248	145.580000
503.934906	146.260000
504.028625	145.640000
504.122284	145.860000
504.216003	146.700000
504.309662	146.500000
504.403381	146.480000
504.497040	146.440000
504.590759	146.260000
504.684418	146.080000
504.778137	146.560000
504.871796	146.760000
504.965515	147.160000
505.059174	147.360000
505.152893	146.580000
505.246521	146.100000
505.340240	145.600000
505.433899	145.680000
505.527618	145.620000
505.621338	146.100000
505.714996	145.900000
505.808716	146.100000
505.902374	146.300000
505.996094	146.440000
506.089752	146.200000
506.183472	146.560000
506.277130	146.680000
506.370850	146.560000
506.464508	146.140000
506.558228	146.380000
506.651886	146.200000
506.745605	146.320000
506.839264	146.160000
506.932983	146.460000
507.026611	146.420000
507.120331	146.960000
507.213989	146.280000
507.307709	146.540000
507.401367	146.760000
507.495087	147.400000
507.588745	146.560000
507.682465	147.860000
507.776123	147.600000
507.869843	147.040000
507.963531	146.540000
508.057190	147.520000
508.150909	146.360000
508.244568	146.720000
508.338287	146.700000
508.431946	146.480000
508.525665	146.000000
508.619324	146.120000
508.713013	145.940000
508.806671	146.460000
508.900391	147.360000
508.994049	147.540000
509.087769	147.400000
509.181427	147.420000
509.275146	146.800000
509.368774	145.580000
509.462494	145.380000
509.556152	145.520000
509.649872	145.960000
509.743530	146.280000
509.837250	146.540000
509.930878	146.620000
510.024597	146.340000
510.118256	145.700000
510.211975	145.600000
510.305695	145.620000
510.399353	145.840000
510.493042	146.360000
510.586700	146.500000
510.680420	146.960000
510.774078	146.680000
510.867798	146.760000
510.961426	146.240000
511.055145	146.340000
511.148804	145.840000
511.242523	146.540000
511.336151	146.440000
511.429871	146.980000
511.523529	147.000000
511.617249	147.060000
511.710876	146.580000
511.804596	146.260000
511.898254	146.260000
511.991974	146.520000
512.085632	146.180000
512.179321	146.240000
512.272949	146.380000
512.366699	146.520000
512.460327	146.100000
512.554077	147.260000
512.647766	147.420000
512.741394	147.720000
512.835144	147.980000
512.928772	147.840000
513.022461	147.300000
513.116150	146.600000
513.209839	146.560000
513.303467	146.160000
513.397217	146.000000
513.490845	146.020000
513.584595	146.200000
513.678223	145.740000
513.771912	144.920000
513.865601	145.240000
513.959290	144.820000
514.052917	145.120000
514.146667	145.820000
514.240295	146.680000
514.333984	146.840000
514.427673	146.540000
514.521362	146.860000
514.614990	146.120000
514.708740	145.960000
514.802368	145.900000
514.896057	146.580000
514.989746	146.900000
515.083435	147.020000
515.177124	147.400000
515.270752	147.040000
515.364502	146.820000
515.458130	146.800000
515.551819	146.580000
515.645508	146.380000
515.739197	146.440000
515.832825	146.580000
515.926575	145.860000
516.020203	146.220000
516.113892	146.220000
516.207520	146.340000
516.301270	146.220000
516.394897	146.640000
516.488586	146.940000
516.582275	146.800000
516.675964	146.240000
516.769592	146.060000
516.863281	146.520000
516.956970	146.760000
517.050659	146.780000
517.144287	147.220000
517.238037	147.580000
517.331665	146.600000
517.425354	145.860000
517.519043	145.840000
517.612732	146.180000
517.706421	145.720000
517.800049	145.640000
517.893738	145.560000
517.987427	145.280000
518.081116	144.960000
518.174744	144.740000
518.268433	145.440000
518.362122	146.000000
518.455811	146.320000
518.549438	146.960000
518.643127	147.980000
518.736816	147.480000
518.830505	146.920000
518.924133	146.620000
519.017822	146.540000
519.111511	146.000000
519.205200	146.640000
519.298828	146.920000
519.392517	146.840000
519.486206	146.760000
519.579895	147.000000
519.673523	146.680000
519.767212	146.400000
519.860901	146.800000
519.954590	146.440000
520.048279	145.780000
520.141907	145.820000
520.235596	146.920000
520.329224	147.220000
520.422974	147.240000
520.516602	147.640000
520.610291	147.040000
520.703918	146.400000
520.797607	146.020000
520.891296	145.980000
520.984985	146.220000
521.078613	146.920000
521.172302	146.280000
521.265930	147.000000
521.359680	147.360000
521.453308	146.920000
521.546997	146.640000
521.640625	147.260000
521.734314	146.540000
521.827942	146.480000
521.921692	147.120000
522.015320	147.300000
522.109009	146.920000
522.202698	146.700000
522.296326	146.460000
522.390015	146.320000
522.483704	146.180000
522.577393	146.000000
522.671021	146.040000
522.764709	145.420000
522.858337	145.740000
522.952026	145.820000
523.045654	146.600000
523.139404	147.280000
523.233032	147.820000
523.326721	147.140000
523.420349	146.920000
523.514038	146.160000
523.607666	146.280000
523.701355	145.920000
523.795044	146.140000
523.888733	146.300000
523.982361	146.900000
524.076050	146.080000
524.169678	146.740000
524.263367	146.260000
524.356995	145.860000
524.450684	145.400000
524.544373	145.340000
524.638062	145.200000
524.731750	145.440000
524.825378	145.580000
524.919067	145.340000
525.012695	145.500000
525.106384	144.980000
525.200012	145.360000
525.293701	145.340000
525.387329	145.980000
525.481018	146.040000
525.574646	146.620000
525.668396	146.200000
525.762024	146.800000
525.855713	146.780000
525.949341	146.620000
526.043030	146.460000
526.136658	146.520000
526.230347	146.100000
526.323975	145.940000
526.417664	145.720000
526.511292	145.700000
526.604980	146.080000
526.698608	146.060000
526.792297	145.900000
526.885925	146.480000
526.979614	146.720000
527.073303	146.280000
527.166931	146.280000
527.260620	146.520000
527.354309	146.360000
527.447998	145.920000
527.541626	145.820000
527.635315	145.640000
527.728943	146.200000
527.822632	146.480000
527.916260	147.000000
528.009949	147.280000
528.103577	147.300000
528.197266	146.380000
528.290894	146.340000
528.384583	146.060000
528.478210	146.180000
528.571899	146.620000
528.665527	147.260000
528.759216	147.120000
528.852844	147.720000
528.946533	147.660000
529.040161	147.440000
529.133850	147.220000
529.227478	147.480000
529.321167	147.400000
529.414856	147.780000
529.508484	148.220000
529.602173	147.860000
529.695801	147.740000
529.789490	147.180000
529.883057	146.740000
529.976746	146.820000
530.070374	147.280000
530.164062	147.220000
530.257690	147.500000
530.351379	147.700000
530.445007	147.180000
530.538696	146.500000
530.632324	146.660000
530.726013	146.700000
530.819641	146.600000
530.913330	146.800000
531.006958	146.900000
531.100647	146.680000
531.194275	146.340000
531.287964	145.880000
531.381592	145.580000
531.475220	145.720000
531.568848	145.520000
531.662537	145.520000
531.756226	146.200000
531.849854	146.340000
531.943542	146.360000
532.037170	146.020000
532.130859	146.640000
532.224487	145.820000
532.318176	145.560000
532.411804	146.240000
532.505432	146.940000
532.599060	146.320000
532.692749	146.660000
532.786377	147.240000
532.880066	146.520000
532.973694	145.920000
533.067383	145.900000
533.161011	145.700000
533.254639	145.380000
533.348267	145.280000
533.441956	145.660000
533.535583	145.680000
533.629272	146.300000
533.722900	146.000000
533.816589	146.160000
533.910156	146.420000
534.003845	146.300000
534.097534	146.440000
534.191162	147.240000
534.284851	147.420000
534.378479	147.040000
534.472107	147.120000
534.565735	146.520000
534.659424	146.260000
534.753052	146.440000
534.846741	146.200000
534.940369	146.940000
535.033997	147.080000
535.127625	147.100000
535.221313	147.380000
535.314941	147.520000
535.408630	146.620000
535.502197	146.980000
535.595886	146.500000
535.689514	145.880000
535.783203	146.440000
535.876831	146.760000
535.970459	146.740000
536.064087	146.880000
536.157776	146.920000
536.251404	146.820000
536.345093	146.540000
536.438721	146.320000
536.532349	146.520000
536.626038	146.300000
536.719666	146.360000
536.813293	146.340000
536.906921	146.280000
537.000610	146.680000
537.094238	146.780000
537.187866	146.480000
537.281494	146.680000
537.375183	146.780000
537.468811	146.220000
537.562439	146.580000
537.656067	146.560000
537.749756	146.440000
537.843384	146.780000
537.937012	147.040000
538.030640	146.600000
538.124329	146.600000
538.217896	147.000000
538.311584	147.160000
538.405212	146.920000
538.498901	147.120000
538.592468	147.600000
538.686157	147.060000
538.779785	146.060000
538.873413	145.980000
538.967102	145.980000
539.060730	145.460000
539.154358	145.940000
539.247986	146.280000
539.341675	146.220000
539.435242	146.060000
539.528931	146.160000
539.622559	145.640000
539.716187	146.360000
539.809814	146.400000
539.903503	146.480000
539.997070	146.460000
540.090759	146.760000
540.184387	146.040000
540.278015	146.360000
540.371643	146.540000
540.465332	146.600000
540.558899	146.560000
540.652588	146.760000
540.746216	146.660000
540.839844	146.840000
540.933472	146.640000
541.027100	146.600000
541.120728	146.360000
541.214417	146.200000
541.308044	146.400000
541.401672	146.340000
541.495300	146.120000
541.588928	146.280000
541.682617	146.000000
541.776184	145.300000
541.869873	145.860000
541.963440	146.240000
542.057129	146.260000
542.150757	146.480000
542.244385	146.500000
542.338013	145.720000
542.431641	145.520000
542.525269	145.420000
542.618958	146.120000
542.712524	146.580000
542.806213	146.640000
542.899780	146.920000
542.993469	146.800000
543.087036	146.220000
543.180725	145.660000
543.274292	146.060000
543.367981	146.240000
543.461548	146.900000
543.555237	146.900000
543.648926	147.320000
543.742493	147.960000
543.836182	147.600000
543.929749	147.400000
544.023437	147.500000
544.117004	147.580000
544.210693	147.140000
544.304260	147.060000
544.397949	146.680000
544.491516	146.840000
544.585205	146.640000
544.678772	146.400000
544.772461	147.240000
544.866028	147.140000
544.959717	147.100000
545.053284	146.940000
545.146973	147.300000
545.240540	146.880000
545.334229	147.780000
545.427795	148.040000
545.521423	148.340000
545.615051	148.120000
545.708679	148.500000
545.802307	147.880000
545.895935	147.860000
545.989624	148.620000
546.083191	148.520000
546.176880	148.120000
546.270447	147.880000
546.364136	148.080000
546.457703	147.420000
546.551331	147.460000
546.644958	147.380000
546.738586	147.760000
546.832214	147.380000
546.925842	147.180000
547.019409	147.400000
547.113098	147.080000
547.206665	146.640000
547.300354	146.340000
547.393921	146.680000
547.487549	146.820000
547.581177	146.600000
547.674805	146.760000
547.768433	146.400000
547.862061	146.220000
547.955627	145.360000
548.049316	146.200000
548.142883	146.780000
548.236572	147.400000
548.330139	147.720000
548.423767	147.980000
548.517456	147.680000
548.611023	147.620000
548.704651	146.880000
548.798279	146.420000
548.891907	146.820000
548.985474	146.540000
549.079163	146.320000
549.172729	146.440000
549.266357	146.020000
549.359985	145.780000
549.453613	145.420000
549.547180	144.960000
549.640869	145.700000
549.734436	145.960000
549.828064	146.280000
549.921631	146.540000
550.015320	146.560000
550.108887	146.600000
550.202515	146.800000
550.296143	146.440000
550.389771	146.520000
550.483337	146.640000
550.576965	146.120000
550.670593	146.500000
550.764221	146.520000
550.857849	146.140000
550.951477	145.720000
551.045105	145.680000
551.138672	145.260000
551.232300	145.220000
551.325928	145.800000
551.419556	146.360000
551.513123	146.380000
551.606750	146.480000
551.700378	146.580000
551.794006	146.280000
551.887573	146.100000
551.981201	146.760000
552.074768	146.500000
552.168457	146.120000
552.262024	147.200000
552.355652	147.140000
552.449219	147.320000
552.542847	147.340000
552.636475	147.300000
552.730103	146.120000
552.823669	145.980000
552.917297	145.320000
553.010864	145.440000
553.104553	145.820000
553.198181	145.540000
553.291748	145.920000
553.385376	146.180000
553.478943	145.940000
553.572571	146.000000
553.666199	146.600000
553.759827	146.400000
553.853394	145.540000
553.947021	145.720000
554.040588	145.680000
554.134216	145.720000
554.227783	146.360000
554.321411	147.280000
554.415039	146.920000
554.508667	146.720000
554.602234	146.740000
554.695862	145.920000
554.789429	145.680000
554.883057	145.980000
554.976624	145.800000
555.070251	145.880000
555.163818	145.940000
555.257507	145.920000
555.351074	145.960000
555.444702	147.160000
555.538330	146.540000
555.631897	146.960000
555.725525	146.820000
555.819092	146.860000
555.912720	145.780000
556.006287	146.560000
556.099915	146.100000
556.193481	146.520000
556.287109	146.360000
556.380676	146.240000
556.474304	146.040000
556.567871	146.360000
556.661499	145.620000
556.755066	145.800000
556.848694	146.160000
556.942261	146.040000
557.035889	146.220000
557.129517	146.600000
557.223145	146.980000
557.316711	146.980000
557.410339	147.280000
557.503906	146.900000
557.597473	147.160000
557.691040	146.700000
557.784668	146.800000
557.878296	145.980000
557.971863	146.140000
558.065491	146.000000
558.159058	145.820000
558.252686	146.540000
558.346252	147.800000
558.439880	147.460000
558.533447	147.120000
558.627075	146.820000
558.720642	145.680000
558.814270	145.240000
558.907837	145.600000
559.001465	145.460000
559.095032	146.240000
559.188660	146.740000
559.282227	146.100000
559.375854	146.520000
559.469360	146.420000
559.562988	146.600000
559.656555	146.460000
559.750183	146.960000
559.843750	146.820000
559.937378	147.460000
560.030945	147.300000
560.124573	0.000000
560.218140	0.000000
560.311707	0.000000
560.405334	0.000000
560.498901	0.000000
560.592529	0.000000
560.686096	0.000000
560.779724	0.000000
560.873291	0.000000
560.966858	0.000000
561.060425	0.000000
561.154053	0.000000
561.247620	0.000000
561.341248	0.000000
561.434814	0.000000
561.528381	0.000000
561.621948	0.000000
561.715576	0.000000
561.809143	0.000000
561.902771	0.000000
561.996277	0.000000
562.089905	0.000000
562.183472	0.000000
562.277100	0.000000
