Model Number: SPM-002-B   
Serial Number: 70087108
Firmware Version: 004.15.4
Exposure Time: 100000.000000us
Data Taken on: 11-12-2020 19:40:06.158
Wavelength	Amplitude
221.570786	0.000000
221.663406	0.000000
221.756027	0.000000
221.848648	0.000000
221.941269	0.000000
222.033905	0.000000
222.126526	0.000000
222.219162	0.000000
222.311798	0.000000
222.404419	0.000000
222.497055	0.000000
222.589676	0.000000
222.682312	0.000000
222.774933	0.000000
222.867569	0.000000
222.960205	0.000000
223.052841	0.000000
223.145462	0.000000
223.238098	0.000000
223.330734	0.000000
223.423386	0.000000
223.516022	0.000000
223.608658	0.000000
223.701309	0.000000
223.793945	0.000000
223.886581	0.000000
223.979218	0.000000
224.071869	0.000000
224.164505	0.000000
224.257156	0.000000
224.349792	0.000000
224.442444	0.000000
224.535095	0.000000
224.627747	0.000000
224.720398	0.000000
224.813034	0.000000
224.905685	0.000000
224.998337	145.640000
225.090988	145.400000
225.183640	145.460000
225.276291	145.040000
225.368942	145.480000
225.461594	146.020000
225.554245	146.280000
225.646912	146.100000
225.739578	146.580000
225.832230	146.640000
225.924896	145.940000
226.017548	145.940000
226.110199	146.440000
226.202866	146.000000
226.295532	145.920000
226.388184	146.020000
226.480850	145.620000
226.573517	145.000000
226.666168	145.320000
226.758835	145.400000
226.851501	145.880000
226.944183	146.220000
227.036850	146.060000
227.129517	146.060000
227.222183	145.940000
227.314850	145.680000
227.407516	145.860000
227.500198	146.760000
227.592865	146.520000
227.685532	146.560000
227.778214	146.420000
227.870880	146.480000
227.963562	146.880000
228.056229	147.080000
228.148926	146.940000
228.241592	147.700000
228.334274	147.480000
228.426956	146.680000
228.519638	146.640000
228.612305	146.180000
228.704987	146.100000
228.797668	145.800000
228.890350	145.540000
228.983032	145.320000
229.075714	146.040000
229.168396	145.660000
229.261108	145.600000
229.353790	145.760000
229.446472	145.820000
229.539169	145.680000
229.631851	145.300000
229.724533	145.520000
229.817230	145.720000
229.909912	146.400000
230.002609	146.280000
230.095306	146.420000
230.187988	146.620000
230.280685	146.500000
230.373383	145.840000
230.466095	145.820000
230.558792	146.400000
230.651474	146.400000
230.744171	146.180000
230.836868	146.100000
230.929581	146.460000
231.022278	146.360000
231.114975	146.260000
231.207672	146.280000
231.300369	146.800000
231.393082	146.720000
231.485779	146.540000
231.578506	146.520000
231.671204	146.760000
231.763916	146.480000
231.856613	146.160000
231.949326	145.940000
232.042023	145.880000
232.134735	145.780000
232.227448	145.680000
232.320160	146.060000
232.412872	146.340000
232.505585	147.260000
232.598297	147.460000
232.691010	147.340000
232.783722	146.860000
232.876450	147.380000
232.969162	146.600000
233.061874	146.380000
233.154587	146.320000
233.247314	146.920000
233.340027	146.040000
233.432739	146.420000
233.525467	146.140000
233.618179	146.260000
233.710907	145.880000
233.803635	146.540000
233.896347	146.120000
233.989090	147.020000
234.081818	146.920000
234.174545	146.920000
234.267258	146.380000
234.359985	146.480000
234.452713	145.800000
234.545441	146.100000
234.638168	145.920000
234.730896	146.300000
234.823639	146.200000
234.916367	146.760000
235.009094	146.660000
235.101822	146.940000
235.194580	146.780000
235.287308	146.680000
235.380051	146.060000
235.472778	146.360000
235.565521	146.560000
235.658249	146.120000
235.750992	146.160000
235.843719	146.220000
235.936462	146.420000
236.029205	146.040000
236.121948	146.100000
236.214691	146.780000
236.307449	147.360000
236.400192	146.660000
236.492935	146.620000
236.585678	147.120000
236.678421	146.660000
236.771164	146.360000
236.863907	146.800000
236.956665	147.000000
237.049408	148.260000
237.142151	148.180000
237.234909	148.840000
237.327652	148.840000
237.420410	148.860000
237.513153	147.600000
237.605927	147.520000
237.698669	146.680000
237.791428	145.800000
237.884186	146.100000
237.976944	145.700000
238.069702	145.980000
238.162445	145.620000
238.255203	146.200000
238.347961	146.420000
238.440720	146.420000
238.533478	146.260000
238.626266	146.380000
238.719025	146.420000
238.811783	146.220000
238.904541	146.180000
238.997314	146.020000
239.090073	145.700000
239.182831	146.060000
239.275604	146.440000
239.368362	146.360000
239.461136	146.480000
239.553909	146.820000
239.646667	146.220000
239.739441	145.500000
239.832214	145.900000
239.925003	146.160000
240.017761	146.560000
240.110535	147.380000
240.203308	147.060000
240.296082	147.000000
240.388855	146.620000
240.481628	146.540000
240.574417	146.520000
240.667191	146.460000
240.759964	146.120000
240.852737	145.780000
240.945526	145.660000
241.038315	145.380000
241.131088	145.680000
241.223877	145.900000
241.316650	145.900000
241.409439	146.000000
241.502228	145.700000
241.595001	146.280000
241.687790	146.240000
241.780579	146.740000
241.873367	146.760000
241.966141	146.720000
242.058929	146.020000
242.151718	146.320000
242.244507	146.540000
242.337311	145.860000
242.430099	146.580000
242.522903	146.880000
242.615692	146.100000
242.708481	145.920000
242.801270	146.620000
242.894073	146.200000
242.986862	146.320000
243.079651	147.060000
243.172455	146.700000
243.265244	146.820000
243.358063	146.140000
243.450867	146.420000
243.543655	146.540000
243.636459	146.900000
243.729263	147.020000
243.822067	147.580000
243.914856	147.520000
244.007660	147.440000
244.100464	147.360000
244.193268	146.920000
244.286072	146.760000
244.378876	146.040000
244.471680	145.760000
244.564499	145.860000
244.657318	146.580000
244.750122	147.020000
244.842926	146.620000
244.935745	146.960000
245.028549	146.580000
245.121368	146.000000
245.214172	145.600000
245.306992	146.580000
245.399796	146.180000
245.492615	146.200000
245.585434	146.100000
245.678253	146.080000
245.771072	145.760000
245.863892	146.080000
245.956711	146.520000
246.049530	146.500000
246.142349	146.480000
246.235168	146.560000
246.327988	147.100000
246.420807	146.780000
246.513626	146.780000
246.606445	146.800000
246.699280	146.940000
246.792099	146.540000
246.884918	146.420000
246.977753	146.100000
247.070587	146.080000
247.163422	145.740000
247.256241	145.500000
247.349075	146.020000
247.441895	146.260000
247.534729	146.180000
247.627563	146.200000
247.720383	146.880000
247.813217	146.360000
247.906052	146.260000
247.998886	146.300000
248.091736	146.360000
248.184570	145.760000
248.277405	145.860000
248.370239	146.640000
248.463074	147.480000
248.555908	147.720000
248.648743	147.520000
248.741592	147.680000
248.834427	146.860000
248.927261	145.740000
249.020111	145.940000
249.112946	146.840000
249.205795	146.400000
249.298630	146.820000
249.391495	147.100000
249.484344	146.920000
249.577179	146.480000
249.670029	147.020000
249.762878	147.240000
249.855728	147.700000
249.948563	147.640000
250.041412	147.240000
250.134262	147.220000
250.227112	147.220000
250.319962	146.920000
250.412827	146.800000
250.505692	146.460000
250.598541	146.380000
250.691391	145.920000
250.784241	146.040000
250.877106	146.240000
250.969955	146.420000
251.062805	146.900000
251.155670	147.480000
251.248520	146.980000
251.341385	147.040000
251.434235	147.320000
251.527100	146.820000
251.619965	146.240000
251.712814	146.900000
251.805695	146.980000
251.898560	146.760000
251.991425	146.780000
252.084290	147.040000
252.177155	146.260000
252.270020	145.880000
252.362885	146.160000
252.455750	146.240000
252.548615	145.860000
252.641479	146.360000
252.734360	146.360000
252.827240	145.860000
252.920105	145.680000
253.012970	145.660000
253.105850	145.540000
253.198715	145.220000
253.291595	145.500000
253.384460	145.420000
253.477341	145.620000
253.570221	145.580000
253.663086	145.620000
253.755966	146.340000
253.848846	146.340000
253.941727	146.480000
254.034592	146.560000
254.127472	145.940000
254.220367	145.260000
254.313248	145.340000
254.406128	145.140000
254.499008	145.360000
254.591904	146.540000
254.684784	147.180000
254.777664	147.280000
254.870544	147.340000
254.963440	147.160000
255.056335	147.160000
255.149216	146.440000
255.242111	146.960000
255.334991	147.000000
255.427887	146.980000
255.520767	146.820000
255.613663	147.240000
255.706558	146.500000
255.799438	146.300000
255.892334	146.280000
255.985229	146.200000
256.078125	145.900000
256.171021	146.120000
256.263916	146.500000
256.356812	146.600000
256.449707	146.580000
256.542603	146.420000
256.635498	146.880000
256.728394	147.000000
256.821289	147.020000
256.914215	147.140000
257.007080	147.720000
257.100006	147.520000
257.192932	147.720000
257.285828	147.740000
257.378723	147.640000
257.471619	147.100000
257.564545	146.360000
257.657440	145.960000
257.750336	146.440000
257.843262	146.120000
257.936157	147.360000
258.029053	147.900000
258.121979	148.240000
258.214874	147.760000
258.307800	147.680000
258.400696	146.060000
258.493622	146.100000
258.586517	145.120000
258.679443	145.220000
258.772339	145.220000
258.865265	145.400000
258.958160	144.780000
259.051086	145.600000
259.144012	145.280000
259.236938	146.060000
259.329834	146.480000
259.422791	146.520000
259.515717	145.980000
259.608612	145.980000
259.701538	145.760000
259.794464	145.480000
259.887390	145.700000
259.980316	145.760000
260.073212	145.440000
260.166138	144.640000
260.259064	145.080000
260.351990	145.860000
260.444916	146.040000
260.537842	146.660000
260.630768	147.700000
260.723694	147.620000
260.816620	147.100000
260.909546	146.940000
261.002472	146.580000
261.095398	146.040000
261.188354	145.640000
261.281281	145.320000
261.374207	145.660000
261.467133	146.460000
261.560089	146.480000
261.653015	146.380000
261.745972	146.900000
261.838867	146.940000
261.931824	146.780000
262.024780	146.480000
262.117706	147.220000
262.210663	147.300000
262.303589	147.100000
262.396515	146.960000
262.489471	147.860000
262.582397	147.300000
262.675354	146.920000
262.768280	146.960000
262.861237	146.720000
262.954163	146.300000
263.047119	146.440000
263.140045	146.300000
263.233002	146.180000
263.325958	146.080000
263.418884	145.760000
263.511841	145.800000
263.604797	146.120000
263.697723	146.140000
263.790680	146.120000
263.883636	146.840000
263.976593	146.680000
264.069550	146.740000
264.162476	146.720000
264.255463	146.940000
264.348419	146.320000
264.441376	146.800000
264.534332	146.160000
264.627289	146.140000
264.720245	146.620000
264.813202	146.400000
264.906158	146.280000
264.999115	146.940000
265.092072	147.040000
265.185028	147.060000
265.277985	147.500000
265.370941	147.220000
265.463898	146.900000
265.556854	146.560000
265.649811	145.600000
265.742798	145.680000
265.835754	145.940000
265.928711	146.240000
266.021667	146.760000
266.114655	147.340000
266.207611	147.220000
266.300568	146.500000
266.393585	146.080000
266.486511	146.060000
266.579498	145.440000
266.672485	145.360000
266.765442	145.760000
266.858429	145.960000
266.951385	145.320000
267.044342	145.560000
267.137329	145.420000
267.230316	145.560000
267.323273	145.460000
267.416260	146.320000
267.509216	146.400000
267.602203	146.560000
267.695160	146.800000
267.788147	147.080000
267.881134	146.580000
267.974091	146.620000
268.067078	146.380000
268.160065	146.200000
268.253052	145.980000
268.346008	146.140000
268.438995	145.960000
268.531982	146.140000
268.624969	145.860000
268.717987	146.140000
268.810944	146.160000
268.903961	146.440000
268.996948	146.340000
269.089905	146.840000
269.182892	146.760000
269.275879	146.820000
269.368866	146.520000
269.461853	146.780000
269.554871	146.720000
269.647858	146.640000
269.740845	146.900000
269.833832	147.000000
269.926819	146.660000
270.019806	146.540000
270.112793	146.200000
270.205811	145.900000
270.298798	145.760000
270.391785	146.420000
270.484772	146.180000
270.577789	146.240000
270.670776	146.020000
270.763763	146.140000
270.856750	146.040000
270.949768	145.740000
271.042786	146.040000
271.135773	146.020000
271.228790	146.260000
271.321808	145.700000
271.414795	145.880000
271.507782	145.600000
271.600800	145.540000
271.693817	145.680000
271.786804	146.180000
271.879822	146.320000
271.972809	146.240000
272.065826	146.740000
272.158844	146.240000
272.251831	146.840000
272.344849	146.900000
272.437866	147.020000
272.530853	146.940000
272.623871	147.260000
272.716888	146.020000
272.809906	146.240000
272.902893	146.280000
272.995911	145.760000
273.088928	145.920000
273.181946	146.280000
273.274963	145.740000
273.367981	145.680000
273.460999	146.120000
273.554047	146.180000
273.647003	146.840000
273.740051	147.140000
273.833069	147.300000
273.926086	147.200000
274.019135	146.720000
274.112152	146.000000
274.205170	145.940000
274.298187	146.220000
274.391205	145.660000
274.484222	145.860000
274.577240	145.940000
274.670258	145.740000
274.763306	145.340000
274.856323	146.040000
274.949341	146.060000
275.042358	146.540000
275.135406	146.660000
275.228424	146.800000
275.321442	146.620000
275.414490	146.380000
275.507507	146.580000
275.600525	146.880000
275.693573	146.500000
275.786591	146.220000
275.879669	146.480000
275.972656	145.700000
276.065735	145.400000
276.158752	146.180000
276.251801	146.900000
276.344818	146.960000
276.437866	147.100000
276.530884	147.100000
276.623932	146.280000
276.716980	146.240000
276.809998	146.300000
276.903046	146.400000
276.996094	147.160000
277.089111	148.060000
277.182159	148.500000
277.275208	148.160000
277.368256	148.280000
277.461304	147.700000
277.554321	146.900000
277.647369	146.240000
277.740417	146.080000
277.833466	145.820000
277.926514	145.820000
278.019562	146.600000
278.112610	146.160000
278.205688	146.340000
278.298706	146.660000
278.391785	146.460000
278.484833	145.760000
278.577881	145.980000
278.670929	146.440000
278.763977	146.300000
278.857025	146.740000
278.950073	146.860000
279.043121	146.620000
279.136169	146.440000
279.229248	146.300000
279.322296	146.180000
279.415344	146.080000
279.508392	146.280000
279.601440	146.060000
279.694519	145.540000
279.787567	145.300000
279.880615	145.400000
279.973694	145.160000
280.066742	145.220000
280.159790	145.920000
280.252869	145.680000
280.345917	145.640000
280.438995	145.700000
280.532074	145.640000
280.625122	145.940000
280.718201	147.120000
280.811279	147.160000
280.904327	147.100000
280.997406	147.400000
281.090454	147.080000
281.183533	146.160000
281.276581	146.200000
281.369659	146.180000
281.462738	145.880000
281.555786	145.840000
281.648865	146.080000
281.741943	145.840000
281.835022	146.440000
281.928070	146.420000
282.021149	146.460000
282.114227	146.060000
282.207306	146.260000
282.300385	146.280000
282.393433	146.460000
282.486511	146.620000
282.579590	147.280000
282.672668	147.360000
282.765747	146.820000
282.858856	146.640000
282.951904	146.740000
283.045013	146.860000
283.138062	147.120000
283.231171	147.440000
283.324249	147.900000
283.417328	147.520000
283.510406	147.000000
283.603485	146.900000
283.696564	146.700000
283.789642	146.460000
283.882751	146.360000
283.975830	146.680000
284.068909	145.860000
284.161987	146.420000
284.255066	146.060000
284.348175	146.040000
284.441254	145.640000
284.534332	146.360000
284.627441	145.760000
284.720520	145.760000
284.813599	146.020000
284.906708	146.180000
284.999786	145.620000
285.092896	145.540000
285.185974	146.460000
285.279053	145.720000
285.372192	145.920000
285.465240	146.920000
285.558380	146.780000
285.651459	146.040000
285.744568	146.940000
285.837677	146.480000
285.930756	146.060000
286.023865	146.540000
286.116943	146.160000
286.210052	146.420000
286.303162	146.600000
286.396240	146.680000
286.489349	146.460000
286.582458	146.820000
286.675568	146.140000
286.768646	146.080000
286.861755	146.340000
286.954865	146.840000
287.047974	146.420000
287.141083	146.620000
287.234161	146.640000
287.327271	146.200000
287.420380	146.400000
287.513519	146.280000
287.606598	146.300000
287.699738	146.360000
287.792816	146.520000
287.885956	145.960000
287.979034	146.620000
288.072174	146.520000
288.165283	146.360000
288.258392	146.260000
288.351501	145.860000
288.444611	145.740000
288.537720	145.920000
288.630859	146.080000
288.723969	146.160000
288.817078	146.720000
288.910187	146.640000
289.003296	146.200000
289.096436	145.620000
289.189545	145.320000
289.282654	144.800000
289.375763	145.160000
289.468903	145.440000
289.562012	146.020000
289.655121	146.120000
289.748260	146.420000
289.841400	146.640000
289.934509	146.620000
290.027649	146.780000
290.120728	146.640000
290.213898	146.720000
290.306976	146.080000
290.400146	146.160000
290.493256	145.780000
290.586395	146.260000
290.679535	146.680000
290.772644	146.600000
290.865784	145.780000
290.958893	145.600000
291.052032	145.100000
291.145172	144.780000
291.238281	144.620000
291.331421	144.880000
291.424561	145.360000
291.517670	145.180000
291.610809	144.960000
291.703949	145.060000
291.797089	145.500000
291.890228	145.100000
291.983337	145.360000
292.076477	145.260000
292.169617	145.500000
292.262756	145.660000
292.355927	145.640000
292.449036	145.380000
292.542206	145.620000
292.635315	145.840000
292.728485	145.680000
292.821625	145.580000
292.914764	146.560000
293.007904	146.600000
293.101044	146.500000
293.194183	146.500000
293.287323	146.880000
293.380463	146.240000
293.473602	145.900000
293.566742	146.080000
293.659882	146.380000
293.753021	146.700000
293.846191	146.500000
293.939331	146.360000
294.032471	145.980000
294.125610	145.540000
294.218781	145.560000
294.311920	146.060000
294.405060	146.180000
294.498230	146.260000
294.591370	146.500000
294.684540	145.560000
294.777679	145.080000
294.870850	145.440000
294.963959	145.280000
295.057159	145.080000
295.150299	145.760000
295.243469	145.560000
295.336609	145.000000
295.429779	144.940000
295.522919	145.380000
295.616089	145.200000
295.709229	146.040000
295.802399	146.140000
295.895569	146.180000
295.988708	145.900000
296.081879	145.980000
296.175018	145.420000
296.268188	145.380000
296.361359	145.660000
296.454529	145.720000
296.547668	145.620000
296.640839	145.700000
296.734009	146.000000
296.827179	146.300000
296.920319	146.260000
297.013519	145.980000
297.106659	146.160000
297.199860	145.940000
297.292999	145.540000
297.386200	145.160000
297.479309	145.320000
297.572510	145.120000
297.665680	144.880000
297.758850	144.900000
297.852020	144.920000
297.945190	144.680000
298.038361	144.400000
298.131531	145.740000
298.224701	145.540000
298.317871	145.220000
298.411072	145.240000
298.504242	145.360000
298.597412	144.440000
298.690582	144.840000
298.783752	145.360000
298.876923	146.020000
298.970093	146.120000
299.063293	146.660000
299.156464	146.840000
299.249634	146.880000
299.342834	146.840000
299.436005	147.220000
299.529205	146.920000
299.622345	146.820000
299.715576	146.460000
299.808716	146.020000
299.901917	146.000000
299.995117	146.240000
300.088287	146.400000
300.181488	146.340000
300.274658	146.320000
300.367828	146.200000
300.461029	145.740000
300.554199	145.720000
300.647400	145.800000
300.740601	146.360000
300.833771	146.340000
300.926971	146.840000
301.020142	146.320000
301.113342	146.440000
301.206512	146.220000
301.299713	146.200000
301.392914	146.040000
301.486084	146.520000
301.579285	146.480000
301.672516	146.720000
301.765686	146.580000
301.858887	146.340000
301.952057	146.340000
302.045288	146.800000
302.138458	146.440000
302.231659	146.260000
302.324860	146.300000
302.418060	145.760000
302.511261	145.400000
302.604462	145.620000
302.697662	145.840000
302.790863	145.800000
302.884064	145.760000
302.977264	145.940000
303.070465	146.200000
303.163666	146.480000
303.256866	146.820000
303.350067	147.120000
303.443268	146.960000
303.536469	146.780000
303.629669	146.320000
303.722870	146.240000
303.816071	145.660000
303.909271	145.820000
304.002472	145.220000
304.095673	145.080000
304.188934	144.460000
304.282104	145.760000
304.375336	145.780000
304.468506	145.820000
304.561768	145.880000
304.654968	146.500000
304.748169	145.700000
304.841370	145.460000
304.934601	145.960000
305.027802	145.580000
305.121002	145.000000
305.214233	145.040000
305.307434	145.080000
305.400665	145.540000
305.493866	145.760000
305.587097	146.280000
305.680298	146.320000
305.773499	146.780000
305.866730	146.000000
305.959930	146.540000
306.053162	146.760000
306.146393	146.400000
306.239594	145.700000
306.332825	145.960000
306.426025	146.240000
306.519287	145.400000
306.612488	145.800000
306.705719	145.960000
306.798920	146.040000
306.892181	145.300000
306.985352	145.300000
307.078613	145.000000
307.171844	145.360000
307.265045	144.780000
307.358276	144.880000
307.451508	145.420000
307.544739	145.680000
307.637970	145.360000
307.731201	145.700000
307.824402	146.260000
307.917633	146.520000
308.010864	147.060000
308.104095	147.320000
308.197327	147.420000
308.290558	147.520000
308.383789	146.980000
308.477020	146.420000
308.570251	145.620000
308.663483	145.280000
308.756714	144.640000
308.849976	144.860000
308.943176	145.120000
309.036438	145.500000
309.129639	145.540000
309.222900	145.560000
309.316101	145.380000
309.409393	145.020000
309.502625	145.000000
309.595856	145.020000
309.689087	145.380000
309.782318	145.460000
309.875580	145.580000
309.968811	145.740000
310.062042	145.680000
310.155273	145.500000
310.248535	146.080000
310.341766	145.820000
310.434998	145.760000
310.528259	145.760000
310.621490	145.960000
310.714722	144.900000
310.807983	145.160000
310.901215	145.440000
310.994476	145.360000
311.087708	144.660000
311.181000	145.360000
311.274200	145.280000
311.367462	145.100000
311.460693	145.180000
311.553986	146.240000
311.647186	146.400000
311.740479	147.020000
311.833710	146.600000
311.926971	146.660000
312.020203	145.660000
312.113464	145.280000
312.206726	144.160000
312.299957	144.680000
312.393219	144.960000
312.486481	145.440000
312.579712	145.520000
312.672974	146.100000
312.766235	145.780000
312.859497	145.480000
312.952759	145.720000
313.045990	146.320000
313.139252	145.720000
313.232513	145.920000
313.325775	146.280000
313.419037	145.880000
313.512299	144.920000
313.605530	145.680000
313.698822	145.740000
313.792053	145.520000
313.885345	145.260000
313.978577	145.600000
314.071869	145.200000
314.165131	145.400000
314.258392	145.600000
314.351654	145.840000
314.444916	145.300000
314.538177	146.140000
314.631439	146.400000
314.724701	146.100000
314.817993	146.220000
314.911255	146.920000
315.004517	145.920000
315.097778	145.620000
315.191040	146.360000
315.284302	146.340000
315.377594	145.780000
315.470856	146.200000
315.564117	145.720000
315.657379	144.620000
315.750671	144.260000
315.843933	144.780000
315.937195	144.100000
316.030518	144.060000
316.123749	144.580000
316.217041	145.340000
316.310303	145.380000
316.403595	146.160000
316.496857	146.580000
316.590149	146.740000
316.683411	146.260000
316.776703	145.780000
316.869965	145.560000
316.963257	145.460000
317.056519	144.880000
317.149811	144.780000
317.243073	145.000000
317.336365	145.040000
317.429626	145.300000
317.522919	145.860000
317.616180	146.040000
317.709473	145.920000
317.802765	145.700000
317.896027	145.400000
317.989319	145.940000
318.082611	145.880000
318.175873	145.860000
318.269165	146.240000
318.362488	146.220000
318.455750	145.260000
318.549042	145.540000
318.642303	146.000000
318.735626	145.400000
318.828888	145.480000
318.922211	145.420000
319.015472	145.820000
319.108765	145.160000
319.202057	145.140000
319.295349	145.320000
319.388641	145.640000
319.481934	145.200000
319.575226	145.340000
319.668518	145.780000
319.761810	145.900000
319.855103	146.040000
319.948395	146.040000
320.041687	146.020000
320.134979	146.000000
320.228271	145.560000
320.321564	145.280000
320.414856	145.120000
320.508148	145.080000
320.601440	144.900000
320.694763	145.020000
320.788025	145.580000
320.881348	145.780000
320.974640	145.740000
321.067963	145.540000
321.161224	145.620000
321.254547	144.960000
321.347839	145.500000
321.441162	145.640000
321.534454	146.080000
321.627747	145.960000
321.721069	146.660000
321.814362	146.340000
321.907654	146.500000
322.000946	146.360000
322.094269	146.760000
322.187561	146.340000
322.280884	146.360000
322.374176	146.460000
322.467468	146.820000
322.560791	146.840000
322.654083	147.000000
322.747406	147.120000
322.840698	146.940000
322.934021	147.000000
323.027344	147.040000
323.120636	146.580000
323.213959	146.220000
323.307251	146.100000
323.400574	145.660000
323.493866	144.880000
323.587219	145.300000
323.680511	145.720000
323.773834	146.060000
323.867157	146.180000
323.960449	146.660000
324.053772	146.300000
324.147095	145.940000
324.240387	146.000000
324.333710	145.800000
324.427032	145.860000
324.520355	145.940000
324.613647	145.760000
324.706970	145.440000
324.800293	145.580000
324.893616	145.660000
324.986938	146.140000
325.080231	146.020000
325.173553	146.620000
325.266876	146.840000
325.360199	146.920000
325.453522	146.340000
325.546875	146.160000
325.640167	146.040000
325.733521	146.240000
325.826813	146.160000
325.920166	145.920000
326.013489	145.940000
326.106812	145.020000
326.200134	144.320000
326.293457	143.980000
326.386780	144.240000
326.480103	144.400000
326.573425	144.560000
326.666748	144.680000
326.760071	145.140000
326.853424	145.560000
326.946747	145.540000
327.040070	146.480000
327.133392	146.680000
327.226715	146.100000
327.320068	145.780000
327.413391	146.380000
327.506714	145.560000
327.600037	145.240000
327.693390	145.420000
327.786713	145.340000
327.880066	145.040000
327.973358	145.420000
328.066742	146.340000
328.160034	146.680000
328.253418	147.040000
328.346710	146.660000
328.440063	146.120000
328.533417	145.300000
328.626740	145.460000
328.720093	145.240000
328.813416	145.220000
328.906769	145.240000
329.000092	145.540000
329.093445	145.040000
329.186768	144.880000
329.280121	145.380000
329.373444	146.000000
329.466797	146.040000
329.560120	146.160000
329.653473	146.220000
329.746796	145.940000
329.840149	145.540000
329.933502	145.380000
330.026825	144.980000
330.120178	144.940000
330.213562	144.880000
330.306854	145.180000
330.400238	145.280000
330.493561	145.460000
330.586945	146.340000
330.680237	146.720000
330.773621	146.660000
330.866974	146.580000
330.960327	147.020000
331.053680	146.540000
331.147003	146.300000
331.240356	146.440000
331.333710	146.500000
331.427063	146.180000
331.520416	145.700000
331.613770	145.520000
331.707123	145.420000
331.800476	145.380000
331.893829	146.160000
331.987152	146.640000
332.080505	146.540000
332.173859	146.580000
332.267212	146.060000
332.360565	145.280000
332.453918	144.740000
332.547333	144.860000
332.640656	144.700000
332.734039	145.160000
332.827362	145.260000
332.920746	145.720000
333.014069	145.940000
333.107452	146.580000
333.200806	146.720000
333.294159	146.820000
333.387543	146.460000
333.480896	145.960000
333.574249	145.220000
333.667603	145.040000
333.760956	145.160000
333.854340	145.220000
333.947693	145.640000
334.041046	145.420000
334.134430	145.800000
334.227783	145.440000
334.321136	145.620000
334.414520	145.280000
334.507874	145.960000
334.601227	145.600000
334.694611	145.460000
334.787964	145.400000
334.881348	145.760000
334.974701	145.600000
335.068085	145.500000
335.161438	146.020000
335.254822	145.900000
335.348175	145.760000
335.441559	145.300000
335.534943	145.840000
335.628296	145.660000
335.721680	145.960000
335.815033	146.460000
335.908417	146.820000
336.001770	146.460000
336.095154	146.300000
336.188538	145.640000
336.281891	144.920000
336.375275	144.360000
336.468658	144.240000
336.562012	144.360000
336.655396	144.960000
336.748779	145.600000
336.842133	146.000000
336.935516	146.280000
337.028900	145.980000
337.122284	145.840000
337.215637	145.980000
337.309021	146.000000
337.402435	145.780000
337.495789	145.840000
337.589203	145.520000
337.682526	144.980000
337.775940	145.120000
337.869324	145.280000
337.962708	145.200000
338.056091	145.760000
338.149475	145.400000
338.242859	145.460000
338.336243	145.200000
338.429626	145.580000
338.523010	145.280000
338.616394	145.400000
338.709778	145.540000
338.803162	145.640000
338.896545	145.500000
338.989929	145.340000
339.083313	145.740000
339.176697	145.120000
339.270081	145.120000
339.363464	145.480000
339.456848	145.920000
339.550232	145.380000
339.643616	145.880000
339.737030	145.740000
339.830383	145.380000
339.923828	145.180000
340.017181	145.560000
340.110596	145.380000
340.203949	145.600000
340.297363	145.360000
340.390778	145.460000
340.484161	145.400000
340.577545	145.160000
340.670959	145.160000
340.764343	145.360000
340.857727	145.340000
340.951111	144.920000
341.044525	145.380000
341.137909	145.040000
341.231293	144.960000
341.324707	144.420000
341.418091	145.500000
341.511505	145.260000
341.604889	145.420000
341.698303	145.680000
341.791687	146.100000
341.885071	145.320000
341.978485	145.400000
342.071899	145.660000
342.165283	145.680000
342.258698	145.860000
342.352081	146.260000
342.445496	146.440000
342.538879	146.180000
342.632324	145.780000
342.725708	145.400000
342.819122	144.960000
342.912506	144.700000
343.005920	144.920000
343.099335	145.800000
343.192719	146.160000
343.286133	146.280000
343.379547	146.700000
343.472931	146.720000
343.566345	146.040000
343.659760	146.100000
343.753143	145.640000
343.846558	145.400000
343.939972	145.360000
344.033386	146.060000
344.126770	145.840000
344.220184	146.220000
344.313599	146.260000
344.407043	146.260000
344.500427	145.460000
344.593872	145.840000
344.687225	145.720000
344.780670	145.220000
344.874054	145.220000
344.967499	145.840000
345.060913	145.640000
345.154327	145.680000
345.247742	145.700000
345.341156	145.380000
345.434570	145.080000
345.527985	145.020000
345.621399	145.200000
345.714813	145.380000
345.808228	145.800000
345.901642	145.560000
345.995056	145.420000
346.088470	145.680000
346.181885	145.720000
346.275299	145.480000
346.368713	145.260000
346.462128	144.940000
346.555573	144.740000
346.648987	145.100000
346.742401	145.120000
346.835815	145.740000
346.929260	145.880000
347.022644	145.860000
347.116119	145.800000
347.209503	146.040000
347.302948	146.840000
347.396362	147.560000
347.489807	147.840000
347.583221	148.220000
347.676636	147.940000
347.770050	146.640000
347.863495	145.980000
347.956909	145.860000
348.050323	145.100000
348.143768	145.060000
348.237183	145.020000
348.330597	145.460000
348.424042	145.740000
348.517456	146.300000
348.610901	146.680000
348.704315	146.840000
348.797760	146.260000
348.891174	145.540000
348.984619	144.860000
349.078033	145.020000
349.171448	145.880000
349.264923	145.860000
349.358337	145.980000
349.451782	146.440000
349.545197	145.680000
349.638641	144.680000
349.732086	144.680000
349.825500	145.160000
349.918945	144.860000
350.012390	145.460000
350.105804	146.120000
350.199249	146.440000
350.292664	146.520000
350.386108	146.520000
350.479553	147.200000
350.572968	146.980000
350.666412	147.220000
350.759857	146.780000
350.853302	147.300000
350.946716	146.280000
351.040161	146.280000
351.133606	146.060000
351.227081	146.200000
351.320465	146.540000
351.413940	146.900000
351.507355	146.720000
351.600830	146.820000
351.694244	146.660000
351.787720	145.940000
351.881104	145.860000
351.974579	145.940000
352.067993	146.480000
352.161469	146.420000
352.254883	146.000000
352.348358	145.760000
352.441803	145.700000
352.535248	145.120000
352.628693	145.300000
352.722137	145.760000
352.815582	146.100000
352.909027	146.080000
353.002472	145.860000
353.095917	145.660000
353.189362	145.860000
353.282806	145.660000
353.376251	145.420000
353.469696	145.080000
353.563141	145.800000
353.656586	145.560000
353.750061	145.020000
353.843475	145.320000
353.936981	146.160000
354.030396	145.400000
354.123871	145.160000
354.217285	146.320000
354.310760	146.620000
354.404175	146.500000
354.497681	146.320000
354.591095	146.520000
354.684570	145.500000
354.777985	145.080000
354.871490	144.940000
354.964935	145.500000
355.058380	145.600000
355.151855	145.700000
355.245300	146.100000
355.338745	146.260000
355.432220	146.480000
355.525665	145.860000
355.619110	146.300000
355.712585	145.900000
355.806030	145.660000
355.899475	144.960000
355.992950	145.880000
356.086426	146.220000
356.179871	146.260000
356.273346	146.440000
356.366791	146.760000
356.460266	146.640000
356.553711	145.860000
356.647186	145.980000
356.740631	145.500000
356.834106	145.120000
356.927551	145.220000
357.021027	145.240000
357.114471	145.340000
357.207947	145.460000
357.301422	146.060000
357.394867	145.740000
357.488342	146.220000
357.581818	146.180000
357.675262	146.520000
357.768738	146.180000
357.862213	145.760000
357.955658	145.260000
358.049133	144.900000
358.142609	144.900000
358.236053	144.740000
358.329529	144.800000
358.423035	145.360000
358.516449	145.480000
358.609955	145.900000
358.703400	146.700000
358.796906	147.120000
358.890350	146.380000
358.983826	146.600000
359.077271	145.800000
359.170776	145.260000
359.264221	145.280000
359.357727	145.740000
359.451172	145.980000
359.544647	146.360000
359.638123	145.940000
359.731598	146.160000
359.825073	146.340000
359.918549	145.980000
360.012024	145.940000
360.105499	146.220000
360.198975	145.940000
360.292450	145.800000
360.385925	145.840000
360.479401	145.520000
360.572876	145.720000
360.666351	146.180000
360.759857	146.020000
360.853302	146.240000
360.946808	145.980000
361.040253	145.760000
361.133759	145.360000
361.227203	145.720000
361.320709	144.920000
361.414154	145.580000
361.507660	145.800000
361.601105	145.760000
361.694641	146.160000
361.788086	146.360000
361.881592	146.540000
361.975067	146.560000
362.068542	147.060000
362.162018	146.740000
362.255524	146.760000
362.348999	146.480000
362.442474	146.500000
362.535950	146.040000
362.629456	145.680000
362.722931	145.440000
362.816406	145.620000
362.909882	145.880000
363.003387	145.400000
363.096863	145.860000
363.190338	146.260000
363.283875	145.780000
363.377319	145.600000
363.470825	146.080000
363.564301	145.360000
363.657806	145.800000
363.751282	145.860000
363.844788	146.600000
363.938232	146.120000
364.031769	147.000000
364.125214	146.720000
364.218750	147.260000
364.312225	145.800000
364.405731	146.420000
364.499207	145.900000
364.592712	145.700000
364.686188	145.560000
364.779694	146.000000
364.873169	145.700000
364.966675	145.540000
365.060150	145.560000
365.153656	145.620000
365.247131	145.780000
365.340637	145.900000
365.434143	146.440000
365.527618	146.520000
365.621155	145.720000
365.714600	145.740000
365.808136	145.800000
365.901611	144.840000
365.995117	144.620000
366.088593	145.000000
366.182129	144.700000
366.275604	144.920000
366.369110	145.140000
366.462585	145.080000
366.556122	145.580000
366.649567	145.720000
366.743103	145.600000
366.836609	145.540000
366.930115	145.980000
367.023590	145.740000
367.117096	145.700000
367.210602	145.700000
367.304108	146.640000
367.397614	147.200000
367.491119	147.560000
367.584595	147.700000
367.678101	147.920000
367.771606	147.440000
367.865112	146.760000
367.958649	145.900000
368.052124	145.620000
368.145660	145.340000
368.239136	145.600000
368.332672	145.500000
368.426147	145.820000
368.519684	146.040000
368.613159	146.220000
368.706696	145.940000
368.800171	146.020000
368.893707	145.960000
368.987183	145.760000
369.080719	145.600000
369.174225	145.280000
369.267731	145.740000
369.361237	145.740000
369.454742	145.920000
369.548248	146.280000
369.641754	146.240000
369.735260	145.600000
369.828766	145.240000
369.922272	145.640000
370.015808	145.300000
370.109314	145.080000
370.202820	145.140000
370.296356	146.220000
370.389832	145.960000
370.483368	145.560000
370.576874	145.480000
370.670410	145.820000
370.763885	144.640000
370.857422	144.640000
370.950928	144.900000
371.044464	146.140000
371.137939	145.960000
371.231476	146.800000
371.324982	147.400000
371.418518	147.700000
371.512024	146.980000
371.605560	146.800000
371.699066	147.080000
371.792572	146.560000
371.886108	146.680000
371.979614	146.780000
372.073120	147.400000
372.166656	146.920000
372.260162	146.840000
372.353668	146.280000
372.447205	145.520000
372.540710	145.220000
372.634277	145.040000
372.727753	145.280000
372.821320	145.420000
372.914795	146.240000
373.008362	145.880000
373.101837	146.060000
373.195404	145.580000
373.288879	145.520000
373.382446	145.980000
373.475922	146.260000
373.569489	146.640000
373.662964	147.160000
373.756531	147.240000
373.850037	146.980000
373.943573	146.800000
374.037109	146.040000
374.130615	146.240000
374.224152	146.460000
374.317657	146.460000
374.411194	147.400000
374.504730	147.540000
374.598236	147.040000
374.691772	146.600000
374.785309	146.260000
374.878815	144.960000
374.972351	145.320000
375.065887	145.200000
375.159454	146.260000
375.252930	146.120000
375.346497	146.680000
375.440002	147.060000
375.533569	146.960000
375.627045	145.840000
375.720612	145.900000
375.814117	146.140000
375.907684	145.640000
376.001160	145.540000
376.094727	145.340000
376.188232	146.120000
376.281799	146.160000
376.375336	146.040000
376.468872	146.660000
376.562408	147.220000
376.655914	146.540000
376.749451	146.400000
376.842987	146.680000
376.936523	146.440000
377.030060	146.140000
377.123596	146.420000
377.217133	145.780000
377.310669	145.720000
377.404205	146.180000
377.497772	146.660000
377.591278	146.520000
377.684845	147.520000
377.778351	147.480000
377.871918	146.960000
377.965424	146.280000
378.058990	146.120000
378.152496	145.820000
378.246063	146.300000
378.339569	146.520000
378.433136	146.500000
378.526642	146.340000
378.620209	146.120000
378.713745	145.460000
378.807312	145.700000
378.900848	146.020000
378.994385	146.340000
379.087921	145.680000
379.181458	146.080000
379.274994	145.300000
379.368530	145.280000
379.462097	145.580000
379.555634	146.380000
379.649170	145.740000
379.742706	146.020000
379.836273	146.260000
379.929810	145.760000
380.023376	145.400000
380.116882	145.380000
380.210449	145.240000
380.303986	145.040000
380.397552	144.640000
380.491058	144.980000
380.584656	145.100000
380.678162	145.400000
380.771729	145.220000
380.865265	146.080000
380.958832	146.000000
381.052368	146.180000
381.145935	146.440000
381.239471	147.000000
381.333008	146.560000
381.426575	146.360000
381.520111	146.720000
381.613647	146.580000
381.707214	146.220000
381.800751	145.720000
381.894318	146.120000
381.987854	145.360000
382.081421	145.080000
382.174988	145.040000
382.268524	145.340000
382.362091	145.180000
382.455627	146.240000
382.549194	146.320000
382.642731	145.800000
382.736298	145.620000
382.829834	145.280000
382.923401	145.220000
383.016937	145.440000
383.110504	146.100000
383.204041	146.420000
383.297607	146.920000
383.391174	146.180000
383.484741	146.560000
383.578278	146.440000
383.671844	146.200000
383.765411	145.460000
383.858948	146.120000
383.952515	145.800000
384.046051	146.240000
384.139618	146.640000
384.233185	147.320000
384.326721	146.920000
384.420288	147.400000
384.513855	146.900000
384.607422	147.180000
384.700989	147.200000
384.794525	146.720000
384.888123	146.140000
384.981659	146.180000
385.075226	145.480000
385.168762	145.300000
385.262360	145.600000
385.355896	144.880000
385.449463	144.780000
385.542999	144.980000
385.636597	145.260000
385.730164	145.600000
385.823730	145.700000
385.917267	145.420000
386.010834	145.520000
386.104401	145.360000
386.197968	145.320000
386.291534	145.920000
386.385101	146.120000
386.478668	146.680000
386.572235	146.520000
386.665802	145.840000
386.759338	145.440000
386.852905	145.520000
386.946472	144.680000
387.040070	145.020000
387.133606	145.200000
387.227203	145.140000
387.320740	145.520000
387.414337	145.360000
387.507874	145.280000
387.601471	145.320000
387.695007	145.200000
387.788605	144.580000
387.882141	145.040000
387.975739	144.700000
388.069275	144.640000
388.162872	145.000000
388.256439	145.100000
388.350037	144.720000
388.443604	144.900000
388.537170	145.140000
388.630737	145.340000
388.724304	145.780000
388.817871	145.800000
388.911438	145.640000
389.005005	145.800000
389.098602	146.080000
389.192169	145.760000
389.285736	146.480000
389.379333	146.480000
389.472870	146.060000
389.566467	145.840000
389.660034	145.820000
389.753632	145.300000
389.847168	145.700000
389.940765	146.040000
390.034332	146.160000
390.127930	145.960000
390.221466	146.140000
390.315063	145.520000
390.408630	144.860000
390.502228	143.920000
390.595795	144.400000
390.689362	144.180000
390.782959	144.900000
390.876526	146.020000
390.970093	146.260000
391.063690	146.420000
391.157257	146.780000
391.250824	146.680000
391.344421	146.040000
391.437988	146.440000
391.531555	146.380000
391.625153	146.340000
391.718750	146.620000
391.812317	146.320000
391.905914	146.080000
391.999481	145.920000
392.093079	145.720000
392.186615	145.520000
392.280243	145.520000
392.373779	146.060000
392.467407	146.420000
392.560944	146.100000
392.654572	145.600000
392.748108	145.780000
392.841736	145.380000
392.935303	145.060000
393.028900	145.220000
393.122467	145.400000
393.216064	145.220000
393.309631	144.780000
393.403229	144.420000
393.496796	144.280000
393.590393	143.760000
393.683990	144.340000
393.777557	144.980000
393.871155	145.260000
393.964722	146.060000
394.058350	146.640000
394.151917	146.520000
394.245514	146.240000
394.339081	146.580000
394.432678	146.460000
394.526245	146.040000
394.619873	145.580000
394.713409	146.020000
394.807037	145.620000
394.900604	145.660000
394.994202	146.100000
395.087769	146.420000
395.181396	145.760000
395.274994	146.580000
395.368561	145.680000
395.462158	145.820000
395.555756	145.740000
395.649353	146.260000
395.742920	145.460000
395.836517	146.540000
395.930115	145.740000
396.023712	146.100000
396.117279	146.140000
396.210876	145.640000
396.304474	145.160000
396.398071	145.960000
396.491669	146.020000
396.585266	145.540000
396.678833	145.900000
396.772461	146.320000
396.866028	146.040000
396.959656	146.160000
397.053223	146.700000
397.146851	146.760000
397.240417	146.880000
397.334015	147.940000
397.427582	148.420000
397.521210	149.500000
397.614807	151.200000
397.708405	152.860000
397.802002	154.820000
397.895599	158.200000
397.989197	161.740000
398.082794	166.120000
398.176392	171.800000
398.269989	177.780000
398.363586	185.180000
398.457184	194.620000
398.550781	205.960000
398.644379	217.080000
398.737976	231.300000
398.831573	246.060000
398.925201	260.580000
399.018768	275.520000
399.112396	292.000000
399.205963	307.540000
399.299591	322.700000
399.393158	338.300000
399.486786	353.440000
399.580353	367.520000
399.673981	380.960000
399.767578	394.960000
399.861206	409.160000
399.954773	423.040000
400.048401	434.180000
400.141998	441.840000
400.235596	446.400000
400.329193	445.280000
400.422791	439.040000
400.516418	429.640000
400.610016	418.980000
400.703613	405.880000
400.797211	390.440000
400.890808	375.000000
400.984436	359.860000
401.078033	343.020000
401.171631	325.060000
401.265259	307.860000
401.358826	290.520000
401.452484	272.940000
401.546051	256.360000
401.639679	239.720000
401.733246	224.980000
401.826904	210.220000
401.920471	197.000000
402.014099	185.600000
402.107697	176.800000
402.201324	169.480000
402.294891	164.360000
402.388550	160.380000
402.482147	157.080000
402.575745	154.060000
402.669373	151.360000
402.762970	149.380000
402.856567	148.080000
402.950195	147.660000
403.043793	146.920000
403.137390	147.540000
403.231018	146.740000
403.324615	147.300000
403.418243	146.440000
403.511841	147.280000
403.605469	146.720000
403.699066	147.240000
403.792694	146.820000
403.886292	147.220000
403.979919	146.820000
404.073517	146.220000
404.167145	146.380000
404.260712	146.400000
404.354370	146.080000
404.447937	146.140000
404.541595	146.480000
404.635162	146.720000
404.728821	147.180000
404.822418	146.740000
404.916046	146.480000
405.009644	146.740000
405.103271	146.320000
405.196899	145.660000
405.290497	145.840000
405.384125	146.080000
405.477722	145.660000
405.571350	145.420000
405.664948	145.640000
405.758575	145.600000
405.852203	145.300000
405.945801	145.400000
406.039429	145.500000
406.133057	145.360000
406.226654	145.400000
406.320312	145.400000
406.413879	145.520000
406.507538	145.740000
406.601135	145.300000
406.694763	145.880000
406.788361	145.440000
406.882019	145.080000
406.975586	145.560000
407.069244	146.180000
407.162872	145.820000
407.256470	146.080000
407.350098	146.140000
407.443726	145.300000
407.537323	144.640000
407.630951	145.040000
407.724579	144.860000
407.818207	145.460000
407.911804	145.500000
408.005432	145.800000
408.099060	145.740000
408.192688	146.080000
408.286285	145.460000
408.379913	145.340000
408.473572	145.320000
408.567169	144.620000
408.660828	144.400000
408.754395	144.460000
408.848053	144.580000
408.941650	144.600000
409.035309	144.380000
409.128906	144.380000
409.222565	144.540000
409.316132	144.900000
409.409790	144.860000
409.503387	145.420000
409.597046	145.860000
409.690674	146.020000
409.784302	146.000000
409.877930	145.720000
409.971558	145.640000
410.065186	145.160000
410.158783	144.940000
410.252411	144.920000
410.346039	145.520000
410.439667	145.600000
410.533295	145.920000
410.626923	146.240000
410.720551	146.040000
410.814209	146.340000
410.907806	146.200000
411.001465	145.760000
411.095062	145.720000
411.188721	145.800000
411.282318	145.160000
411.375977	145.100000
411.469574	145.340000
411.563232	144.900000
411.656830	144.640000
411.750488	144.580000
411.844086	144.420000
411.937744	144.720000
412.031372	144.560000
412.125000	144.800000
412.218628	144.940000
412.312256	145.900000
412.405884	145.980000
412.499512	146.300000
412.593170	146.440000
412.686798	146.720000
412.780426	145.900000
412.874054	145.940000
412.967682	146.140000
413.061310	146.740000
413.154968	146.900000
413.248566	146.920000
413.342224	146.740000
413.435852	146.700000
413.529510	145.780000
413.623108	145.280000
413.716766	145.680000
413.810364	146.060000
413.904022	145.480000
413.997650	145.580000
414.091309	146.240000
414.184906	145.760000
414.278564	145.120000
414.372192	145.900000
414.465851	146.180000
414.559479	145.560000
414.653107	146.580000
414.746735	146.440000
414.840393	146.280000
414.934021	146.420000
415.027649	146.320000
415.121277	146.060000
415.214935	146.740000
415.308563	146.600000
415.402191	145.860000
415.495850	145.900000
415.589478	145.320000
415.683136	144.720000
415.776733	144.860000
415.870422	145.480000
415.964020	144.980000
416.057678	145.100000
416.151306	145.380000
416.244965	145.380000
416.338562	145.300000
416.432251	146.040000
416.525848	146.900000
416.619507	147.080000
416.713165	147.320000
416.806793	147.000000
416.900421	147.040000
416.994080	146.240000
417.087708	146.120000
417.181366	145.640000
417.274994	145.640000
417.368622	145.680000
417.462280	146.260000
417.555908	146.120000
417.649567	146.080000
417.743195	146.340000
417.836853	146.200000
417.930481	146.100000
418.024170	146.320000
418.117767	146.740000
418.211426	146.860000
418.305054	147.040000
418.398712	146.300000
418.492340	146.000000
418.585999	146.040000
418.679626	146.180000
418.773285	146.060000
418.866913	146.680000
418.960571	147.120000
419.054230	147.180000
419.147858	147.020000
419.241516	147.140000
419.335144	146.640000
419.428802	146.220000
419.522461	145.760000
419.616089	145.400000
419.709747	145.420000
419.803375	145.620000
419.897034	145.640000
419.990662	145.800000
420.084320	146.500000
420.177979	146.660000
420.271606	146.420000
420.365295	146.920000
420.458893	147.060000
420.552582	146.940000
420.646210	146.820000
420.739868	146.860000
420.833496	146.500000
420.927155	146.020000
421.020782	145.660000
421.114471	144.940000
421.208069	144.800000
421.301758	145.000000
421.395386	145.460000
421.489044	145.340000
421.582703	145.840000
421.676361	146.840000
421.769989	146.460000
421.863647	146.520000
421.957306	146.580000
422.050934	146.720000
422.144592	145.960000
422.238251	145.600000
422.331909	145.480000
422.425537	145.520000
422.519196	145.320000
422.612854	145.200000
422.706543	145.360000
422.800140	145.520000
422.893829	145.280000
422.987457	144.960000
423.081146	145.200000
423.174744	145.860000
423.268433	145.520000
423.362061	145.480000
423.455750	145.600000
423.549347	145.760000
423.643036	144.920000
423.736664	145.480000
423.830353	145.780000
423.924011	146.400000
424.017639	145.800000
424.111298	146.040000
424.204956	145.500000
424.298615	145.580000
424.392273	145.080000
424.485931	145.380000
424.579559	145.500000
424.673218	145.640000
424.766876	145.600000
424.860535	145.400000
424.954193	145.160000
425.047882	145.620000
425.141510	145.640000
425.235199	145.460000
425.328796	145.400000
425.422485	145.520000
425.516113	144.920000
425.609802	144.920000
425.703430	145.000000
425.797119	145.020000
425.890747	144.920000
425.984436	145.000000
426.078064	145.020000
426.171753	144.980000
426.265411	144.980000
426.359070	145.560000
426.452728	145.700000
426.546356	145.600000
426.640015	145.320000
426.733673	145.340000
426.827332	144.920000
426.920990	145.620000
427.014648	145.300000
427.108307	145.800000
427.201965	146.440000
427.295624	146.720000
427.389282	145.700000
427.482941	146.180000
427.576630	146.120000
427.670258	145.320000
427.763947	145.060000
427.857574	145.200000
427.951263	145.040000
428.044922	145.000000
428.138611	145.320000
428.232239	145.940000
428.325928	146.780000
428.419556	147.160000
428.513245	146.960000
428.606903	146.800000
428.700562	145.860000
428.794220	144.920000
428.887878	144.280000
428.981537	144.220000
429.075195	144.620000
429.168854	145.060000
429.262512	145.220000
429.356201	145.660000
429.449860	145.840000
429.543518	145.620000
429.637177	145.760000
429.730835	145.900000
429.824493	145.520000
429.918182	145.460000
430.011810	145.120000
430.105530	144.660000
430.199158	144.900000
430.292847	145.080000
430.386475	145.080000
430.480164	145.140000
430.573792	145.060000
430.667511	144.740000
430.761139	144.660000
430.854828	145.260000
430.948456	145.200000
431.042145	145.700000
431.135834	145.560000
431.229492	145.660000
431.323151	145.140000
431.416809	145.500000
431.510468	145.180000
431.604156	145.420000
431.697815	145.000000
431.791473	144.780000
431.885132	144.320000
431.978821	144.640000
432.072479	144.960000
432.166138	145.880000
432.259827	145.940000
432.353485	146.640000
432.447174	147.080000
432.540802	146.720000
432.634491	146.380000
432.728149	146.780000
432.821838	146.840000
432.915466	145.840000
433.009186	145.940000
433.102814	145.400000
433.196503	145.060000
433.290131	144.980000
433.383850	145.600000
433.477509	145.740000
433.571167	146.880000
433.664856	147.520000
433.758514	147.820000
433.852173	147.620000
433.945862	147.220000
434.039520	146.420000
434.133179	145.480000
434.226868	144.720000
434.320526	144.220000
434.414185	144.660000
434.507874	144.840000
434.601562	145.060000
434.695221	145.300000
434.788910	145.920000
434.882538	146.100000
434.976257	145.540000
435.069885	145.820000
435.163574	145.760000
435.257233	145.280000
435.350922	144.900000
435.444580	145.060000
435.538269	144.860000
435.631897	145.360000
435.725616	145.980000
435.819275	146.260000
435.912964	146.580000
436.006622	147.140000
436.100311	146.740000
436.193970	146.060000
436.287628	145.700000
436.381317	145.560000
436.474976	145.060000
436.568665	144.880000
436.662323	145.420000
436.756012	145.740000
436.849670	145.500000
436.943390	145.240000
437.037018	145.100000
437.130737	144.880000
437.224365	144.220000
437.318085	144.620000
437.411713	144.680000
437.505432	144.980000
437.599060	145.400000
437.692780	146.460000
437.786407	146.060000
437.880127	146.140000
437.973755	146.140000
438.067474	145.540000
438.161133	145.020000
438.254822	145.700000
438.348480	145.640000
438.442169	146.140000
438.535828	146.500000
438.629517	146.020000
438.723175	145.460000
438.816864	146.000000
438.910553	145.300000
439.004211	145.140000
439.097900	145.160000
439.191559	145.220000
439.285248	144.600000
439.378906	144.700000
439.472626	144.700000
439.566284	144.860000
439.659973	145.260000
439.753632	145.200000
439.847321	145.740000
439.940979	145.940000
440.034698	146.100000
440.128326	145.380000
440.222046	145.720000
440.315674	145.300000
440.409393	145.360000
440.503082	145.260000
440.596741	145.800000
440.690430	145.880000
440.784088	145.620000
440.877777	144.940000
440.971466	144.920000
441.065125	144.760000
441.158813	144.600000
441.252502	144.800000
441.346161	145.400000
441.439850	145.640000
441.533539	145.540000
441.627197	145.820000
441.720886	145.860000
441.814606	145.900000
441.908234	146.040000
442.001953	146.020000
442.095612	145.940000
442.189301	145.900000
442.282959	145.820000
442.376678	145.200000
442.470306	145.720000
442.564026	145.440000
442.657684	145.660000
442.751404	145.960000
442.845032	147.020000
442.938751	146.420000
443.032440	146.380000
443.126099	145.960000
443.219788	146.080000
443.313477	145.440000
443.407166	145.900000
443.500824	146.020000
443.594513	146.460000
443.688202	146.320000
443.781891	145.740000
443.875549	145.280000
443.969238	145.340000
444.062927	145.140000
444.156647	144.660000
444.250275	145.480000
444.343994	145.820000
444.437653	145.980000
444.531372	146.140000
444.625031	146.040000
444.718719	145.440000
444.812378	145.420000
444.906097	145.440000
444.999756	145.020000
445.093445	145.240000
445.187103	145.520000
445.280823	145.940000
445.374512	145.260000
445.468201	145.380000
445.561859	145.000000
445.655548	144.920000
445.749237	144.180000
445.842926	144.640000
445.936615	145.280000
446.030304	145.320000
446.123962	145.420000
446.217651	145.200000
446.311340	145.380000
446.405029	144.500000
446.498749	144.560000
446.592407	144.320000
446.686096	144.840000
446.779755	144.900000
446.873474	145.240000
446.967133	145.520000
447.060852	145.420000
447.154510	145.240000
447.248230	145.200000
447.341858	145.160000
447.435577	144.780000
447.529236	144.680000
447.622955	144.760000
447.716644	144.660000
447.810333	144.740000
447.904022	145.380000
447.997711	145.560000
448.091400	145.720000
448.185059	145.760000
448.278748	146.140000
448.372437	145.540000
448.466125	145.920000
448.559814	145.860000
448.653503	146.260000
448.747192	146.220000
448.840912	146.800000
448.934570	146.600000
449.028290	146.940000
449.121948	146.240000
449.215637	146.080000
449.309296	145.560000
449.403015	145.780000
449.496674	145.540000
449.590393	145.960000
449.684052	145.480000
449.777771	146.480000
449.871429	145.660000
449.965149	145.680000
450.058838	145.380000
450.152527	146.160000
450.246216	145.440000
450.339905	146.000000
450.433594	145.540000
450.527283	146.540000
450.620972	146.040000
450.714661	146.280000
450.808350	146.240000
450.902039	146.780000
450.995728	146.000000
451.089417	145.820000
451.183105	145.680000
451.276794	146.260000
451.370514	145.640000
451.464172	145.020000
451.557892	145.220000
451.651550	145.460000
451.745270	144.700000
451.838928	144.580000
451.932648	145.140000
452.026306	145.320000
452.120026	144.780000
452.213684	145.460000
452.307404	145.680000
452.401062	145.720000
452.494781	145.740000
452.588470	145.860000
452.682159	145.200000
452.775848	145.420000
452.869537	145.020000
452.963226	144.720000
453.056915	144.800000
453.150604	144.920000
453.244293	145.280000
453.337982	146.100000
453.431671	146.420000
453.525360	146.820000
453.619049	147.120000
453.712769	147.020000
453.806427	146.440000
453.900146	145.820000
453.993805	145.600000
454.087555	145.880000
454.181213	145.900000
454.274933	145.740000
454.368591	146.140000
454.462311	146.280000
454.555969	145.720000
454.649689	146.100000
454.743347	146.100000
454.837067	146.580000
454.930756	147.100000
455.024445	147.300000
455.118134	146.560000
455.211853	146.940000
455.305542	146.480000
455.399231	145.960000
455.492920	145.860000
455.586609	146.200000
455.680298	146.240000
455.773987	146.080000
455.867676	146.000000
455.961365	146.240000
456.055084	145.980000
456.148773	145.600000
456.242493	145.420000
456.336151	145.160000
456.429871	145.260000
456.523529	145.520000
456.617249	145.100000
456.710907	146.060000
456.804626	146.240000
456.898315	145.860000
456.992035	145.480000
457.085693	145.640000
457.179413	144.800000
457.273102	145.580000
457.366791	145.580000
457.460480	146.000000
457.554199	146.980000
457.647888	147.300000
457.741577	146.480000
457.835266	146.620000
457.928955	146.660000
458.022644	146.320000
458.116364	146.220000
458.210052	146.260000
458.303741	146.340000
458.397461	146.020000
458.491119	145.480000
458.584839	145.580000
458.678528	145.680000
458.772247	145.200000
458.865906	145.340000
458.959625	146.680000
459.053284	146.540000
459.147003	146.420000
459.240692	147.380000
459.334412	147.320000
459.428070	146.480000
459.521790	146.420000
459.615479	146.260000
459.709198	146.400000
459.802887	146.140000
459.896576	145.900000
459.990265	146.120000
460.083954	146.480000
460.177673	145.420000
460.271362	145.500000
460.365051	145.440000
460.458740	145.180000
460.552429	144.580000
460.646149	144.700000
460.739838	144.600000
460.833527	145.000000
460.927246	144.880000
461.020905	144.780000
461.114655	145.000000
461.208313	144.980000
461.302032	144.600000
461.395691	145.120000
461.489441	145.380000
461.583099	145.180000
461.676819	145.260000
461.770477	145.240000
461.864197	144.720000
461.957916	144.760000
462.051605	144.340000
462.145294	145.300000
462.238983	145.000000
462.332703	145.600000
462.426392	146.220000
462.520081	146.660000
462.613770	145.920000
462.707489	146.380000
462.801178	146.220000
462.894867	145.620000
462.988556	145.700000
463.082275	145.820000
463.175964	145.160000
463.269684	145.220000
463.363342	145.180000
463.457092	144.580000
463.550751	144.700000
463.644470	145.240000
463.738129	145.040000
463.831879	145.340000
463.925537	146.260000
464.019257	146.240000
464.112946	146.040000
464.206665	145.820000
464.300323	145.760000
464.394043	145.540000
464.487762	145.540000
464.581451	146.160000
464.675140	146.580000
464.768829	146.580000
464.862549	146.480000
464.956238	146.440000
465.049927	146.460000
465.143646	146.020000
465.237335	145.860000
465.331024	146.420000
465.424713	146.320000
465.518433	146.160000
465.612152	146.260000
465.705811	146.420000
465.799561	146.000000
465.893219	145.740000
465.986938	145.480000
466.080597	145.400000
466.174347	145.700000
466.268005	145.840000
466.361725	146.140000
466.455414	146.100000
466.549133	146.060000
466.642792	145.700000
466.736542	145.140000
466.830231	145.300000
466.923920	145.160000
467.017609	145.260000
467.111328	145.000000
467.205017	145.380000
467.298706	145.200000
467.392426	145.600000
467.486115	145.980000
467.579803	145.920000
467.673523	146.140000
467.767212	146.260000
467.860901	146.180000
467.954651	145.980000
468.048309	146.300000
468.142029	146.120000
468.235718	146.140000
468.329437	145.780000
468.423096	145.500000
468.516846	145.300000
468.610504	144.800000
468.704224	144.100000
468.797913	144.160000
468.891632	144.640000
468.985291	144.680000
469.079010	144.940000
469.172729	145.180000
469.266418	145.540000
469.360107	145.300000
469.453827	145.220000
469.547516	145.520000
469.641205	145.940000
469.734924	146.060000
469.828613	146.320000
469.922302	146.600000
470.016022	146.440000
470.109711	145.860000
470.203430	145.260000
470.297150	144.580000
470.390808	144.800000
470.484558	144.360000
470.578217	145.060000
470.671936	145.740000
470.765625	146.580000
470.859344	145.960000
470.953003	146.500000
471.046753	146.060000
471.140411	145.500000
471.234131	145.640000
471.327820	146.440000
471.421539	146.540000
471.515228	146.340000
471.608948	146.600000
471.702637	145.640000
471.796326	145.180000
471.890045	145.060000
471.983734	145.640000
472.077423	145.420000
472.171143	145.780000
472.264832	145.680000
472.358521	145.640000
472.452240	145.280000
472.545929	145.860000
472.639648	146.120000
472.733337	146.460000
472.827057	146.500000
472.920746	146.560000
473.014465	146.680000
473.108124	146.600000
473.201874	146.640000
473.295532	146.460000
473.389252	146.760000
473.482941	146.500000
473.576660	146.160000
473.670319	145.780000
473.764069	146.100000
473.857727	146.180000
473.951477	146.420000
474.045166	146.960000
474.138855	146.980000
474.232574	146.880000
474.326263	146.500000
474.419952	146.360000
474.513672	146.040000
474.607361	146.260000
474.701050	146.260000
474.794769	146.660000
474.888458	146.620000
474.982178	146.600000
475.075867	146.460000
475.169586	146.340000
475.263275	146.120000
475.356995	146.020000
475.450653	145.700000
475.544403	145.300000
475.638062	145.820000
475.731812	145.420000
475.825470	145.280000
475.919189	145.660000
476.012878	146.180000
476.106598	145.520000
476.200256	145.900000
476.294006	145.980000
476.387695	146.000000
476.481384	145.820000
476.575104	145.920000
476.668793	145.320000
476.762512	144.800000
476.856201	145.000000
476.949890	144.780000
477.043610	144.480000
477.137299	144.920000
477.230988	145.620000
477.324707	145.520000
477.418396	146.000000
477.512146	146.200000
477.605804	146.120000
477.699524	146.000000
477.793213	145.800000
477.886932	145.380000
477.980591	145.220000
478.074341	145.280000
478.167999	144.760000
478.261749	144.960000
478.355408	145.200000
478.449127	145.940000
478.542816	146.760000
478.636536	147.640000
478.730225	147.660000
478.823944	147.800000
478.917633	147.500000
479.011322	147.300000
479.105042	146.680000
479.198730	146.720000
479.292450	146.460000
479.386139	146.660000
479.479828	146.400000
479.573547	146.960000
479.667267	146.920000
479.760925	147.200000
479.854675	147.080000
479.948334	147.340000
480.042084	146.580000
480.135742	146.320000
480.229462	145.700000
480.323151	145.400000
480.416870	144.160000
480.510529	144.280000
480.604279	144.060000
480.697937	144.760000
480.791656	144.660000
480.885345	145.140000
480.979065	145.220000
481.072754	146.020000
481.166473	146.240000
481.260132	146.380000
481.353882	146.540000
481.447540	146.600000
481.541260	146.360000
481.635010	145.660000
481.728668	145.660000
481.822388	145.480000
481.916077	145.740000
482.009796	145.720000
482.103485	146.080000
482.197205	146.480000
482.290863	146.700000
482.384613	146.240000
482.478271	145.640000
482.571991	145.580000
482.665680	145.040000
482.759399	145.720000
482.853058	146.420000
482.946808	146.920000
483.040466	146.780000
483.134216	146.740000
483.227875	145.980000
483.321594	145.960000
483.415283	145.980000
483.509003	145.780000
483.602661	145.620000
483.696411	146.040000
483.790070	145.520000
483.883789	145.480000
483.977478	145.820000
484.071198	146.120000
484.164917	145.300000
484.258606	145.100000
484.352325	145.300000
484.445984	145.320000
484.539734	145.280000
484.633392	145.440000
484.727142	146.200000
484.820801	145.720000
484.914520	145.640000
485.008209	145.860000
485.101929	146.320000
485.195587	145.700000
485.289337	145.660000
485.382996	145.820000
485.476715	145.760000
485.570404	145.960000
485.664124	146.040000
485.757782	146.480000
485.851532	145.840000
485.945190	145.620000
486.038910	145.780000
486.132599	146.400000
486.226318	145.740000
486.319977	146.200000
486.413727	146.880000
486.507446	146.080000
486.601105	145.140000
486.694855	145.540000
486.788513	145.220000
486.882233	144.720000
486.975922	144.960000
487.069641	145.160000
487.163300	144.820000
487.257050	145.940000
487.350708	145.840000
487.444427	145.620000
487.538116	145.640000
487.631836	145.880000
487.725494	145.180000
487.819214	145.340000
487.912903	145.440000
488.006622	146.160000
488.100281	146.520000
488.194031	146.480000
488.287689	146.780000
488.381409	147.520000
488.475098	147.080000
488.568817	147.280000
488.662476	147.080000
488.756226	146.440000
488.849945	145.320000
488.943604	145.360000
489.037354	145.200000
489.131012	145.320000
489.224731	145.460000
489.318390	145.740000
489.412140	145.600000
489.505798	145.420000
489.599518	145.160000
489.693207	145.400000
489.786926	145.660000
489.880585	145.640000
489.974335	145.800000
490.067993	146.900000
490.161713	146.980000
490.255371	147.700000
490.349121	148.040000
490.442780	147.740000
490.536499	146.460000
490.630188	146.600000
490.723907	145.880000
490.817566	145.940000
490.911285	146.040000
491.004974	146.260000
491.098694	145.580000
491.192413	146.180000
491.286102	145.560000
491.379822	145.620000
491.473480	145.920000
491.567200	146.380000
491.660889	145.500000
491.754608	145.840000
491.848267	145.640000
491.941986	145.640000
492.035675	145.700000
492.129395	146.160000
492.223053	145.960000
492.316772	146.400000
492.410461	145.920000
492.504181	145.540000
492.597839	145.380000
492.691559	145.660000
492.785248	145.580000
492.878967	146.100000
492.972626	146.080000
493.066345	145.960000
493.160034	145.380000
493.253754	145.160000
493.347412	144.620000
493.441132	145.000000
493.534882	145.360000
493.628540	145.940000
493.722260	146.100000
493.815918	146.680000
493.909668	146.920000
494.003326	147.160000
494.097046	146.740000
494.190704	146.640000
494.284454	146.420000
494.378113	146.440000
494.471832	146.120000
494.565491	146.140000
494.659210	146.080000
494.752899	146.120000
494.846619	145.500000
494.940277	145.620000
495.033997	145.680000
495.127686	145.600000
495.221405	145.120000
495.315063	145.240000
495.408783	145.200000
495.502441	145.360000
495.596191	145.320000
495.689850	145.600000
495.783569	145.960000
495.877228	145.860000
495.970947	145.660000
496.064697	145.720000
496.158356	146.500000
496.252075	146.400000
496.345734	146.160000
496.439453	146.860000
496.533142	146.760000
496.626862	146.480000
496.720520	146.340000
496.814240	146.840000
496.907898	146.300000
497.001617	146.480000
497.095306	145.840000
497.189026	146.040000
497.282684	145.900000
497.376404	146.120000
497.470062	145.940000
497.563782	146.560000
497.657471	146.160000
497.751190	145.600000
497.844849	145.240000
497.938568	145.560000
498.032227	145.460000
498.125946	145.560000
498.219635	145.860000
498.313354	146.320000
498.407074	146.020000
498.500732	146.000000
498.594452	146.260000
498.688110	145.740000
498.781830	145.360000
498.875519	145.260000
498.969238	144.680000
499.062897	144.500000
499.156616	145.120000
499.250275	145.280000
499.343994	145.060000
499.437653	145.460000
499.531372	145.520000
499.625061	146.340000
499.718781	146.600000
499.812439	147.280000
499.906158	147.240000
499.999817	147.160000
500.093536	146.300000
500.187195	146.300000
500.280914	146.100000
500.374573	146.220000
500.468323	146.020000
500.561981	146.500000
500.655701	145.840000
500.749420	145.920000
500.843079	145.920000
500.936798	146.360000
501.030457	146.540000
501.124176	146.900000
501.217834	146.640000
501.311554	146.640000
501.405212	146.140000
501.498962	145.040000
501.592621	145.140000
501.686340	145.660000
501.779999	145.660000
501.873718	146.040000
501.967377	146.740000
502.061096	146.800000
502.154755	146.200000
502.248474	146.540000
502.342133	146.440000
502.435852	146.340000
502.529510	146.800000
502.623230	147.420000
502.716888	146.340000
502.810608	146.360000
502.904266	146.800000
502.997986	146.260000
503.091705	145.660000
503.185364	146.080000
503.279083	146.300000
503.372772	146.020000
503.466492	145.620000
503.560150	145.700000
503.653870	146.160000
503.747528	146.000000
503.841248	145.840000
503.934906	146.320000
504.028625	145.940000
504.122284	146.040000
504.216003	146.360000
504.309662	145.760000
504.403381	145.920000
504.497040	146.160000
504.590759	145.620000
504.684418	145.720000
504.778137	146.700000
504.871796	146.760000
504.965515	146.660000
505.059174	147.000000
505.152893	146.320000
505.246521	145.560000
505.340240	145.080000
505.433899	145.460000
505.527618	145.800000
505.621338	146.300000
505.714996	146.140000
505.808716	146.240000
505.902374	146.460000
505.996094	146.020000
506.089752	145.660000
506.183472	146.100000
506.277130	146.080000
506.370850	145.980000
506.464508	145.920000
506.558228	146.000000
506.651886	145.800000
506.745605	146.080000
506.839264	145.940000
506.932983	146.260000
507.026611	146.300000
507.120331	146.620000
507.213989	146.260000
507.307709	146.440000
507.401367	146.640000
507.495087	147.340000
507.588745	146.980000
507.682465	147.380000
507.776123	147.240000
507.869843	146.860000
507.963531	146.400000
508.057190	146.880000
508.150909	146.200000
508.244568	146.260000
508.338287	146.000000
508.431946	145.780000
508.525665	145.600000
508.619324	145.540000
508.713013	145.760000
508.806671	146.200000
508.900391	147.180000
508.994049	147.280000
509.087769	147.380000
509.181427	147.180000
509.275146	146.800000
509.368774	145.660000
509.462494	145.520000
509.556152	145.540000
509.649872	145.980000
509.743530	146.040000
509.837250	146.180000
509.930878	145.960000
510.024597	145.960000
510.118256	145.600000
510.211975	145.680000
510.305695	145.520000
510.399353	145.980000
510.493042	146.380000
510.586700	146.460000
510.680420	147.060000
510.774078	147.120000
510.867798	147.220000
510.961426	146.780000
511.055145	146.480000
511.148804	145.880000
511.242523	146.380000
511.336151	146.320000
511.429871	146.540000
511.523529	146.460000
511.617249	146.240000
511.710876	145.840000
511.804596	145.220000
511.898254	145.500000
511.991974	145.880000
512.085632	145.820000
512.179321	145.900000
512.272949	146.560000
512.366699	146.740000
512.460327	146.500000
512.554077	147.480000
512.647766	147.440000
512.741394	147.100000
512.835144	147.380000
512.928772	147.020000
513.022461	146.720000
513.116150	146.380000
513.209839	146.780000
513.303467	145.800000
513.397217	145.700000
513.490845	145.380000
513.584595	145.440000
513.678223	145.040000
513.771912	144.980000
513.865601	145.660000
513.959290	145.380000
514.052917	145.560000
514.146667	146.220000
514.240295	146.540000
514.333984	146.700000
514.427673	146.480000
514.521362	146.740000
514.614990	145.900000
514.708740	146.040000
514.802368	145.980000
514.896057	146.420000
514.989746	146.820000
515.083435	146.680000
515.177124	146.760000
515.270752	146.320000
515.364502	146.180000
515.458130	145.900000
515.551819	146.340000
515.645508	146.240000
515.739197	146.420000
515.832825	146.660000
515.926575	146.180000
516.020203	145.880000
516.113892	146.460000
516.207520	146.360000
516.301270	146.360000
516.394897	146.900000
516.488586	147.680000
516.582275	147.280000
516.675964	146.640000
516.769592	146.360000
516.863281	146.780000
516.956970	146.760000
517.050659	146.480000
517.144287	147.060000
517.238037	147.220000
517.331665	146.360000
517.425354	145.840000
517.519043	145.600000
517.612732	145.800000
517.706421	145.900000
517.800049	145.840000
517.893738	145.160000
517.987427	145.440000
518.081116	145.080000
518.174744	144.580000
518.268433	144.860000
518.362122	145.800000
518.455811	145.800000
518.549438	146.480000
518.643127	147.560000
518.736816	147.340000
518.830505	146.500000
518.924133	146.440000
519.017822	146.200000
519.111511	145.540000
519.205200	145.840000
519.298828	146.460000
519.392517	146.180000
519.486206	146.480000
519.579895	146.320000
519.673523	146.100000
519.767212	145.880000
519.860901	146.580000
519.954590	146.200000
520.048279	146.080000
520.141907	146.120000
520.235596	147.180000
520.329224	147.060000
520.422974	146.940000
520.516602	146.980000
520.610291	146.800000
520.703918	146.160000
520.797607	146.120000
520.891296	145.700000
520.984985	145.960000
521.078613	146.500000
521.172302	145.440000
521.265930	146.280000
521.359680	147.080000
521.453308	146.960000
521.546997	146.760000
521.640625	147.760000
521.734314	146.820000
521.827942	146.400000
521.921692	146.480000
522.015320	146.400000
522.109009	145.800000
522.202698	145.820000
522.296326	145.920000
522.390015	146.160000
522.483704	146.360000
522.577393	146.340000
522.671021	146.020000
522.764709	145.540000
522.858337	145.980000
522.952026	145.960000
523.045654	146.620000
523.139404	147.200000
523.233032	147.580000
523.326721	147.120000
523.420349	146.820000
523.514038	146.500000
523.607666	146.600000
523.701355	146.480000
523.795044	146.280000
523.888733	146.540000
523.982361	146.760000
524.076050	146.440000
524.169678	146.960000
524.263367	146.560000
524.356995	146.360000
524.450684	146.280000
524.544373	146.120000
524.638062	145.800000
524.731750	146.040000
524.825378	145.900000
524.919067	145.420000
525.012695	145.400000
525.106384	144.800000
525.200012	144.940000
525.293701	144.980000
525.387329	145.580000
525.481018	145.780000
525.574646	146.300000
525.668396	146.320000
525.762024	146.380000
525.855713	146.120000
525.949341	145.880000
526.043030	146.060000
526.136658	145.700000
526.230347	145.720000
526.323975	145.700000
526.417664	145.440000
526.511292	145.480000
526.604980	145.860000
526.698608	145.720000
526.792297	145.780000
526.885925	146.380000
526.979614	146.180000
527.073303	146.220000
527.166931	146.220000
527.260620	146.280000
527.354309	146.600000
527.447998	146.640000
527.541626	146.120000
527.635315	146.200000
527.728943	146.600000
527.822632	146.260000
527.916260	146.240000
528.009949	146.900000
528.103577	146.520000
528.197266	145.920000
528.290894	145.960000
528.384583	145.980000
528.478210	145.800000
528.571899	146.420000
528.665527	146.840000
528.759216	146.900000
528.852844	147.440000
528.946533	147.480000
529.040161	147.340000
529.133850	147.020000
529.227478	146.900000
529.321167	146.800000
529.414856	146.820000
529.508484	147.000000
529.602173	146.480000
529.695801	146.400000
529.789490	145.980000
529.883057	145.840000
529.976746	146.040000
530.070374	146.800000
530.164062	146.740000
530.257690	147.200000
530.351379	147.260000
530.445007	146.640000
530.538696	145.820000
530.632324	146.100000
530.726013	145.580000
530.819641	145.520000
530.913330	145.880000
531.006958	146.340000
531.100647	146.300000
531.194275	146.260000
531.287964	146.240000
531.381592	145.960000
531.475220	146.120000
531.568848	145.880000
531.662537	145.720000
531.756226	146.140000
531.849854	146.040000
531.943542	145.920000
532.037170	145.460000
532.130859	146.180000
532.224487	145.540000
532.318176	145.280000
532.411804	145.820000
532.505432	146.300000
532.599060	145.860000
532.692749	146.040000
532.786377	146.460000
532.880066	145.820000
532.973694	145.380000
533.067383	145.360000
533.161011	145.460000
533.254639	145.640000
533.348267	145.360000
533.441956	145.940000
533.535583	145.920000
533.629272	146.060000
533.722900	145.460000
533.816589	146.060000
533.910156	146.300000
534.003845	145.780000
534.097534	145.980000
534.191162	147.020000
534.284851	146.820000
534.378479	146.060000
534.472107	146.560000
534.565735	146.300000
534.659424	145.900000
534.753052	146.200000
534.846741	146.200000
534.940369	146.960000
535.033997	147.020000
535.127625	147.100000
535.221313	147.260000
535.314941	147.400000
535.408630	146.200000
535.502197	146.400000
535.595886	146.060000
535.689514	145.500000
535.783203	146.160000
535.876831	147.060000
535.970459	146.940000
536.064087	146.840000
536.157776	147.080000
536.251404	146.740000
536.345093	146.360000
536.438721	146.420000
536.532349	146.640000
536.626038	146.380000
536.719666	146.660000
536.813293	146.240000
536.906921	146.020000
537.000610	146.360000
537.094238	146.500000
537.187866	146.440000
537.281494	146.380000
537.375183	146.560000
537.468811	146.140000
537.562439	146.300000
537.656067	146.200000
537.749756	146.580000
537.843384	147.000000
537.937012	147.040000
538.030640	146.700000
538.124329	146.500000
538.217896	147.000000
538.311584	146.560000
538.405212	146.660000
538.498901	146.980000
538.592468	147.620000
538.686157	146.760000
538.779785	146.100000
538.873413	146.040000
538.967102	145.680000
539.060730	145.000000
539.154358	145.440000
539.247986	146.160000
539.341675	146.020000
539.435242	146.180000
539.528931	146.520000
539.622559	146.040000
539.716187	146.280000
539.809814	146.420000
539.903503	146.500000
539.997070	146.060000
540.090759	146.300000
540.184387	145.900000
540.278015	146.500000
540.371643	146.500000
540.465332	146.860000
540.558899	146.680000
540.652588	146.660000
540.746216	145.960000
540.839844	146.240000
540.933472	146.200000
541.027100	146.340000
541.120728	146.600000
541.214417	146.700000
541.308044	146.800000
541.401672	146.400000
541.495300	146.180000
541.588928	145.800000
541.682617	145.780000
541.776184	145.200000
541.869873	145.580000
541.963440	145.960000
542.057129	146.120000
542.150757	146.160000
542.244385	146.060000
542.338013	145.280000
542.431641	145.220000
542.525269	145.140000
542.618958	145.480000
542.712524	145.700000
542.806213	146.040000
542.899780	146.040000
542.993469	145.640000
543.087036	145.140000
543.180725	144.880000
543.274292	145.400000
543.367981	145.640000
543.461548	146.240000
543.555237	146.240000
543.648926	146.720000
543.742493	147.040000
543.836182	146.780000
543.929749	146.700000
544.023437	147.000000
544.117004	146.940000
544.210693	146.900000
544.304260	147.020000
544.397949	146.720000
544.491516	146.640000
544.585205	146.620000
544.678772	146.100000
544.772461	146.540000
544.866028	146.540000
544.959717	146.800000
545.053284	146.340000
545.146973	146.460000
545.240540	146.300000
545.334229	146.940000
545.427795	146.780000
545.521423	147.360000
545.615051	147.620000
545.708679	148.040000
545.802307	147.740000
545.895935	147.960000
545.989624	148.480000
546.083191	148.200000
546.176880	147.880000
546.270447	147.680000
546.364136	147.740000
546.457703	147.220000
546.551331	147.060000
546.644958	147.000000
546.738586	147.160000
546.832214	146.560000
546.925842	146.320000
547.019409	146.560000
547.113098	146.100000
547.206665	145.900000
547.300354	146.040000
547.393921	146.260000
547.487549	146.260000
547.581177	146.480000
547.674805	146.340000
547.768433	145.760000
547.862061	145.700000
547.955627	145.160000
548.049316	145.780000
548.142883	146.280000
548.236572	147.180000
548.330139	147.340000
548.423767	147.240000
548.517456	146.620000
548.611023	146.700000
548.704651	145.940000
548.798279	145.580000
548.891907	146.380000
548.985474	146.360000
549.079163	146.320000
549.172729	146.280000
549.266357	146.040000
549.359985	145.880000
549.453613	145.280000
549.547180	144.900000
549.640869	145.560000
549.734436	145.580000
549.828064	145.820000
549.921631	146.160000
550.015320	145.980000
550.108887	146.140000
550.202515	146.540000
550.296143	146.040000
550.389771	146.180000
550.483337	146.420000
550.576965	146.000000
550.670593	145.980000
550.764221	146.040000
550.857849	145.960000
550.951477	145.560000
551.045105	145.360000
551.138672	145.440000
551.232300	145.060000
551.325928	145.300000
551.419556	145.780000
551.513123	145.980000
551.606750	145.660000
551.700378	146.060000
551.794006	145.840000
551.887573	145.600000
551.981201	145.880000
552.074768	145.960000
552.168457	145.640000
552.262024	146.440000
552.355652	146.280000
552.449219	146.840000
552.542847	146.840000
552.636475	146.740000
552.730103	146.020000
552.823669	146.200000
552.917297	145.220000
553.010864	145.380000
553.104553	145.840000
553.198181	145.360000
553.291748	145.860000
553.385376	146.320000
553.478943	145.960000
553.572571	146.000000
553.666199	146.620000
553.759827	146.140000
553.853394	145.440000
553.947021	145.600000
554.040588	145.420000
554.134216	145.340000
554.227783	146.100000
554.321411	147.020000
554.415039	146.660000
554.508667	146.760000
554.602234	147.220000
554.695862	146.360000
554.789429	145.820000
554.883057	146.100000
554.976624	145.900000
555.070251	145.540000
555.163818	145.400000
555.257507	145.520000
555.351074	145.900000
555.444702	146.880000
555.538330	146.400000
555.631897	146.940000
555.725525	146.800000
555.819092	146.440000
555.912720	145.440000
556.006287	146.140000
556.099915	145.880000
556.193481	146.160000
556.287109	146.400000
556.380676	146.400000
556.474304	146.200000
556.567871	146.720000
556.661499	146.100000
556.755066	146.040000
556.848694	146.260000
556.942261	146.020000
557.035889	145.600000
557.129517	145.960000
557.223145	146.440000
557.316711	146.360000
557.410339	146.500000
557.503906	146.340000
557.597473	146.580000
557.691040	146.020000
557.784668	146.040000
557.878296	145.740000
557.971863	146.100000
558.065491	146.280000
558.159058	146.080000
558.252686	146.440000
558.346252	147.260000
558.439880	146.800000
558.533447	146.260000
558.627075	146.040000
558.720642	145.480000
558.814270	144.900000
558.907837	145.180000
559.001465	145.060000
559.095032	146.160000
559.188660	146.340000
559.282227	145.800000
559.375854	146.040000
559.469360	145.880000
559.562988	145.560000
559.656555	145.440000
559.750183	146.020000
559.843750	146.100000
559.937378	146.500000
560.030945	146.600000
560.124573	0.000000
560.218140	0.000000
560.311707	0.000000
560.405334	0.000000
560.498901	0.000000
560.592529	0.000000
560.686096	0.000000
560.779724	0.000000
560.873291	0.000000
560.966858	0.000000
561.060425	0.000000
561.154053	0.000000
561.247620	0.000000
561.341248	0.000000
561.434814	0.000000
561.528381	0.000000
561.621948	0.000000
561.715576	0.000000
561.809143	0.000000
561.902771	0.000000
561.996277	0.000000
562.089905	0.000000
562.183472	0.000000
562.277100	0.000000
