Model Number: SPM-002-B   
Serial Number: 70087108
Firmware Version: 004.15.4
Exposure Time: 100000.000000us
Data Taken on: 11-12-2020 19:40:23.844
Wavelength	Amplitude
221.570786	0.000000
221.663406	0.000000
221.756027	0.000000
221.848648	0.000000
221.941269	0.000000
222.033905	0.000000
222.126526	0.000000
222.219162	0.000000
222.311798	0.000000
222.404419	0.000000
222.497055	0.000000
222.589676	0.000000
222.682312	0.000000
222.774933	0.000000
222.867569	0.000000
222.960205	0.000000
223.052841	0.000000
223.145462	0.000000
223.238098	0.000000
223.330734	0.000000
223.423386	0.000000
223.516022	0.000000
223.608658	0.000000
223.701309	0.000000
223.793945	0.000000
223.886581	0.000000
223.979218	0.000000
224.071869	0.000000
224.164505	0.000000
224.257156	0.000000
224.349792	0.000000
224.442444	0.000000
224.535095	0.000000
224.627747	0.000000
224.720398	0.000000
224.813034	0.000000
224.905685	0.000000
224.998337	145.640000
225.090988	145.520000
225.183640	145.520000
225.276291	145.240000
225.368942	145.420000
225.461594	145.980000
225.554245	146.280000
225.646912	146.320000
225.739578	146.760000
225.832230	147.300000
225.924896	146.740000
226.017548	146.720000
226.110199	146.960000
226.202866	146.600000
226.295532	146.360000
226.388184	146.020000
226.480850	145.760000
226.573517	145.440000
226.666168	145.540000
226.758835	146.040000
226.851501	146.900000
226.944183	146.680000
227.036850	146.440000
227.129517	146.720000
227.222183	146.560000
227.314850	146.420000
227.407516	147.040000
227.500198	147.700000
227.592865	147.040000
227.685532	146.820000
227.778214	146.500000
227.870880	146.800000
227.963562	147.000000
228.056229	147.440000
228.148926	147.280000
228.241592	148.140000
228.334274	147.540000
228.426956	147.420000
228.519638	147.520000
228.612305	147.160000
228.704987	146.640000
228.797668	146.580000
228.890350	146.200000
228.983032	145.520000
229.075714	146.300000
229.168396	146.120000
229.261108	145.940000
229.353790	145.980000
229.446472	146.160000
229.539169	145.660000
229.631851	145.360000
229.724533	145.620000
229.817230	145.880000
229.909912	147.100000
230.002609	147.400000
230.095306	147.200000
230.187988	147.100000
230.280685	146.840000
230.373383	145.580000
230.466095	145.240000
230.558792	146.000000
230.651474	146.420000
230.744171	146.380000
230.836868	146.680000
230.929581	147.200000
231.022278	147.040000
231.114975	146.840000
231.207672	146.720000
231.300369	147.160000
231.393082	147.140000
231.485779	146.880000
231.578506	146.780000
231.671204	146.920000
231.763916	146.560000
231.856613	146.300000
231.949326	146.440000
232.042023	146.620000
232.134735	146.580000
232.227448	146.260000
232.320160	146.580000
232.412872	146.640000
232.505585	147.160000
232.598297	147.540000
232.691010	147.720000
232.783722	147.100000
232.876450	147.580000
232.969162	146.880000
233.061874	146.440000
233.154587	146.300000
233.247314	146.840000
233.340027	146.320000
233.432739	146.700000
233.525467	146.460000
233.618179	146.820000
233.710907	146.440000
233.803635	147.120000
233.896347	146.720000
233.989090	147.420000
234.081818	147.360000
234.174545	147.740000
234.267258	146.840000
234.359985	147.120000
234.452713	146.700000
234.545441	146.200000
234.638168	145.920000
234.730896	146.320000
234.823639	146.100000
234.916367	146.660000
235.009094	146.940000
235.101822	147.040000
235.194580	147.140000
235.287308	146.840000
235.380051	146.060000
235.472778	146.520000
235.565521	146.900000
235.658249	146.180000
235.750992	146.860000
235.843719	147.220000
235.936462	147.060000
236.029205	146.360000
236.121948	146.620000
236.214691	146.520000
236.307449	146.860000
236.400192	146.580000
236.492935	146.220000
236.585678	146.380000
236.678421	146.260000
236.771164	145.940000
236.863907	146.400000
236.956665	147.240000
237.049408	148.760000
237.142151	148.240000
237.234909	148.760000
237.327652	148.700000
237.420410	148.460000
237.513153	147.300000
237.605927	147.360000
237.698669	146.880000
237.791428	146.100000
237.884186	146.500000
237.976944	146.180000
238.069702	146.680000
238.162445	146.380000
238.255203	146.460000
238.347961	146.340000
238.440720	146.100000
238.533478	145.760000
238.626266	145.520000
238.719025	146.200000
238.811783	145.880000
238.904541	145.820000
238.997314	145.760000
239.090073	145.720000
239.182831	145.440000
239.275604	146.400000
239.368362	146.440000
239.461136	146.560000
239.553909	146.760000
239.646667	146.700000
239.739441	145.820000
239.832214	145.860000
239.925003	145.980000
240.017761	146.400000
240.110535	147.040000
240.203308	147.020000
240.296082	147.340000
240.388855	147.220000
240.481628	147.260000
240.574417	146.900000
240.667191	146.880000
240.759964	146.720000
240.852737	146.440000
240.945526	146.240000
241.038315	145.940000
241.131088	145.880000
241.223877	145.920000
241.316650	145.940000
241.409439	146.020000
241.502228	145.720000
241.595001	146.160000
241.687790	145.960000
241.780579	146.060000
241.873367	146.300000
241.966141	146.720000
242.058929	146.180000
242.151718	146.440000
242.244507	146.940000
242.337311	145.980000
242.430099	146.360000
242.522903	146.740000
242.615692	146.260000
242.708481	146.000000
242.801270	146.740000
242.894073	146.560000
242.986862	146.680000
243.079651	147.320000
243.172455	147.060000
243.265244	147.320000
243.358063	146.780000
243.450867	146.960000
243.543655	146.860000
243.636459	146.840000
243.729263	146.880000
243.822067	147.420000
243.914856	147.460000
244.007660	147.520000
244.100464	147.780000
244.193268	147.200000
244.286072	146.640000
244.378876	146.020000
244.471680	145.480000
244.564499	145.620000
244.657318	146.480000
244.750122	147.060000
244.842926	146.560000
244.935745	147.440000
245.028549	147.180000
245.121368	146.400000
245.214172	146.460000
245.306992	147.120000
245.399796	146.420000
245.492615	146.540000
245.585434	146.520000
245.678253	146.080000
245.771072	146.000000
245.863892	146.460000
245.956711	146.480000
246.049530	146.420000
246.142349	146.300000
246.235168	146.260000
246.327988	146.340000
246.420807	146.260000
246.513626	146.400000
246.606445	146.460000
246.699280	146.440000
246.792099	146.300000
246.884918	146.020000
246.977753	145.600000
247.070587	145.600000
247.163422	145.560000
247.256241	145.580000
247.349075	146.060000
247.441895	146.360000
247.534729	146.380000
247.627563	146.640000
247.720383	147.120000
247.813217	146.800000
247.906052	146.640000
247.998886	146.780000
248.091736	146.600000
248.184570	145.760000
248.277405	145.780000
248.370239	146.680000
248.463074	147.520000
248.555908	147.620000
248.648743	147.800000
248.741592	148.140000
248.834427	147.520000
248.927261	146.220000
249.020111	146.500000
249.112946	147.140000
249.205795	146.260000
249.298630	146.160000
249.391495	146.460000
249.484344	145.900000
249.577179	145.360000
249.670029	146.360000
249.762878	147.040000
249.855728	147.220000
249.948563	147.420000
250.041412	146.920000
250.134262	146.740000
250.227112	146.340000
250.319962	146.300000
250.412827	146.340000
250.505692	146.220000
250.598541	146.260000
250.691391	145.980000
250.784241	146.120000
250.877106	146.040000
250.969955	146.020000
251.062805	146.380000
251.155670	147.000000
251.248520	146.700000
251.341385	147.060000
251.434235	147.200000
251.527100	146.520000
251.619965	146.160000
251.712814	146.920000
251.805695	147.000000
251.898560	147.540000
251.991425	147.840000
252.084290	147.820000
252.177155	146.780000
252.270020	146.100000
252.362885	145.920000
252.455750	146.000000
252.548615	145.740000
252.641479	146.260000
252.734360	146.560000
252.827240	146.380000
252.920105	146.200000
253.012970	146.120000
253.105850	145.840000
253.198715	145.500000
253.291595	145.620000
253.384460	145.300000
253.477341	145.640000
253.570221	145.920000
253.663086	145.900000
253.755966	146.520000
253.848846	146.660000
253.941727	146.720000
254.034592	146.460000
254.127472	146.220000
254.220367	146.200000
254.313248	146.620000
254.406128	146.320000
254.499008	146.660000
254.591904	147.400000
254.684784	147.560000
254.777664	147.160000
254.870544	146.960000
254.963440	146.840000
255.056335	146.940000
255.149216	146.240000
255.242111	146.800000
255.334991	147.100000
255.427887	147.440000
255.520767	147.520000
255.613663	147.700000
255.706558	146.940000
255.799438	146.620000
255.892334	146.140000
255.985229	145.960000
256.078125	146.040000
256.171021	146.320000
256.263916	147.000000
256.356812	147.460000
256.449707	147.340000
256.542603	147.020000
256.635498	147.340000
256.728394	146.980000
256.821289	146.320000
256.914215	146.620000
257.007080	146.720000
257.100006	147.020000
257.192932	147.400000
257.285828	148.000000
257.378723	147.860000
257.471619	147.940000
257.564545	147.100000
257.657440	146.960000
257.750336	147.160000
257.843262	146.780000
257.936157	147.880000
258.029053	148.200000
258.121979	148.360000
258.214874	147.840000
258.307800	148.020000
258.400696	146.540000
258.493622	146.660000
258.586517	145.780000
258.679443	146.180000
258.772339	145.600000
258.865265	145.600000
258.958160	145.040000
259.051086	146.040000
259.144012	145.660000
259.236938	146.360000
259.329834	146.860000
259.422791	147.000000
259.515717	146.340000
259.608612	146.320000
259.701538	146.400000
259.794464	146.080000
259.887390	146.160000
259.980316	146.200000
260.073212	146.220000
260.166138	145.340000
260.259064	145.740000
260.351990	146.580000
260.444916	146.520000
260.537842	146.840000
260.630768	147.820000
260.723694	147.540000
260.816620	146.820000
260.909546	146.660000
261.002472	146.240000
261.095398	145.680000
261.188354	145.640000
261.281281	145.580000
261.374207	145.960000
261.467133	146.660000
261.560089	146.880000
261.653015	146.840000
261.745972	147.360000
261.838867	147.940000
261.931824	148.120000
262.024780	147.640000
262.117706	147.660000
262.210663	147.520000
262.303589	147.060000
262.396515	146.680000
262.489471	147.560000
262.582397	147.560000
262.675354	147.200000
262.768280	146.900000
262.861237	146.680000
262.954163	146.600000
263.047119	146.700000
263.140045	146.540000
263.233002	146.780000
263.325958	146.960000
263.418884	146.240000
263.511841	146.260000
263.604797	146.160000
263.697723	145.820000
263.790680	145.520000
263.883636	146.180000
263.976593	145.960000
264.069550	146.000000
264.162476	146.100000
264.255463	146.080000
264.348419	145.580000
264.441376	146.080000
264.534332	145.980000
264.627289	146.200000
264.720245	146.640000
264.813202	146.640000
264.906158	146.780000
264.999115	147.040000
265.092072	146.760000
265.185028	147.040000
265.277985	147.080000
265.370941	146.460000
265.463898	146.480000
265.556854	146.400000
265.649811	145.220000
265.742798	145.360000
265.835754	145.520000
265.928711	145.980000
266.021667	145.980000
266.114655	146.580000
266.207611	146.880000
266.300568	146.620000
266.393585	145.920000
266.486511	146.440000
266.579498	146.060000
266.672485	145.940000
266.765442	145.920000
266.858429	146.620000
266.951385	146.140000
267.044342	146.380000
267.137329	146.060000
267.230316	146.280000
267.323273	145.720000
267.416260	146.380000
267.509216	146.240000
267.602203	146.400000
267.695160	147.040000
267.788147	147.300000
267.881134	146.400000
267.974091	146.520000
268.067078	146.540000
268.160065	145.960000
268.253052	145.780000
268.346008	146.420000
268.438995	146.360000
268.531982	146.440000
268.624969	146.260000
268.717987	146.400000
268.810944	146.160000
268.903961	146.380000
268.996948	145.880000
269.089905	146.500000
269.182892	146.540000
269.275879	146.820000
269.368866	146.240000
269.461853	146.600000
269.554871	146.400000
269.647858	146.420000
269.740845	146.600000
269.833832	147.060000
269.926819	146.980000
270.019806	146.920000
270.112793	146.580000
270.205811	146.520000
270.298798	146.340000
270.391785	146.760000
270.484772	146.620000
270.577789	147.060000
270.670776	146.520000
270.763763	146.620000
270.856750	146.660000
270.949768	146.280000
271.042786	145.960000
271.135773	146.120000
271.228790	146.300000
271.321808	145.520000
271.414795	145.460000
271.507782	145.400000
271.600800	145.220000
271.693817	145.140000
271.786804	146.000000
271.879822	146.380000
271.972809	146.380000
272.065826	146.880000
272.158844	146.680000
272.251831	147.020000
272.344849	147.020000
272.437866	146.860000
272.530853	146.740000
272.623871	147.120000
272.716888	145.660000
272.809906	145.520000
272.902893	145.640000
272.995911	145.100000
273.088928	145.140000
273.181946	145.860000
273.274963	145.920000
273.367981	145.960000
273.460999	146.380000
273.554047	146.360000
273.647003	146.940000
273.740051	146.940000
273.833069	147.160000
273.926086	147.340000
274.019135	146.980000
274.112152	146.620000
274.205170	146.560000
274.298187	146.900000
274.391205	146.320000
274.484222	146.580000
274.577240	146.520000
274.670258	146.400000
274.763306	146.000000
274.856323	146.620000
274.949341	146.780000
275.042358	147.140000
275.135406	147.100000
275.228424	147.120000
275.321442	146.900000
275.414490	146.480000
275.507507	146.460000
275.600525	147.280000
275.693573	147.120000
275.786591	146.840000
275.879669	147.180000
275.972656	146.740000
276.065735	145.940000
276.158752	146.480000
276.251801	147.140000
276.344818	146.800000
276.437866	146.640000
276.530884	146.460000
276.623932	145.460000
276.716980	145.500000
276.809998	145.520000
276.903046	145.860000
276.996094	146.880000
277.089111	147.640000
277.182159	148.000000
277.275208	147.880000
277.368256	147.680000
277.461304	147.140000
277.554321	146.500000
277.647369	146.040000
277.740417	146.080000
277.833466	145.940000
277.926514	145.620000
278.019562	146.300000
278.112610	145.740000
278.205688	146.040000
278.298706	146.260000
278.391785	146.120000
278.484833	145.860000
278.577881	145.960000
278.670929	146.020000
278.763977	145.980000
278.857025	146.680000
278.950073	146.800000
279.043121	146.820000
279.136169	146.620000
279.229248	146.640000
279.322296	146.280000
279.415344	145.920000
279.508392	145.480000
279.601440	145.440000
279.694519	145.120000
279.787567	145.200000
279.880615	144.940000
279.973694	144.920000
280.066742	145.240000
280.159790	145.640000
280.252869	145.300000
280.345917	145.900000
280.438995	146.300000
280.532074	145.860000
280.625122	146.160000
280.718201	147.200000
280.811279	147.200000
280.904327	147.140000
280.997406	147.160000
281.090454	146.900000
281.183533	146.380000
281.276581	146.220000
281.369659	145.660000
281.462738	145.920000
281.555786	145.940000
281.648865	145.740000
281.741943	145.720000
281.835022	146.820000
281.928070	146.480000
282.021149	146.320000
282.114227	146.100000
282.207306	145.900000
282.300385	146.080000
282.393433	146.460000
282.486511	146.340000
282.579590	146.940000
282.672668	147.360000
282.765747	146.580000
282.858856	146.220000
282.951904	146.460000
283.045013	146.240000
283.138062	146.300000
283.231171	146.600000
283.324249	147.120000
283.417328	147.080000
283.510406	146.680000
283.603485	146.520000
283.696564	146.500000
283.789642	146.320000
283.882751	146.020000
283.975830	147.000000
284.068909	146.580000
284.161987	146.960000
284.255066	146.620000
284.348175	146.860000
284.441254	146.460000
284.534332	147.300000
284.627441	147.020000
284.720520	146.860000
284.813599	146.680000
284.906708	146.420000
284.999786	145.420000
285.092896	145.200000
285.185974	146.220000
285.279053	146.220000
285.372192	146.660000
285.465240	147.580000
285.558380	147.640000
285.651459	147.280000
285.744568	147.760000
285.837677	146.960000
285.930756	147.000000
286.023865	147.060000
286.116943	146.400000
286.210052	146.580000
286.303162	146.620000
286.396240	146.260000
286.489349	145.940000
286.582458	146.640000
286.675568	146.120000
286.768646	146.300000
286.861755	146.620000
286.954865	147.260000
287.047974	146.180000
287.141083	146.240000
287.234161	146.400000
287.327271	146.200000
287.420380	146.480000
287.513519	146.940000
287.606598	146.960000
287.699738	146.800000
287.792816	146.660000
287.885956	146.140000
287.979034	146.320000
288.072174	146.180000
288.165283	146.140000
288.258392	146.080000
288.351501	145.780000
288.444611	146.160000
288.537720	146.580000
288.630859	146.680000
288.723969	146.800000
288.817078	147.080000
288.910187	147.000000
289.003296	146.520000
289.096436	146.080000
289.189545	146.180000
289.282654	145.980000
289.375763	146.160000
289.468903	146.360000
289.562012	146.900000
289.655121	146.820000
289.748260	146.940000
289.841400	146.920000
289.934509	146.800000
290.027649	146.880000
290.120728	146.700000
290.213898	146.800000
290.306976	146.560000
290.400146	146.880000
290.493256	146.380000
290.586395	146.660000
290.679535	146.660000
290.772644	146.460000
290.865784	145.780000
290.958893	146.240000
291.052032	145.680000
291.145172	145.820000
291.238281	145.760000
291.331421	145.920000
291.424561	146.160000
291.517670	146.260000
291.610809	145.940000
291.703949	145.880000
291.797089	146.200000
291.890228	145.740000
291.983337	145.860000
292.076477	145.980000
292.169617	146.580000
292.262756	146.520000
292.355927	146.480000
292.449036	146.460000
292.542206	146.560000
292.635315	146.420000
292.728485	146.680000
292.821625	146.280000
292.914764	147.320000
293.007904	147.360000
293.101044	146.940000
293.194183	146.740000
293.287323	147.320000
293.380463	146.360000
293.473602	146.080000
293.566742	146.200000
293.659882	146.580000
293.753021	146.680000
293.846191	146.600000
293.939331	146.240000
294.032471	146.420000
294.125610	146.060000
294.218781	146.260000
294.311920	146.800000
294.405060	147.040000
294.498230	146.800000
294.591370	146.780000
294.684540	145.900000
294.777679	145.360000
294.870850	145.660000
294.963959	145.700000
295.057159	145.500000
295.150299	146.340000
295.243469	146.260000
295.336609	145.680000
295.429779	145.920000
295.522919	146.220000
295.616089	146.080000
295.709229	146.720000
295.802399	147.280000
295.895569	147.040000
295.988708	146.960000
296.081879	146.780000
296.175018	146.060000
296.268188	146.040000
296.361359	146.180000
296.454529	146.120000
296.547668	146.080000
296.640839	146.760000
296.734009	146.480000
296.827179	146.820000
296.920319	147.060000
297.013519	146.880000
297.106659	146.760000
297.199860	146.820000
297.292999	146.560000
297.386200	146.120000
297.479309	146.000000
297.572510	145.840000
297.665680	145.720000
297.758850	145.640000
297.852020	145.980000
297.945190	146.260000
298.038361	145.880000
298.131531	147.020000
298.224701	147.020000
298.317871	146.780000
298.411072	146.200000
298.504242	146.360000
298.597412	145.580000
298.690582	145.620000
298.783752	145.300000
298.876923	145.860000
298.970093	146.000000
299.063293	146.240000
299.156464	146.680000
299.249634	147.520000
299.342834	147.820000
299.436005	148.240000
299.529205	148.060000
299.622345	147.840000
299.715576	147.040000
299.808716	146.780000
299.901917	146.400000
299.995117	146.500000
300.088287	146.680000
300.181488	146.620000
300.274658	146.420000
300.367828	146.480000
300.461029	146.540000
300.554199	146.400000
300.647400	146.680000
300.740601	147.320000
300.833771	147.160000
300.926971	147.080000
301.020142	146.680000
301.113342	146.680000
301.206512	146.140000
301.299713	146.340000
301.392914	146.140000
301.486084	146.700000
301.579285	146.720000
301.672516	147.120000
301.765686	147.000000
301.858887	147.200000
301.952057	146.720000
302.045288	146.840000
302.138458	146.640000
302.231659	146.480000
302.324860	146.380000
302.418060	146.260000
302.511261	146.060000
302.604462	146.180000
302.697662	146.040000
302.790863	145.960000
302.884064	145.660000
302.977264	145.920000
303.070465	146.160000
303.163666	146.880000
303.256866	147.240000
303.350067	147.400000
303.443268	147.240000
303.536469	146.960000
303.629669	146.340000
303.722870	146.420000
303.816071	146.540000
303.909271	146.340000
304.002472	145.820000
304.095673	145.960000
304.188934	145.260000
304.282104	146.080000
304.375336	146.280000
304.468506	146.740000
304.561768	146.540000
304.654968	147.340000
304.748169	146.440000
304.841370	146.320000
304.934601	146.560000
305.027802	146.440000
305.121002	145.820000
305.214233	146.180000
305.307434	146.240000
305.400665	146.640000
305.493866	146.520000
305.587097	146.660000
305.680298	146.380000
305.773499	146.940000
305.866730	146.340000
305.959930	147.020000
306.053162	147.240000
306.146393	146.960000
306.239594	146.320000
306.332825	146.440000
306.426025	146.500000
306.519287	145.960000
306.612488	146.640000
306.705719	146.640000
306.798920	146.440000
306.892181	146.000000
306.985352	145.900000
307.078613	145.140000
307.171844	145.520000
307.265045	145.200000
307.358276	145.060000
307.451508	145.420000
307.544739	146.320000
307.637970	146.040000
307.731201	146.100000
307.824402	146.760000
307.917633	147.240000
308.010864	147.460000
308.104095	147.600000
308.197327	148.040000
308.290558	147.680000
308.383789	147.080000
308.477020	146.300000
308.570251	145.960000
308.663483	145.580000
308.756714	145.460000
308.849976	145.680000
308.943176	146.200000
309.036438	146.020000
309.129639	146.180000
309.222900	146.000000
309.316101	145.800000
309.409393	145.420000
309.502625	145.480000
309.595856	145.240000
309.689087	145.600000
309.782318	145.680000
309.875580	145.720000
309.968811	145.900000
310.062042	145.880000
310.155273	145.820000
310.248535	146.160000
310.341766	145.980000
310.434998	145.880000
310.528259	145.820000
310.621490	146.060000
310.714722	145.200000
310.807983	145.240000
310.901215	145.380000
310.994476	145.580000
311.087708	144.880000
311.181000	145.420000
311.274200	145.080000
311.367462	145.280000
311.460693	145.060000
311.553986	145.960000
311.647186	146.040000
311.740479	146.840000
311.833710	146.440000
311.926971	146.780000
312.020203	146.160000
312.113464	145.940000
312.206726	145.100000
312.299957	145.460000
312.393219	145.980000
312.486481	146.140000
312.579712	146.180000
312.672974	146.560000
312.766235	146.420000
312.859497	145.700000
312.952759	145.820000
313.045990	146.720000
313.139252	146.220000
313.232513	146.500000
313.325775	147.000000
313.419037	146.680000
313.512299	146.040000
313.605530	146.980000
313.698822	146.960000
313.792053	146.620000
313.885345	146.480000
313.978577	146.200000
314.071869	145.460000
314.165131	145.420000
314.258392	145.900000
314.351654	146.020000
314.444916	145.600000
314.538177	146.360000
314.631439	146.640000
314.724701	146.200000
314.817993	146.340000
314.911255	146.940000
315.004517	146.380000
315.097778	145.900000
315.191040	146.280000
315.284302	146.340000
315.377594	146.200000
315.470856	146.080000
315.564117	145.780000
315.657379	145.300000
315.750671	145.040000
315.843933	145.280000
315.937195	144.960000
316.030518	144.960000
316.123749	144.740000
316.217041	145.540000
316.310303	145.500000
316.403595	145.960000
316.496857	146.340000
316.590149	146.820000
316.683411	146.040000
316.776703	145.900000
316.869965	146.360000
316.963257	146.160000
317.056519	145.440000
317.149811	145.500000
317.243073	145.440000
317.336365	144.800000
317.429626	145.040000
317.522919	146.000000
317.616180	145.980000
317.709473	145.560000
317.802765	145.760000
317.896027	145.600000
317.989319	145.560000
318.082611	145.720000
318.175873	146.040000
318.269165	146.260000
318.362488	146.560000
318.455750	146.360000
318.549042	146.660000
318.642303	146.940000
318.735626	146.640000
318.828888	146.600000
318.922211	146.380000
319.015472	146.840000
319.108765	146.480000
319.202057	146.340000
319.295349	146.280000
319.388641	146.280000
319.481934	145.540000
319.575226	145.320000
319.668518	145.780000
319.761810	145.920000
319.855103	146.080000
319.948395	146.100000
320.041687	146.520000
320.134979	146.140000
320.228271	145.520000
320.321564	145.220000
320.414856	145.160000
320.508148	144.720000
320.601440	144.840000
320.694763	145.000000
320.788025	145.760000
320.881348	146.100000
320.974640	146.140000
321.067963	145.740000
321.161224	146.000000
321.254547	144.880000
321.347839	145.020000
321.441162	145.060000
321.534454	145.380000
321.627747	145.160000
321.721069	146.080000
321.814362	146.180000
321.907654	146.220000
322.000946	146.220000
322.094269	146.880000
322.187561	146.400000
322.280884	146.440000
322.374176	146.560000
322.467468	146.960000
322.560791	146.720000
322.654083	147.020000
322.747406	146.980000
322.840698	147.260000
322.934021	147.320000
323.027344	147.240000
323.120636	147.040000
323.213959	146.840000
323.307251	146.120000
323.400574	145.800000
323.493866	145.360000
323.587219	145.480000
323.680511	145.640000
323.773834	146.280000
323.867157	146.200000
323.960449	146.520000
324.053772	146.180000
324.147095	145.840000
324.240387	146.080000
324.333710	145.920000
324.427032	145.920000
324.520355	146.060000
324.613647	146.140000
324.706970	145.740000
324.800293	146.080000
324.893616	146.300000
324.986938	146.580000
325.080231	146.460000
325.173553	146.520000
325.266876	146.660000
325.360199	146.480000
325.453522	145.920000
325.546875	145.720000
325.640167	146.340000
325.733521	146.500000
325.826813	146.700000
325.920166	146.840000
326.013489	147.060000
326.106812	145.980000
326.200134	145.720000
326.293457	145.140000
326.386780	145.540000
326.480103	145.420000
326.573425	145.460000
326.666748	145.420000
326.760071	146.040000
326.853424	145.780000
326.946747	145.640000
327.040070	146.760000
327.133392	146.500000
327.226715	145.800000
327.320068	145.520000
327.413391	145.780000
327.506714	144.920000
327.600037	144.940000
327.693390	145.320000
327.786713	145.620000
327.880066	145.580000
327.973358	145.820000
328.066742	146.460000
328.160034	146.540000
328.253418	146.660000
328.346710	146.640000
328.440063	146.260000
328.533417	145.740000
328.626740	146.200000
328.720093	145.840000
328.813416	145.620000
328.906769	145.560000
329.000092	145.840000
329.093445	145.220000
329.186768	145.380000
329.280121	145.900000
329.373444	146.540000
329.466797	146.360000
329.560120	146.960000
329.653473	147.100000
329.746796	146.580000
329.840149	146.380000
329.933502	146.500000
330.026825	146.040000
330.120178	145.880000
330.213562	145.900000
330.306854	146.000000
330.400238	145.880000
330.493561	145.460000
330.586945	146.260000
330.680237	146.720000
330.773621	146.660000
330.866974	147.020000
330.960327	147.460000
331.053680	146.680000
331.147003	146.540000
331.240356	146.520000
331.333710	145.900000
331.427063	145.660000
331.520416	145.620000
331.613770	145.140000
331.707123	145.200000
331.800476	145.760000
331.893829	146.580000
331.987152	146.500000
332.080505	146.700000
332.173859	146.440000
332.267212	145.760000
332.360565	145.120000
332.453918	145.220000
332.547333	145.380000
332.640656	145.400000
332.734039	145.660000
332.827362	145.600000
332.920746	146.140000
333.014069	146.260000
333.107452	146.560000
333.200806	147.040000
333.294159	147.140000
333.387543	146.340000
333.480896	146.000000
333.574249	146.060000
333.667603	145.220000
333.760956	145.800000
333.854340	146.160000
333.947693	146.580000
334.041046	146.700000
334.134430	147.480000
334.227783	146.620000
334.321136	146.520000
334.414520	145.960000
334.507874	145.900000
334.601227	145.520000
334.694611	145.760000
334.787964	145.880000
334.881348	146.300000
334.974701	146.160000
335.068085	145.780000
335.161438	146.060000
335.254822	145.920000
335.348175	145.880000
335.441559	145.500000
335.534943	146.480000
335.628296	146.360000
335.721680	146.300000
335.815033	146.300000
335.908417	146.760000
336.001770	146.460000
336.095154	146.200000
336.188538	145.920000
336.281891	145.500000
336.375275	144.820000
336.468658	144.640000
336.562012	144.980000
336.655396	145.460000
336.748779	146.140000
336.842133	146.880000
336.935516	147.160000
337.028900	146.640000
337.122284	146.580000
337.215637	146.320000
337.309021	145.960000
337.402435	145.220000
337.495789	145.400000
337.589203	145.320000
337.682526	145.060000
337.775940	145.160000
337.869324	145.680000
337.962708	145.540000
338.056091	146.060000
338.149475	145.760000
338.242859	146.160000
338.336243	145.580000
338.429626	145.900000
338.523010	145.620000
338.616394	145.700000
338.709778	145.740000
338.803162	146.420000
338.896545	146.360000
338.989929	145.920000
339.083313	146.320000
339.176697	145.600000
339.270081	145.180000
339.363464	145.280000
339.456848	145.780000
339.550232	145.240000
339.643616	145.440000
339.737030	145.460000
339.830383	145.200000
339.923828	145.220000
340.017181	145.680000
340.110596	145.840000
340.203949	146.040000
340.297363	145.940000
340.390778	145.640000
340.484161	145.640000
340.577545	145.200000
340.670959	145.100000
340.764343	145.220000
340.857727	145.160000
340.951111	144.560000
341.044525	145.180000
341.137909	144.960000
341.231293	144.960000
341.324707	144.820000
341.418091	145.680000
341.511505	145.380000
341.604889	145.700000
341.698303	146.080000
341.791687	146.140000
341.885071	145.720000
341.978485	145.280000
342.071899	145.340000
342.165283	145.480000
342.258698	146.080000
342.352081	146.620000
342.445496	147.340000
342.538879	147.120000
342.632324	146.660000
342.725708	146.140000
342.819122	145.500000
342.912506	145.140000
343.005920	145.420000
343.099335	145.960000
343.192719	146.100000
343.286133	146.300000
343.379547	147.020000
343.472931	147.060000
343.566345	146.800000
343.659760	146.980000
343.753143	146.840000
343.846558	146.040000
343.939972	145.560000
344.033386	145.780000
344.126770	145.500000
344.220184	145.580000
344.313599	145.880000
344.407043	146.200000
344.500427	145.520000
344.593872	145.920000
344.687225	145.780000
344.780670	145.200000
344.874054	144.980000
344.967499	145.600000
345.060913	145.400000
345.154327	145.580000
345.247742	145.820000
345.341156	145.900000
345.434570	145.500000
345.527985	145.460000
345.621399	145.660000
345.714813	145.640000
345.808228	146.020000
345.901642	145.720000
345.995056	145.480000
346.088470	145.660000
346.181885	145.920000
346.275299	145.540000
346.368713	145.620000
346.462128	145.660000
346.555573	145.460000
346.648987	145.780000
346.742401	145.760000
346.835815	146.640000
346.929260	146.460000
347.022644	146.140000
347.116119	146.240000
347.209503	146.660000
347.302948	147.100000
347.396362	147.800000
347.489807	148.160000
347.583221	148.400000
347.676636	147.820000
347.770050	146.400000
347.863495	145.880000
347.956909	145.880000
348.050323	145.020000
348.143768	145.000000
348.237183	145.080000
348.330597	145.760000
348.424042	145.660000
348.517456	146.220000
348.610901	146.600000
348.704315	146.560000
348.797760	145.440000
348.891174	145.000000
348.984619	144.360000
349.078033	144.740000
349.171448	145.380000
349.264923	145.560000
349.358337	145.920000
349.451782	146.140000
349.545197	145.100000
349.638641	144.720000
349.732086	144.600000
349.825500	144.860000
349.918945	144.340000
350.012390	145.280000
350.105804	145.420000
350.199249	145.920000
350.292664	146.180000
350.386108	146.880000
350.479553	147.180000
350.572968	147.160000
350.666412	147.220000
350.759857	146.560000
350.853302	146.620000
350.946716	145.600000
351.040161	145.700000
351.133606	145.500000
351.227081	145.700000
351.320465	146.420000
351.413940	147.040000
351.507355	146.980000
351.600830	147.060000
351.694244	146.700000
351.787720	145.940000
351.881104	145.920000
351.974579	145.940000
352.067993	146.700000
352.161469	147.060000
352.254883	146.660000
352.348358	146.380000
352.441803	146.080000
352.535248	145.640000
352.628693	145.740000
352.722137	146.040000
352.815582	146.120000
352.909027	146.200000
353.002472	145.560000
353.095917	145.520000
353.189362	145.560000
353.282806	145.540000
353.376251	145.460000
353.469696	145.400000
353.563141	145.720000
353.656586	145.360000
353.750061	144.920000
353.843475	144.900000
353.936981	145.860000
354.030396	144.980000
354.123871	145.420000
354.217285	146.600000
354.310760	146.920000
354.404175	146.420000
354.497681	146.740000
354.591095	146.420000
354.684570	145.080000
354.777985	144.760000
354.871490	144.680000
354.964935	145.160000
355.058380	145.520000
355.151855	145.520000
355.245300	146.080000
355.338745	146.120000
355.432220	145.780000
355.525665	145.260000
355.619110	146.060000
355.712585	145.680000
355.806030	145.380000
355.899475	145.200000
355.992950	145.540000
356.086426	145.500000
356.179871	145.600000
356.273346	146.160000
356.366791	146.680000
356.460266	146.940000
356.553711	146.740000
356.647186	146.740000
356.740631	146.460000
356.834106	145.840000
356.927551	146.020000
357.021027	146.000000
357.114471	146.120000
357.207947	146.260000
357.301422	146.820000
357.394867	146.580000
357.488342	146.940000
357.581818	147.000000
357.675262	147.100000
357.768738	146.640000
357.862213	146.040000
357.955658	146.140000
358.049133	145.960000
358.142609	146.100000
358.236053	146.220000
358.329529	146.520000
358.423035	146.580000
358.516449	146.120000
358.609955	146.380000
358.703400	147.140000
358.796906	147.300000
358.890350	146.680000
358.983826	147.200000
359.077271	146.500000
359.170776	145.660000
359.264221	145.540000
359.357727	145.860000
359.451172	145.960000
359.544647	146.260000
359.638123	146.140000
359.731598	146.260000
359.825073	146.280000
359.918549	145.980000
360.012024	145.740000
360.105499	145.860000
360.198975	145.800000
360.292450	145.720000
360.385925	145.900000
360.479401	145.680000
360.572876	145.880000
360.666351	146.180000
360.759857	145.940000
360.853302	145.820000
360.946808	145.500000
361.040253	145.820000
361.133759	145.120000
361.227203	145.520000
361.320709	145.280000
361.414154	146.040000
361.507660	145.860000
361.601105	146.620000
361.694641	146.860000
361.788086	146.880000
361.881592	147.160000
361.975067	146.980000
362.068542	147.160000
362.162018	146.860000
362.255524	146.760000
362.348999	146.540000
362.442474	146.880000
362.535950	146.280000
362.629456	146.080000
362.722931	145.820000
362.816406	146.140000
362.909882	146.280000
363.003387	146.080000
363.096863	146.500000
363.190338	146.940000
363.283875	146.480000
363.377319	146.340000
363.470825	146.920000
363.564301	146.000000
363.657806	146.240000
363.751282	145.960000
363.844788	146.780000
363.938232	146.180000
364.031769	147.480000
364.125214	147.620000
364.218750	148.340000
364.312225	146.920000
364.405731	147.340000
364.499207	146.640000
364.592712	146.160000
364.686188	145.680000
364.779694	146.100000
364.873169	146.080000
364.966675	145.760000
365.060150	145.920000
365.153656	146.140000
365.247131	145.980000
365.340637	146.060000
365.434143	146.840000
365.527618	147.000000
365.621155	146.340000
365.714600	146.560000
365.808136	146.340000
365.901611	145.200000
365.995117	144.840000
366.088593	145.160000
366.182129	144.680000
366.275604	145.100000
366.369110	145.620000
366.462585	145.680000
366.556122	146.440000
366.649567	146.620000
366.743103	146.200000
366.836609	145.820000
366.930115	146.140000
367.023590	145.700000
367.117096	145.760000
367.210602	145.880000
367.304108	146.760000
367.397614	147.080000
367.491119	147.240000
367.584595	147.420000
367.678101	147.800000
367.771606	147.380000
367.865112	146.800000
367.958649	146.120000
368.052124	146.000000
368.145660	145.720000
368.239136	146.300000
368.332672	146.460000
368.426147	146.680000
368.519684	146.520000
368.613159	146.680000
368.706696	145.980000
368.800171	146.040000
368.893707	146.140000
368.987183	146.420000
369.080719	146.360000
369.174225	146.420000
369.267731	146.540000
369.361237	146.660000
369.454742	146.140000
369.548248	146.540000
369.641754	146.440000
369.735260	146.000000
369.828766	145.260000
369.922272	146.220000
370.015808	145.560000
370.109314	145.480000
370.202820	145.380000
370.296356	146.700000
370.389832	145.860000
370.483368	145.740000
370.576874	145.460000
370.670410	145.760000
370.763885	144.740000
370.857422	145.020000
370.950928	144.920000
371.044464	145.960000
371.137939	146.260000
371.231476	146.700000
371.324982	147.320000
371.418518	147.620000
371.512024	147.160000
371.605560	146.920000
371.699066	147.000000
371.792572	146.140000
371.886108	146.760000
371.979614	146.580000
372.073120	146.960000
372.166656	146.880000
372.260162	147.300000
372.353668	146.640000
372.447205	146.500000
372.540710	146.020000
372.634277	145.500000
372.727753	145.760000
372.821320	145.700000
372.914795	145.840000
373.008362	145.880000
373.101837	146.340000
373.195404	145.900000
373.288879	146.080000
373.382446	146.800000
373.475922	146.960000
373.569489	147.540000
373.662964	147.880000
373.756531	147.620000
373.850037	147.500000
373.943573	147.540000
374.037109	146.520000
374.130615	146.560000
374.224152	147.020000
374.317657	146.760000
374.411194	147.260000
374.504730	147.560000
374.598236	147.200000
374.691772	146.900000
374.785309	146.720000
374.878815	146.040000
374.972351	146.480000
375.065887	146.640000
375.159454	147.400000
375.252930	147.360000
375.346497	147.620000
375.440002	148.020000
375.533569	147.960000
375.627045	146.860000
375.720612	146.900000
375.814117	147.000000
375.907684	146.100000
376.001160	145.780000
376.094727	145.780000
376.188232	146.420000
376.281799	146.240000
376.375336	146.280000
376.468872	147.060000
376.562408	147.400000
376.655914	146.740000
376.749451	146.860000
376.842987	147.160000
376.936523	146.840000
377.030060	146.820000
377.123596	147.380000
377.217133	146.980000
377.310669	146.720000
377.404205	147.100000
377.497772	147.460000
377.591278	146.840000
377.684845	147.720000
377.778351	147.900000
377.871918	147.160000
377.965424	146.360000
378.058990	146.080000
378.152496	145.480000
378.246063	145.660000
378.339569	146.140000
378.433136	146.380000
378.526642	146.440000
378.620209	146.300000
378.713745	145.660000
378.807312	145.940000
378.900848	145.960000
378.994385	146.460000
379.087921	146.100000
379.181458	146.560000
379.274994	145.680000
379.368530	145.620000
379.462097	145.500000
379.555634	145.940000
379.649170	145.340000
379.742706	145.640000
379.836273	145.900000
379.929810	145.880000
380.023376	145.680000
380.116882	146.040000
380.210449	146.120000
380.303986	145.720000
380.397552	145.400000
380.491058	145.580000
380.584656	145.300000
380.678162	145.320000
380.771729	145.320000
380.865265	146.360000
380.958832	146.500000
381.052368	147.140000
381.145935	147.460000
381.239471	148.140000
381.333008	147.380000
381.426575	147.360000
381.520111	147.300000
381.613647	147.360000
381.707214	146.880000
381.800751	146.920000
381.894318	146.840000
381.987854	146.320000
382.081421	146.060000
382.174988	146.400000
382.268524	146.080000
382.362091	146.180000
382.455627	147.020000
382.549194	146.960000
382.642731	146.200000
382.736298	146.160000
382.829834	145.920000
382.923401	145.960000
383.016937	146.040000
383.110504	146.700000
383.204041	147.040000
383.297607	147.300000
383.391174	146.720000
383.484741	147.120000
383.578278	146.420000
383.671844	145.820000
383.765411	145.300000
383.858948	145.800000
383.952515	145.180000
384.046051	145.800000
384.139618	146.320000
384.233185	146.580000
384.326721	146.200000
384.420288	146.880000
384.513855	146.920000
384.607422	147.280000
384.700989	147.440000
384.794525	147.120000
384.888123	146.840000
384.981659	147.120000
385.075226	146.640000
385.168762	146.540000
385.262360	146.720000
385.355896	145.900000
385.449463	145.420000
385.542999	145.280000
385.636597	145.820000
385.730164	145.880000
385.823730	145.840000
385.917267	145.760000
386.010834	146.200000
386.104401	145.880000
386.197968	146.360000
386.291534	146.900000
386.385101	147.080000
386.478668	147.120000
386.572235	147.180000
386.665802	146.380000
386.759338	146.260000
386.852905	146.140000
386.946472	145.580000
387.040070	145.640000
387.133606	145.980000
387.227203	146.040000
387.320740	146.060000
387.414337	145.940000
387.507874	145.520000
387.601471	145.500000
387.695007	144.920000
387.788605	144.900000
387.882141	145.520000
387.975739	145.780000
388.069275	145.480000
388.162872	145.940000
388.256439	145.880000
388.350037	145.620000
388.443604	145.540000
388.537170	145.680000
388.630737	146.280000
388.724304	146.560000
388.817871	146.340000
388.911438	146.240000
389.005005	146.380000
389.098602	146.200000
389.192169	145.640000
389.285736	146.140000
389.379333	146.100000
389.472870	145.900000
389.566467	145.760000
389.660034	145.840000
389.753632	145.300000
389.847168	145.720000
389.940765	145.700000
390.034332	145.620000
390.127930	145.520000
390.221466	145.660000
390.315063	145.000000
390.408630	144.500000
390.502228	144.000000
390.595795	144.500000
390.689362	144.540000
390.782959	144.900000
390.876526	146.140000
390.970093	146.360000
391.063690	146.540000
391.157257	146.600000
391.250824	146.700000
391.344421	146.080000
391.437988	146.360000
391.531555	146.100000
391.625153	146.100000
391.718750	146.420000
391.812317	146.540000
391.905914	146.260000
391.999481	146.560000
392.093079	146.760000
392.186615	146.760000
392.280243	146.720000
392.373779	146.880000
392.467407	147.000000
392.560944	146.760000
392.654572	146.600000
392.748108	146.660000
392.841736	146.780000
392.935303	146.460000
393.028900	146.320000
393.122467	146.080000
393.216064	145.640000
393.309631	145.040000
393.403229	144.600000
393.496796	144.620000
393.590393	144.040000
393.683990	144.580000
393.777557	145.320000
393.871155	145.740000
393.964722	146.200000
394.058350	146.800000
394.151917	146.760000
394.245514	146.340000
394.339081	146.500000
394.432678	146.360000
394.526245	146.160000
394.619873	145.780000
394.713409	145.880000
394.807037	145.760000
394.900604	145.760000
394.994202	145.940000
395.087769	146.160000
395.181396	145.860000
395.274994	146.420000
395.368561	145.680000
395.462158	145.860000
395.555756	145.600000
395.649353	146.100000
395.742920	145.860000
395.836517	147.140000
395.930115	146.520000
396.023712	146.680000
396.117279	146.640000
396.210876	145.680000
396.304474	145.240000
396.398071	145.600000
396.491669	146.120000
396.585266	145.920000
396.678833	146.180000
396.772461	146.280000
396.866028	146.220000
396.959656	146.060000
397.053223	146.540000
397.146851	146.680000
397.240417	147.120000
397.334015	148.380000
397.427582	149.120000
397.521210	149.980000
397.614807	152.040000
397.708405	154.120000
397.802002	156.060000
397.895599	159.760000
397.989197	164.040000
398.082794	168.760000
398.176392	175.220000
398.269989	182.740000
398.363586	191.500000
398.457184	202.900000
398.550781	216.580000
398.644379	230.540000
398.737976	247.500000
398.831573	265.880000
398.925201	284.480000
399.018768	303.800000
399.112396	324.320000
399.205963	344.320000
399.299591	363.780000
399.393158	382.840000
399.486786	401.880000
399.580353	420.360000
399.673981	437.880000
399.767578	456.960000
399.861206	476.620000
399.954773	495.040000
400.048401	509.740000
400.141998	520.620000
400.235596	524.800000
400.329193	521.940000
400.422791	512.140000
400.516418	497.500000
400.610016	480.220000
400.703613	461.060000
400.797211	439.440000
400.890808	418.620000
400.984436	398.360000
401.078033	377.280000
401.171631	355.340000
401.265259	334.480000
401.358826	314.000000
401.452484	293.100000
401.546051	274.060000
401.639679	255.220000
401.733246	238.200000
401.826904	221.120000
401.920471	206.340000
402.014099	192.900000
402.107697	182.260000
402.201324	173.660000
402.294891	167.440000
402.388550	162.740000
402.482147	158.980000
402.575745	155.620000
402.669373	152.440000
402.762970	150.000000
402.856567	148.800000
402.950195	147.820000
403.043793	147.160000
403.137390	147.560000
403.231018	147.000000
403.324615	147.160000
403.418243	146.700000
403.511841	147.460000
403.605469	147.320000
403.699066	147.620000
403.792694	147.620000
403.886292	147.740000
403.979919	146.960000
404.073517	146.420000
404.167145	146.820000
404.260712	146.600000
404.354370	146.320000
404.447937	146.540000
404.541595	146.980000
404.635162	146.980000
404.728821	147.180000
404.822418	147.080000
404.916046	146.780000
405.009644	146.740000
405.103271	146.760000
405.196899	146.240000
405.290497	146.260000
405.384125	146.640000
405.477722	145.920000
405.571350	145.280000
405.664948	145.560000
405.758575	145.280000
405.852203	144.800000
405.945801	145.300000
406.039429	145.600000
406.133057	145.480000
406.226654	145.800000
406.320312	146.180000
406.413879	146.200000
406.507538	146.420000
406.601135	146.000000
406.694763	146.380000
406.788361	146.240000
406.882019	146.020000
406.975586	146.200000
407.069244	146.660000
407.162872	146.740000
407.256470	146.480000
407.350098	146.640000
407.443726	146.320000
407.537323	146.180000
407.630951	146.300000
407.724579	146.020000
407.818207	146.400000
407.911804	146.100000
408.005432	146.060000
408.099060	145.900000
408.192688	146.680000
408.286285	146.240000
408.379913	146.100000
408.473572	146.300000
408.567169	145.920000
408.660828	145.780000
408.754395	145.940000
408.848053	145.980000
408.941650	145.980000
409.035309	145.660000
409.128906	145.520000
409.222565	145.400000
409.316132	145.820000
409.409790	145.620000
409.503387	145.880000
409.597046	146.140000
409.690674	146.000000
409.784302	146.040000
409.877930	145.740000
409.971558	146.020000
410.065186	145.800000
410.158783	145.760000
410.252411	145.540000
410.346039	145.940000
410.439667	145.700000
410.533295	145.860000
410.626923	146.340000
410.720551	145.920000
410.814209	146.300000
410.907806	146.580000
411.001465	145.800000
411.095062	145.800000
411.188721	146.200000
411.282318	145.460000
411.375977	145.300000
411.469574	145.840000
411.563232	145.200000
411.656830	145.060000
411.750488	145.260000
411.844086	144.760000
411.937744	145.200000
412.031372	145.660000
412.125000	145.560000
412.218628	145.900000
412.312256	146.920000
412.405884	146.800000
412.499512	146.380000
412.593170	146.980000
412.686798	146.820000
412.780426	145.940000
412.874054	145.820000
412.967682	146.120000
413.061310	146.300000
413.154968	146.580000
413.248566	147.100000
413.342224	146.840000
413.435852	147.000000
413.529510	146.340000
413.623108	145.420000
413.716766	145.080000
413.810364	145.540000
413.904022	145.020000
413.997650	144.960000
414.091309	145.920000
414.184906	145.780000
414.278564	145.460000
414.372192	145.880000
414.465851	146.200000
414.559479	145.700000
414.653107	146.500000
414.746735	146.440000
414.840393	146.560000
414.934021	146.820000
415.027649	146.520000
415.121277	146.140000
415.214935	146.800000
415.308563	146.680000
415.402191	146.040000
415.495850	146.340000
415.589478	146.200000
415.683136	145.520000
415.776733	145.720000
415.870422	146.180000
415.964020	145.860000
416.057678	146.100000
416.151306	146.280000
416.244965	146.380000
416.338562	146.300000
416.432251	146.820000
416.525848	147.300000
416.619507	147.680000
416.713165	147.940000
416.806793	147.980000
416.900421	147.980000
416.994080	147.040000
417.087708	146.600000
417.181366	145.580000
417.274994	145.520000
417.368622	145.700000
417.462280	146.360000
417.555908	146.540000
417.649567	146.880000
417.743195	146.720000
417.836853	146.720000
417.930481	146.700000
418.024170	146.760000
418.117767	147.300000
418.211426	147.820000
418.305054	147.940000
418.398712	147.600000
418.492340	147.740000
418.585999	147.600000
418.679626	147.340000
418.773285	147.360000
418.866913	147.540000
418.960571	147.420000
419.054230	147.540000
419.147858	147.480000
419.241516	147.320000
419.335144	147.120000
419.428802	147.220000
419.522461	146.960000
419.616089	146.620000
419.709747	146.560000
419.803375	146.940000
419.897034	146.560000
419.990662	146.200000
420.084320	146.700000
420.177979	147.200000
420.271606	146.940000
420.365295	147.280000
420.458893	147.800000
420.552582	147.940000
420.646210	147.480000
420.739868	147.380000
420.833496	147.080000
420.927155	146.520000
421.020782	146.100000
421.114471	145.560000
421.208069	145.520000
421.301758	145.880000
421.395386	146.260000
421.489044	146.260000
421.582703	146.440000
421.676361	147.060000
421.769989	146.480000
421.863647	146.440000
421.957306	146.660000
422.050934	146.840000
422.144592	146.420000
422.238251	146.340000
422.331909	146.400000
422.425537	146.180000
422.519196	146.220000
422.612854	146.160000
422.706543	146.080000
422.800140	146.060000
422.893829	146.060000
422.987457	145.500000
423.081146	145.520000
423.174744	146.240000
423.268433	145.840000
423.362061	145.680000
423.455750	145.960000
423.549347	145.960000
423.643036	145.200000
423.736664	145.920000
423.830353	145.840000
423.924011	146.420000
424.017639	146.000000
424.111298	146.140000
424.204956	145.760000
424.298615	146.000000
424.392273	145.500000
424.485931	145.840000
424.579559	146.140000
424.673218	146.140000
424.766876	146.100000
424.860535	145.540000
424.954193	145.380000
425.047882	145.780000
425.141510	145.800000
425.235199	145.740000
425.328796	145.880000
425.422485	145.540000
425.516113	144.780000
425.609802	144.680000
425.703430	144.640000
425.797119	144.740000
425.890747	145.100000
425.984436	145.380000
426.078064	145.540000
426.171753	145.740000
426.265411	145.680000
426.359070	145.900000
426.452728	145.800000
426.546356	145.660000
426.640015	145.780000
426.733673	146.020000
426.827332	145.680000
426.920990	146.360000
427.014648	145.920000
427.108307	145.880000
427.201965	146.300000
427.295624	146.720000
427.389282	145.940000
427.482941	146.540000
427.576630	146.300000
427.670258	145.600000
427.763947	145.280000
427.857574	145.720000
427.951263	145.560000
428.044922	145.340000
428.138611	145.660000
428.232239	146.100000
428.325928	146.180000
428.419556	146.380000
428.513245	146.500000
428.606903	146.580000
428.700562	145.940000
428.794220	145.400000
428.887878	144.740000
428.981537	144.820000
429.075195	145.000000
429.168854	145.480000
429.262512	145.460000
429.356201	146.080000
429.449860	146.060000
429.543518	145.580000
429.637177	145.940000
429.730835	146.220000
429.824493	145.880000
429.918182	146.040000
430.011810	146.140000
430.105530	145.220000
430.199158	145.420000
430.292847	145.360000
430.386475	144.880000
430.480164	144.640000
430.573792	144.720000
430.667511	144.240000
430.761139	144.060000
430.854828	144.920000
430.948456	145.020000
431.042145	145.440000
431.135834	145.540000
431.229492	145.960000
431.323151	145.720000
431.416809	146.020000
431.510468	145.880000
431.604156	145.900000
431.697815	146.080000
431.791473	145.540000
431.885132	145.260000
431.978821	145.540000
432.072479	146.120000
432.166138	146.540000
432.259827	146.880000
432.353485	147.380000
432.447174	147.480000
432.540802	146.960000
432.634491	146.540000
432.728149	146.840000
432.821838	147.220000
432.915466	146.780000
433.009186	146.700000
433.102814	146.300000
433.196503	145.540000
433.290131	145.240000
433.383850	145.500000
433.477509	145.860000
433.571167	146.560000
433.664856	147.500000
433.758514	147.740000
433.852173	147.700000
433.945862	147.380000
434.039520	147.300000
434.133179	146.640000
434.226868	146.100000
434.320526	145.880000
434.414185	146.400000
434.507874	146.120000
434.601562	146.440000
434.695221	146.700000
434.788910	146.960000
434.882538	146.760000
434.976257	146.320000
435.069885	146.260000
435.163574	146.280000
435.257233	145.980000
435.350922	145.940000
435.444580	146.000000
435.538269	146.140000
435.631897	146.200000
435.725616	146.820000
435.819275	147.120000
435.912964	147.480000
436.006622	147.440000
436.100311	147.040000
436.193970	146.080000
436.287628	145.760000
436.381317	145.580000
436.474976	145.340000
436.568665	144.960000
436.662323	145.500000
436.756012	145.560000
436.849670	145.380000
436.943390	145.200000
437.037018	145.460000
437.130737	145.420000
437.224365	145.120000
437.318085	145.220000
437.411713	145.460000
437.505432	145.700000
437.599060	146.060000
437.692780	146.640000
437.786407	146.620000
437.880127	146.580000
437.973755	146.680000
438.067474	146.080000
438.161133	145.740000
438.254822	146.300000
438.348480	146.020000
438.442169	146.440000
438.535828	146.720000
438.629517	146.660000
438.723175	146.060000
438.816864	146.720000
438.910553	146.000000
439.004211	145.880000
439.097900	145.360000
439.191559	145.460000
439.285248	144.640000
439.378906	144.940000
439.472626	144.540000
439.566284	144.520000
439.659973	144.980000
439.753632	145.120000
439.847321	145.580000
439.940979	146.100000
440.034698	146.360000
440.128326	145.760000
440.222046	146.000000
440.315674	145.140000
440.409393	145.260000
440.503082	145.200000
440.596741	145.440000
440.690430	145.360000
440.784088	145.160000
440.877777	144.400000
440.971466	144.580000
441.065125	144.320000
441.158813	144.220000
441.252502	144.820000
441.346161	145.240000
441.439850	145.500000
441.533539	145.480000
441.627197	145.700000
441.720886	145.480000
441.814606	146.140000
441.908234	146.440000
442.001953	146.260000
442.095612	146.500000
442.189301	146.640000
442.282959	146.240000
442.376678	145.660000
442.470306	146.380000
442.564026	146.180000
442.657684	146.240000
442.751404	146.220000
442.845032	147.180000
442.938751	146.820000
443.032440	147.040000
443.126099	146.880000
443.219788	147.220000
443.313477	146.840000
443.407166	147.080000
443.500824	146.740000
443.594513	147.000000
443.688202	146.940000
443.781891	146.140000
443.875549	145.880000
443.969238	145.980000
444.062927	145.860000
444.156647	145.400000
444.250275	145.880000
444.343994	146.040000
444.437653	145.920000
444.531372	146.000000
444.625031	146.240000
444.718719	145.920000
444.812378	145.940000
444.906097	145.800000
444.999756	145.320000
445.093445	145.220000
445.187103	145.320000
445.280823	145.980000
445.374512	146.020000
445.468201	146.320000
445.561859	145.920000
445.655548	146.140000
445.749237	145.180000
445.842926	145.360000
445.936615	145.840000
446.030304	145.820000
446.123962	145.960000
446.217651	146.080000
446.311340	146.220000
446.405029	145.440000
446.498749	145.300000
446.592407	145.000000
446.686096	145.280000
446.779755	145.200000
446.873474	145.580000
446.967133	146.100000
447.060852	145.940000
447.154510	145.800000
447.248230	145.820000
447.341858	145.660000
447.435577	145.460000
447.529236	145.540000
447.622955	145.240000
447.716644	145.240000
447.810333	145.340000
447.904022	145.840000
447.997711	145.660000
448.091400	146.060000
448.185059	145.920000
448.278748	146.160000
448.372437	145.640000
448.466125	145.900000
448.559814	145.640000
448.653503	145.940000
448.747192	146.120000
448.840912	146.740000
448.934570	146.660000
449.028290	147.180000
449.121948	147.020000
449.215637	146.720000
449.309296	146.100000
449.403015	146.220000
449.496674	145.940000
449.590393	145.900000
449.684052	145.600000
449.777771	146.360000
449.871429	145.920000
449.965149	145.720000
450.058838	145.980000
450.152527	146.700000
450.246216	146.200000
450.339905	146.460000
450.433594	146.400000
450.527283	147.060000
450.620972	146.660000
450.714661	146.720000
450.808350	147.020000
450.902039	147.260000
450.995728	146.780000
451.089417	146.200000
451.183105	146.280000
451.276794	146.480000
451.370514	146.120000
451.464172	145.260000
451.557892	145.420000
451.651550	145.340000
451.745270	144.900000
451.838928	144.580000
451.932648	145.220000
452.026306	146.040000
452.120026	145.680000
452.213684	146.220000
452.307404	146.640000
452.401062	146.620000
452.494781	146.420000
452.588470	146.660000
452.682159	146.080000
452.775848	146.000000
452.869537	145.500000
452.963226	145.100000
453.056915	145.380000
453.150604	145.400000
453.244293	145.860000
453.337982	146.540000
453.431671	146.840000
453.525360	147.100000
453.619049	147.340000
453.712769	147.060000
453.806427	146.680000
453.900146	146.400000
453.993805	145.820000
454.087555	146.120000
454.181213	146.260000
454.274933	146.260000
454.368591	146.460000
454.462311	146.420000
454.555969	146.060000
454.649689	146.540000
454.743347	146.420000
454.837067	146.820000
454.930756	147.440000
455.024445	147.500000
455.118134	147.020000
455.211853	147.240000
455.305542	146.840000
455.399231	146.280000
455.492920	146.080000
455.586609	145.920000
455.680298	145.860000
455.773987	145.480000
455.867676	145.800000
455.961365	145.920000
456.055084	146.000000
456.148773	145.580000
456.242493	145.860000
456.336151	145.600000
456.429871	145.780000
456.523529	146.160000
456.617249	146.340000
456.710907	146.860000
456.804626	146.640000
456.898315	146.320000
456.992035	146.040000
457.085693	146.040000
457.179413	145.320000
457.273102	146.460000
457.366791	146.740000
457.460480	146.780000
457.554199	147.560000
457.647888	147.760000
457.741577	147.140000
457.835266	147.340000
457.928955	147.420000
458.022644	147.220000
458.116364	147.380000
458.210052	147.100000
458.303741	146.740000
458.397461	146.500000
458.491119	146.080000
458.584839	145.820000
458.678528	145.540000
458.772247	145.320000
458.865906	145.340000
458.959625	146.120000
459.053284	146.320000
459.147003	146.380000
459.240692	147.120000
459.334412	147.200000
459.428070	146.620000
459.521790	146.580000
459.615479	146.500000
459.709198	146.500000
459.802887	146.180000
459.896576	146.140000
459.990265	145.800000
460.083954	146.080000
460.177673	145.420000
460.271362	145.600000
460.365051	145.260000
460.458740	145.280000
460.552429	144.960000
460.646149	145.020000
460.739838	144.660000
460.833527	145.060000
460.927246	145.080000
461.020905	145.140000
461.114655	145.460000
461.208313	145.900000
461.302032	145.160000
461.395691	145.460000
461.489441	145.420000
461.583099	145.180000
461.676819	144.860000
461.770477	145.640000
461.864197	145.440000
461.957916	145.780000
462.051605	145.280000
462.145294	146.220000
462.238983	145.820000
462.332703	146.100000
462.426392	146.500000
462.520081	146.780000
462.613770	146.100000
462.707489	146.220000
462.801178	146.000000
462.894867	145.620000
462.988556	145.760000
463.082275	145.940000
463.175964	145.600000
463.269684	145.780000
463.363342	145.620000
463.457092	144.920000
463.550751	144.900000
463.644470	145.220000
463.738129	145.080000
463.831879	145.220000
463.925537	146.360000
464.019257	146.520000
464.112946	146.560000
464.206665	146.480000
464.300323	146.320000
464.394043	145.740000
464.487762	145.680000
464.581451	145.920000
464.675140	145.740000
464.768829	146.000000
464.862549	146.340000
464.956238	146.260000
465.049927	146.220000
465.143646	146.420000
465.237335	146.160000
465.331024	146.240000
465.424713	146.240000
465.518433	146.120000
465.612152	145.920000
465.705811	145.980000
465.799561	145.860000
465.893219	145.560000
465.986938	145.540000
466.080597	145.720000
466.174347	146.200000
466.268005	146.360000
466.361725	146.060000
466.455414	146.180000
466.549133	145.840000
466.642792	145.640000
466.736542	144.900000
466.830231	145.520000
466.923920	145.320000
467.017609	145.820000
467.111328	145.440000
467.205017	145.860000
467.298706	145.560000
467.392426	145.820000
467.486115	145.820000
467.579803	145.660000
467.673523	146.120000
467.767212	146.560000
467.860901	146.400000
467.954651	146.760000
468.048309	147.220000
468.142029	147.180000
468.235718	147.120000
468.329437	146.900000
468.423096	146.680000
468.516846	146.480000
468.610504	145.680000
468.704224	145.220000
468.797913	145.260000
468.891632	145.340000
468.985291	145.260000
469.079010	145.620000
469.172729	145.460000
469.266418	146.020000
469.360107	145.840000
469.453827	145.760000
469.547516	145.820000
469.641205	146.680000
469.734924	146.540000
469.828613	146.840000
469.922302	147.200000
470.016022	147.360000
470.109711	146.860000
470.203430	146.400000
470.297150	145.240000
470.390808	145.060000
470.484558	144.760000
470.578217	145.140000
470.671936	145.520000
470.765625	146.740000
470.859344	146.640000
470.953003	146.760000
471.046753	146.360000
471.140411	145.700000
471.234131	145.640000
471.327820	146.280000
471.421539	146.220000
471.515228	145.980000
471.608948	146.400000
471.702637	145.640000
471.796326	144.860000
471.890045	145.180000
471.983734	145.480000
472.077423	145.300000
472.171143	145.560000
472.264832	145.680000
472.358521	145.560000
472.452240	145.200000
472.545929	145.560000
472.639648	145.680000
472.733337	146.080000
472.827057	146.040000
472.920746	146.360000
473.014465	146.480000
473.108124	146.360000
473.201874	145.960000
473.295532	145.500000
473.389252	145.700000
473.482941	145.920000
473.576660	145.460000
473.670319	145.140000
473.764069	145.540000
473.857727	145.620000
473.951477	145.660000
474.045166	146.460000
474.138855	146.600000
474.232574	146.660000
474.326263	146.560000
474.419952	146.440000
474.513672	146.320000
474.607361	146.400000
474.701050	146.460000
474.794769	146.720000
474.888458	146.720000
474.982178	146.700000
475.075867	147.040000
475.169586	146.760000
475.263275	146.160000
475.356995	146.000000
475.450653	145.840000
475.544403	145.520000
475.638062	146.220000
475.731812	146.080000
475.825470	145.740000
475.919189	145.760000
476.012878	145.960000
476.106598	145.140000
476.200256	145.660000
476.294006	145.980000
476.387695	146.280000
476.481384	146.180000
476.575104	146.580000
476.668793	146.140000
476.762512	145.520000
476.856201	145.700000
476.949890	145.380000
477.043610	144.660000
477.137299	144.780000
477.230988	145.300000
477.324707	144.560000
477.418396	145.260000
477.512146	145.520000
477.605804	145.520000
477.699524	145.780000
477.793213	146.040000
477.886932	145.800000
477.980591	145.780000
478.074341	145.460000
478.167999	144.880000
478.261749	144.920000
478.355408	144.780000
478.449127	145.500000
478.542816	146.380000
478.636536	147.120000
478.730225	147.180000
478.823944	147.280000
478.917633	147.000000
479.011322	146.860000
479.105042	146.620000
479.198730	146.820000
479.292450	146.720000
479.386139	146.660000
479.479828	146.600000
479.573547	146.820000
479.667267	146.600000
479.760925	147.040000
479.854675	147.100000
479.948334	147.160000
480.042084	146.520000
480.135742	146.720000
480.229462	146.000000
480.323151	145.920000
480.416870	145.280000
480.510529	145.440000
480.604279	144.960000
480.697937	145.420000
480.791656	145.140000
480.885345	145.060000
480.979065	144.800000
481.072754	145.280000
481.166473	145.700000
481.260132	145.940000
481.353882	146.460000
481.447540	146.700000
481.541260	146.780000
481.635010	146.000000
481.728668	146.120000
481.822388	145.920000
481.916077	145.980000
482.009796	145.420000
482.103485	145.880000
482.197205	145.660000
482.290863	145.820000
482.384613	145.500000
482.478271	145.500000
482.571991	145.280000
482.665680	145.380000
482.759399	145.920000
482.853058	146.520000
482.946808	146.500000
483.040466	146.580000
483.134216	146.420000
483.227875	145.460000
483.321594	146.180000
483.415283	146.580000
483.509003	146.480000
483.602661	146.500000
483.696411	147.360000
483.790070	146.420000
483.883789	146.480000
483.977478	146.980000
484.071198	146.980000
484.164917	146.320000
484.258606	145.840000
484.352325	145.920000
484.445984	145.540000
484.539734	145.520000
484.633392	145.040000
484.727142	145.780000
484.820801	145.780000
484.914520	145.660000
485.008209	145.900000
485.101929	146.640000
485.195587	146.160000
485.289337	146.020000
485.382996	146.300000
485.476715	146.400000
485.570404	146.660000
485.664124	146.680000
485.757782	146.960000
485.851532	146.520000
485.945190	146.100000
486.038910	146.160000
486.132599	146.680000
486.226318	146.140000
486.319977	145.980000
486.413727	146.720000
486.507446	145.760000
486.601105	145.180000
486.694855	145.020000
486.788513	145.160000
486.882233	144.760000
486.975922	145.280000
487.069641	145.220000
487.163300	145.520000
487.257050	146.680000
487.350708	146.440000
487.444427	146.300000
487.538116	146.560000
487.631836	146.440000
487.725494	145.760000
487.819214	145.840000
487.912903	145.640000
488.006622	145.800000
488.100281	146.040000
488.194031	145.680000
488.287689	146.080000
488.381409	147.000000
488.475098	146.780000
488.568817	146.840000
488.662476	146.800000
488.756226	146.240000
488.849945	145.040000
488.943604	145.260000
489.037354	145.280000
489.131012	145.340000
489.224731	145.380000
489.318390	145.820000
489.412140	145.620000
489.505798	145.260000
489.599518	145.200000
489.693207	145.660000
489.786926	145.660000
489.880585	145.500000
489.974335	145.680000
490.067993	146.640000
490.161713	146.560000
490.255371	146.960000
490.349121	147.120000
490.442780	146.980000
490.536499	146.040000
490.630188	146.040000
490.723907	145.920000
490.817566	145.940000
490.911285	146.240000
491.004974	146.300000
491.098694	145.920000
491.192413	146.440000
491.286102	146.200000
491.379822	146.160000
491.473480	146.400000
491.567200	146.360000
491.660889	145.440000
491.754608	145.600000
491.848267	145.380000
491.941986	145.080000
492.035675	145.320000
492.129395	146.120000
492.223053	146.160000
492.316772	146.340000
492.410461	146.240000
492.504181	146.160000
492.597839	145.460000
492.691559	145.720000
492.785248	146.000000
492.878967	146.200000
492.972626	145.940000
493.066345	145.960000
493.160034	145.500000
493.253754	145.180000
493.347412	144.800000
493.441132	145.060000
493.534882	145.600000
493.628540	146.020000
493.722260	146.460000
493.815918	147.100000
493.909668	147.480000
494.003326	147.320000
494.097046	147.180000
494.190704	146.400000
494.284454	146.520000
494.378113	146.200000
494.471832	146.020000
494.565491	145.940000
494.659210	146.340000
494.752899	145.820000
494.846619	145.700000
494.940277	145.920000
495.033997	145.780000
495.127686	145.280000
495.221405	145.280000
495.315063	145.400000
495.408783	145.340000
495.502441	145.440000
495.596191	145.760000
495.689850	145.680000
495.783569	146.120000
495.877228	146.060000
495.970947	146.020000
496.064697	146.000000
496.158356	146.700000
496.252075	146.240000
496.345734	146.160000
496.439453	146.600000
496.533142	146.640000
496.626862	146.820000
496.720520	146.920000
496.814240	147.160000
496.907898	147.020000
497.001617	147.120000
497.095306	146.260000
497.189026	146.120000
497.282684	146.000000
497.376404	146.320000
497.470062	146.080000
497.563782	146.300000
497.657471	146.380000
497.751190	146.300000
497.844849	145.880000
497.938568	146.300000
498.032227	146.260000
498.125946	146.180000
498.219635	146.040000
498.313354	145.940000
498.407074	145.540000
498.500732	145.960000
498.594452	146.280000
498.688110	146.120000
498.781830	146.140000
498.875519	146.180000
498.969238	145.480000
499.062897	144.860000
499.156616	145.500000
499.250275	145.640000
499.343994	145.200000
499.437653	145.640000
499.531372	146.160000
499.625061	146.660000
499.718781	146.820000
499.812439	147.520000
499.906158	147.200000
499.999817	146.960000
500.093536	146.180000
500.187195	145.980000
500.280914	145.940000
500.374573	146.280000
500.468323	145.960000
500.561981	146.120000
500.655701	145.840000
500.749420	145.500000
500.843079	145.840000
500.936798	146.360000
501.030457	146.640000
501.124176	146.840000
501.217834	146.960000
501.311554	146.620000
501.405212	146.400000
501.498962	145.760000
501.592621	145.500000
501.686340	145.880000
501.779999	145.880000
501.873718	146.120000
501.967377	146.100000
502.061096	146.480000
502.154755	145.720000
502.248474	146.100000
502.342133	146.120000
502.435852	146.140000
502.529510	146.400000
502.623230	147.540000
502.716888	146.820000
502.810608	146.900000
502.904266	147.680000
502.997986	147.440000
503.091705	146.640000
503.185364	146.520000
503.279083	146.360000
503.372772	145.620000
503.466492	145.260000
503.560150	145.380000
503.653870	145.920000
503.747528	145.800000
503.841248	145.900000
503.934906	146.140000
504.028625	145.560000
504.122284	145.480000
504.216003	146.040000
504.309662	145.700000
504.403381	146.000000
504.497040	146.500000
504.590759	146.300000
504.684418	146.160000
504.778137	146.760000
504.871796	146.820000
504.965515	146.540000
505.059174	147.060000
505.152893	146.700000
505.246521	146.200000
505.340240	145.640000
505.433899	146.000000
505.527618	145.640000
505.621338	145.800000
505.714996	145.980000
505.808716	146.280000
505.902374	146.800000
505.996094	146.780000
506.089752	146.380000
506.183472	146.660000
506.277130	146.920000
506.370850	146.400000
506.464508	146.460000
506.558228	146.780000
506.651886	146.340000
506.745605	146.360000
506.839264	146.440000
506.932983	146.500000
507.026611	146.340000
507.120331	146.960000
507.213989	146.380000
507.307709	146.200000
507.401367	146.200000
507.495087	147.100000
507.588745	146.540000
507.682465	147.420000
507.776123	147.540000
507.869843	147.500000
507.963531	146.660000
508.057190	147.300000
508.150909	146.540000
508.244568	146.500000
508.338287	146.140000
508.431946	146.160000
508.525665	145.260000
508.619324	145.280000
508.713013	145.480000
508.806671	146.120000
508.900391	146.840000
508.994049	147.280000
509.087769	147.020000
509.181427	146.840000
509.275146	146.300000
509.368774	145.280000
509.462494	145.320000
509.556152	145.540000
509.649872	146.020000
509.743530	146.280000
509.837250	146.640000
509.930878	146.880000
510.024597	146.880000
510.118256	146.640000
510.211975	146.640000
510.305695	146.580000
510.399353	146.720000
510.493042	147.060000
510.586700	147.060000
510.680420	147.280000
510.774078	147.240000
510.867798	147.220000
510.961426	146.660000
511.055145	146.660000
511.148804	146.400000
511.242523	146.960000
511.336151	147.040000
511.429871	147.700000
511.523529	147.740000
511.617249	147.280000
511.710876	147.100000
511.804596	146.300000
511.898254	145.660000
511.991974	145.760000
512.085632	146.100000
512.179321	145.920000
512.272949	146.620000
512.366699	147.180000
512.460327	146.880000
512.554077	147.560000
512.647766	147.620000
512.741394	147.120000
512.835144	147.280000
512.928772	146.960000
513.022461	146.660000
513.116150	146.100000
513.209839	146.800000
513.303467	146.180000
513.397217	146.100000
513.490845	145.780000
513.584595	145.620000
513.678223	144.940000
513.771912	144.920000
513.865601	145.220000
513.959290	144.860000
514.052917	145.260000
514.146667	146.040000
514.240295	146.640000
514.333984	146.840000
514.427673	147.020000
514.521362	147.640000
514.614990	146.780000
514.708740	146.500000
514.802368	146.860000
514.896057	146.880000
514.989746	147.140000
515.083435	147.180000
515.177124	147.220000
515.270752	146.680000
515.364502	146.820000
515.458130	146.740000
515.551819	146.460000
515.645508	146.360000
515.739197	146.340000
515.832825	146.280000
515.926575	145.640000
516.020203	146.360000
516.113892	146.700000
516.207520	146.500000
516.301270	146.640000
516.394897	146.640000
516.488586	146.640000
516.582275	146.580000
516.675964	146.000000
516.769592	145.720000
516.863281	146.140000
516.956970	146.140000
517.050659	145.940000
517.144287	146.520000
517.238037	146.420000
517.331665	146.000000
517.425354	145.600000
517.519043	145.400000
517.612732	145.780000
517.706421	145.880000
517.800049	145.680000
517.893738	145.780000
517.987427	145.560000
518.081116	145.120000
518.174744	144.980000
518.268433	145.500000
518.362122	145.840000
518.455811	146.100000
518.549438	146.660000
518.643127	147.400000
518.736816	146.780000
518.830505	146.420000
518.924133	146.280000
519.017822	146.380000
519.111511	146.000000
519.205200	146.460000
519.298828	146.580000
519.392517	146.520000
519.486206	146.600000
519.579895	146.760000
519.673523	146.780000
519.767212	146.440000
519.860901	146.920000
519.954590	146.460000
520.048279	145.980000
520.141907	145.820000
520.235596	146.880000
520.329224	146.960000
520.422974	147.180000
520.516602	147.240000
520.610291	146.740000
520.703918	146.480000
520.797607	145.980000
520.891296	145.700000
520.984985	146.180000
521.078613	147.160000
521.172302	146.380000
521.265930	147.200000
521.359680	147.740000
521.453308	147.280000
521.546997	146.840000
521.640625	147.240000
521.734314	146.260000
521.827942	145.900000
521.921692	146.260000
522.015320	146.600000
522.109009	146.360000
522.202698	146.880000
522.296326	146.580000
522.390015	146.460000
522.483704	146.040000
522.577393	145.980000
522.671021	145.920000
522.764709	145.600000
522.858337	146.140000
522.952026	146.140000
523.045654	146.740000
523.139404	146.820000
523.233032	147.540000
523.326721	147.000000
523.420349	147.000000
523.514038	146.760000
523.607666	146.960000
523.701355	146.380000
523.795044	146.320000
523.888733	146.620000
523.982361	146.800000
524.076050	146.420000
524.169678	147.120000
524.263367	146.780000
524.356995	146.580000
524.450684	146.140000
524.544373	146.060000
524.638062	145.820000
524.731750	146.420000
524.825378	146.320000
524.919067	145.660000
525.012695	145.560000
525.106384	145.220000
525.200012	145.200000
525.293701	145.060000
525.387329	145.860000
525.481018	145.900000
525.574646	146.280000
525.668396	146.020000
525.762024	146.340000
525.855713	146.540000
525.949341	146.480000
526.043030	146.600000
526.136658	146.520000
526.230347	146.320000
526.323975	145.980000
526.417664	146.100000
526.511292	145.860000
526.604980	146.080000
526.698608	146.040000
526.792297	146.220000
526.885925	146.180000
526.979614	146.480000
527.073303	146.240000
527.166931	146.080000
527.260620	146.080000
527.354309	146.520000
527.447998	146.300000
527.541626	146.120000
527.635315	146.220000
527.728943	146.440000
527.822632	146.280000
527.916260	146.180000
528.009949	146.860000
528.103577	146.980000
528.197266	146.420000
528.290894	146.400000
528.384583	146.260000
528.478210	145.800000
528.571899	146.120000
528.665527	146.720000
528.759216	146.660000
528.852844	147.260000
528.946533	147.380000
529.040161	147.140000
529.133850	146.700000
529.227478	147.180000
529.321167	147.120000
529.414856	147.460000
529.508484	147.780000
529.602173	147.600000
529.695801	147.160000
529.789490	147.040000
529.883057	146.680000
529.976746	146.540000
530.070374	147.060000
530.164062	147.200000
530.257690	147.140000
530.351379	147.600000
530.445007	147.540000
530.538696	146.780000
530.632324	147.040000
530.726013	147.060000
530.819641	146.960000
530.913330	146.940000
531.006958	147.120000
531.100647	146.680000
531.194275	146.540000
531.287964	146.100000
531.381592	146.020000
531.475220	146.280000
531.568848	146.500000
531.662537	146.460000
531.756226	147.240000
531.849854	147.040000
531.943542	146.860000
532.037170	146.320000
532.130859	146.800000
532.224487	145.960000
532.318176	145.580000
532.411804	146.180000
532.505432	146.700000
532.599060	146.300000
532.692749	146.280000
532.786377	146.960000
532.880066	146.220000
532.973694	145.420000
533.067383	145.440000
533.161011	145.720000
533.254639	145.540000
533.348267	145.680000
533.441956	146.500000
533.535583	146.280000
533.629272	146.460000
533.722900	146.140000
533.816589	146.200000
533.910156	146.300000
534.003845	146.060000
534.097534	146.280000
534.191162	147.100000
534.284851	147.220000
534.378479	146.680000
534.472107	147.040000
534.565735	146.360000
534.659424	146.340000
534.753052	146.420000
534.846741	146.380000
534.940369	146.920000
535.033997	147.000000
535.127625	146.520000
535.221313	146.700000
535.314941	146.680000
535.408630	145.880000
535.502197	146.460000
535.595886	146.620000
535.689514	146.420000
535.783203	146.880000
535.876831	147.600000
535.970459	147.480000
536.064087	147.100000
536.157776	147.320000
536.251404	147.360000
536.345093	146.900000
536.438721	146.700000
536.532349	147.320000
536.626038	146.840000
536.719666	146.640000
536.813293	146.460000
536.906921	146.100000
537.000610	146.120000
537.094238	146.180000
537.187866	146.400000
537.281494	146.660000
537.375183	147.380000
537.468811	147.060000
537.562439	147.240000
537.656067	146.860000
537.749756	146.760000
537.843384	146.980000
537.937012	147.180000
538.030640	146.960000
538.124329	146.960000
538.217896	147.300000
538.311584	146.800000
538.405212	146.520000
538.498901	146.780000
538.592468	147.540000
538.686157	146.740000
538.779785	146.160000
538.873413	146.040000
538.967102	145.660000
539.060730	144.840000
539.154358	145.500000
539.247986	146.060000
539.341675	146.460000
539.435242	146.500000
539.528931	146.760000
539.622559	146.360000
539.716187	146.640000
539.809814	146.140000
539.903503	146.340000
539.997070	146.120000
540.090759	146.180000
540.184387	145.600000
540.278015	146.400000
540.371643	146.700000
540.465332	146.860000
540.558899	146.900000
540.652588	147.040000
540.746216	146.200000
540.839844	146.160000
540.933472	146.040000
541.027100	145.900000
541.120728	146.060000
541.214417	146.360000
541.308044	146.440000
541.401672	146.360000
541.495300	146.120000
541.588928	145.960000
541.682617	146.000000
541.776184	145.800000
541.869873	146.140000
541.963440	146.660000
542.057129	146.680000
542.150757	146.620000
542.244385	146.200000
542.338013	145.780000
542.431641	145.600000
542.525269	145.360000
542.618958	145.760000
542.712524	146.100000
542.806213	146.140000
542.899780	146.260000
542.993469	146.260000
543.087036	145.780000
543.180725	145.320000
543.274292	145.800000
543.367981	145.880000
543.461548	146.180000
543.555237	146.380000
543.648926	146.880000
543.742493	147.300000
543.836182	147.280000
543.929749	147.140000
544.023437	146.860000
544.117004	146.880000
544.210693	146.480000
544.304260	146.500000
544.397949	146.600000
544.491516	146.960000
544.585205	146.860000
544.678772	146.420000
544.772461	146.480000
544.866028	146.080000
544.959717	146.260000
545.053284	145.780000
545.146973	145.960000
545.240540	146.100000
545.334229	146.940000
545.427795	146.840000
545.521423	147.460000
545.615051	147.660000
545.708679	147.840000
545.802307	147.340000
545.895935	147.380000
545.989624	148.080000
546.083191	147.660000
546.176880	147.460000
546.270447	147.220000
546.364136	147.520000
546.457703	146.680000
546.551331	147.060000
546.644958	147.220000
546.738586	147.280000
546.832214	146.680000
546.925842	146.620000
547.019409	146.800000
547.113098	146.320000
547.206665	146.440000
547.300354	146.340000
547.393921	146.540000
547.487549	146.600000
547.581177	146.360000
547.674805	146.400000
547.768433	146.300000
547.862061	146.280000
547.955627	145.300000
548.049316	146.120000
548.142883	146.420000
548.236572	146.820000
548.330139	146.800000
548.423767	147.040000
548.517456	146.720000
548.611023	146.980000
548.704651	146.380000
548.798279	146.420000
548.891907	147.080000
548.985474	146.940000
549.079163	146.760000
549.172729	146.920000
549.266357	146.500000
549.359985	146.360000
549.453613	145.800000
549.547180	145.360000
549.640869	146.000000
549.734436	146.100000
549.828064	146.380000
549.921631	146.720000
550.015320	146.580000
550.108887	146.600000
550.202515	146.540000
550.296143	145.820000
550.389771	145.900000
550.483337	146.160000
550.576965	145.840000
550.670593	146.200000
550.764221	146.540000
550.857849	146.520000
550.951477	146.140000
551.045105	145.640000
551.138672	145.660000
551.232300	145.400000
551.325928	145.660000
551.419556	146.000000
551.513123	146.200000
551.606750	145.860000
551.700378	146.060000
551.794006	145.960000
551.887573	145.680000
551.981201	146.180000
552.074768	145.960000
552.168457	145.480000
552.262024	146.200000
552.355652	146.260000
552.449219	146.560000
552.542847	146.920000
552.636475	147.140000
552.730103	146.120000
552.823669	145.980000
552.917297	145.300000
553.010864	145.120000
553.104553	145.460000
553.198181	145.260000
553.291748	145.640000
553.385376	145.960000
553.478943	145.980000
553.572571	145.880000
553.666199	146.280000
553.759827	146.160000
553.853394	145.560000
553.947021	145.640000
554.040588	145.560000
554.134216	145.420000
554.227783	145.980000
554.321411	146.700000
554.415039	146.320000
554.508667	146.320000
554.602234	146.720000
554.695862	146.020000
554.789429	145.880000
554.883057	146.340000
554.976624	146.340000
555.070251	145.920000
555.163818	146.100000
555.257507	146.040000
555.351074	146.060000
555.444702	147.100000
555.538330	147.020000
555.631897	147.340000
555.725525	147.300000
555.819092	147.080000
555.912720	145.880000
556.006287	146.580000
556.099915	145.980000
556.193481	145.760000
556.287109	146.160000
556.380676	146.120000
556.474304	145.820000
556.567871	146.220000
556.661499	145.940000
556.755066	145.480000
556.848694	145.680000
556.942261	145.560000
557.035889	145.640000
557.129517	146.080000
557.223145	146.800000
557.316711	146.760000
557.410339	146.780000
557.503906	146.720000
557.597473	146.900000
557.691040	146.360000
557.784668	146.280000
557.878296	146.340000
557.971863	146.340000
558.065491	146.460000
558.159058	146.120000
558.252686	146.740000
558.346252	147.240000
558.439880	146.720000
558.533447	146.120000
558.627075	146.120000
558.720642	145.600000
558.814270	145.160000
558.907837	145.380000
559.001465	145.100000
559.095032	145.920000
559.188660	146.100000
559.282227	145.780000
559.375854	146.220000
559.469360	146.400000
559.562988	146.520000
559.656555	146.440000
559.750183	146.560000
559.843750	146.540000
559.937378	146.840000
560.030945	146.600000
560.124573	0.000000
560.218140	0.000000
560.311707	0.000000
560.405334	0.000000
560.498901	0.000000
560.592529	0.000000
560.686096	0.000000
560.779724	0.000000
560.873291	0.000000
560.966858	0.000000
561.060425	0.000000
561.154053	0.000000
561.247620	0.000000
561.341248	0.000000
561.434814	0.000000
561.528381	0.000000
561.621948	0.000000
561.715576	0.000000
561.809143	0.000000
561.902771	0.000000
561.996277	0.000000
562.089905	0.000000
562.183472	0.000000
562.277100	0.000000
