Model Number: SPM-002-B   
Serial Number: 70087108
Firmware Version: 004.15.4
Exposure Time: 100000.000000us
Data Taken on: 11-12-2020 19:40:34.837
Wavelength	Amplitude
221.570786	0.000000
221.663406	0.000000
221.756027	0.000000
221.848648	0.000000
221.941269	0.000000
222.033905	0.000000
222.126526	0.000000
222.219162	0.000000
222.311798	0.000000
222.404419	0.000000
222.497055	0.000000
222.589676	0.000000
222.682312	0.000000
222.774933	0.000000
222.867569	0.000000
222.960205	0.000000
223.052841	0.000000
223.145462	0.000000
223.238098	0.000000
223.330734	0.000000
223.423386	0.000000
223.516022	0.000000
223.608658	0.000000
223.701309	0.000000
223.793945	0.000000
223.886581	0.000000
223.979218	0.000000
224.071869	0.000000
224.164505	0.000000
224.257156	0.000000
224.349792	0.000000
224.442444	0.000000
224.535095	0.000000
224.627747	0.000000
224.720398	0.000000
224.813034	0.000000
224.905685	0.000000
224.998337	145.620000
225.090988	145.680000
225.183640	145.780000
225.276291	145.160000
225.368942	145.280000
225.461594	145.760000
225.554245	145.820000
225.646912	145.960000
225.739578	146.580000
225.832230	147.080000
225.924896	146.260000
226.017548	146.820000
226.110199	147.380000
226.202866	146.560000
226.295532	146.520000
226.388184	146.680000
226.480850	145.960000
226.573517	145.400000
226.666168	145.900000
226.758835	146.060000
226.851501	146.480000
226.944183	146.660000
227.036850	146.160000
227.129517	146.260000
227.222183	145.980000
227.314850	146.040000
227.407516	145.880000
227.500198	146.740000
227.592865	146.540000
227.685532	146.500000
227.778214	145.880000
227.870880	146.540000
227.963562	146.480000
228.056229	146.560000
228.148926	146.320000
228.241592	147.420000
228.334274	146.920000
228.426956	146.880000
228.519638	146.700000
228.612305	146.220000
228.704987	145.940000
228.797668	146.220000
228.890350	145.740000
228.983032	145.600000
229.075714	146.800000
229.168396	146.340000
229.261108	145.720000
229.353790	145.920000
229.446472	146.020000
229.539169	145.600000
229.631851	145.680000
229.724533	145.980000
229.817230	146.200000
229.909912	147.000000
230.002609	146.980000
230.095306	147.060000
230.187988	147.160000
230.280685	146.900000
230.373383	146.100000
230.466095	145.700000
230.558792	145.760000
230.651474	145.860000
230.744171	145.720000
230.836868	145.560000
230.929581	146.100000
231.022278	146.220000
231.114975	146.020000
231.207672	146.100000
231.300369	146.480000
231.393082	146.060000
231.485779	145.680000
231.578506	145.620000
231.671204	145.460000
231.763916	145.340000
231.856613	145.480000
231.949326	145.580000
232.042023	145.560000
232.134735	145.660000
232.227448	145.280000
232.320160	145.580000
232.412872	145.700000
232.505585	146.280000
232.598297	146.980000
232.691010	146.960000
232.783722	146.500000
232.876450	146.940000
232.969162	146.580000
233.061874	145.820000
233.154587	145.580000
233.247314	145.760000
233.340027	144.900000
233.432739	145.200000
233.525467	145.600000
233.618179	146.220000
233.710907	146.180000
233.803635	146.820000
233.896347	146.540000
233.989090	146.740000
234.081818	146.420000
234.174545	146.400000
234.267258	145.960000
234.359985	146.160000
234.452713	145.900000
234.545441	145.800000
234.638168	145.720000
234.730896	146.240000
234.823639	145.860000
234.916367	146.540000
235.009094	146.880000
235.101822	147.200000
235.194580	146.980000
235.287308	147.180000
235.380051	146.220000
235.472778	146.300000
235.565521	146.360000
235.658249	145.860000
235.750992	145.680000
235.843719	145.600000
235.936462	145.980000
236.029205	145.520000
236.121948	145.320000
236.214691	145.820000
236.307449	146.620000
236.400192	146.020000
236.492935	146.040000
236.585678	146.440000
236.678421	146.020000
236.771164	145.620000
236.863907	146.320000
236.956665	146.520000
237.049408	148.120000
237.142151	147.600000
237.234909	147.920000
237.327652	147.720000
237.420410	147.620000
237.513153	146.340000
237.605927	146.680000
237.698669	146.240000
237.791428	145.720000
237.884186	146.060000
237.976944	145.500000
238.069702	145.980000
238.162445	145.660000
238.255203	145.760000
238.347961	146.020000
238.440720	146.320000
238.533478	146.000000
238.626266	145.940000
238.719025	146.020000
238.811783	145.680000
238.904541	145.480000
238.997314	145.420000
239.090073	145.280000
239.182831	145.560000
239.275604	146.240000
239.368362	146.520000
239.461136	146.520000
239.553909	146.800000
239.646667	146.680000
239.739441	145.940000
239.832214	146.160000
239.925003	146.220000
240.017761	146.700000
240.110535	147.080000
240.203308	146.560000
240.296082	146.540000
240.388855	146.660000
240.481628	146.520000
240.574417	146.540000
240.667191	146.980000
240.759964	146.580000
240.852737	146.260000
240.945526	145.980000
241.038315	145.620000
241.131088	145.800000
241.223877	146.100000
241.316650	146.220000
241.409439	146.540000
241.502228	146.040000
241.595001	146.440000
241.687790	146.180000
241.780579	146.000000
241.873367	146.160000
241.966141	146.540000
242.058929	145.600000
242.151718	145.900000
242.244507	146.660000
242.337311	145.960000
242.430099	146.320000
242.522903	146.800000
242.615692	146.440000
242.708481	146.260000
242.801270	146.740000
242.894073	146.440000
242.986862	146.540000
243.079651	147.040000
243.172455	146.440000
243.265244	146.560000
243.358063	146.020000
243.450867	146.400000
243.543655	146.300000
243.636459	146.520000
243.729263	146.860000
243.822067	147.340000
243.914856	147.400000
244.007660	147.220000
244.100464	147.320000
244.193268	146.740000
244.286072	146.720000
244.378876	145.920000
244.471680	145.860000
244.564499	146.260000
244.657318	146.960000
244.750122	147.080000
244.842926	146.800000
244.935745	147.280000
245.028549	146.620000
245.121368	145.800000
245.214172	145.540000
245.306992	145.960000
245.399796	145.420000
245.492615	145.560000
245.585434	145.780000
245.678253	145.820000
245.771072	145.580000
245.863892	145.980000
245.956711	146.180000
246.049530	145.780000
246.142349	145.600000
246.235168	145.880000
246.327988	146.400000
246.420807	146.320000
246.513626	146.660000
246.606445	146.560000
246.699280	146.720000
246.792099	146.200000
246.884918	145.760000
246.977753	145.440000
247.070587	145.740000
247.163422	145.600000
247.256241	145.580000
247.349075	146.260000
247.441895	146.520000
247.534729	146.420000
247.627563	146.420000
247.720383	146.700000
247.813217	145.960000
247.906052	145.720000
247.998886	145.800000
248.091736	145.780000
248.184570	145.280000
248.277405	145.700000
248.370239	146.580000
248.463074	147.520000
248.555908	147.600000
248.648743	147.420000
248.741592	147.800000
248.834427	147.040000
248.927261	145.660000
249.020111	146.020000
249.112946	146.800000
249.205795	146.380000
249.298630	146.620000
249.391495	147.100000
249.484344	146.480000
249.577179	146.240000
249.670029	146.520000
249.762878	146.840000
249.855728	147.100000
249.948563	147.180000
250.041412	146.440000
250.134262	146.560000
250.227112	146.300000
250.319962	146.180000
250.412827	146.360000
250.505692	146.280000
250.598541	146.140000
250.691391	146.080000
250.784241	145.940000
250.877106	146.040000
250.969955	146.320000
251.062805	146.560000
251.155670	146.960000
251.248520	147.000000
251.341385	147.200000
251.434235	147.020000
251.527100	146.740000
251.619965	146.300000
251.712814	146.920000
251.805695	146.660000
251.898560	146.880000
251.991425	147.020000
252.084290	147.400000
252.177155	146.700000
252.270020	146.680000
252.362885	146.820000
252.455750	146.840000
252.548615	146.200000
252.641479	146.080000
252.734360	146.020000
252.827240	145.920000
252.920105	145.860000
253.012970	146.140000
253.105850	146.220000
253.198715	145.940000
253.291595	145.940000
253.384460	145.640000
253.477341	145.400000
253.570221	145.780000
253.663086	145.760000
253.755966	146.620000
253.848846	146.440000
253.941727	146.940000
254.034592	146.680000
254.127472	146.100000
254.220367	145.720000
254.313248	146.140000
254.406128	145.760000
254.499008	145.920000
254.591904	147.240000
254.684784	147.440000
254.777664	147.380000
254.870544	147.340000
254.963440	147.420000
255.056335	147.220000
255.149216	146.600000
255.242111	146.920000
255.334991	147.240000
255.427887	147.280000
255.520767	147.320000
255.613663	147.680000
255.706558	147.260000
255.799438	146.760000
255.892334	146.200000
255.985229	146.000000
256.078125	145.640000
256.171021	146.020000
256.263916	146.920000
256.356812	147.500000
256.449707	147.540000
256.542603	147.380000
256.635498	147.560000
256.728394	146.700000
256.821289	146.120000
256.914215	146.200000
257.007080	146.420000
257.100006	146.240000
257.192932	146.800000
257.285828	147.120000
257.378723	146.960000
257.471619	146.920000
257.564545	146.260000
257.657440	146.400000
257.750336	146.800000
257.843262	146.600000
257.936157	147.840000
258.029053	148.480000
258.121979	148.180000
258.214874	147.460000
258.307800	147.640000
258.400696	146.420000
258.493622	146.080000
258.586517	145.680000
258.679443	146.260000
258.772339	145.780000
258.865265	145.540000
258.958160	145.400000
259.051086	146.040000
259.144012	145.600000
259.236938	146.620000
259.329834	147.020000
259.422791	146.800000
259.515717	146.000000
259.608612	146.040000
259.701538	145.780000
259.794464	145.420000
259.887390	146.120000
259.980316	146.020000
260.073212	145.820000
260.166138	144.760000
260.259064	145.160000
260.351990	145.100000
260.444916	145.480000
260.537842	146.080000
260.630768	147.060000
260.723694	147.180000
260.816620	146.860000
260.909546	146.800000
261.002472	146.520000
261.095398	146.060000
261.188354	145.680000
261.281281	145.700000
261.374207	146.080000
261.467133	146.600000
261.560089	146.860000
261.653015	146.680000
261.745972	147.180000
261.838867	147.180000
261.931824	147.100000
262.024780	146.420000
262.117706	146.820000
262.210663	146.680000
262.303589	146.480000
262.396515	146.440000
262.489471	147.580000
262.582397	147.500000
262.675354	147.040000
262.768280	146.920000
262.861237	146.700000
262.954163	146.480000
263.047119	146.480000
263.140045	146.220000
263.233002	146.500000
263.325958	146.500000
263.418884	145.760000
263.511841	145.700000
263.604797	145.880000
263.697723	145.820000
263.790680	145.740000
263.883636	146.520000
263.976593	146.340000
264.069550	146.560000
264.162476	146.480000
264.255463	146.640000
264.348419	146.300000
264.441376	146.480000
264.534332	146.060000
264.627289	146.160000
264.720245	146.340000
264.813202	145.780000
264.906158	145.920000
264.999115	146.520000
265.092072	146.040000
265.185028	146.360000
265.277985	146.880000
265.370941	146.800000
265.463898	146.640000
265.556854	146.760000
265.649811	145.540000
265.742798	145.520000
265.835754	145.520000
265.928711	145.600000
266.021667	145.680000
266.114655	146.120000
266.207611	146.360000
266.300568	145.740000
266.393585	145.320000
266.486511	145.600000
266.579498	145.300000
266.672485	145.040000
266.765442	145.280000
266.858429	145.780000
266.951385	145.200000
267.044342	145.280000
267.137329	145.120000
267.230316	145.300000
267.323273	145.160000
267.416260	146.280000
267.509216	146.200000
267.602203	146.320000
267.695160	146.880000
267.788147	146.860000
267.881134	145.960000
267.974091	146.280000
268.067078	146.020000
268.160065	145.360000
268.253052	145.160000
268.346008	145.480000
268.438995	145.300000
268.531982	145.860000
268.624969	145.980000
268.717987	146.220000
268.810944	146.060000
268.903961	146.220000
268.996948	145.540000
269.089905	146.120000
269.182892	146.200000
269.275879	146.740000
269.368866	146.360000
269.461853	146.800000
269.554871	146.380000
269.647858	146.360000
269.740845	146.280000
269.833832	146.700000
269.926819	146.480000
270.019806	146.600000
270.112793	146.300000
270.205811	146.040000
270.298798	145.740000
270.391785	146.500000
270.484772	146.120000
270.577789	146.200000
270.670776	145.860000
270.763763	145.980000
270.856750	145.660000
270.949768	145.360000
271.042786	145.540000
271.135773	145.780000
271.228790	146.120000
271.321808	145.540000
271.414795	145.660000
271.507782	145.380000
271.600800	145.260000
271.693817	145.280000
271.786804	145.920000
271.879822	146.260000
271.972809	146.180000
272.065826	146.600000
272.158844	146.300000
272.251831	146.340000
272.344849	146.300000
272.437866	146.120000
272.530853	146.180000
272.623871	146.080000
272.716888	145.440000
272.809906	145.920000
272.902893	146.140000
272.995911	145.400000
273.088928	145.460000
273.181946	145.940000
273.274963	145.440000
273.367981	145.740000
273.460999	146.440000
273.554047	146.920000
273.647003	147.340000
273.740051	147.460000
273.833069	147.700000
273.926086	147.560000
274.019135	147.240000
274.112152	146.700000
274.205170	146.860000
274.298187	146.840000
274.391205	146.240000
274.484222	146.040000
274.577240	145.920000
274.670258	145.520000
274.763306	145.360000
274.856323	145.920000
274.949341	146.000000
275.042358	146.520000
275.135406	146.440000
275.228424	146.460000
275.321442	146.400000
275.414490	146.400000
275.507507	146.840000
275.600525	147.500000
275.693573	147.100000
275.786591	146.580000
275.879669	146.680000
275.972656	145.940000
276.065735	145.640000
276.158752	146.240000
276.251801	147.000000
276.344818	147.140000
276.437866	147.100000
276.530884	146.860000
276.623932	145.960000
276.716980	146.040000
276.809998	146.080000
276.903046	146.160000
276.996094	147.040000
277.089111	147.760000
277.182159	148.100000
277.275208	148.040000
277.368256	148.080000
277.461304	147.580000
277.554321	147.100000
277.647369	146.660000
277.740417	146.600000
277.833466	146.460000
277.926514	146.580000
278.019562	147.200000
278.112610	146.720000
278.205688	146.680000
278.298706	146.820000
278.391785	146.400000
278.484833	145.640000
278.577881	145.680000
278.670929	146.040000
278.763977	146.140000
278.857025	146.560000
278.950073	146.800000
279.043121	146.460000
279.136169	146.260000
279.229248	145.840000
279.322296	145.540000
279.415344	145.460000
279.508392	145.940000
279.601440	145.740000
279.694519	145.920000
279.787567	145.840000
279.880615	145.540000
279.973694	145.260000
280.066742	145.520000
280.159790	145.560000
280.252869	145.440000
280.345917	145.760000
280.438995	145.840000
280.532074	145.660000
280.625122	145.840000
280.718201	146.660000
280.811279	146.740000
280.904327	146.800000
280.997406	146.920000
281.090454	146.960000
281.183533	146.340000
281.276581	146.480000
281.369659	146.440000
281.462738	146.420000
281.555786	146.500000
281.648865	146.660000
281.741943	146.580000
281.835022	147.100000
281.928070	146.860000
282.021149	146.340000
282.114227	146.160000
282.207306	146.200000
282.300385	146.140000
282.393433	146.060000
282.486511	146.380000
282.579590	146.860000
282.672668	147.060000
282.765747	146.520000
282.858856	146.520000
282.951904	146.640000
283.045013	146.660000
283.138062	146.820000
283.231171	147.300000
283.324249	147.840000
283.417328	147.880000
283.510406	147.360000
283.603485	147.020000
283.696564	146.720000
283.789642	146.740000
283.882751	146.380000
283.975830	147.140000
284.068909	146.780000
284.161987	147.540000
284.255066	147.000000
284.348175	147.200000
284.441254	146.360000
284.534332	147.240000
284.627441	146.380000
284.720520	146.020000
284.813599	146.100000
284.906708	146.380000
284.999786	145.640000
285.092896	145.580000
285.185974	146.840000
285.279053	146.360000
285.372192	146.620000
285.465240	147.160000
285.558380	147.340000
285.651459	146.760000
285.744568	147.760000
285.837677	147.420000
285.930756	147.400000
286.023865	147.280000
286.116943	147.060000
286.210052	146.460000
286.303162	146.360000
286.396240	146.260000
286.489349	146.240000
286.582458	146.520000
286.675568	146.280000
286.768646	146.280000
286.861755	146.300000
286.954865	147.060000
287.047974	146.540000
287.141083	146.460000
287.234161	146.400000
287.327271	145.920000
287.420380	146.160000
287.513519	146.140000
287.606598	146.340000
287.699738	146.460000
287.792816	146.740000
287.885956	146.200000
287.979034	146.360000
288.072174	146.620000
288.165283	146.520000
288.258392	146.600000
288.351501	146.000000
288.444611	146.120000
288.537720	146.260000
288.630859	146.420000
288.723969	146.560000
288.817078	146.920000
288.910187	147.080000
289.003296	146.460000
289.096436	146.120000
289.189545	145.900000
289.282654	145.360000
289.375763	145.520000
289.468903	146.020000
289.562012	146.180000
289.655121	146.020000
289.748260	146.700000
289.841400	146.840000
289.934509	146.800000
290.027649	147.080000
290.120728	146.900000
290.213898	146.940000
290.306976	146.380000
290.400146	146.260000
290.493256	145.940000
290.586395	146.460000
290.679535	146.600000
290.772644	146.420000
290.865784	145.860000
290.958893	145.420000
291.052032	145.220000
291.145172	145.100000
291.238281	145.160000
291.331421	145.440000
291.424561	146.500000
291.517670	146.120000
291.610809	146.000000
291.703949	146.280000
291.797089	146.460000
291.890228	145.740000
291.983337	146.020000
292.076477	146.060000
292.169617	146.080000
292.262756	146.240000
292.355927	146.160000
292.449036	145.840000
292.542206	145.740000
292.635315	145.880000
292.728485	146.020000
292.821625	146.020000
292.914764	147.180000
293.007904	147.260000
293.101044	146.880000
293.194183	146.540000
293.287323	147.000000
293.380463	146.360000
293.473602	146.020000
293.566742	146.360000
293.659882	146.800000
293.753021	146.900000
293.846191	146.780000
293.939331	146.720000
294.032471	146.780000
294.125610	146.240000
294.218781	146.060000
294.311920	146.320000
294.405060	146.480000
294.498230	146.100000
294.591370	146.180000
294.684540	145.520000
294.777679	145.060000
294.870850	145.340000
294.963959	145.300000
295.057159	145.400000
295.150299	146.040000
295.243469	145.940000
295.336609	145.620000
295.429779	145.860000
295.522919	146.120000
295.616089	146.140000
295.709229	146.720000
295.802399	146.960000
295.895569	146.800000
295.988708	146.540000
296.081879	146.520000
296.175018	146.180000
296.268188	145.900000
296.361359	146.100000
296.454529	146.420000
296.547668	146.380000
296.640839	146.660000
296.734009	146.660000
296.827179	147.140000
296.920319	147.140000
297.013519	146.760000
297.106659	146.700000
297.199860	146.660000
297.292999	146.120000
297.386200	145.880000
297.479309	146.040000
297.572510	146.240000
297.665680	146.040000
297.758850	146.300000
297.852020	146.280000
297.945190	146.520000
298.038361	146.120000
298.131531	147.400000
298.224701	146.860000
298.317871	146.580000
298.411072	145.920000
298.504242	145.760000
298.597412	144.860000
298.690582	145.340000
298.783752	145.460000
298.876923	145.880000
298.970093	145.980000
299.063293	146.440000
299.156464	146.500000
299.249634	146.680000
299.342834	146.840000
299.436005	147.240000
299.529205	146.720000
299.622345	146.580000
299.715576	146.020000
299.808716	145.760000
299.901917	145.500000
299.995117	145.780000
300.088287	145.860000
300.181488	146.200000
300.274658	146.300000
300.367828	146.440000
300.461029	146.320000
300.554199	146.420000
300.647400	146.360000
300.740601	146.920000
300.833771	146.560000
300.926971	147.000000
301.020142	146.320000
301.113342	146.140000
301.206512	145.840000
301.299713	146.260000
301.392914	146.220000
301.486084	146.920000
301.579285	146.920000
301.672516	147.240000
301.765686	146.800000
301.858887	146.320000
301.952057	146.140000
302.045288	146.140000
302.138458	145.620000
302.231659	145.540000
302.324860	145.560000
302.418060	145.420000
302.511261	145.460000
302.604462	145.840000
302.697662	145.800000
302.790863	145.400000
302.884064	145.260000
302.977264	145.140000
303.070465	145.460000
303.163666	146.240000
303.256866	146.960000
303.350067	147.220000
303.443268	147.680000
303.536469	147.300000
303.629669	146.380000
303.722870	146.540000
303.816071	146.180000
303.909271	145.940000
304.002472	145.340000
304.095673	145.820000
304.188934	144.880000
304.282104	145.780000
304.375336	145.740000
304.468506	145.720000
304.561768	145.480000
304.654968	146.300000
304.748169	145.800000
304.841370	145.800000
304.934601	146.500000
305.027802	146.220000
305.121002	145.680000
305.214233	145.520000
305.307434	145.600000
305.400665	146.100000
305.493866	146.500000
305.587097	146.800000
305.680298	146.600000
305.773499	147.260000
305.866730	146.540000
305.959930	146.880000
306.053162	147.020000
306.146393	146.820000
306.239594	145.840000
306.332825	145.900000
306.426025	146.040000
306.519287	145.620000
306.612488	146.100000
306.705719	146.560000
306.798920	146.540000
306.892181	145.540000
306.985352	145.400000
307.078613	144.840000
307.171844	145.100000
307.265045	144.820000
307.358276	145.260000
307.451508	146.200000
307.544739	147.060000
307.637970	146.500000
307.731201	146.620000
307.824402	147.220000
307.917633	147.180000
308.010864	147.280000
308.104095	147.660000
308.197327	147.600000
308.290558	147.260000
308.383789	146.680000
308.477020	146.060000
308.570251	145.580000
308.663483	145.260000
308.756714	144.880000
308.849976	144.740000
308.943176	145.240000
309.036438	145.100000
309.129639	144.960000
309.222900	145.160000
309.316101	145.240000
309.409393	144.840000
309.502625	145.040000
309.595856	145.520000
309.689087	145.500000
309.782318	145.440000
309.875580	145.360000
309.968811	145.660000
310.062042	145.520000
310.155273	145.240000
310.248535	145.900000
310.341766	145.840000
310.434998	145.720000
310.528259	145.820000
310.621490	146.300000
310.714722	145.300000
310.807983	145.400000
310.901215	145.040000
310.994476	145.100000
311.087708	144.680000
311.181000	145.340000
311.274200	145.160000
311.367462	145.660000
311.460693	145.460000
311.553986	146.180000
311.647186	146.040000
311.740479	146.700000
311.833710	146.180000
311.926971	146.260000
312.020203	145.420000
312.113464	145.400000
312.206726	144.680000
312.299957	144.980000
312.393219	145.860000
312.486481	146.340000
312.579712	146.140000
312.672974	146.380000
312.766235	146.480000
312.859497	145.740000
312.952759	145.660000
313.045990	146.320000
313.139252	145.660000
313.232513	145.820000
313.325775	145.940000
313.419037	145.660000
313.512299	145.080000
313.605530	146.020000
313.698822	145.740000
313.792053	145.660000
313.885345	145.480000
313.978577	145.480000
314.071869	144.800000
314.165131	145.360000
314.258392	145.640000
314.351654	146.060000
314.444916	145.540000
314.538177	146.520000
314.631439	146.500000
314.724701	146.140000
314.817993	146.040000
314.911255	146.700000
315.004517	145.900000
315.097778	145.420000
315.191040	145.860000
315.284302	146.160000
315.377594	145.700000
315.470856	145.700000
315.564117	145.620000
315.657379	145.000000
315.750671	144.520000
315.843933	145.200000
315.937195	145.140000
316.030518	145.060000
316.123749	145.040000
316.217041	145.880000
316.310303	145.380000
316.403595	145.600000
316.496857	146.000000
316.590149	146.500000
316.683411	145.540000
316.776703	145.420000
316.869965	145.260000
316.963257	144.740000
317.056519	143.820000
317.149811	144.020000
317.243073	144.240000
317.336365	144.520000
317.429626	144.960000
317.522919	145.860000
317.616180	145.980000
317.709473	146.040000
317.802765	145.860000
317.896027	145.820000
317.989319	146.040000
318.082611	146.120000
318.175873	145.740000
318.269165	145.960000
318.362488	145.840000
318.455750	145.320000
318.549042	145.500000
318.642303	146.160000
318.735626	145.980000
318.828888	145.760000
318.922211	145.560000
319.015472	146.040000
319.108765	145.380000
319.202057	145.180000
319.295349	145.520000
319.388641	145.580000
319.481934	144.920000
319.575226	145.020000
319.668518	145.260000
319.761810	145.500000
319.855103	145.560000
319.948395	145.780000
320.041687	146.140000
320.134979	146.060000
320.228271	145.840000
320.321564	145.700000
320.414856	145.820000
320.508148	145.340000
320.601440	145.320000
320.694763	144.980000
320.788025	145.700000
320.881348	145.360000
320.974640	145.340000
321.067963	144.920000
321.161224	145.040000
321.254547	144.120000
321.347839	144.700000
321.441162	144.720000
321.534454	145.020000
321.627747	145.000000
321.721069	146.080000
321.814362	145.840000
321.907654	145.780000
322.000946	145.780000
322.094269	146.220000
322.187561	145.520000
322.280884	145.520000
322.374176	145.600000
322.467468	146.320000
322.560791	146.020000
322.654083	146.060000
322.747406	146.340000
322.840698	146.860000
322.934021	146.760000
323.027344	146.940000
323.120636	146.840000
323.213959	146.320000
323.307251	145.740000
323.400574	145.320000
323.493866	144.860000
323.587219	145.180000
323.680511	145.720000
323.773834	146.120000
323.867157	146.200000
323.960449	146.340000
324.053772	145.900000
324.147095	145.360000
324.240387	145.920000
324.333710	146.000000
324.427032	146.420000
324.520355	146.660000
324.613647	146.600000
324.706970	145.980000
324.800293	145.780000
324.893616	145.740000
324.986938	146.100000
325.080231	146.080000
325.173553	146.620000
325.266876	146.900000
325.360199	147.000000
325.453522	146.280000
325.546875	146.260000
325.640167	146.000000
325.733521	146.200000
325.826813	146.200000
325.920166	146.240000
326.013489	146.000000
326.106812	145.280000
326.200134	144.520000
326.293457	143.900000
326.386780	144.420000
326.480103	144.420000
326.573425	144.600000
326.666748	144.800000
326.760071	145.240000
326.853424	144.980000
326.946747	145.240000
327.040070	146.000000
327.133392	146.060000
327.226715	145.480000
327.320068	145.080000
327.413391	145.500000
327.506714	144.780000
327.600037	144.680000
327.693390	145.040000
327.786713	145.400000
327.880066	145.100000
327.973358	145.540000
328.066742	146.220000
328.160034	146.700000
328.253418	147.020000
328.346710	146.880000
328.440063	146.460000
328.533417	145.820000
328.626740	145.800000
328.720093	145.340000
328.813416	145.180000
328.906769	145.380000
329.000092	145.720000
329.093445	145.500000
329.186768	145.480000
329.280121	146.160000
329.373444	146.500000
329.466797	146.300000
329.560120	146.200000
329.653473	146.220000
329.746796	145.720000
329.840149	145.260000
329.933502	145.520000
330.026825	145.400000
330.120178	145.340000
330.213562	145.220000
330.306854	145.280000
330.400238	144.740000
330.493561	144.480000
330.586945	145.460000
330.680237	145.700000
330.773621	145.560000
330.866974	146.020000
330.960327	146.460000
331.053680	145.740000
331.147003	146.100000
331.240356	146.480000
331.333710	146.340000
331.427063	145.820000
331.520416	145.740000
331.613770	145.140000
331.707123	145.100000
331.800476	145.220000
331.893829	146.320000
331.987152	146.560000
332.080505	146.560000
332.173859	146.480000
332.267212	146.080000
332.360565	145.340000
332.453918	144.900000
332.547333	145.040000
332.640656	145.080000
332.734039	145.040000
332.827362	145.180000
332.920746	145.760000
333.014069	146.000000
333.107452	146.320000
333.200806	146.560000
333.294159	146.560000
333.387543	146.100000
333.480896	145.440000
333.574249	145.140000
333.667603	145.080000
333.760956	145.100000
333.854340	144.900000
333.947693	145.340000
334.041046	145.200000
334.134430	145.180000
334.227783	145.120000
334.321136	145.340000
334.414520	145.040000
334.507874	145.480000
334.601227	145.660000
334.694611	145.220000
334.787964	145.440000
334.881348	145.920000
334.974701	145.440000
335.068085	145.080000
335.161438	145.580000
335.254822	145.340000
335.348175	145.340000
335.441559	145.360000
335.534943	146.120000
335.628296	146.100000
335.721680	146.160000
335.815033	145.980000
335.908417	146.040000
336.001770	145.560000
336.095154	145.400000
336.188538	145.140000
336.281891	144.940000
336.375275	144.720000
336.468658	144.780000
336.562012	144.920000
336.655396	145.580000
336.748779	145.960000
336.842133	146.200000
336.935516	146.200000
337.028900	145.880000
337.122284	145.560000
337.215637	145.740000
337.309021	145.760000
337.402435	145.580000
337.495789	145.620000
337.589203	145.580000
337.682526	145.140000
337.775940	145.320000
337.869324	145.760000
337.962708	145.440000
338.056091	145.740000
338.149475	145.660000
338.242859	145.680000
338.336243	145.340000
338.429626	145.820000
338.523010	145.600000
338.616394	145.400000
338.709778	145.420000
338.803162	145.640000
338.896545	145.600000
338.989929	145.520000
339.083313	145.940000
339.176697	145.620000
339.270081	145.240000
339.363464	145.620000
339.456848	145.700000
339.550232	145.240000
339.643616	145.140000
339.737030	145.460000
339.830383	144.900000
339.923828	145.100000
340.017181	145.260000
340.110596	145.460000
340.203949	145.280000
340.297363	145.360000
340.390778	145.500000
340.484161	145.860000
340.577545	145.720000
340.670959	146.040000
340.764343	146.200000
340.857727	145.960000
340.951111	145.400000
341.044525	145.460000
341.137909	144.920000
341.231293	144.760000
341.324707	144.260000
341.418091	144.980000
341.511505	145.360000
341.604889	145.780000
341.698303	146.080000
341.791687	146.540000
341.885071	145.800000
341.978485	145.140000
342.071899	145.140000
342.165283	145.120000
342.258698	144.960000
342.352081	145.660000
342.445496	146.640000
342.538879	146.360000
342.632324	146.080000
342.725708	146.120000
342.819122	145.480000
342.912506	144.860000
343.005920	145.160000
343.099335	146.020000
343.192719	145.980000
343.286133	146.340000
343.379547	146.540000
343.472931	146.740000
343.566345	145.940000
343.659760	146.280000
343.753143	146.120000
343.846558	145.860000
343.939972	145.580000
344.033386	146.320000
344.126770	146.160000
344.220184	146.200000
344.313599	146.560000
344.407043	146.680000
344.500427	145.880000
344.593872	146.300000
344.687225	146.220000
344.780670	146.000000
344.874054	145.780000
344.967499	146.300000
345.060913	145.820000
345.154327	145.720000
345.247742	145.300000
345.341156	145.220000
345.434570	144.740000
345.527985	145.160000
345.621399	145.340000
345.714813	145.520000
345.808228	145.740000
345.901642	145.620000
345.995056	144.960000
346.088470	145.260000
346.181885	145.400000
346.275299	145.220000
346.368713	145.340000
346.462128	145.180000
346.555573	145.300000
346.648987	145.320000
346.742401	145.200000
346.835815	145.660000
346.929260	146.000000
347.022644	145.800000
347.116119	146.100000
347.209503	146.700000
347.302948	147.200000
347.396362	147.680000
347.489807	147.680000
347.583221	147.900000
347.676636	147.500000
347.770050	146.260000
347.863495	145.440000
347.956909	145.280000
348.050323	144.560000
348.143768	144.420000
348.237183	144.680000
348.330597	145.480000
348.424042	145.740000
348.517456	146.120000
348.610901	146.240000
348.704315	146.160000
348.797760	145.480000
348.891174	145.000000
348.984619	144.460000
349.078033	144.720000
349.171448	145.240000
349.264923	145.220000
349.358337	145.340000
349.451782	145.660000
349.545197	145.180000
349.638641	144.720000
349.732086	144.340000
349.825500	144.660000
349.918945	144.320000
350.012390	144.520000
350.105804	145.000000
350.199249	145.620000
350.292664	146.040000
350.386108	146.340000
350.479553	146.920000
350.572968	146.600000
350.666412	146.700000
350.759857	146.200000
350.853302	146.480000
350.946716	145.780000
351.040161	145.960000
351.133606	146.140000
351.227081	145.840000
351.320465	146.680000
351.413940	146.900000
351.507355	146.880000
351.600830	146.640000
351.694244	146.520000
351.787720	145.460000
351.881104	145.400000
351.974579	145.240000
352.067993	145.720000
352.161469	145.860000
352.254883	145.620000
352.348358	145.460000
352.441803	145.420000
352.535248	144.780000
352.628693	145.020000
352.722137	145.320000
352.815582	145.760000
352.909027	145.980000
353.002472	146.060000
353.095917	146.100000
353.189362	146.220000
353.282806	146.200000
353.376251	146.080000
353.469696	145.760000
353.563141	146.300000
353.656586	146.180000
353.750061	145.340000
353.843475	145.340000
353.936981	145.840000
354.030396	145.160000
354.123871	145.160000
354.217285	146.360000
354.310760	146.380000
354.404175	146.500000
354.497681	146.220000
354.591095	146.100000
354.684570	145.100000
354.777985	144.760000
354.871490	144.360000
354.964935	145.200000
355.058380	145.420000
355.151855	145.420000
355.245300	145.900000
355.338745	146.480000
355.432220	146.100000
355.525665	145.740000
355.619110	146.080000
355.712585	145.640000
355.806030	145.140000
355.899475	144.600000
355.992950	144.740000
356.086426	145.080000
356.179871	145.280000
356.273346	145.240000
356.366791	145.880000
356.460266	146.020000
356.553711	145.260000
356.647186	145.220000
356.740631	144.940000
356.834106	144.300000
356.927551	144.180000
357.021027	144.500000
357.114471	144.800000
357.207947	145.100000
357.301422	145.780000
357.394867	145.900000
357.488342	146.020000
357.581818	145.820000
357.675262	145.940000
357.768738	145.520000
357.862213	145.020000
357.955658	145.100000
358.049133	145.160000
358.142609	145.380000
358.236053	145.220000
358.329529	145.520000
358.423035	145.780000
358.516449	145.460000
358.609955	145.820000
358.703400	146.620000
358.796906	146.780000
358.890350	146.300000
358.983826	146.480000
359.077271	145.540000
359.170776	145.080000
359.264221	144.900000
359.357727	145.180000
359.451172	145.400000
359.544647	145.760000
359.638123	145.740000
359.731598	145.940000
359.825073	145.700000
359.918549	145.560000
360.012024	145.680000
360.105499	145.260000
360.198975	145.140000
360.292450	145.500000
360.385925	145.400000
360.479401	144.900000
360.572876	145.360000
360.666351	145.700000
360.759857	145.500000
360.853302	145.640000
360.946808	145.440000
361.040253	145.260000
361.133759	144.700000
361.227203	144.760000
361.320709	144.160000
361.414154	144.640000
361.507660	144.980000
361.601105	145.540000
361.694641	145.900000
361.788086	146.380000
361.881592	146.720000
361.975067	146.380000
362.068542	146.620000
362.162018	146.540000
362.255524	146.240000
362.348999	146.180000
362.442474	146.320000
362.535950	145.720000
362.629456	145.480000
362.722931	145.580000
362.816406	145.820000
362.909882	146.220000
363.003387	145.800000
363.096863	146.280000
363.190338	146.300000
363.283875	145.860000
363.377319	145.780000
363.470825	146.720000
363.564301	145.700000
363.657806	146.200000
363.751282	146.200000
363.844788	146.560000
363.938232	145.780000
364.031769	146.840000
364.125214	146.620000
364.218750	146.980000
364.312225	145.780000
364.405731	146.060000
364.499207	145.360000
364.592712	145.120000
364.686188	144.700000
364.779694	145.200000
364.873169	145.400000
364.966675	145.540000
365.060150	145.400000
365.153656	145.900000
365.247131	145.940000
365.340637	146.020000
365.434143	146.400000
365.527618	146.400000
365.621155	145.620000
365.714600	145.440000
365.808136	145.280000
365.901611	144.420000
365.995117	144.620000
366.088593	144.780000
366.182129	144.820000
366.275604	145.180000
366.369110	145.400000
366.462585	145.280000
366.556122	146.140000
366.649567	146.160000
366.743103	145.920000
366.836609	145.680000
366.930115	146.160000
367.023590	145.860000
367.117096	145.740000
367.210602	145.700000
367.304108	146.420000
367.397614	146.760000
367.491119	146.780000
367.584595	147.120000
367.678101	147.660000
367.771606	147.380000
367.865112	146.620000
367.958649	145.880000
368.052124	145.740000
368.145660	145.180000
368.239136	145.740000
368.332672	145.820000
368.426147	146.240000
368.519684	146.160000
368.613159	146.660000
368.706696	146.180000
368.800171	146.200000
368.893707	146.000000
368.987183	146.360000
369.080719	146.160000
369.174225	146.040000
369.267731	146.260000
369.361237	146.560000
369.454742	146.080000
369.548248	146.400000
369.641754	146.100000
369.735260	145.740000
369.828766	145.000000
369.922272	145.740000
370.015808	144.940000
370.109314	145.160000
370.202820	145.220000
370.296356	146.160000
370.389832	145.700000
370.483368	145.860000
370.576874	145.620000
370.670410	146.000000
370.763885	145.260000
370.857422	145.160000
370.950928	144.960000
371.044464	145.680000
371.137939	145.520000
371.231476	145.920000
371.324982	146.440000
371.418518	146.500000
371.512024	146.360000
371.605560	146.160000
371.699066	146.320000
371.792572	145.660000
371.886108	146.080000
371.979614	145.780000
372.073120	146.260000
372.166656	146.040000
372.260162	146.300000
372.353668	145.900000
372.447205	145.620000
372.540710	144.980000
372.634277	144.800000
372.727753	145.020000
372.821320	145.200000
372.914795	145.280000
373.008362	145.660000
373.101837	145.780000
373.195404	145.440000
373.288879	145.440000
373.382446	146.000000
373.475922	146.020000
373.569489	146.880000
373.662964	147.020000
373.756531	146.780000
373.850037	146.780000
373.943573	146.660000
374.037109	145.560000
374.130615	146.000000
374.224152	146.160000
374.317657	145.760000
374.411194	146.580000
374.504730	146.540000
374.598236	146.040000
374.691772	146.100000
374.785309	146.380000
374.878815	145.400000
374.972351	145.920000
375.065887	146.000000
375.159454	146.500000
375.252930	146.240000
375.346497	146.560000
375.440002	147.020000
375.533569	146.820000
375.627045	146.140000
375.720612	146.280000
375.814117	146.240000
375.907684	145.380000
376.001160	145.220000
376.094727	144.800000
376.188232	145.140000
376.281799	145.140000
376.375336	145.500000
376.468872	146.040000
376.562408	146.820000
376.655914	146.280000
376.749451	146.480000
376.842987	146.580000
376.936523	146.560000
377.030060	146.200000
377.123596	146.660000
377.217133	146.000000
377.310669	145.880000
377.404205	145.700000
377.497772	146.300000
377.591278	145.920000
377.684845	146.820000
377.778351	147.020000
377.871918	146.720000
377.965424	145.900000
378.058990	145.740000
378.152496	145.400000
378.246063	145.620000
378.339569	146.180000
378.433136	146.420000
378.526642	146.780000
378.620209	146.540000
378.713745	145.640000
378.807312	145.820000
378.900848	145.840000
378.994385	145.820000
379.087921	145.460000
379.181458	145.940000
379.274994	144.820000
379.368530	144.380000
379.462097	144.600000
379.555634	144.800000
379.649170	144.480000
379.742706	144.960000
379.836273	145.240000
379.929810	144.820000
380.023376	144.740000
380.116882	144.740000
380.210449	144.820000
380.303986	144.740000
380.397552	144.540000
380.491058	144.900000
380.584656	144.740000
380.678162	144.800000
380.771729	145.040000
380.865265	145.900000
380.958832	145.860000
381.052368	146.580000
381.145935	147.000000
381.239471	147.280000
381.333008	146.920000
381.426575	146.900000
381.520111	146.860000
381.613647	146.880000
381.707214	146.700000
381.800751	146.280000
381.894318	146.440000
381.987854	145.800000
382.081421	145.460000
382.174988	145.540000
382.268524	145.420000
382.362091	145.340000
382.455627	146.440000
382.549194	146.200000
382.642731	145.440000
382.736298	145.520000
382.829834	145.240000
382.923401	145.460000
383.016937	145.800000
383.110504	146.540000
383.204041	146.660000
383.297607	147.140000
383.391174	145.880000
383.484741	146.460000
383.578278	145.880000
383.671844	145.500000
383.765411	144.700000
383.858948	145.540000
383.952515	145.180000
384.046051	145.860000
384.139618	146.280000
384.233185	146.740000
384.326721	146.300000
384.420288	146.580000
384.513855	146.380000
384.607422	146.800000
384.700989	147.000000
384.794525	146.720000
384.888123	146.260000
384.981659	146.180000
385.075226	145.680000
385.168762	145.380000
385.262360	145.760000
385.355896	145.100000
385.449463	144.980000
385.542999	145.140000
385.636597	145.780000
385.730164	145.760000
385.823730	146.060000
385.917267	145.640000
386.010834	145.800000
386.104401	145.620000
386.197968	145.820000
386.291534	146.020000
386.385101	146.500000
386.478668	146.820000
386.572235	146.500000
386.665802	145.800000
386.759338	145.600000
386.852905	145.560000
386.946472	144.580000
387.040070	145.020000
387.133606	145.500000
387.227203	145.260000
387.320740	145.720000
387.414337	145.820000
387.507874	145.560000
387.601471	145.540000
387.695007	145.620000
387.788605	144.820000
387.882141	145.380000
387.975739	145.220000
388.069275	145.020000
388.162872	145.420000
388.256439	145.660000
388.350037	145.320000
388.443604	145.160000
388.537170	145.180000
388.630737	145.780000
388.724304	146.020000
388.817871	145.900000
388.911438	146.080000
389.005005	146.360000
389.098602	146.340000
389.192169	146.360000
389.285736	147.040000
389.379333	146.940000
389.472870	146.500000
389.566467	146.160000
389.660034	145.840000
389.753632	145.240000
389.847168	145.480000
389.940765	145.780000
390.034332	145.780000
390.127930	145.440000
390.221466	145.580000
390.315063	145.220000
390.408630	144.400000
390.502228	143.680000
390.595795	144.320000
390.689362	144.400000
390.782959	144.980000
390.876526	145.900000
390.970093	146.280000
391.063690	146.820000
391.157257	146.660000
391.250824	146.760000
391.344421	146.620000
391.437988	146.960000
391.531555	146.460000
391.625153	146.440000
391.718750	146.520000
391.812317	146.420000
391.905914	145.840000
391.999481	145.760000
392.093079	146.020000
392.186615	145.880000
392.280243	145.560000
392.373779	146.040000
392.467407	146.560000
392.560944	146.520000
392.654572	146.180000
392.748108	146.640000
392.841736	146.660000
392.935303	146.000000
393.028900	145.760000
393.122467	145.920000
393.216064	145.320000
393.309631	144.840000
393.403229	144.740000
393.496796	144.680000
393.590393	143.860000
393.683990	144.280000
393.777557	144.720000
393.871155	145.020000
393.964722	145.520000
394.058350	146.320000
394.151917	146.260000
394.245514	145.960000
394.339081	146.400000
394.432678	146.580000
394.526245	146.640000
394.619873	146.360000
394.713409	146.540000
394.807037	145.980000
394.900604	145.920000
394.994202	145.560000
395.087769	145.980000
395.181396	145.620000
395.274994	146.440000
395.368561	145.840000
395.462158	146.200000
395.555756	145.560000
395.649353	146.020000
395.742920	145.500000
395.836517	145.860000
395.930115	145.300000
396.023712	146.140000
396.117279	146.120000
396.210876	145.680000
396.304474	145.860000
396.398071	146.300000
396.491669	146.300000
396.585266	146.240000
396.678833	146.280000
396.772461	146.520000
396.866028	146.200000
396.959656	146.340000
397.053223	146.420000
397.146851	146.480000
397.240417	146.460000
397.334015	147.900000
397.427582	148.400000
397.521210	149.360000
397.614807	151.180000
397.708405	153.000000
397.802002	154.840000
397.895599	158.160000
397.989197	161.820000
398.082794	166.120000
398.176392	171.600000
398.269989	178.080000
398.363586	185.720000
398.457184	196.000000
398.550781	207.780000
398.644379	220.200000
398.737976	235.200000
398.831573	251.400000
398.925201	266.980000
399.018768	283.580000
399.112396	301.500000
399.205963	318.580000
399.299591	335.300000
399.393158	352.420000
399.486786	369.380000
399.580353	385.180000
399.673981	401.400000
399.767578	419.020000
399.861206	437.820000
399.954773	456.660000
400.048401	472.280000
400.141998	484.240000
400.235596	490.500000
400.329193	489.500000
400.422791	481.620000
400.516418	470.840000
400.610016	457.020000
400.703613	441.900000
400.797211	423.980000
400.890808	406.220000
400.984436	388.340000
401.078033	369.080000
401.171631	348.920000
401.265259	330.240000
401.358826	311.380000
401.452484	291.880000
401.546051	273.880000
401.639679	254.780000
401.733246	237.880000
401.826904	221.020000
401.920471	205.980000
402.014099	192.580000
402.107697	182.640000
402.201324	173.980000
402.294891	167.920000
402.388550	163.240000
402.482147	159.320000
402.575745	155.840000
402.669373	152.800000
402.762970	150.420000
402.856567	149.100000
402.950195	148.180000
403.043793	147.400000
403.137390	147.640000
403.231018	147.040000
403.324615	147.300000
403.418243	146.720000
403.511841	147.240000
403.605469	146.920000
403.699066	147.640000
403.792694	147.280000
403.886292	147.260000
403.979919	146.880000
404.073517	146.320000
404.167145	146.240000
404.260712	146.240000
404.354370	146.160000
404.447937	146.360000
404.541595	146.560000
404.635162	146.720000
404.728821	146.800000
404.822418	146.700000
404.916046	146.140000
405.009644	146.460000
405.103271	146.360000
405.196899	146.060000
405.290497	146.480000
405.384125	147.020000
405.477722	146.260000
405.571350	145.840000
405.664948	145.820000
405.758575	145.480000
405.852203	144.860000
405.945801	145.140000
406.039429	145.240000
406.133057	145.240000
406.226654	145.060000
406.320312	145.340000
406.413879	145.540000
406.507538	145.600000
406.601135	145.320000
406.694763	146.000000
406.788361	145.820000
406.882019	145.520000
406.975586	145.700000
407.069244	146.480000
407.162872	146.420000
407.256470	146.620000
407.350098	146.560000
407.443726	146.140000
407.537323	145.540000
407.630951	145.560000
407.724579	145.100000
407.818207	146.140000
407.911804	146.040000
408.005432	146.180000
408.099060	146.360000
408.192688	146.940000
408.286285	146.460000
408.379913	146.460000
408.473572	146.360000
408.567169	145.700000
408.660828	145.740000
408.754395	145.360000
408.848053	145.500000
408.941650	145.960000
409.035309	145.600000
409.128906	145.440000
409.222565	145.760000
409.316132	145.880000
409.409790	145.420000
409.503387	146.000000
409.597046	145.960000
409.690674	145.920000
409.784302	145.860000
409.877930	145.780000
409.971558	145.600000
410.065186	145.560000
410.158783	145.260000
410.252411	145.280000
410.346039	145.580000
410.439667	145.560000
410.533295	145.600000
410.626923	145.980000
410.720551	145.860000
410.814209	146.080000
410.907806	146.220000
411.001465	145.800000
411.095062	145.880000
411.188721	146.060000
411.282318	145.660000
411.375977	145.600000
411.469574	145.980000
411.563232	145.640000
411.656830	145.580000
411.750488	145.560000
411.844086	145.120000
411.937744	145.380000
412.031372	145.280000
412.125000	145.220000
412.218628	145.260000
412.312256	146.200000
412.405884	146.460000
412.499512	146.660000
412.593170	146.700000
412.686798	146.920000
412.780426	146.280000
412.874054	146.060000
412.967682	146.300000
413.061310	146.820000
413.154968	146.640000
413.248566	146.800000
413.342224	146.720000
413.435852	146.500000
413.529510	145.880000
413.623108	145.440000
413.716766	145.500000
413.810364	145.700000
413.904022	145.420000
413.997650	145.520000
414.091309	146.420000
414.184906	146.260000
414.278564	145.800000
414.372192	146.320000
414.465851	146.300000
414.559479	145.780000
414.653107	146.380000
414.746735	146.620000
414.840393	146.520000
414.934021	146.580000
415.027649	146.200000
415.121277	146.080000
415.214935	146.440000
415.308563	146.260000
415.402191	146.020000
415.495850	146.220000
415.589478	145.920000
415.683136	145.400000
415.776733	145.660000
415.870422	146.260000
415.964020	145.840000
416.057678	145.600000
416.151306	145.520000
416.244965	145.360000
416.338562	144.740000
416.432251	145.840000
416.525848	146.820000
416.619507	147.120000
416.713165	147.400000
416.806793	147.400000
416.900421	147.140000
416.994080	146.320000
417.087708	146.280000
417.181366	145.680000
417.274994	146.040000
417.368622	145.880000
417.462280	146.300000
417.555908	146.220000
417.649567	146.260000
417.743195	146.140000
417.836853	146.200000
417.930481	146.260000
418.024170	146.120000
418.117767	146.680000
418.211426	147.040000
418.305054	147.240000
418.398712	146.540000
418.492340	146.780000
418.585999	146.900000
418.679626	147.000000
418.773285	147.120000
418.866913	147.780000
418.960571	147.980000
419.054230	148.140000
419.147858	148.280000
419.241516	148.220000
419.335144	147.660000
419.428802	147.420000
419.522461	146.820000
419.616089	145.940000
419.709747	145.800000
419.803375	145.940000
419.897034	145.580000
419.990662	145.320000
420.084320	146.260000
420.177979	146.380000
420.271606	146.600000
420.365295	147.400000
420.458893	147.920000
420.552582	147.880000
420.646210	147.900000
420.739868	147.680000
420.833496	147.160000
420.927155	146.800000
421.020782	146.140000
421.114471	145.540000
421.208069	145.920000
421.301758	146.360000
421.395386	146.140000
421.489044	146.060000
421.582703	146.080000
421.676361	146.420000
421.769989	145.800000
421.863647	146.440000
421.957306	146.780000
422.050934	147.400000
422.144592	146.840000
422.238251	146.820000
422.331909	146.400000
422.425537	145.980000
422.519196	145.760000
422.612854	145.500000
422.706543	145.280000
422.800140	145.640000
422.893829	145.700000
422.987457	145.320000
423.081146	145.520000
423.174744	146.400000
423.268433	146.020000
423.362061	145.760000
423.455750	145.720000
423.549347	145.660000
423.643036	144.860000
423.736664	145.580000
423.830353	145.860000
423.924011	146.520000
424.017639	146.040000
424.111298	146.180000
424.204956	145.580000
424.298615	145.620000
424.392273	145.020000
424.485931	145.460000
424.579559	145.620000
424.673218	145.600000
424.766876	145.700000
424.860535	145.540000
424.954193	145.280000
425.047882	145.640000
425.141510	145.600000
425.235199	145.680000
425.328796	145.880000
425.422485	145.840000
425.516113	145.180000
425.609802	145.380000
425.703430	145.500000
425.797119	145.400000
425.890747	145.520000
425.984436	145.880000
426.078064	145.580000
426.171753	145.420000
426.265411	145.180000
426.359070	145.560000
426.452728	145.020000
426.546356	145.060000
426.640015	144.780000
426.733673	144.980000
426.827332	144.420000
426.920990	145.160000
427.014648	144.940000
427.108307	145.440000
427.201965	145.960000
427.295624	146.320000
427.389282	145.760000
427.482941	146.300000
427.576630	146.180000
427.670258	145.600000
427.763947	145.440000
427.857574	145.580000
427.951263	145.560000
428.044922	145.060000
428.138611	145.240000
428.232239	145.660000
428.325928	146.060000
428.419556	146.220000
428.513245	146.360000
428.606903	146.560000
428.700562	146.220000
428.794220	145.720000
428.887878	145.100000
428.981537	145.120000
429.075195	145.120000
429.168854	145.560000
429.262512	145.480000
429.356201	145.600000
429.449860	145.420000
429.543518	145.340000
429.637177	145.440000
429.730835	145.780000
429.824493	145.680000
429.918182	146.120000
430.011810	145.740000
430.105530	144.940000
430.199158	145.040000
430.292847	145.100000
430.386475	145.000000
430.480164	145.040000
430.573792	145.140000
430.667511	144.880000
430.761139	145.080000
430.854828	145.440000
430.948456	145.640000
431.042145	146.180000
431.135834	145.960000
431.229492	146.220000
431.323151	146.200000
431.416809	146.140000
431.510468	145.620000
431.604156	145.820000
431.697815	145.580000
431.791473	144.940000
431.885132	144.580000
431.978821	145.260000
432.072479	145.580000
432.166138	146.120000
432.259827	146.320000
432.353485	146.780000
432.447174	146.660000
432.540802	146.460000
432.634491	146.020000
432.728149	146.460000
432.821838	146.940000
432.915466	146.420000
433.009186	146.660000
433.102814	146.240000
433.196503	145.680000
433.290131	145.360000
433.383850	145.820000
433.477509	145.560000
433.571167	146.140000
433.664856	146.680000
433.758514	146.860000
433.852173	146.760000
433.945862	146.700000
434.039520	146.600000
434.133179	146.080000
434.226868	145.940000
434.320526	145.400000
434.414185	145.860000
434.507874	145.540000
434.601562	145.500000
434.695221	145.080000
434.788910	145.300000
434.882538	145.120000
434.976257	144.740000
435.069885	144.900000
435.163574	144.920000
435.257233	144.500000
435.350922	144.320000
435.444580	144.460000
435.538269	144.320000
435.631897	145.160000
435.725616	146.300000
435.819275	146.900000
435.912964	147.620000
436.006622	148.020000
436.100311	147.600000
436.193970	146.580000
436.287628	146.220000
436.381317	145.860000
436.474976	145.480000
436.568665	144.900000
436.662323	145.240000
436.756012	145.240000
436.849670	144.980000
436.943390	144.960000
437.037018	145.340000
437.130737	145.500000
437.224365	145.280000
437.318085	145.560000
437.411713	145.720000
437.505432	145.980000
437.599060	146.340000
437.692780	146.840000
437.786407	146.520000
437.880127	146.660000
437.973755	146.260000
438.067474	145.700000
438.161133	145.360000
438.254822	145.860000
438.348480	145.680000
438.442169	146.540000
438.535828	146.800000
438.629517	146.520000
438.723175	145.920000
438.816864	146.460000
438.910553	145.640000
439.004211	145.460000
439.097900	145.320000
439.191559	145.800000
439.285248	145.020000
439.378906	145.520000
439.472626	145.380000
439.566284	145.380000
439.659973	145.460000
439.753632	145.560000
439.847321	145.620000
439.940979	145.820000
440.034698	146.200000
440.128326	145.860000
440.222046	145.640000
440.315674	144.980000
440.409393	145.140000
440.503082	145.000000
440.596741	144.980000
440.690430	145.260000
440.784088	145.260000
440.877777	144.740000
440.971466	144.840000
441.065125	144.780000
441.158813	144.780000
441.252502	144.880000
441.346161	145.180000
441.439850	145.220000
441.533539	145.440000
441.627197	145.680000
441.720886	145.500000
441.814606	145.920000
441.908234	145.900000
442.001953	145.700000
442.095612	145.680000
442.189301	146.320000
442.282959	146.220000
442.376678	145.600000
442.470306	146.320000
442.564026	146.140000
442.657684	146.020000
442.751404	145.720000
442.845032	146.960000
442.938751	145.800000
443.032440	145.960000
443.126099	145.520000
443.219788	146.120000
443.313477	145.720000
443.407166	146.640000
443.500824	146.740000
443.594513	147.040000
443.688202	146.780000
443.781891	146.040000
443.875549	145.600000
443.969238	145.480000
444.062927	145.580000
444.156647	145.180000
444.250275	146.020000
444.343994	146.360000
444.437653	146.180000
444.531372	146.020000
444.625031	146.140000
444.718719	145.260000
444.812378	145.180000
444.906097	145.300000
444.999756	145.040000
445.093445	145.040000
445.187103	145.660000
445.280823	146.340000
445.374512	146.080000
445.468201	146.260000
445.561859	146.360000
445.655548	146.560000
445.749237	145.660000
445.842926	145.660000
445.936615	146.280000
446.030304	146.060000
446.123962	146.040000
446.217651	145.940000
446.311340	146.140000
446.405029	145.540000
446.498749	145.360000
446.592407	145.080000
446.686096	145.440000
446.779755	145.580000
446.873474	145.780000
446.967133	146.200000
447.060852	145.560000
447.154510	145.120000
447.248230	145.040000
447.341858	144.820000
447.435577	144.460000
447.529236	144.460000
447.622955	144.460000
447.716644	144.460000
447.810333	144.440000
447.904022	145.020000
447.997711	145.500000
448.091400	145.960000
448.185059	146.160000
448.278748	146.340000
448.372437	145.800000
448.466125	146.160000
448.559814	145.920000
448.653503	146.280000
448.747192	146.760000
448.840912	147.140000
448.934570	146.860000
449.028290	147.380000
449.121948	146.920000
449.215637	146.120000
449.309296	145.500000
449.403015	145.740000
449.496674	145.520000
449.590393	145.440000
449.684052	145.580000
449.777771	146.740000
449.871429	146.020000
449.965149	145.960000
450.058838	146.100000
450.152527	146.640000
450.246216	146.260000
450.339905	146.680000
450.433594	146.260000
450.527283	146.960000
450.620972	146.580000
450.714661	146.240000
450.808350	146.240000
450.902039	146.760000
450.995728	146.020000
451.089417	145.720000
451.183105	146.000000
451.276794	146.160000
451.370514	145.540000
451.464172	145.040000
451.557892	145.240000
451.651550	145.240000
451.745270	145.260000
451.838928	145.160000
451.932648	145.620000
452.026306	146.080000
452.120026	145.600000
452.213684	145.780000
452.307404	146.300000
452.401062	146.400000
452.494781	146.420000
452.588470	146.660000
452.682159	146.220000
452.775848	145.940000
452.869537	145.440000
452.963226	144.900000
453.056915	144.980000
453.150604	145.080000
453.244293	145.380000
453.337982	146.240000
453.431671	146.340000
453.525360	146.720000
453.619049	146.700000
453.712769	146.580000
453.806427	146.080000
453.900146	145.880000
453.993805	145.620000
454.087555	146.180000
454.181213	146.320000
454.274933	146.060000
454.368591	146.180000
454.462311	145.780000
454.555969	145.020000
454.649689	145.520000
454.743347	145.400000
454.837067	146.260000
454.930756	146.980000
455.024445	147.180000
455.118134	146.700000
455.211853	147.020000
455.305542	146.380000
455.399231	145.960000
455.492920	146.080000
455.586609	146.360000
455.680298	146.600000
455.773987	146.180000
455.867676	146.140000
455.961365	146.120000
456.055084	145.560000
456.148773	145.480000
456.242493	145.460000
456.336151	145.540000
456.429871	145.920000
456.523529	146.520000
456.617249	146.160000
456.710907	147.240000
456.804626	146.920000
456.898315	146.520000
456.992035	146.140000
457.085693	146.000000
457.179413	144.960000
457.273102	146.060000
457.366791	145.720000
457.460480	145.880000
457.554199	146.680000
457.647888	146.880000
457.741577	146.380000
457.835266	146.700000
457.928955	146.660000
458.022644	146.740000
458.116364	147.340000
458.210052	147.100000
458.303741	147.260000
458.397461	146.580000
458.491119	145.860000
458.584839	145.520000
458.678528	145.460000
458.772247	145.020000
458.865906	145.640000
458.959625	146.600000
459.053284	146.320000
459.147003	146.340000
459.240692	147.060000
459.334412	147.040000
459.428070	146.260000
459.521790	146.340000
459.615479	146.040000
459.709198	146.160000
459.802887	145.960000
459.896576	145.760000
459.990265	145.840000
460.083954	146.360000
460.177673	145.580000
460.271362	145.560000
460.365051	145.840000
460.458740	145.660000
460.552429	145.100000
460.646149	145.460000
460.739838	145.280000
460.833527	145.360000
460.927246	145.180000
461.020905	145.280000
461.114655	145.380000
461.208313	145.600000
461.302032	145.060000
461.395691	145.400000
461.489441	145.380000
461.583099	144.660000
461.676819	144.340000
461.770477	145.100000
461.864197	144.640000
461.957916	144.540000
462.051605	144.340000
462.145294	145.360000
462.238983	144.780000
462.332703	145.700000
462.426392	146.240000
462.520081	146.720000
462.613770	145.960000
462.707489	146.300000
462.801178	145.840000
462.894867	145.640000
462.988556	145.660000
463.082275	145.980000
463.175964	145.280000
463.269684	145.360000
463.363342	145.220000
463.457092	144.680000
463.550751	144.640000
463.644470	145.240000
463.738129	145.120000
463.831879	145.260000
463.925537	146.300000
464.019257	146.480000
464.112946	146.420000
464.206665	146.280000
464.300323	145.960000
464.394043	145.500000
464.487762	145.460000
464.581451	145.680000
464.675140	145.780000
464.768829	146.340000
464.862549	146.340000
464.956238	146.200000
465.049927	145.980000
465.143646	146.060000
465.237335	145.400000
465.331024	146.000000
465.424713	145.920000
465.518433	145.940000
465.612152	145.600000
465.705811	145.800000
465.799561	145.220000
465.893219	145.140000
465.986938	145.040000
466.080597	145.040000
466.174347	145.600000
466.268005	145.720000
466.361725	145.580000
466.455414	145.640000
466.549133	145.700000
466.642792	145.360000
466.736542	145.080000
466.830231	145.320000
466.923920	145.100000
467.017609	145.440000
467.111328	145.260000
467.205017	145.420000
467.298706	145.680000
467.392426	146.200000
467.486115	146.120000
467.579803	145.940000
467.673523	146.220000
467.767212	145.920000
467.860901	145.520000
467.954651	145.800000
468.048309	146.140000
468.142029	145.960000
468.235718	145.820000
468.329437	145.580000
468.423096	145.140000
468.516846	144.860000
468.610504	144.720000
468.704224	144.580000
468.797913	144.840000
468.891632	145.060000
468.985291	145.120000
469.079010	145.580000
469.172729	145.240000
469.266418	145.840000
469.360107	145.900000
469.453827	145.640000
469.547516	145.260000
469.641205	146.300000
469.734924	145.960000
469.828613	146.300000
469.922302	146.600000
470.016022	146.720000
470.109711	146.460000
470.203430	146.060000
470.297150	145.260000
470.390808	145.520000
470.484558	145.400000
470.578217	145.660000
470.671936	146.320000
470.765625	147.040000
470.859344	146.540000
470.953003	146.900000
471.046753	146.420000
471.140411	145.540000
471.234131	145.300000
471.327820	146.040000
471.421539	145.860000
471.515228	145.560000
471.608948	145.920000
471.702637	145.300000
471.796326	144.740000
471.890045	144.780000
471.983734	144.960000
472.077423	144.620000
472.171143	145.080000
472.264832	144.900000
472.358521	144.800000
472.452240	144.840000
472.545929	145.760000
472.639648	145.880000
472.733337	146.540000
472.827057	146.360000
472.920746	146.300000
473.014465	146.160000
473.108124	146.180000
473.201874	146.220000
473.295532	146.260000
473.389252	146.680000
473.482941	146.860000
473.576660	146.580000
473.670319	146.200000
473.764069	146.760000
473.857727	146.600000
473.951477	146.640000
474.045166	147.060000
474.138855	147.020000
474.232574	146.680000
474.326263	146.940000
474.419952	147.000000
474.513672	146.820000
474.607361	146.760000
474.701050	146.660000
474.794769	146.840000
474.888458	146.460000
474.982178	146.720000
475.075867	146.720000
475.169586	146.940000
475.263275	146.480000
475.356995	146.320000
475.450653	145.840000
475.544403	145.940000
475.638062	146.640000
475.731812	146.560000
475.825470	146.700000
475.919189	147.180000
476.012878	147.240000
476.106598	146.080000
476.200256	146.280000
476.294006	146.040000
476.387695	145.720000
476.481384	145.280000
476.575104	145.700000
476.668793	145.220000
476.762512	145.000000
476.856201	145.600000
476.949890	145.620000
477.043610	145.020000
477.137299	145.300000
477.230988	145.800000
477.324707	144.920000
477.418396	145.600000
477.512146	145.940000
477.605804	145.800000
477.699524	145.860000
477.793213	146.020000
477.886932	145.720000
477.980591	145.560000
478.074341	145.360000
478.167999	144.840000
478.261749	145.240000
478.355408	145.040000
478.449127	145.440000
478.542816	146.420000
478.636536	147.580000
478.730225	147.460000
478.823944	148.000000
478.917633	147.780000
479.011322	147.400000
479.105042	146.760000
479.198730	146.620000
479.292450	146.100000
479.386139	146.360000
479.479828	146.280000
479.573547	146.520000
479.667267	146.480000
479.760925	146.640000
479.854675	146.760000
479.948334	146.900000
480.042084	146.420000
480.135742	146.800000
480.229462	146.340000
480.323151	145.980000
480.416870	145.200000
480.510529	145.180000
480.604279	144.560000
480.697937	145.280000
480.791656	144.660000
480.885345	144.780000
480.979065	144.780000
481.072754	145.340000
481.166473	145.600000
481.260132	146.000000
481.353882	146.320000
481.447540	146.300000
481.541260	146.220000
481.635010	145.440000
481.728668	145.520000
481.822388	145.200000
481.916077	145.040000
482.009796	144.840000
482.103485	145.100000
482.197205	145.140000
482.290863	145.540000
482.384613	145.440000
482.478271	145.120000
482.571991	145.300000
482.665680	145.320000
482.759399	145.880000
482.853058	146.340000
482.946808	146.580000
483.040466	146.120000
483.134216	146.000000
483.227875	145.340000
483.321594	145.780000
483.415283	145.840000
483.509003	146.000000
483.602661	145.820000
483.696411	146.060000
483.790070	145.460000
483.883789	145.540000
483.977478	145.860000
484.071198	145.920000
484.164917	145.500000
484.258606	145.480000
484.352325	145.500000
484.445984	145.440000
484.539734	146.000000
484.633392	145.900000
484.727142	146.500000
484.820801	146.280000
484.914520	145.960000
485.008209	146.000000
485.101929	146.360000
485.195587	145.700000
485.289337	145.860000
485.382996	146.160000
485.476715	146.000000
485.570404	146.400000
485.664124	146.660000
485.757782	146.980000
485.851532	146.440000
485.945190	146.080000
486.038910	145.920000
486.132599	146.220000
486.226318	145.540000
486.319977	145.720000
486.413727	146.320000
486.507446	145.980000
486.601105	145.100000
486.694855	145.400000
486.788513	145.340000
486.882233	145.140000
486.975922	145.240000
487.069641	145.520000
487.163300	145.240000
487.257050	146.220000
487.350708	145.820000
487.444427	145.200000
487.538116	145.080000
487.631836	145.220000
487.725494	144.420000
487.819214	144.540000
487.912903	144.840000
488.006622	144.980000
488.100281	145.440000
488.194031	145.500000
488.287689	145.940000
488.381409	147.040000
488.475098	146.980000
488.568817	146.640000
488.662476	146.780000
488.756226	146.220000
488.849945	144.780000
488.943604	144.760000
489.037354	144.980000
489.131012	144.700000
489.224731	144.600000
489.318390	145.160000
489.412140	145.560000
489.505798	145.440000
489.599518	145.660000
489.693207	146.160000
489.786926	145.740000
489.880585	145.120000
489.974335	145.200000
490.067993	146.160000
490.161713	146.560000
490.255371	147.480000
490.349121	148.060000
490.442780	147.680000
490.536499	146.300000
490.630188	145.780000
490.723907	145.240000
490.817566	145.100000
490.911285	145.580000
491.004974	145.660000
491.098694	145.340000
491.192413	145.760000
491.286102	145.380000
491.379822	145.280000
491.473480	145.460000
491.567200	146.020000
491.660889	145.700000
491.754608	145.880000
491.848267	145.560000
491.941986	145.680000
492.035675	145.080000
492.129395	145.620000
492.223053	145.440000
492.316772	145.880000
492.410461	145.820000
492.504181	146.100000
492.597839	145.520000
492.691559	146.080000
492.785248	146.020000
492.878967	146.100000
492.972626	145.960000
493.066345	145.980000
493.160034	145.440000
493.253754	145.480000
493.347412	145.220000
493.441132	145.260000
493.534882	145.700000
493.628540	146.320000
493.722260	146.320000
493.815918	146.600000
493.909668	147.080000
494.003326	147.360000
494.097046	147.220000
494.190704	146.700000
494.284454	146.780000
494.378113	146.180000
494.471832	145.580000
494.565491	145.160000
494.659210	145.600000
494.752899	145.180000
494.846619	145.540000
494.940277	145.900000
495.033997	145.800000
495.127686	145.380000
495.221405	145.520000
495.315063	145.440000
495.408783	145.160000
495.502441	145.520000
495.596191	145.860000
495.689850	145.920000
495.783569	146.240000
495.877228	146.500000
495.970947	146.240000
496.064697	146.260000
496.158356	146.620000
496.252075	146.360000
496.345734	145.840000
496.439453	146.620000
496.533142	146.760000
496.626862	146.920000
496.720520	146.980000
496.814240	147.240000
496.907898	146.700000
497.001617	146.660000
497.095306	146.180000
497.189026	146.100000
497.282684	145.960000
497.376404	146.440000
497.470062	146.060000
497.563782	145.920000
497.657471	145.700000
497.751190	145.540000
497.844849	145.120000
497.938568	145.660000
498.032227	145.880000
498.125946	145.920000
498.219635	146.040000
498.313354	146.260000
498.407074	145.880000
498.500732	146.040000
498.594452	146.440000
498.688110	146.140000
498.781830	145.740000
498.875519	145.580000
498.969238	145.280000
499.062897	144.940000
499.156616	145.620000
499.250275	145.740000
499.343994	145.460000
499.437653	145.460000
499.531372	145.500000
499.625061	145.980000
499.718781	146.120000
499.812439	146.720000
499.906158	146.600000
499.999817	146.620000
500.093536	145.420000
500.187195	145.220000
500.280914	145.180000
500.374573	145.560000
500.468323	145.440000
500.561981	146.320000
500.655701	146.220000
500.749420	146.160000
500.843079	146.220000
500.936798	146.320000
501.030457	146.280000
501.124176	146.340000
501.217834	146.200000
501.311554	146.140000
501.405212	145.800000
501.498962	145.220000
501.592621	145.500000
501.686340	146.060000
501.779999	146.360000
501.873718	146.840000
501.967377	147.020000
502.061096	147.100000
502.154755	146.240000
502.248474	145.960000
502.342133	145.560000
502.435852	145.400000
502.529510	145.860000
502.623230	146.760000
502.716888	146.280000
502.810608	146.560000
502.904266	147.160000
502.997986	146.480000
503.091705	145.740000
503.185364	145.780000
503.279083	145.660000
503.372772	145.180000
503.466492	145.100000
503.560150	145.440000
503.653870	145.600000
503.747528	145.740000
503.841248	145.800000
503.934906	146.040000
504.028625	145.800000
504.122284	146.140000
504.216003	146.720000
504.309662	146.320000
504.403381	146.300000
504.497040	146.240000
504.590759	145.920000
504.684418	145.420000
504.778137	146.060000
504.871796	146.340000
504.965515	145.920000
505.059174	145.920000
505.152893	145.620000
505.246521	144.940000
505.340240	144.700000
505.433899	145.380000
505.527618	145.480000
505.621338	145.800000
505.714996	145.980000
505.808716	145.940000
505.902374	146.520000
505.996094	146.620000
506.089752	146.540000
506.183472	146.780000
506.277130	147.020000
506.370850	146.400000
506.464508	146.340000
506.558228	146.580000
506.651886	146.380000
506.745605	146.180000
506.839264	146.140000
506.932983	146.400000
507.026611	146.220000
507.120331	146.440000
507.213989	145.860000
507.307709	145.760000
507.401367	145.520000
507.495087	146.480000
507.588745	146.020000
507.682465	147.160000
507.776123	147.340000
507.869843	147.180000
507.963531	146.300000
508.057190	147.260000
508.150909	146.280000
508.244568	146.420000
508.338287	146.420000
508.431946	146.380000
508.525665	145.600000
508.619324	145.760000
508.713013	145.780000
508.806671	146.140000
508.900391	146.920000
508.994049	147.220000
509.087769	147.020000
509.181427	146.980000
509.275146	146.440000
509.368774	145.380000
509.462494	145.460000
509.556152	145.600000
509.649872	146.000000
509.743530	146.380000
509.837250	146.700000
509.930878	146.660000
510.024597	146.740000
510.118256	146.060000
510.211975	145.960000
510.305695	145.660000
510.399353	146.060000
510.493042	146.680000
510.586700	146.700000
510.680420	147.320000
510.774078	147.380000
510.867798	147.180000
510.961426	146.220000
511.055145	146.460000
511.148804	146.200000
511.242523	146.720000
511.336151	146.500000
511.429871	147.140000
511.523529	147.000000
511.617249	146.420000
511.710876	146.060000
511.804596	145.760000
511.898254	145.400000
511.991974	145.720000
512.085632	145.640000
512.179321	145.740000
512.272949	146.120000
512.366699	146.500000
512.460327	146.160000
512.554077	147.360000
512.647766	147.140000
512.741394	146.960000
512.835144	147.540000
512.928772	147.340000
513.022461	146.720000
513.116150	146.740000
513.209839	147.140000
513.303467	146.140000
513.397217	146.100000
513.490845	145.880000
513.584595	145.680000
513.678223	145.240000
513.771912	144.880000
513.865601	145.060000
513.959290	144.780000
514.052917	145.240000
514.146667	145.880000
514.240295	146.560000
514.333984	146.720000
514.427673	146.900000
514.521362	147.180000
514.614990	146.360000
514.708740	146.260000
514.802368	146.480000
514.896057	146.600000
514.989746	146.920000
515.083435	147.080000
515.177124	147.080000
515.270752	146.580000
515.364502	146.620000
515.458130	146.400000
515.551819	146.100000
515.645508	146.080000
515.739197	146.260000
515.832825	145.740000
515.926575	145.100000
516.020203	145.560000
516.113892	145.980000
516.207520	145.940000
516.301270	146.320000
516.394897	146.600000
516.488586	147.180000
516.582275	146.980000
516.675964	146.140000
516.769592	146.260000
516.863281	146.940000
516.956970	146.760000
517.050659	146.640000
517.144287	147.140000
517.238037	147.000000
517.331665	145.960000
517.425354	145.680000
517.519043	145.400000
517.612732	145.880000
517.706421	145.900000
517.800049	145.620000
517.893738	145.060000
517.987427	145.020000
518.081116	144.960000
518.174744	144.480000
518.268433	145.240000
518.362122	146.120000
518.455811	146.320000
518.549438	146.700000
518.643127	148.040000
518.736816	147.400000
518.830505	146.700000
518.924133	146.600000
519.017822	146.680000
519.111511	145.920000
519.205200	146.680000
519.298828	146.920000
519.392517	146.660000
519.486206	146.520000
519.579895	146.600000
519.673523	146.320000
519.767212	146.400000
519.860901	147.100000
519.954590	146.740000
520.048279	146.320000
520.141907	145.840000
520.235596	146.420000
520.329224	146.320000
520.422974	146.540000
520.516602	146.600000
520.610291	146.680000
520.703918	146.580000
520.797607	146.460000
520.891296	146.400000
520.984985	146.480000
521.078613	147.240000
521.172302	146.260000
521.265930	147.040000
521.359680	147.180000
521.453308	146.960000
521.546997	146.740000
521.640625	147.320000
521.734314	146.580000
521.827942	146.360000
521.921692	147.200000
522.015320	147.140000
522.109009	146.820000
522.202698	146.700000
522.296326	146.520000
522.390015	146.380000
522.483704	146.300000
522.577393	146.220000
522.671021	146.300000
522.764709	146.360000
522.858337	146.300000
522.952026	146.260000
523.045654	146.880000
523.139404	147.420000
523.233032	147.680000
523.326721	147.520000
523.420349	147.620000
523.514038	147.140000
523.607666	147.000000
523.701355	146.620000
523.795044	146.260000
523.888733	146.200000
523.982361	146.540000
524.076050	146.120000
524.169678	146.660000
524.263367	146.900000
524.356995	146.840000
524.450684	146.520000
524.544373	146.320000
524.638062	145.880000
524.731750	145.860000
524.825378	145.560000
524.919067	145.380000
525.012695	145.480000
525.106384	145.520000
525.200012	145.540000
525.293701	145.620000
525.387329	146.180000
525.481018	146.500000
525.574646	147.040000
525.668396	147.300000
525.762024	147.900000
525.855713	147.720000
525.949341	147.100000
526.043030	146.820000
526.136658	146.500000
526.230347	145.780000
526.323975	145.520000
526.417664	145.500000
526.511292	145.600000
526.604980	145.920000
526.698608	145.860000
526.792297	145.840000
526.885925	146.440000
526.979614	146.440000
527.073303	146.140000
527.166931	146.280000
527.260620	146.620000
527.354309	146.700000
527.447998	146.520000
527.541626	146.240000
527.635315	146.700000
527.728943	147.160000
527.822632	147.100000
527.916260	147.280000
528.009949	147.900000
528.103577	147.480000
528.197266	146.680000
528.290894	146.720000
528.384583	146.480000
528.478210	146.280000
528.571899	146.980000
528.665527	147.400000
528.759216	147.260000
528.852844	147.620000
528.946533	147.460000
529.040161	147.100000
529.133850	146.640000
529.227478	146.840000
529.321167	146.720000
529.414856	147.160000
529.508484	147.560000
529.602173	147.080000
529.695801	146.880000
529.789490	146.700000
529.883057	146.380000
529.976746	146.180000
530.070374	147.320000
530.164062	147.340000
530.257690	147.460000
530.351379	147.780000
530.445007	147.520000
530.538696	146.740000
530.632324	146.760000
530.726013	146.640000
530.819641	146.600000
530.913330	146.780000
531.006958	146.880000
531.100647	146.940000
531.194275	146.700000
531.287964	146.380000
531.381592	146.180000
531.475220	146.220000
531.568848	145.860000
531.662537	146.180000
531.756226	146.720000
531.849854	146.660000
531.943542	146.980000
532.037170	146.640000
532.130859	146.900000
532.224487	146.620000
532.318176	146.300000
532.411804	146.720000
532.505432	147.420000
532.599060	146.800000
532.692749	146.420000
532.786377	147.080000
532.880066	146.180000
532.973694	145.740000
533.067383	146.000000
533.161011	146.080000
533.254639	145.620000
533.348267	145.680000
533.441956	146.000000
533.535583	145.820000
533.629272	146.000000
533.722900	145.840000
533.816589	145.800000
533.910156	145.880000
534.003845	145.860000
534.097534	146.240000
534.191162	147.080000
534.284851	147.480000
534.378479	147.100000
534.472107	147.080000
534.565735	146.600000
534.659424	146.260000
534.753052	146.480000
534.846741	146.500000
534.940369	147.300000
535.033997	147.200000
535.127625	147.120000
535.221313	147.160000
535.314941	147.080000
535.408630	146.240000
535.502197	146.780000
535.595886	146.780000
535.689514	146.440000
535.783203	147.120000
535.876831	147.580000
535.970459	147.220000
536.064087	147.080000
536.157776	147.120000
536.251404	146.640000
536.345093	145.960000
536.438721	146.040000
536.532349	146.260000
536.626038	146.120000
536.719666	146.360000
536.813293	146.300000
536.906921	145.980000
537.000610	146.160000
537.094238	146.200000
537.187866	146.260000
537.281494	146.500000
537.375183	146.780000
537.468811	146.220000
537.562439	146.360000
537.656067	146.220000
537.749756	146.400000
537.843384	146.900000
537.937012	147.460000
538.030640	147.160000
538.124329	147.320000
538.217896	147.720000
538.311584	147.480000
538.405212	147.180000
538.498901	147.700000
538.592468	148.160000
538.686157	147.540000
538.779785	146.780000
538.873413	146.660000
538.967102	146.000000
539.060730	145.240000
539.154358	145.500000
539.247986	145.920000
539.341675	145.840000
539.435242	145.840000
539.528931	145.900000
539.622559	145.560000
539.716187	146.040000
539.809814	146.020000
539.903503	146.360000
539.997070	146.400000
540.090759	146.600000
540.184387	146.100000
540.278015	146.700000
540.371643	146.840000
540.465332	146.880000
540.558899	146.760000
540.652588	146.860000
540.746216	146.320000
540.839844	146.500000
540.933472	146.140000
541.027100	146.100000
541.120728	146.140000
541.214417	146.480000
541.308044	146.220000
541.401672	146.220000
541.495300	146.100000
541.588928	145.980000
541.682617	145.180000
541.776184	144.940000
541.869873	145.580000
541.963440	145.820000
542.057129	146.220000
542.150757	146.840000
542.244385	146.700000
542.338013	146.180000
542.431641	146.460000
542.525269	145.960000
542.618958	146.340000
542.712524	146.860000
542.806213	146.540000
542.899780	146.680000
542.993469	146.320000
543.087036	145.920000
543.180725	145.240000
543.274292	146.060000
543.367981	145.860000
543.461548	146.700000
543.555237	146.660000
543.648926	147.360000
543.742493	147.560000
543.836182	147.340000
543.929749	147.120000
544.023437	147.080000
544.117004	146.920000
544.210693	146.540000
544.304260	146.880000
544.397949	146.400000
544.491516	146.780000
544.585205	146.700000
544.678772	146.540000
544.772461	146.580000
544.866028	146.740000
544.959717	146.460000
545.053284	146.000000
545.146973	146.200000
545.240540	146.320000
545.334229	147.080000
545.427795	147.260000
545.521423	147.700000
545.615051	147.740000
545.708679	147.940000
545.802307	147.580000
545.895935	147.740000
545.989624	148.380000
546.083191	148.160000
546.176880	147.900000
546.270447	147.600000
546.364136	147.880000
546.457703	147.460000
546.551331	147.380000
546.644958	147.320000
546.738586	147.300000
546.832214	146.840000
546.925842	146.440000
547.019409	146.760000
547.113098	146.360000
547.206665	146.320000
547.300354	146.120000
547.393921	146.480000
547.487549	146.460000
547.581177	146.240000
547.674805	146.420000
547.768433	146.060000
547.862061	146.020000
547.955627	145.560000
548.049316	146.420000
548.142883	146.580000
548.236572	147.180000
548.330139	147.180000
548.423767	146.940000
548.517456	146.700000
548.611023	146.680000
548.704651	145.900000
548.798279	145.780000
548.891907	146.620000
548.985474	146.320000
549.079163	146.200000
549.172729	146.220000
549.266357	145.760000
549.359985	145.500000
549.453613	145.160000
549.547180	144.840000
549.640869	145.540000
549.734436	145.640000
549.828064	145.960000
549.921631	146.140000
550.015320	146.140000
550.108887	146.240000
550.202515	146.360000
550.296143	145.960000
550.389771	146.320000
550.483337	146.580000
550.576965	146.100000
550.670593	146.700000
550.764221	146.720000
550.857849	146.320000
550.951477	145.680000
551.045105	145.600000
551.138672	145.420000
551.232300	145.040000
551.325928	145.220000
551.419556	146.000000
551.513123	145.900000
551.606750	145.520000
551.700378	145.680000
551.794006	145.760000
551.887573	145.460000
551.981201	146.100000
552.074768	146.240000
552.168457	145.960000
552.262024	146.660000
552.355652	146.540000
552.449219	146.800000
552.542847	146.720000
552.636475	146.520000
552.730103	145.300000
552.823669	145.420000
552.917297	144.720000
553.010864	145.060000
553.104553	145.420000
553.198181	145.420000
553.291748	145.920000
553.385376	146.380000
553.478943	145.920000
553.572571	146.180000
553.666199	146.920000
553.759827	146.160000
553.853394	145.640000
553.947021	145.600000
554.040588	145.320000
554.134216	145.260000
554.227783	146.240000
554.321411	146.820000
554.415039	146.620000
554.508667	146.740000
554.602234	146.680000
554.695862	145.780000
554.789429	145.460000
554.883057	145.720000
554.976624	145.480000
555.070251	145.620000
555.163818	145.500000
555.257507	145.580000
555.351074	145.840000
555.444702	147.140000
555.538330	146.500000
555.631897	147.160000
555.725525	146.780000
555.819092	146.380000
555.912720	145.160000
556.006287	145.840000
556.099915	145.320000
556.193481	145.820000
556.287109	146.140000
556.380676	146.020000
556.474304	146.060000
556.567871	146.500000
556.661499	146.000000
556.755066	145.800000
556.848694	145.900000
556.942261	145.620000
557.035889	145.640000
557.129517	145.780000
557.223145	146.400000
557.316711	146.760000
557.410339	146.740000
557.503906	146.340000
557.597473	146.800000
557.691040	146.240000
557.784668	146.220000
557.878296	146.260000
557.971863	146.400000
558.065491	146.420000
558.159058	146.400000
558.252686	147.180000
558.346252	147.560000
558.439880	147.220000
558.533447	146.680000
558.627075	146.460000
558.720642	145.580000
558.814270	145.260000
558.907837	145.360000
559.001465	145.220000
559.095032	145.980000
559.188660	146.200000
559.282227	145.920000
559.375854	146.760000
559.469360	146.780000
559.562988	146.800000
559.656555	146.880000
559.750183	147.220000
559.843750	147.040000
559.937378	147.160000
560.030945	146.740000
560.124573	0.000000
560.218140	0.000000
560.311707	0.000000
560.405334	0.000000
560.498901	0.000000
560.592529	0.000000
560.686096	0.000000
560.779724	0.000000
560.873291	0.000000
560.966858	0.000000
561.060425	0.000000
561.154053	0.000000
561.247620	0.000000
561.341248	0.000000
561.434814	0.000000
561.528381	0.000000
561.621948	0.000000
561.715576	0.000000
561.809143	0.000000
561.902771	0.000000
561.996277	0.000000
562.089905	0.000000
562.183472	0.000000
562.277100	0.000000
