Model Number: SPM-002-B   
Serial Number: 70087108
Firmware Version: 004.15.4
Exposure Time: 100000.000000us
Data Taken on: 11-12-2020 19:40:41.144
Wavelength	Amplitude
221.570786	0.000000
221.663406	0.000000
221.756027	0.000000
221.848648	0.000000
221.941269	0.000000
222.033905	0.000000
222.126526	0.000000
222.219162	0.000000
222.311798	0.000000
222.404419	0.000000
222.497055	0.000000
222.589676	0.000000
222.682312	0.000000
222.774933	0.000000
222.867569	0.000000
222.960205	0.000000
223.052841	0.000000
223.145462	0.000000
223.238098	0.000000
223.330734	0.000000
223.423386	0.000000
223.516022	0.000000
223.608658	0.000000
223.701309	0.000000
223.793945	0.000000
223.886581	0.000000
223.979218	0.000000
224.071869	0.000000
224.164505	0.000000
224.257156	0.000000
224.349792	0.000000
224.442444	0.000000
224.535095	0.000000
224.627747	0.000000
224.720398	0.000000
224.813034	0.000000
224.905685	0.000000
224.998337	144.740000
225.090988	144.340000
225.183640	144.340000
225.276291	144.060000
225.368942	144.380000
225.461594	144.980000
225.554245	144.960000
225.646912	145.160000
225.739578	146.140000
225.832230	146.360000
225.924896	145.560000
226.017548	146.260000
226.110199	146.460000
226.202866	145.460000
226.295532	145.240000
226.388184	145.280000
226.480850	144.400000
226.573517	143.960000
226.666168	144.420000
226.758835	144.620000
226.851501	145.240000
226.944183	145.660000
227.036850	145.400000
227.129517	145.160000
227.222183	145.380000
227.314850	145.280000
227.407516	145.200000
227.500198	146.080000
227.592865	145.560000
227.685532	144.940000
227.778214	144.620000
227.870880	145.220000
227.963562	145.220000
228.056229	146.000000
228.148926	146.240000
228.241592	147.140000
228.334274	146.500000
228.426956	146.140000
228.519638	145.940000
228.612305	145.480000
228.704987	145.220000
228.797668	145.640000
228.890350	145.420000
228.983032	144.760000
229.075714	145.520000
229.168396	145.040000
229.261108	144.720000
229.353790	144.840000
229.446472	145.560000
229.539169	145.180000
229.631851	144.880000
229.724533	144.860000
229.817230	145.280000
229.909912	145.840000
230.002609	146.000000
230.095306	146.300000
230.187988	146.280000
230.280685	146.000000
230.373383	144.880000
230.466095	144.480000
230.558792	144.700000
230.651474	144.520000
230.744171	144.440000
230.836868	144.580000
230.929581	144.880000
231.022278	144.900000
231.114975	145.080000
231.207672	144.900000
231.300369	145.460000
231.393082	145.540000
231.485779	145.220000
231.578506	145.320000
231.671204	145.760000
231.763916	145.780000
231.856613	145.560000
231.949326	145.980000
232.042023	145.560000
232.134735	145.120000
232.227448	144.580000
232.320160	144.920000
232.412872	144.700000
232.505585	145.720000
232.598297	146.140000
232.691010	146.140000
232.783722	145.960000
232.876450	146.560000
232.969162	146.040000
233.061874	145.520000
233.154587	145.200000
233.247314	145.480000
233.340027	144.820000
233.432739	145.580000
233.525467	145.640000
233.618179	146.460000
233.710907	145.820000
233.803635	146.340000
233.896347	145.340000
233.989090	145.940000
234.081818	145.540000
234.174545	146.180000
234.267258	145.280000
234.359985	145.660000
234.452713	145.020000
234.545441	144.980000
234.638168	144.780000
234.730896	145.460000
234.823639	145.080000
234.916367	145.700000
235.009094	145.800000
235.101822	145.840000
235.194580	145.560000
235.287308	145.800000
235.380051	145.120000
235.472778	145.500000
235.565521	145.520000
235.658249	145.320000
235.750992	145.580000
235.843719	145.920000
235.936462	145.560000
236.029205	145.020000
236.121948	144.820000
236.214691	144.660000
236.307449	145.240000
236.400192	145.060000
236.492935	144.880000
236.585678	145.060000
236.678421	145.020000
236.771164	144.780000
236.863907	145.560000
236.956665	146.240000
237.049408	147.920000
237.142151	147.820000
237.234909	148.280000
237.327652	147.740000
237.420410	147.600000
237.513153	146.500000
237.605927	146.340000
237.698669	145.520000
237.791428	145.160000
237.884186	145.700000
237.976944	145.080000
238.069702	145.080000
238.162445	144.820000
238.255203	144.980000
238.347961	144.940000
238.440720	145.020000
238.533478	144.960000
238.626266	144.660000
238.719025	145.180000
238.811783	144.900000
238.904541	144.940000
238.997314	145.000000
239.090073	144.960000
239.182831	144.620000
239.275604	145.360000
239.368362	145.480000
239.461136	145.500000
239.553909	145.740000
239.646667	145.480000
239.739441	144.800000
239.832214	144.820000
239.925003	145.120000
240.017761	146.100000
240.110535	146.800000
240.203308	146.220000
240.296082	146.380000
240.388855	145.940000
240.481628	145.580000
240.574417	145.600000
240.667191	146.280000
240.759964	145.960000
240.852737	146.380000
240.945526	145.880000
241.038315	145.500000
241.131088	145.500000
241.223877	145.960000
241.316650	145.560000
241.409439	145.960000
241.502228	145.380000
241.595001	145.720000
241.687790	145.640000
241.780579	145.720000
241.873367	146.080000
241.966141	146.580000
242.058929	145.680000
242.151718	145.480000
242.244507	145.720000
242.337311	144.560000
242.430099	145.180000
242.522903	145.820000
242.615692	145.360000
242.708481	145.540000
242.801270	146.280000
242.894073	145.820000
242.986862	145.320000
243.079651	146.220000
243.172455	145.640000
243.265244	145.820000
243.358063	145.300000
243.450867	145.620000
243.543655	145.200000
243.636459	145.620000
243.729263	145.960000
243.822067	146.280000
243.914856	146.720000
244.007660	146.760000
244.100464	146.620000
244.193268	145.780000
244.286072	145.800000
244.378876	145.040000
244.471680	144.680000
244.564499	145.020000
244.657318	146.040000
244.750122	146.320000
244.842926	146.160000
244.935745	146.560000
245.028549	146.160000
245.121368	145.400000
245.214172	145.320000
245.306992	145.940000
245.399796	145.660000
245.492615	145.720000
245.585434	145.880000
245.678253	145.660000
245.771072	145.160000
245.863892	145.900000
245.956711	146.280000
246.049530	145.720000
246.142349	145.520000
246.235168	145.700000
246.327988	145.680000
246.420807	145.300000
246.513626	145.600000
246.606445	145.640000
246.699280	145.440000
246.792099	145.160000
246.884918	144.920000
246.977753	144.500000
247.070587	144.420000
247.163422	144.700000
247.256241	144.420000
247.349075	144.620000
247.441895	145.320000
247.534729	145.600000
247.627563	145.400000
247.720383	146.140000
247.813217	146.000000
247.906052	145.520000
247.998886	145.620000
248.091736	145.500000
248.184570	144.720000
248.277405	144.600000
248.370239	145.580000
248.463074	146.000000
248.555908	146.580000
248.648743	146.720000
248.741592	147.220000
248.834427	146.580000
248.927261	145.720000
249.020111	145.760000
249.112946	146.320000
249.205795	145.700000
249.298630	145.740000
249.391495	145.980000
249.484344	145.420000
249.577179	144.740000
249.670029	145.420000
249.762878	145.920000
249.855728	145.940000
249.948563	146.000000
250.041412	145.880000
250.134262	145.920000
250.227112	145.660000
250.319962	145.660000
250.412827	146.000000
250.505692	145.840000
250.598541	145.620000
250.691391	145.220000
250.784241	145.200000
250.877106	144.980000
250.969955	144.980000
251.062805	145.480000
251.155670	146.160000
251.248520	146.120000
251.341385	146.380000
251.434235	146.660000
251.527100	146.080000
251.619965	145.580000
251.712814	146.380000
251.805695	146.340000
251.898560	146.600000
251.991425	146.840000
252.084290	146.980000
252.177155	145.980000
252.270020	145.700000
252.362885	145.140000
252.455750	144.960000
252.548615	144.680000
252.641479	144.760000
252.734360	144.820000
252.827240	145.260000
252.920105	145.560000
253.012970	145.420000
253.105850	145.580000
253.198715	145.280000
253.291595	145.140000
253.384460	144.860000
253.477341	144.800000
253.570221	145.000000
253.663086	144.780000
253.755966	145.440000
253.848846	145.540000
253.941727	145.820000
254.034592	145.600000
254.127472	145.520000
254.220367	145.020000
254.313248	144.920000
254.406128	144.500000
254.499008	144.840000
254.591904	145.820000
254.684784	146.300000
254.777664	146.200000
254.870544	145.960000
254.963440	145.800000
255.056335	145.300000
255.149216	144.960000
255.242111	145.520000
255.334991	146.120000
255.427887	146.080000
255.520767	146.240000
255.613663	146.320000
255.706558	145.260000
255.799438	144.980000
255.892334	144.620000
255.985229	144.500000
256.078125	144.140000
256.171021	144.820000
256.263916	145.320000
256.356812	145.780000
256.449707	146.200000
256.542603	145.920000
256.635498	146.100000
256.728394	145.920000
256.821289	145.420000
256.914215	145.320000
257.007080	145.860000
257.100006	145.880000
257.192932	146.040000
257.285828	146.220000
257.378723	145.760000
257.471619	145.520000
257.564545	145.060000
257.657440	145.140000
257.750336	145.760000
257.843262	145.760000
257.936157	146.700000
258.029053	146.920000
258.121979	147.060000
258.214874	146.500000
258.307800	146.340000
258.400696	145.180000
258.493622	145.220000
258.586517	144.220000
258.679443	144.660000
258.772339	144.480000
258.865265	144.620000
258.958160	144.140000
259.051086	145.120000
259.144012	144.600000
259.236938	145.400000
259.329834	145.260000
259.422791	145.380000
259.515717	144.680000
259.608612	144.840000
259.701538	144.760000
259.794464	144.940000
259.887390	144.840000
259.980316	144.880000
260.073212	144.740000
260.166138	143.800000
260.259064	144.300000
260.351990	145.040000
260.444916	145.080000
260.537842	145.440000
260.630768	146.580000
260.723694	146.060000
260.816620	145.800000
260.909546	145.900000
261.002472	145.360000
261.095398	144.640000
261.188354	144.720000
261.281281	144.400000
261.374207	144.500000
261.467133	145.560000
261.560089	145.620000
261.653015	145.620000
261.745972	146.240000
261.838867	146.720000
261.931824	146.540000
262.024780	146.260000
262.117706	146.320000
262.210663	146.500000
262.303589	145.820000
262.396515	145.380000
262.489471	146.560000
262.582397	146.520000
262.675354	145.740000
262.768280	146.080000
262.861237	146.280000
262.954163	145.940000
263.047119	145.860000
263.140045	145.780000
263.233002	145.540000
263.325958	145.320000
263.418884	144.720000
263.511841	144.820000
263.604797	145.040000
263.697723	145.160000
263.790680	144.920000
263.883636	145.560000
263.976593	145.220000
264.069550	145.240000
264.162476	145.160000
264.255463	145.360000
264.348419	144.760000
264.441376	145.420000
264.534332	144.900000
264.627289	145.020000
264.720245	145.440000
264.813202	145.320000
264.906158	145.100000
264.999115	146.120000
265.092072	146.100000
265.185028	146.560000
265.277985	146.880000
265.370941	146.640000
265.463898	146.120000
265.556854	145.740000
265.649811	144.680000
265.742798	144.640000
265.835754	145.020000
265.928711	145.120000
266.021667	145.420000
266.114655	145.700000
266.207611	145.800000
266.300568	145.080000
266.393585	144.760000
266.486511	145.160000
266.579498	144.420000
266.672485	144.420000
266.765442	144.600000
266.858429	145.160000
266.951385	144.700000
267.044342	145.420000
267.137329	145.220000
267.230316	145.820000
267.323273	145.200000
267.416260	145.860000
267.509216	145.580000
267.602203	145.740000
267.695160	145.740000
267.788147	146.100000
267.881134	145.220000
267.974091	145.460000
268.067078	145.380000
268.160065	145.320000
268.253052	144.940000
268.346008	145.360000
268.438995	145.260000
268.531982	145.000000
268.624969	144.720000
268.717987	145.000000
268.810944	144.880000
268.903961	145.000000
268.996948	145.000000
269.089905	145.320000
269.182892	145.640000
269.275879	145.760000
269.368866	145.240000
269.461853	145.800000
269.554871	145.740000
269.647858	145.520000
269.740845	145.760000
269.833832	146.160000
269.926819	145.480000
270.019806	145.480000
270.112793	145.020000
270.205811	144.760000
270.298798	144.660000
270.391785	145.640000
270.484772	145.120000
270.577789	145.540000
270.670776	145.300000
270.763763	145.180000
270.856750	144.880000
270.949768	144.780000
271.042786	144.760000
271.135773	144.580000
271.228790	145.040000
271.321808	144.540000
271.414795	144.440000
271.507782	144.300000
271.600800	144.160000
271.693817	144.360000
271.786804	144.820000
271.879822	145.220000
271.972809	145.320000
272.065826	145.980000
272.158844	145.260000
272.251831	145.720000
272.344849	145.700000
272.437866	145.540000
272.530853	145.660000
272.623871	145.900000
272.716888	144.680000
272.809906	145.300000
272.902893	145.260000
272.995911	144.480000
273.088928	144.620000
273.181946	145.040000
273.274963	144.360000
273.367981	144.320000
273.460999	144.680000
273.554047	145.020000
273.647003	145.820000
273.740051	145.920000
273.833069	146.320000
273.926086	146.660000
274.019135	145.880000
274.112152	145.040000
274.205170	145.100000
274.298187	145.260000
274.391205	144.740000
274.484222	145.220000
274.577240	145.820000
274.670258	145.760000
274.763306	145.420000
274.856323	146.000000
274.949341	146.000000
275.042358	146.100000
275.135406	146.000000
275.228424	145.920000
275.321442	145.500000
275.414490	145.240000
275.507507	145.160000
275.600525	145.540000
275.693573	145.100000
275.786591	144.840000
275.879669	145.140000
275.972656	144.720000
276.065735	144.800000
276.158752	145.600000
276.251801	146.420000
276.344818	146.540000
276.437866	146.700000
276.530884	146.240000
276.623932	145.680000
276.716980	145.700000
276.809998	145.700000
276.903046	145.920000
276.996094	146.760000
277.089111	147.520000
277.182159	147.880000
277.275208	147.380000
277.368256	147.180000
277.461304	146.540000
277.554321	145.920000
277.647369	145.300000
277.740417	145.320000
277.833466	144.960000
277.926514	145.260000
278.019562	145.880000
278.112610	145.380000
278.205688	145.640000
278.298706	146.060000
278.391785	145.340000
278.484833	144.720000
278.577881	144.600000
278.670929	144.780000
278.763977	144.800000
278.857025	145.480000
278.950073	145.440000
279.043121	145.760000
279.136169	145.600000
279.229248	145.260000
279.322296	145.420000
279.415344	145.240000
279.508392	145.100000
279.601440	145.120000
279.694519	144.880000
279.787567	144.440000
279.880615	144.520000
279.973694	144.720000
280.066742	144.760000
280.159790	145.260000
280.252869	144.780000
280.345917	145.120000
280.438995	145.060000
280.532074	145.060000
280.625122	145.400000
280.718201	146.360000
280.811279	146.280000
280.904327	146.120000
280.997406	146.300000
281.090454	145.840000
281.183533	145.080000
281.276581	145.200000
281.369659	145.200000
281.462738	145.180000
281.555786	145.480000
281.648865	145.800000
281.741943	145.480000
281.835022	146.140000
281.928070	145.580000
282.021149	145.280000
282.114227	145.080000
282.207306	145.240000
282.300385	145.340000
282.393433	145.720000
282.486511	145.700000
282.579590	146.420000
282.672668	146.680000
282.765747	145.900000
282.858856	145.500000
282.951904	145.580000
283.045013	145.440000
283.138062	145.640000
283.231171	146.200000
283.324249	146.900000
283.417328	147.140000
283.510406	146.640000
283.603485	146.080000
283.696564	145.740000
283.789642	145.460000
283.882751	145.180000
283.975830	145.980000
284.068909	145.640000
284.161987	146.280000
284.255066	145.900000
284.348175	146.020000
284.441254	145.460000
284.534332	146.420000
284.627441	145.700000
284.720520	145.740000
284.813599	145.560000
284.906708	145.260000
284.999786	144.360000
285.092896	144.140000
285.185974	144.940000
285.279053	144.520000
285.372192	144.820000
285.465240	145.700000
285.558380	145.780000
285.651459	145.300000
285.744568	146.420000
285.837677	145.800000
285.930756	145.340000
286.023865	145.520000
286.116943	145.020000
286.210052	144.740000
286.303162	145.260000
286.396240	145.400000
286.489349	145.160000
286.582458	145.800000
286.675568	145.420000
286.768646	145.500000
286.861755	145.760000
286.954865	146.480000
287.047974	145.860000
287.141083	145.680000
287.234161	145.380000
287.327271	145.060000
287.420380	145.340000
287.513519	145.520000
287.606598	145.680000
287.699738	145.900000
287.792816	145.760000
287.885956	145.400000
287.979034	145.380000
288.072174	145.700000
288.165283	145.660000
288.258392	146.160000
288.351501	145.580000
288.444611	145.460000
288.537720	145.720000
288.630859	145.520000
288.723969	145.360000
288.817078	145.900000
288.910187	145.940000
289.003296	145.300000
289.096436	145.120000
289.189545	144.760000
289.282654	144.300000
289.375763	144.880000
289.468903	145.300000
289.562012	145.760000
289.655121	145.880000
289.748260	146.000000
289.841400	146.200000
289.934509	145.900000
290.027649	145.860000
290.120728	145.640000
290.213898	145.560000
290.306976	145.000000
290.400146	145.380000
290.493256	145.100000
290.586395	145.400000
290.679535	145.920000
290.772644	145.760000
290.865784	144.700000
290.958893	144.800000
291.052032	144.760000
291.145172	144.460000
291.238281	144.260000
291.331421	144.860000
291.424561	145.560000
291.517670	145.320000
291.610809	145.500000
291.703949	145.640000
291.797089	145.900000
291.890228	145.000000
291.983337	144.960000
292.076477	144.680000
292.169617	145.000000
292.262756	144.820000
292.355927	144.900000
292.449036	144.660000
292.542206	144.760000
292.635315	144.900000
292.728485	145.200000
292.821625	145.120000
292.914764	146.360000
293.007904	146.580000
293.101044	146.480000
293.194183	146.240000
293.287323	146.520000
293.380463	145.620000
293.473602	145.380000
293.566742	145.700000
293.659882	145.880000
293.753021	146.140000
293.846191	146.460000
293.939331	146.080000
294.032471	145.860000
294.125610	145.540000
294.218781	145.660000
294.311920	145.900000
294.405060	146.240000
294.498230	146.140000
294.591370	146.180000
294.684540	145.420000
294.777679	144.740000
294.870850	144.880000
294.963959	144.700000
295.057159	144.560000
295.150299	145.060000
295.243469	145.200000
295.336609	144.720000
295.429779	144.660000
295.522919	145.140000
295.616089	144.880000
295.709229	145.180000
295.802399	145.380000
295.895569	145.140000
295.988708	144.900000
296.081879	145.280000
296.175018	144.980000
296.268188	145.160000
296.361359	145.880000
296.454529	145.900000
296.547668	145.580000
296.640839	146.000000
296.734009	145.760000
296.827179	145.800000
296.920319	146.140000
297.013519	145.980000
297.106659	145.980000
297.199860	146.200000
297.292999	146.000000
297.386200	145.320000
297.479309	145.240000
297.572510	144.900000
297.665680	144.420000
297.758850	144.300000
297.852020	144.340000
297.945190	144.420000
298.038361	144.200000
298.131531	145.120000
298.224701	144.700000
298.317871	144.780000
298.411072	144.340000
298.504242	144.360000
298.597412	143.840000
298.690582	144.340000
298.783752	144.120000
298.876923	144.700000
298.970093	144.840000
299.063293	145.300000
299.156464	145.760000
299.249634	146.320000
299.342834	146.460000
299.436005	146.880000
299.529205	146.600000
299.622345	146.220000
299.715576	145.680000
299.808716	145.500000
299.901917	145.340000
299.995117	145.360000
300.088287	145.320000
300.181488	145.180000
300.274658	145.100000
300.367828	145.120000
300.461029	145.080000
300.554199	145.340000
300.647400	145.680000
300.740601	146.540000
300.833771	146.320000
300.926971	146.520000
301.020142	146.100000
301.113342	145.740000
301.206512	145.000000
301.299713	145.220000
301.392914	145.040000
301.486084	145.500000
301.579285	145.940000
301.672516	146.580000
301.765686	146.380000
301.858887	146.380000
301.952057	145.960000
302.045288	145.940000
302.138458	145.640000
302.231659	145.480000
302.324860	145.400000
302.418060	145.080000
302.511261	144.940000
302.604462	144.940000
302.697662	144.860000
302.790863	144.940000
302.884064	145.060000
302.977264	145.220000
303.070465	145.360000
303.163666	145.900000
303.256866	145.920000
303.350067	146.100000
303.443268	145.940000
303.536469	145.980000
303.629669	145.240000
303.722870	145.460000
303.816071	145.220000
303.909271	145.440000
304.002472	144.520000
304.095673	144.660000
304.188934	144.000000
304.282104	144.720000
304.375336	144.660000
304.468506	145.180000
304.561768	144.940000
304.654968	145.400000
304.748169	144.840000
304.841370	144.740000
304.934601	145.080000
305.027802	145.480000
305.121002	145.280000
305.214233	145.640000
305.307434	145.780000
305.400665	146.040000
305.493866	145.640000
305.587097	145.780000
305.680298	145.300000
305.773499	145.520000
305.866730	145.080000
305.959930	146.080000
306.053162	146.480000
306.146393	146.400000
306.239594	145.760000
306.332825	145.440000
306.426025	145.380000
306.519287	144.420000
306.612488	144.740000
306.705719	145.020000
306.798920	145.100000
306.892181	144.440000
306.985352	144.480000
307.078613	144.220000
307.171844	144.480000
307.265045	144.300000
307.358276	144.180000
307.451508	144.900000
307.544739	145.420000
307.637970	144.980000
307.731201	145.200000
307.824402	145.800000
307.917633	145.680000
308.010864	145.820000
308.104095	146.480000
308.197327	146.420000
308.290558	146.000000
308.383789	145.820000
308.477020	145.180000
308.570251	144.340000
308.663483	144.260000
308.756714	144.480000
308.849976	144.420000
308.943176	145.320000
309.036438	145.300000
309.129639	145.120000
309.222900	144.920000
309.316101	144.720000
309.409393	143.780000
309.502625	143.900000
309.595856	143.880000
309.689087	144.120000
309.782318	144.520000
309.875580	144.940000
309.968811	145.220000
310.062042	145.540000
310.155273	145.160000
310.248535	145.600000
310.341766	145.360000
310.434998	144.820000
310.528259	144.680000
310.621490	145.400000
310.714722	144.520000
310.807983	144.700000
310.901215	144.960000
310.994476	144.900000
311.087708	144.160000
311.181000	144.380000
311.274200	143.940000
311.367462	144.080000
311.460693	143.820000
311.553986	144.660000
311.647186	144.860000
311.740479	145.740000
311.833710	145.540000
311.926971	145.800000
312.020203	144.860000
312.113464	144.580000
312.206726	143.980000
312.299957	144.460000
312.393219	144.660000
312.486481	145.140000
312.579712	145.580000
312.672974	145.620000
312.766235	145.380000
312.859497	145.280000
312.952759	145.180000
313.045990	145.620000
313.139252	145.100000
313.232513	145.140000
313.325775	145.440000
313.419037	145.440000
313.512299	144.580000
313.605530	145.300000
313.698822	145.200000
313.792053	144.920000
313.885345	144.540000
313.978577	144.740000
314.071869	143.900000
314.165131	144.260000
314.258392	144.520000
314.351654	144.720000
314.444916	143.980000
314.538177	144.960000
314.631439	145.020000
314.724701	144.980000
314.817993	145.080000
314.911255	145.860000
315.004517	145.140000
315.097778	145.060000
315.191040	145.400000
315.284302	145.580000
315.377594	145.360000
315.470856	145.560000
315.564117	144.960000
315.657379	144.300000
315.750671	143.780000
315.843933	144.060000
315.937195	143.680000
316.030518	143.720000
316.123749	143.880000
316.217041	144.800000
316.310303	144.500000
316.403595	144.940000
316.496857	145.020000
316.590149	145.200000
316.683411	144.240000
316.776703	144.080000
316.869965	144.080000
316.963257	144.140000
317.056519	143.480000
317.149811	143.820000
317.243073	143.860000
317.336365	143.860000
317.429626	143.940000
317.522919	144.740000
317.616180	144.700000
317.709473	144.640000
317.802765	144.780000
317.896027	144.640000
317.989319	144.820000
318.082611	144.800000
318.175873	144.920000
318.269165	144.620000
318.362488	144.580000
318.455750	144.000000
318.549042	144.280000
318.642303	144.780000
318.735626	144.600000
318.828888	144.980000
318.922211	144.780000
319.015472	145.160000
319.108765	144.540000
319.202057	144.800000
319.295349	144.800000
319.388641	144.820000
319.481934	144.340000
319.575226	144.400000
319.668518	144.520000
319.761810	144.660000
319.855103	144.920000
319.948395	145.080000
320.041687	145.240000
320.134979	145.220000
320.228271	145.060000
320.321564	144.780000
320.414856	144.820000
320.508148	144.480000
320.601440	144.400000
320.694763	144.440000
320.788025	145.320000
320.881348	145.420000
320.974640	145.640000
321.067963	145.440000
321.161224	145.560000
321.254547	144.540000
321.347839	144.980000
321.441162	144.840000
321.534454	144.960000
321.627747	144.660000
321.721069	145.760000
321.814362	145.320000
321.907654	145.380000
322.000946	145.540000
322.094269	145.880000
322.187561	145.260000
322.280884	145.620000
322.374176	145.480000
322.467468	145.800000
322.560791	145.840000
322.654083	146.160000
322.747406	146.080000
322.840698	146.580000
322.934021	146.660000
323.027344	146.540000
323.120636	146.140000
323.213959	145.900000
323.307251	145.320000
323.400574	144.800000
323.493866	144.600000
323.587219	144.880000
323.680511	145.200000
323.773834	145.600000
323.867157	145.540000
323.960449	145.620000
324.053772	145.520000
324.147095	145.000000
324.240387	145.660000
324.333710	145.940000
324.427032	146.040000
324.520355	145.900000
324.613647	145.540000
324.706970	144.920000
324.800293	144.780000
324.893616	145.140000
324.986938	145.480000
325.080231	145.460000
325.173553	145.620000
325.266876	146.120000
325.360199	145.740000
325.453522	145.020000
325.546875	145.180000
325.640167	145.320000
325.733521	145.260000
325.826813	145.520000
325.920166	145.840000
326.013489	145.780000
326.106812	145.000000
326.200134	144.560000
326.293457	143.760000
326.386780	143.980000
326.480103	144.040000
326.573425	144.180000
326.666748	144.380000
326.760071	145.120000
326.853424	144.880000
326.946747	145.060000
327.040070	146.060000
327.133392	145.660000
327.226715	145.000000
327.320068	144.700000
327.413391	145.140000
327.506714	144.280000
327.600037	144.680000
327.693390	145.080000
327.786713	145.340000
327.880066	145.140000
327.973358	145.480000
328.066742	145.700000
328.160034	145.760000
328.253418	146.200000
328.346710	145.760000
328.440063	145.560000
328.533417	145.180000
328.626740	145.480000
328.720093	145.200000
328.813416	145.220000
328.906769	145.260000
329.000092	145.480000
329.093445	145.080000
329.186768	145.020000
329.280121	145.460000
329.373444	145.740000
329.466797	145.680000
329.560120	145.900000
329.653473	145.700000
329.746796	145.180000
329.840149	145.100000
329.933502	144.960000
330.026825	144.960000
330.120178	144.860000
330.213562	145.000000
330.306854	144.400000
330.400238	144.440000
330.493561	144.240000
330.586945	144.920000
330.680237	145.380000
330.773621	145.800000
330.866974	145.700000
330.960327	145.860000
331.053680	145.640000
331.147003	145.240000
331.240356	145.400000
331.333710	145.760000
331.427063	145.620000
331.520416	145.480000
331.613770	145.620000
331.707123	145.720000
331.800476	145.660000
331.893829	146.380000
331.987152	146.620000
332.080505	146.460000
332.173859	146.220000
332.267212	145.680000
332.360565	144.940000
332.453918	144.680000
332.547333	144.640000
332.640656	144.800000
332.734039	145.060000
332.827362	145.000000
332.920746	145.380000
333.014069	145.400000
333.107452	145.640000
333.200806	145.820000
333.294159	145.880000
333.387543	145.260000
333.480896	145.040000
333.574249	144.820000
333.667603	144.340000
333.760956	144.700000
333.854340	144.840000
333.947693	144.980000
334.041046	144.820000
334.134430	145.360000
334.227783	144.840000
334.321136	144.840000
334.414520	144.560000
334.507874	144.900000
334.601227	144.940000
334.694611	145.120000
334.787964	145.080000
334.881348	145.720000
334.974701	145.440000
335.068085	144.940000
335.161438	145.120000
335.254822	145.040000
335.348175	144.780000
335.441559	144.260000
335.534943	145.160000
335.628296	144.640000
335.721680	144.860000
335.815033	145.080000
335.908417	145.760000
336.001770	145.460000
336.095154	145.540000
336.188538	145.180000
336.281891	144.940000
336.375275	144.240000
336.468658	143.720000
336.562012	143.940000
336.655396	144.420000
336.748779	144.820000
336.842133	145.260000
336.935516	145.580000
337.028900	145.340000
337.122284	145.300000
337.215637	145.220000
337.309021	145.080000
337.402435	144.620000
337.495789	144.780000
337.589203	144.840000
337.682526	144.460000
337.775940	145.040000
337.869324	145.260000
337.962708	145.200000
338.056091	145.500000
338.149475	145.320000
338.242859	145.280000
338.336243	145.200000
338.429626	145.160000
338.523010	144.960000
338.616394	145.020000
338.709778	144.780000
338.803162	145.160000
338.896545	145.340000
338.989929	144.840000
339.083313	145.280000
339.176697	145.060000
339.270081	144.900000
339.363464	145.040000
339.456848	145.380000
339.550232	144.820000
339.643616	144.880000
339.737030	144.620000
339.830383	144.260000
339.923828	144.280000
340.017181	144.220000
340.110596	144.320000
340.203949	144.440000
340.297363	144.660000
340.390778	144.700000
340.484161	145.140000
340.577545	145.000000
340.670959	145.300000
340.764343	145.080000
340.857727	145.260000
340.951111	144.580000
341.044525	144.760000
341.137909	144.140000
341.231293	144.320000
341.324707	143.800000
341.418091	145.100000
341.511505	145.120000
341.604889	145.780000
341.698303	145.820000
341.791687	145.840000
341.885071	144.880000
341.978485	144.860000
342.071899	144.860000
342.165283	145.020000
342.258698	145.280000
342.352081	145.860000
342.445496	146.300000
342.538879	146.160000
342.632324	145.780000
342.725708	145.800000
342.819122	145.020000
342.912506	144.240000
343.005920	144.260000
343.099335	145.000000
343.192719	144.700000
343.286133	145.000000
343.379547	145.640000
343.472931	145.520000
343.566345	144.780000
343.659760	145.420000
343.753143	145.200000
343.846558	144.760000
343.939972	144.960000
344.033386	145.520000
344.126770	145.200000
344.220184	145.660000
344.313599	146.020000
344.407043	146.000000
344.500427	145.500000
344.593872	145.540000
344.687225	145.060000
344.780670	144.780000
344.874054	144.380000
344.967499	144.740000
345.060913	144.860000
345.154327	144.780000
345.247742	144.540000
345.341156	144.600000
345.434570	144.120000
345.527985	143.980000
345.621399	144.420000
345.714813	144.480000
345.808228	144.720000
345.901642	144.640000
345.995056	144.080000
346.088470	144.160000
346.181885	144.420000
346.275299	144.180000
346.368713	144.540000
346.462128	144.840000
346.555573	144.880000
346.648987	144.980000
346.742401	145.200000
346.835815	145.340000
346.929260	145.020000
347.022644	145.180000
347.116119	145.100000
347.209503	145.420000
347.302948	146.280000
347.396362	147.160000
347.489807	147.340000
347.583221	148.180000
347.676636	147.500000
347.770050	146.060000
347.863495	145.260000
347.956909	144.580000
348.050323	143.480000
348.143768	144.020000
348.237183	144.160000
348.330597	144.780000
348.424042	145.520000
348.517456	145.740000
348.610901	145.640000
348.704315	145.680000
348.797760	145.220000
348.891174	144.520000
348.984619	144.140000
349.078033	144.460000
349.171448	145.320000
349.264923	145.400000
349.358337	145.460000
349.451782	145.720000
349.545197	145.000000
349.638641	144.020000
349.732086	143.620000
349.825500	144.140000
349.918945	143.640000
350.012390	144.240000
350.105804	144.780000
350.199249	145.180000
350.292664	145.300000
350.386108	146.120000
350.479553	146.240000
350.572968	146.180000
350.666412	146.260000
350.759857	145.960000
350.853302	146.180000
350.946716	145.740000
351.040161	145.520000
351.133606	145.580000
351.227081	145.500000
351.320465	145.720000
351.413940	146.080000
351.507355	146.620000
351.600830	146.640000
351.694244	146.360000
351.787720	145.840000
351.881104	145.660000
351.974579	145.480000
352.067993	146.180000
352.161469	146.140000
352.254883	145.480000
352.348358	145.440000
352.441803	144.880000
352.535248	144.180000
352.628693	144.820000
352.722137	145.000000
352.815582	145.040000
352.909027	145.340000
353.002472	145.120000
353.095917	144.740000
353.189362	145.260000
353.282806	144.840000
353.376251	144.540000
353.469696	144.300000
353.563141	144.680000
353.656586	144.320000
353.750061	144.340000
353.843475	144.420000
353.936981	144.980000
354.030396	144.520000
354.123871	144.320000
354.217285	145.160000
354.310760	145.660000
354.404175	145.580000
354.497681	145.340000
354.591095	145.640000
354.684570	144.580000
354.777985	144.040000
354.871490	143.780000
354.964935	144.420000
355.058380	144.600000
355.151855	144.820000
355.245300	145.660000
355.338745	146.040000
355.432220	145.620000
355.525665	145.260000
355.619110	145.680000
355.712585	145.180000
355.806030	144.820000
355.899475	144.680000
355.992950	144.880000
356.086426	144.940000
356.179871	144.860000
356.273346	145.280000
356.366791	145.740000
356.460266	146.160000
356.553711	146.020000
356.647186	145.980000
356.740631	145.740000
356.834106	145.620000
356.927551	145.380000
357.021027	145.180000
357.114471	145.440000
357.207947	145.320000
357.301422	145.360000
357.394867	145.260000
357.488342	145.660000
357.581818	145.800000
357.675262	146.160000
357.768738	145.800000
357.862213	145.340000
357.955658	145.200000
358.049133	144.900000
358.142609	145.020000
358.236053	145.320000
358.329529	145.660000
358.423035	145.840000
358.516449	145.540000
358.609955	145.700000
358.703400	146.000000
358.796906	146.160000
358.890350	145.380000
358.983826	145.820000
359.077271	145.040000
359.170776	144.620000
359.264221	144.220000
359.357727	144.600000
359.451172	144.820000
359.544647	145.280000
359.638123	145.340000
359.731598	145.740000
359.825073	145.960000
359.918549	145.680000
360.012024	145.600000
360.105499	145.340000
360.198975	145.340000
360.292450	145.300000
360.385925	145.060000
360.479401	144.620000
360.572876	144.620000
360.666351	144.760000
360.759857	144.620000
360.853302	144.640000
360.946808	144.660000
361.040253	145.080000
361.133759	144.720000
361.227203	145.040000
361.320709	144.940000
361.414154	145.500000
361.507660	145.820000
361.601105	146.300000
361.694641	146.480000
361.788086	146.680000
361.881592	147.080000
361.975067	146.600000
362.068542	146.920000
362.162018	146.660000
362.255524	146.140000
362.348999	145.680000
362.442474	145.920000
362.535950	144.940000
362.629456	144.900000
362.722931	145.400000
362.816406	145.880000
362.909882	146.240000
363.003387	146.460000
363.096863	146.940000
363.190338	146.840000
363.283875	146.260000
363.377319	145.980000
363.470825	146.440000
363.564301	145.560000
363.657806	145.940000
363.751282	145.580000
363.844788	146.080000
363.938232	145.620000
364.031769	146.480000
364.125214	146.080000
364.218750	146.780000
364.312225	145.420000
364.405731	145.560000
364.499207	144.720000
364.592712	144.500000
364.686188	144.220000
364.779694	144.800000
364.873169	144.620000
364.966675	144.740000
365.060150	144.940000
365.153656	145.280000
365.247131	145.160000
365.340637	145.240000
365.434143	145.940000
365.527618	146.120000
365.621155	145.240000
365.714600	145.040000
365.808136	145.360000
365.901611	144.320000
365.995117	144.500000
366.088593	144.880000
366.182129	144.880000
366.275604	144.660000
366.369110	145.140000
366.462585	144.780000
366.556122	145.320000
366.649567	145.620000
366.743103	145.940000
366.836609	145.840000
366.930115	146.380000
367.023590	146.060000
367.117096	146.140000
367.210602	145.900000
367.304108	146.720000
367.397614	146.840000
367.491119	146.800000
367.584595	146.760000
367.678101	147.000000
367.771606	146.300000
367.865112	145.480000
367.958649	145.080000
368.052124	144.960000
368.145660	144.640000
368.239136	144.940000
368.332672	145.420000
368.426147	145.780000
368.519684	145.780000
368.613159	146.060000
368.706696	145.720000
368.800171	145.740000
368.893707	145.540000
368.987183	145.160000
369.080719	145.220000
369.174225	145.220000
369.267731	145.340000
369.361237	145.480000
369.454742	145.780000
369.548248	145.860000
369.641754	145.680000
369.735260	145.460000
369.828766	145.000000
369.922272	145.900000
370.015808	145.400000
370.109314	145.480000
370.202820	145.300000
370.296356	146.440000
370.389832	145.460000
370.483368	145.240000
370.576874	145.040000
370.670410	145.020000
370.763885	143.660000
370.857422	143.560000
370.950928	143.760000
371.044464	144.620000
371.137939	144.880000
371.231476	145.680000
371.324982	146.460000
371.418518	146.580000
371.512024	146.180000
371.605560	146.100000
371.699066	146.080000
371.792572	145.440000
371.886108	146.000000
371.979614	145.980000
372.073120	146.320000
372.166656	146.080000
372.260162	146.540000
372.353668	145.640000
372.447205	145.520000
372.540710	145.100000
372.634277	144.940000
372.727753	144.820000
372.821320	145.280000
372.914795	145.260000
373.008362	145.200000
373.101837	145.800000
373.195404	145.480000
373.288879	145.300000
373.382446	146.040000
373.475922	146.160000
373.569489	146.300000
373.662964	147.000000
373.756531	146.940000
373.850037	146.620000
373.943573	146.540000
374.037109	145.760000
374.130615	145.500000
374.224152	145.600000
374.317657	145.200000
374.411194	145.820000
374.504730	146.000000
374.598236	145.760000
374.691772	145.840000
374.785309	145.980000
374.878815	145.200000
374.972351	145.600000
375.065887	145.800000
375.159454	146.440000
375.252930	146.240000
375.346497	146.800000
375.440002	147.140000
375.533569	146.900000
375.627045	145.860000
375.720612	145.960000
375.814117	146.160000
375.907684	145.420000
376.001160	144.980000
376.094727	144.820000
376.188232	145.440000
376.281799	145.120000
376.375336	145.400000
376.468872	146.260000
376.562408	146.740000
376.655914	146.160000
376.749451	146.000000
376.842987	146.120000
376.936523	145.640000
377.030060	145.560000
377.123596	145.840000
377.217133	145.560000
377.310669	145.440000
377.404205	145.660000
377.497772	146.380000
377.591278	146.000000
377.684845	147.160000
377.778351	147.540000
377.871918	147.640000
377.965424	146.540000
378.058990	146.580000
378.152496	145.900000
378.246063	145.800000
378.339569	145.640000
378.433136	146.000000
378.526642	146.180000
378.620209	146.180000
378.713745	145.640000
378.807312	146.120000
378.900848	146.120000
378.994385	146.080000
379.087921	145.200000
379.181458	145.700000
379.274994	144.680000
379.368530	144.580000
379.462097	144.820000
379.555634	145.440000
379.649170	144.480000
379.742706	144.980000
379.836273	145.280000
379.929810	144.860000
380.023376	144.780000
380.116882	144.940000
380.210449	144.740000
380.303986	144.260000
380.397552	143.900000
380.491058	144.180000
380.584656	144.420000
380.678162	144.800000
380.771729	144.960000
380.865265	146.120000
380.958832	146.220000
381.052368	146.680000
381.145935	146.820000
381.239471	147.160000
381.333008	146.260000
381.426575	146.160000
381.520111	146.160000
381.613647	146.360000
381.707214	146.060000
381.800751	145.960000
381.894318	145.940000
381.987854	145.240000
382.081421	144.800000
382.174988	145.140000
382.268524	145.220000
382.362091	145.300000
382.455627	146.260000
382.549194	145.800000
382.642731	145.260000
382.736298	145.200000
382.829834	144.740000
382.923401	144.940000
383.016937	145.520000
383.110504	145.940000
383.204041	146.080000
383.297607	146.500000
383.391174	145.520000
383.484741	145.860000
383.578278	145.420000
383.671844	145.080000
383.765411	144.560000
383.858948	145.180000
383.952515	144.820000
384.046051	145.400000
384.139618	145.900000
384.233185	146.140000
384.326721	145.940000
384.420288	146.300000
384.513855	146.160000
384.607422	146.260000
384.700989	146.500000
384.794525	146.160000
384.888123	145.820000
384.981659	145.840000
385.075226	145.300000
385.168762	144.920000
385.262360	145.060000
385.355896	144.500000
385.449463	144.420000
385.542999	144.540000
385.636597	145.100000
385.730164	145.260000
385.823730	145.240000
385.917267	145.020000
386.010834	145.080000
386.104401	145.080000
386.197968	145.160000
386.291534	145.460000
386.385101	145.540000
386.478668	145.860000
386.572235	145.460000
386.665802	144.800000
386.759338	144.500000
386.852905	144.360000
386.946472	144.100000
387.040070	144.400000
387.133606	144.820000
387.227203	145.000000
387.320740	145.200000
387.414337	145.100000
387.507874	144.620000
387.601471	144.740000
387.695007	144.580000
387.788605	144.020000
387.882141	144.280000
387.975739	144.700000
388.069275	144.480000
388.162872	144.860000
388.256439	145.340000
388.350037	145.280000
388.443604	145.300000
388.537170	145.300000
388.630737	145.820000
388.724304	145.920000
388.817871	145.820000
388.911438	145.660000
389.005005	146.040000
389.098602	146.000000
389.192169	145.600000
389.285736	146.100000
389.379333	146.080000
389.472870	145.360000
389.566467	145.020000
389.660034	145.400000
389.753632	144.660000
389.847168	145.080000
389.940765	145.220000
390.034332	145.140000
390.127930	144.680000
390.221466	144.700000
390.315063	144.000000
390.408630	143.780000
390.502228	143.020000
390.595795	143.320000
390.689362	143.760000
390.782959	144.560000
390.876526	145.040000
390.970093	145.360000
391.063690	145.960000
391.157257	145.780000
391.250824	145.380000
391.344421	145.240000
391.437988	145.820000
391.531555	145.540000
391.625153	145.580000
391.718750	145.800000
391.812317	145.700000
391.905914	145.300000
391.999481	145.440000
392.093079	145.740000
392.186615	146.120000
392.280243	146.480000
392.373779	146.820000
392.467407	147.100000
392.560944	146.640000
392.654572	145.840000
392.748108	145.520000
392.841736	145.440000
392.935303	144.660000
393.028900	144.580000
393.122467	144.680000
393.216064	144.360000
393.309631	143.720000
393.403229	143.440000
393.496796	143.300000
393.590393	142.660000
393.683990	143.000000
393.777557	143.740000
393.871155	144.280000
393.964722	144.760000
394.058350	145.340000
394.151917	145.380000
394.245514	144.920000
394.339081	145.080000
394.432678	145.000000
394.526245	145.060000
394.619873	144.520000
394.713409	144.760000
394.807037	144.300000
394.900604	144.640000
394.994202	144.640000
395.087769	145.200000
395.181396	144.640000
395.274994	145.820000
395.368561	144.660000
395.462158	144.920000
395.555756	144.760000
395.649353	145.660000
395.742920	144.440000
395.836517	145.560000
395.930115	144.620000
396.023712	145.040000
396.117279	144.960000
396.210876	144.880000
396.304474	144.720000
396.398071	145.340000
396.491669	145.400000
396.585266	144.880000
396.678833	145.060000
396.772461	145.260000
396.866028	145.240000
396.959656	145.380000
397.053223	146.160000
397.146851	146.260000
397.240417	146.580000
397.334015	147.860000
397.427582	148.080000
397.521210	148.760000
397.614807	150.860000
397.708405	152.580000
397.802002	154.620000
397.895599	158.140000
397.989197	161.900000
398.082794	166.000000
398.176392	171.980000
398.269989	178.600000
398.363586	186.980000
398.457184	197.480000
398.550781	210.400000
398.644379	223.440000
398.737976	238.720000
398.831573	254.580000
398.925201	271.300000
399.018768	288.000000
399.112396	305.800000
399.205963	322.980000
399.299591	339.820000
399.393158	356.060000
399.486786	372.480000
399.580353	387.640000
399.673981	402.840000
399.767578	419.900000
399.861206	437.280000
399.954773	453.020000
400.048401	467.240000
400.141998	477.500000
400.235596	482.480000
400.329193	480.940000
400.422791	474.480000
400.516418	462.600000
400.610016	449.460000
400.703613	434.680000
400.797211	416.980000
400.890808	399.580000
400.984436	382.840000
401.078033	363.840000
401.171631	343.400000
401.265259	324.240000
401.358826	305.100000
401.452484	286.080000
401.546051	268.440000
401.639679	250.580000
401.733246	234.620000
401.826904	218.140000
401.920471	203.580000
402.014099	190.740000
402.107697	180.720000
402.201324	172.500000
402.294891	166.540000
402.388550	161.860000
402.482147	158.140000
402.575745	154.480000
402.669373	151.540000
402.762970	149.440000
402.856567	148.120000
402.950195	147.280000
403.043793	146.920000
403.137390	147.340000
403.231018	146.400000
403.324615	146.640000
403.418243	146.120000
403.511841	146.360000
403.605469	145.720000
403.699066	146.480000
403.792694	146.380000
403.886292	146.500000
403.979919	146.660000
404.073517	146.700000
404.167145	146.940000
404.260712	146.660000
404.354370	146.440000
404.447937	146.380000
404.541595	146.180000
404.635162	146.120000
404.728821	146.440000
404.822418	145.920000
404.916046	145.680000
405.009644	146.180000
405.103271	146.240000
405.196899	145.600000
405.290497	146.020000
405.384125	146.380000
405.477722	145.880000
405.571350	145.460000
405.664948	145.960000
405.758575	145.660000
405.852203	144.740000
405.945801	144.880000
406.039429	144.880000
406.133057	144.400000
406.226654	144.580000
406.320312	144.940000
406.413879	144.800000
406.507538	144.660000
406.601135	144.320000
406.694763	144.820000
406.788361	144.560000
406.882019	144.180000
406.975586	144.840000
407.069244	145.680000
407.162872	145.300000
407.256470	145.080000
407.350098	145.360000
407.443726	144.540000
407.537323	144.060000
407.630951	144.460000
407.724579	144.400000
407.818207	144.760000
407.911804	144.820000
408.005432	144.560000
408.099060	144.440000
408.192688	145.100000
408.286285	144.920000
408.379913	144.980000
408.473572	145.400000
408.567169	144.880000
408.660828	144.560000
408.754395	144.460000
408.848053	144.480000
408.941650	144.220000
409.035309	144.240000
409.128906	144.460000
409.222565	144.620000
409.316132	144.960000
409.409790	144.640000
409.503387	144.820000
409.597046	144.920000
409.690674	145.000000
409.784302	144.980000
409.877930	145.280000
409.971558	145.180000
410.065186	144.840000
410.158783	144.620000
410.252411	144.300000
410.346039	144.580000
410.439667	144.820000
410.533295	145.120000
410.626923	145.160000
410.720551	145.140000
410.814209	145.420000
410.907806	145.380000
411.001465	144.900000
411.095062	144.820000
411.188721	145.100000
411.282318	144.560000
411.375977	144.340000
411.469574	144.800000
411.563232	144.580000
411.656830	144.380000
411.750488	144.480000
411.844086	144.180000
411.937744	144.440000
412.031372	144.480000
412.125000	144.720000
412.218628	144.740000
412.312256	145.680000
412.405884	145.940000
412.499512	146.020000
412.593170	146.180000
412.686798	146.280000
412.780426	145.460000
412.874054	145.280000
412.967682	145.460000
413.061310	145.680000
413.154968	145.880000
413.248566	146.220000
413.342224	145.880000
413.435852	146.080000
413.529510	145.660000
413.623108	144.760000
413.716766	144.640000
413.810364	144.900000
413.904022	144.180000
413.997650	143.980000
414.091309	145.020000
414.184906	144.800000
414.278564	144.360000
414.372192	145.020000
414.465851	145.140000
414.559479	144.860000
414.653107	145.780000
414.746735	145.680000
414.840393	145.700000
414.934021	146.160000
415.027649	145.840000
415.121277	145.700000
415.214935	146.140000
415.308563	145.960000
415.402191	145.100000
415.495850	145.020000
415.589478	144.500000
415.683136	143.840000
415.776733	144.020000
415.870422	144.520000
415.964020	144.080000
416.057678	144.320000
416.151306	144.820000
416.244965	144.700000
416.338562	144.860000
416.432251	145.760000
416.525848	146.140000
416.619507	146.800000
416.713165	147.200000
416.806793	146.980000
416.900421	146.960000
416.994080	146.320000
417.087708	145.800000
417.181366	145.200000
417.274994	145.260000
417.368622	145.400000
417.462280	145.800000
417.555908	145.560000
417.649567	145.680000
417.743195	145.760000
417.836853	145.500000
417.930481	145.780000
418.024170	145.840000
418.117767	146.340000
418.211426	146.480000
418.305054	146.960000
418.398712	146.200000
418.492340	146.160000
418.585999	146.160000
418.679626	146.080000
418.773285	145.820000
418.866913	146.400000
418.960571	146.740000
419.054230	146.140000
419.147858	146.000000
419.241516	146.060000
419.335144	145.840000
419.428802	145.540000
419.522461	145.400000
419.616089	145.100000
419.709747	145.340000
419.803375	145.260000
419.897034	145.080000
419.990662	145.240000
420.084320	145.920000
420.177979	145.780000
420.271606	145.860000
420.365295	146.420000
420.458893	146.700000
420.552582	146.440000
420.646210	146.140000
420.739868	145.880000
420.833496	145.460000
420.927155	144.960000
421.020782	144.520000
421.114471	144.040000
421.208069	144.060000
421.301758	144.500000
421.395386	144.800000
421.489044	144.920000
421.582703	145.140000
421.676361	145.700000
421.769989	144.980000
421.863647	145.680000
421.957306	146.140000
422.050934	146.520000
422.144592	146.240000
422.238251	146.000000
422.331909	145.380000
422.425537	145.040000
422.519196	145.060000
422.612854	144.960000
422.706543	145.120000
422.800140	145.260000
422.893829	145.020000
422.987457	144.600000
423.081146	144.760000
423.174744	145.540000
423.268433	145.020000
423.362061	145.020000
423.455750	145.160000
423.549347	145.080000
423.643036	144.440000
423.736664	145.300000
423.830353	145.300000
423.924011	145.760000
424.017639	145.180000
424.111298	145.020000
424.204956	144.580000
424.298615	144.940000
424.392273	144.740000
424.485931	144.820000
424.579559	145.240000
424.673218	145.140000
424.766876	145.260000
424.860535	144.480000
424.954193	144.680000
425.047882	144.900000
425.141510	144.820000
425.235199	144.660000
425.328796	145.020000
425.422485	145.040000
425.516113	144.800000
425.609802	145.200000
425.703430	145.340000
425.797119	145.400000
425.890747	145.560000
425.984436	145.320000
426.078064	145.340000
426.171753	144.900000
426.265411	144.740000
426.359070	144.740000
426.452728	144.680000
426.546356	144.400000
426.640015	144.480000
426.733673	144.500000
426.827332	144.160000
426.920990	144.980000
427.014648	144.740000
427.108307	145.060000
427.201965	145.680000
427.295624	146.180000
427.389282	145.500000
427.482941	145.660000
427.576630	145.520000
427.670258	144.700000
427.763947	144.240000
427.857574	144.440000
427.951263	144.180000
428.044922	143.940000
428.138611	144.340000
428.232239	144.820000
428.325928	145.220000
428.419556	146.100000
428.513245	145.840000
428.606903	145.960000
428.700562	145.420000
428.794220	144.580000
428.887878	143.600000
428.981537	144.200000
429.075195	144.120000
429.168854	144.760000
429.262512	145.020000
429.356201	145.520000
429.449860	145.200000
429.543518	145.100000
429.637177	144.760000
429.730835	144.880000
429.824493	144.800000
429.918182	145.080000
430.011810	144.720000
430.105530	144.420000
430.199158	144.800000
430.292847	144.720000
430.386475	144.400000
430.480164	144.440000
430.573792	144.420000
430.667511	143.940000
430.761139	143.920000
430.854828	144.300000
430.948456	144.360000
431.042145	145.060000
431.135834	144.740000
431.229492	144.860000
431.323151	144.840000
431.416809	144.860000
431.510468	144.400000
431.604156	144.380000
431.697815	144.380000
431.791473	144.200000
431.885132	143.800000
431.978821	144.140000
432.072479	144.880000
432.166138	145.320000
432.259827	145.180000
432.353485	146.040000
432.447174	145.960000
432.540802	145.460000
432.634491	145.420000
432.728149	145.640000
432.821838	145.940000
432.915466	145.840000
433.009186	145.920000
433.102814	144.900000
433.196503	144.680000
433.290131	144.420000
433.383850	144.460000
433.477509	144.520000
433.571167	145.940000
433.664856	146.260000
433.758514	146.440000
433.852173	146.380000
433.945862	146.240000
434.039520	145.440000
434.133179	145.120000
434.226868	144.680000
434.320526	144.180000
434.414185	144.660000
434.507874	144.600000
434.601562	145.200000
434.695221	144.880000
434.788910	145.340000
434.882538	145.380000
434.976257	145.160000
435.069885	144.660000
435.163574	145.140000
435.257233	144.620000
435.350922	144.460000
435.444580	144.220000
435.538269	144.180000
435.631897	144.220000
435.725616	145.100000
435.819275	145.480000
435.912964	146.240000
436.006622	146.680000
436.100311	146.660000
436.193970	145.540000
436.287628	145.160000
436.381317	145.000000
436.474976	144.460000
436.568665	144.060000
436.662323	144.820000
436.756012	144.500000
436.849670	144.200000
436.943390	144.220000
437.037018	144.360000
437.130737	144.360000
437.224365	144.380000
437.318085	144.600000
437.411713	144.720000
437.505432	144.780000
437.599060	144.940000
437.692780	145.680000
437.786407	145.540000
437.880127	145.740000
437.973755	145.620000
438.067474	145.060000
438.161133	144.700000
438.254822	145.040000
438.348480	144.800000
438.442169	145.400000
438.535828	146.160000
438.629517	145.500000
438.723175	144.960000
438.816864	145.340000
438.910553	144.820000
439.004211	144.360000
439.097900	144.300000
439.191559	144.300000
439.285248	143.820000
439.378906	144.200000
439.472626	144.020000
439.566284	144.120000
439.659973	144.620000
439.753632	144.400000
439.847321	144.660000
439.940979	144.960000
440.034698	145.220000
440.128326	144.700000
440.222046	144.940000
440.315674	144.040000
440.409393	143.980000
440.503082	143.780000
440.596741	144.240000
440.690430	144.360000
440.784088	144.640000
440.877777	144.180000
440.971466	144.540000
441.065125	144.340000
441.158813	144.080000
441.252502	144.220000
441.346161	144.860000
441.439850	144.780000
441.533539	144.400000
441.627197	144.840000
441.720886	144.560000
441.814606	144.800000
441.908234	145.080000
442.001953	145.280000
442.095612	145.160000
442.189301	145.260000
442.282959	145.180000
442.376678	144.480000
442.470306	145.440000
442.564026	145.040000
442.657684	145.260000
442.751404	145.180000
442.845032	146.400000
442.938751	145.160000
443.032440	145.440000
443.126099	145.060000
443.219788	145.180000
443.313477	144.720000
443.407166	145.280000
443.500824	145.560000
443.594513	145.900000
443.688202	145.440000
443.781891	144.720000
443.875549	144.540000
443.969238	144.480000
444.062927	144.600000
444.156647	144.760000
444.250275	145.400000
444.343994	145.600000
444.437653	145.480000
444.531372	145.240000
444.625031	145.020000
444.718719	144.560000
444.812378	144.520000
444.906097	144.520000
444.999756	144.060000
445.093445	144.360000
445.187103	144.320000
445.280823	144.700000
445.374512	144.180000
445.468201	144.520000
445.561859	144.360000
445.655548	144.620000
445.749237	144.160000
445.842926	144.440000
445.936615	144.620000
446.030304	144.160000
446.123962	144.500000
446.217651	144.100000
446.311340	144.100000
446.405029	143.660000
446.498749	144.000000
446.592407	143.700000
446.686096	144.140000
446.779755	144.340000
446.873474	144.980000
446.967133	145.000000
447.060852	144.780000
447.154510	144.800000
447.248230	144.980000
447.341858	144.520000
447.435577	144.260000
447.529236	143.900000
447.622955	143.500000
447.716644	143.400000
447.810333	143.660000
447.904022	144.200000
447.997711	144.720000
448.091400	145.380000
448.185059	145.220000
448.278748	145.540000
448.372437	145.100000
448.466125	145.100000
448.559814	144.860000
448.653503	145.440000
448.747192	145.420000
448.840912	146.200000
448.934570	146.220000
449.028290	146.500000
449.121948	145.760000
449.215637	145.400000
449.309296	144.640000
449.403015	144.520000
449.496674	144.420000
449.590393	144.640000
449.684052	144.340000
449.777771	145.360000
449.871429	144.900000
449.965149	144.640000
450.058838	144.960000
450.152527	145.620000
450.246216	145.040000
450.339905	145.780000
450.433594	145.600000
450.527283	146.100000
450.620972	145.840000
450.714661	145.640000
450.808350	145.540000
450.902039	146.000000
450.995728	145.340000
451.089417	144.900000
451.183105	144.960000
451.276794	145.180000
451.370514	144.280000
451.464172	143.560000
451.557892	143.560000
451.651550	143.860000
451.745270	143.380000
451.838928	143.300000
451.932648	144.060000
452.026306	144.840000
452.120026	144.280000
452.213684	144.820000
452.307404	145.680000
452.401062	145.740000
452.494781	145.540000
452.588470	145.720000
452.682159	145.220000
452.775848	145.280000
452.869537	144.780000
452.963226	144.500000
453.056915	144.460000
453.150604	144.400000
453.244293	144.320000
453.337982	144.960000
453.431671	145.320000
453.525360	145.980000
453.619049	146.180000
453.712769	146.040000
453.806427	145.640000
453.900146	145.140000
453.993805	144.440000
454.087555	144.760000
454.181213	144.640000
454.274933	144.480000
454.368591	144.660000
454.462311	144.660000
454.555969	144.140000
454.649689	145.280000
454.743347	145.140000
454.837067	145.620000
454.930756	146.240000
455.024445	146.380000
455.118134	145.680000
455.211853	145.980000
455.305542	145.520000
455.399231	145.080000
455.492920	145.060000
455.586609	145.040000
455.680298	145.220000
455.773987	144.700000
455.867676	144.700000
455.961365	145.120000
456.055084	144.820000
456.148773	144.440000
456.242493	145.120000
456.336151	145.260000
456.429871	145.140000
456.523529	145.700000
456.617249	145.560000
456.710907	146.020000
456.804626	146.120000
456.898315	145.660000
456.992035	145.080000
457.085693	145.180000
457.179413	144.060000
457.273102	144.680000
457.366791	144.820000
457.460480	145.200000
457.554199	145.940000
457.647888	146.380000
457.741577	145.740000
457.835266	145.900000
457.928955	145.800000
458.022644	145.420000
458.116364	145.760000
458.210052	145.740000
458.303741	145.720000
458.397461	145.060000
458.491119	144.620000
458.584839	144.440000
458.678528	144.020000
458.772247	143.820000
458.865906	144.140000
458.959625	145.060000
459.053284	145.160000
459.147003	145.160000
459.240692	145.740000
459.334412	145.960000
459.428070	145.420000
459.521790	145.300000
459.615479	145.200000
459.709198	145.660000
459.802887	145.260000
459.896576	145.180000
459.990265	145.140000
460.083954	145.560000
460.177673	144.700000
460.271362	144.800000
460.365051	144.760000
460.458740	144.640000
460.552429	144.040000
460.646149	143.800000
460.739838	143.500000
460.833527	143.800000
460.927246	143.060000
461.020905	143.040000
461.114655	143.300000
461.208313	143.880000
461.302032	143.360000
461.395691	144.400000
461.489441	144.720000
461.583099	144.500000
461.676819	144.100000
461.770477	144.480000
461.864197	144.140000
461.957916	144.000000
462.051605	143.760000
462.145294	144.660000
462.238983	144.480000
462.332703	144.980000
462.426392	145.920000
462.520081	146.120000
462.613770	145.300000
462.707489	145.400000
462.801178	144.740000
462.894867	144.120000
462.988556	144.400000
463.082275	144.760000
463.175964	144.400000
463.269684	144.940000
463.363342	144.840000
463.457092	144.360000
463.550751	144.700000
463.644470	145.000000
463.738129	144.720000
463.831879	145.200000
463.925537	145.940000
464.019257	145.840000
464.112946	145.840000
464.206665	145.320000
464.300323	144.980000
464.394043	144.420000
464.487762	144.200000
464.581451	144.840000
464.675140	145.400000
464.768829	145.380000
464.862549	145.720000
464.956238	145.980000
465.049927	145.800000
465.143646	146.120000
465.237335	146.040000
465.331024	146.460000
465.424713	146.200000
465.518433	145.840000
465.612152	145.160000
465.705811	145.200000
465.799561	144.660000
465.893219	144.340000
465.986938	144.340000
466.080597	144.380000
466.174347	144.640000
466.268005	144.760000
466.361725	145.080000
466.455414	144.840000
466.549133	144.960000
466.642792	144.920000
466.736542	144.520000
466.830231	144.400000
466.923920	144.640000
467.017609	144.540000
467.111328	144.180000
467.205017	144.440000
467.298706	144.380000
467.392426	144.460000
467.486115	145.080000
467.579803	144.860000
467.673523	144.960000
467.767212	145.300000
467.860901	145.220000
467.954651	145.160000
468.048309	145.420000
468.142029	145.180000
468.235718	145.160000
468.329437	145.080000
468.423096	144.760000
468.516846	144.940000
468.610504	145.040000
468.704224	144.440000
468.797913	144.440000
468.891632	144.660000
468.985291	144.440000
469.079010	144.440000
469.172729	144.280000
469.266418	144.680000
469.360107	144.480000
469.453827	144.740000
469.547516	144.820000
469.641205	145.540000
469.734924	145.620000
469.828613	145.920000
469.922302	145.680000
470.016022	145.700000
470.109711	145.460000
470.203430	144.720000
470.297150	144.040000
470.390808	144.140000
470.484558	144.200000
470.578217	144.800000
470.671936	145.500000
470.765625	146.220000
470.859344	146.280000
470.953003	146.480000
471.046753	145.940000
471.140411	145.140000
471.234131	145.200000
471.327820	145.760000
471.421539	145.780000
471.515228	145.420000
471.608948	145.680000
471.702637	145.560000
471.796326	144.800000
471.890045	145.000000
471.983734	145.360000
472.077423	145.080000
472.171143	144.800000
472.264832	144.900000
472.358521	144.520000
472.452240	144.120000
472.545929	144.840000
472.639648	144.920000
472.733337	145.200000
472.827057	145.380000
472.920746	145.700000
473.014465	146.080000
473.108124	145.980000
473.201874	146.180000
473.295532	145.980000
473.389252	146.620000
473.482941	146.540000
473.576660	145.960000
473.670319	145.540000
473.764069	145.880000
473.857727	145.580000
473.951477	145.440000
474.045166	146.560000
474.138855	146.160000
474.232574	145.840000
474.326263	145.700000
474.419952	145.400000
474.513672	145.080000
474.607361	145.380000
474.701050	145.500000
474.794769	145.800000
474.888458	146.220000
474.982178	146.400000
475.075867	146.540000
475.169586	146.280000
475.263275	145.820000
475.356995	145.280000
475.450653	144.780000
475.544403	144.200000
475.638062	144.880000
475.731812	144.580000
475.825470	144.660000
475.919189	144.740000
476.012878	145.160000
476.106598	144.480000
476.200256	145.200000
476.294006	145.060000
476.387695	145.400000
476.481384	145.400000
476.575104	145.220000
476.668793	144.740000
476.762512	144.620000
476.856201	145.080000
476.949890	145.080000
477.043610	145.080000
477.137299	145.140000
477.230988	145.480000
477.324707	144.680000
477.418396	145.100000
477.512146	145.260000
477.605804	145.140000
477.699524	145.040000
477.793213	145.180000
477.886932	144.720000
477.980591	144.780000
478.074341	144.540000
478.167999	144.420000
478.261749	144.480000
478.355408	144.600000
478.449127	144.860000
478.542816	145.900000
478.636536	146.360000
478.730225	146.760000
478.823944	146.900000
478.917633	146.780000
479.011322	146.540000
479.105042	146.280000
479.198730	145.800000
479.292450	145.660000
479.386139	145.700000
479.479828	145.620000
479.573547	145.780000
479.667267	145.400000
479.760925	145.400000
479.854675	145.560000
479.948334	145.440000
480.042084	144.980000
480.135742	145.500000
480.229462	145.000000
480.323151	144.820000
480.416870	144.180000
480.510529	144.540000
480.604279	143.940000
480.697937	144.380000
480.791656	143.940000
480.885345	143.940000
480.979065	143.720000
481.072754	144.520000
481.166473	144.840000
481.260132	144.900000
481.353882	145.380000
481.447540	145.380000
481.541260	145.220000
481.635010	144.740000
481.728668	145.040000
481.822388	144.760000
481.916077	144.860000
482.009796	144.880000
482.103485	145.560000
482.197205	145.680000
482.290863	146.060000
482.384613	145.960000
482.478271	145.520000
482.571991	145.080000
482.665680	144.820000
482.759399	145.340000
482.853058	145.840000
482.946808	146.100000
483.040466	145.840000
483.134216	145.620000
483.227875	145.020000
483.321594	145.240000
483.415283	145.160000
483.509003	145.440000
483.602661	145.480000
483.696411	145.900000
483.790070	145.360000
483.883789	145.200000
483.977478	145.400000
484.071198	145.640000
484.164917	145.040000
484.258606	144.600000
484.352325	145.300000
484.445984	145.120000
484.539734	145.140000
484.633392	144.860000
484.727142	145.720000
484.820801	145.120000
484.914520	145.180000
485.008209	145.240000
485.101929	145.800000
485.195587	145.240000
485.289337	145.160000
485.382996	145.000000
485.476715	144.920000
485.570404	145.180000
485.664124	145.100000
485.757782	146.060000
485.851532	145.860000
485.945190	145.900000
486.038910	145.640000
486.132599	146.060000
486.226318	145.240000
486.319977	145.380000
486.413727	145.740000
486.507446	145.100000
486.601105	144.660000
486.694855	144.640000
486.788513	144.520000
486.882233	144.180000
486.975922	144.600000
487.069641	144.700000
487.163300	144.500000
487.257050	145.620000
487.350708	145.080000
487.444427	145.080000
487.538116	144.860000
487.631836	144.900000
487.725494	144.220000
487.819214	144.700000
487.912903	144.560000
488.006622	144.960000
488.100281	145.380000
488.194031	145.460000
488.287689	145.780000
488.381409	146.400000
488.475098	146.320000
488.568817	146.160000
488.662476	145.600000
488.756226	144.880000
488.849945	143.960000
488.943604	143.980000
489.037354	144.320000
489.131012	144.520000
489.224731	144.500000
489.318390	144.740000
489.412140	144.740000
489.505798	144.660000
489.599518	144.520000
489.693207	145.300000
489.786926	145.320000
489.880585	145.000000
489.974335	145.200000
490.067993	146.220000
490.161713	146.040000
490.255371	146.920000
490.349121	147.080000
490.442780	146.680000
490.536499	145.760000
490.630188	145.900000
490.723907	144.900000
490.817566	144.960000
490.911285	144.980000
491.004974	144.880000
491.098694	144.300000
491.192413	145.220000
491.286102	145.180000
491.379822	145.420000
491.473480	145.860000
491.567200	145.920000
491.660889	145.300000
491.754608	145.280000
491.848267	144.760000
491.941986	144.320000
492.035675	144.600000
492.129395	144.980000
492.223053	145.200000
492.316772	145.820000
492.410461	146.140000
492.504181	146.000000
492.597839	145.400000
492.691559	145.400000
492.785248	145.060000
492.878967	145.100000
492.972626	144.840000
493.066345	145.400000
493.160034	144.600000
493.253754	144.620000
493.347412	144.220000
493.441132	144.860000
493.534882	144.820000
493.628540	145.620000
493.722260	145.680000
493.815918	146.140000
493.909668	146.060000
494.003326	146.440000
494.097046	146.080000
494.190704	145.860000
494.284454	145.680000
494.378113	145.720000
494.471832	145.320000
494.565491	145.380000
494.659210	145.640000
494.752899	145.820000
494.846619	145.600000
494.940277	145.680000
495.033997	145.700000
495.127686	145.400000
495.221405	145.220000
495.315063	145.020000
495.408783	144.960000
495.502441	145.120000
495.596191	145.120000
495.689850	144.760000
495.783569	145.220000
495.877228	145.180000
495.970947	144.840000
496.064697	145.000000
496.158356	145.940000
496.252075	145.760000
496.345734	145.660000
496.439453	146.780000
496.533142	146.800000
496.626862	146.900000
496.720520	146.900000
496.814240	146.940000
496.907898	146.260000
497.001617	146.180000
497.095306	145.180000
497.189026	145.020000
497.282684	145.260000
497.376404	145.520000
497.470062	145.400000
497.563782	145.660000
497.657471	145.540000
497.751190	144.760000
497.844849	144.400000
497.938568	144.500000
498.032227	144.600000
498.125946	144.920000
498.219635	145.000000
498.313354	145.080000
498.407074	145.040000
498.500732	145.000000
498.594452	145.160000
498.688110	145.180000
498.781830	145.020000
498.875519	145.100000
498.969238	144.980000
499.062897	144.660000
499.156616	145.160000
499.250275	145.220000
499.343994	144.640000
499.437653	144.860000
499.531372	145.300000
499.625061	145.680000
499.718781	146.060000
499.812439	146.700000
499.906158	146.460000
499.999817	146.080000
500.093536	145.400000
500.187195	145.220000
500.280914	145.280000
500.374573	145.520000
500.468323	145.100000
500.561981	145.540000
500.655701	144.920000
500.749420	144.700000
500.843079	144.960000
500.936798	145.280000
501.030457	145.560000
501.124176	146.200000
501.217834	146.180000
501.311554	145.940000
501.405212	145.820000
501.498962	144.720000
501.592621	144.340000
501.686340	144.800000
501.779999	144.780000
501.873718	144.940000
501.967377	145.620000
502.061096	145.900000
502.154755	145.260000
502.248474	145.500000
502.342133	145.560000
502.435852	145.300000
502.529510	145.900000
502.623230	146.600000
502.716888	145.800000
502.810608	145.760000
502.904266	146.440000
502.997986	145.580000
503.091705	144.940000
503.185364	145.140000
503.279083	145.140000
503.372772	144.300000
503.466492	144.080000
503.560150	144.060000
503.653870	144.620000
503.747528	144.660000
503.841248	145.040000
503.934906	145.500000
504.028625	145.400000
504.122284	144.880000
504.216003	145.540000
504.309662	145.100000
504.403381	145.140000
504.497040	145.140000
504.590759	145.500000
504.684418	145.300000
504.778137	146.140000
504.871796	146.460000
504.965515	146.720000
505.059174	146.500000
505.152893	145.780000
505.246521	144.820000
505.340240	144.260000
505.433899	144.420000
505.527618	144.440000
505.621338	144.820000
505.714996	145.140000
505.808716	145.360000
505.902374	145.480000
505.996094	145.660000
506.089752	145.400000
506.183472	145.640000
506.277130	145.580000
506.370850	145.460000
506.464508	145.280000
506.558228	145.300000
506.651886	144.820000
506.745605	144.800000
506.839264	144.860000
506.932983	144.700000
507.026611	144.520000
507.120331	145.300000
507.213989	144.840000
507.307709	144.600000
507.401367	144.960000
507.495087	146.000000
507.588745	145.280000
507.682465	146.380000
507.776123	146.500000
507.869843	146.460000
507.963531	146.040000
508.057190	146.700000
508.150909	145.660000
508.244568	146.180000
508.338287	145.660000
508.431946	145.240000
508.525665	145.040000
508.619324	145.060000
508.713013	144.660000
508.806671	145.420000
508.900391	145.960000
508.994049	146.060000
509.087769	145.900000
509.181427	145.800000
509.275146	145.380000
509.368774	144.660000
509.462494	144.260000
509.556152	144.700000
509.649872	145.220000
509.743530	145.420000
509.837250	145.500000
509.930878	145.740000
510.024597	145.500000
510.118256	145.140000
510.211975	145.020000
510.305695	144.920000
510.399353	145.040000
510.493042	145.480000
510.586700	145.280000
510.680420	145.960000
510.774078	146.180000
510.867798	146.060000
510.961426	145.580000
511.055145	145.680000
511.148804	144.920000
511.242523	145.440000
511.336151	145.460000
511.429871	146.060000
511.523529	145.740000
511.617249	145.740000
511.710876	145.420000
511.804596	145.080000
511.898254	144.800000
511.991974	145.180000
512.085632	145.140000
512.179321	145.000000
512.272949	145.720000
512.366699	146.320000
512.460327	146.340000
512.554077	147.020000
512.647766	147.160000
512.741394	146.660000
512.835144	146.440000
512.928772	146.160000
513.022461	145.720000
513.116150	145.200000
513.209839	145.580000
513.303467	145.220000
513.397217	144.940000
513.490845	144.760000
513.584595	145.080000
513.678223	144.480000
513.771912	144.180000
513.865601	144.420000
513.959290	144.220000
514.052917	144.200000
514.146667	145.020000
514.240295	145.580000
514.333984	146.020000
514.427673	145.840000
514.521362	146.260000
514.614990	145.580000
514.708740	145.540000
514.802368	145.340000
514.896057	145.560000
514.989746	145.800000
515.083435	145.640000
515.177124	145.660000
515.270752	145.500000
515.364502	145.580000
515.458130	145.340000
515.551819	145.500000
515.645508	145.020000
515.739197	144.960000
515.832825	144.980000
515.926575	144.740000
516.020203	144.980000
516.113892	145.680000
516.207520	146.000000
516.301270	146.360000
516.394897	146.260000
516.488586	146.380000
516.582275	146.080000
516.675964	145.360000
516.769592	145.180000
516.863281	146.020000
516.956970	146.460000
517.050659	146.100000
517.144287	146.580000
517.238037	146.600000
517.331665	145.480000
517.425354	144.580000
517.519043	144.640000
517.612732	144.860000
517.706421	144.700000
517.800049	144.680000
517.893738	144.880000
517.987427	145.000000
518.081116	144.640000
518.174744	144.280000
518.268433	145.020000
518.362122	145.440000
518.455811	145.300000
518.549438	145.940000
518.643127	147.160000
518.736816	146.440000
518.830505	145.820000
518.924133	145.960000
519.017822	145.720000
519.111511	145.080000
519.205200	145.880000
519.298828	146.080000
519.392517	145.640000
519.486206	146.020000
519.579895	145.920000
519.673523	145.460000
519.767212	145.280000
519.860901	145.880000
519.954590	145.260000
520.048279	144.920000
520.141907	144.820000
520.235596	145.800000
520.329224	145.940000
520.422974	146.180000
520.516602	146.580000
520.610291	146.580000
520.703918	146.040000
520.797607	145.780000
520.891296	145.780000
520.984985	145.700000
521.078613	146.120000
521.172302	145.480000
521.265930	146.060000
521.359680	146.280000
521.453308	146.200000
521.546997	145.700000
521.640625	146.300000
521.734314	145.600000
521.827942	145.220000
521.921692	145.500000
522.015320	145.900000
522.109009	145.440000
522.202698	145.640000
522.296326	145.600000
522.390015	145.920000
522.483704	145.840000
522.577393	145.980000
522.671021	145.620000
522.764709	145.600000
522.858337	145.660000
522.952026	145.580000
523.045654	146.180000
523.139404	147.000000
523.233032	147.260000
523.326721	146.900000
523.420349	146.860000
523.514038	146.520000
523.607666	146.640000
523.701355	146.100000
523.795044	146.040000
523.888733	146.240000
523.982361	146.480000
524.076050	145.720000
524.169678	146.220000
524.263367	146.120000
524.356995	145.680000
524.450684	145.400000
524.544373	145.580000
524.638062	145.320000
524.731750	145.380000
524.825378	145.480000
524.919067	144.900000
525.012695	144.760000
525.106384	144.240000
525.200012	144.560000
525.293701	144.920000
525.387329	145.780000
525.481018	145.880000
525.574646	146.600000
525.668396	146.380000
525.762024	146.300000
525.855713	146.180000
525.949341	145.620000
526.043030	145.760000
526.136658	145.620000
526.230347	145.620000
526.323975	145.160000
526.417664	145.400000
526.511292	145.340000
526.604980	145.440000
526.698608	145.260000
526.792297	145.540000
526.885925	145.860000
526.979614	145.860000
527.073303	145.560000
527.166931	145.480000
527.260620	145.660000
527.354309	145.680000
527.447998	145.520000
527.541626	145.440000
527.635315	145.660000
527.728943	146.000000
527.822632	146.160000
527.916260	146.180000
528.009949	146.220000
528.103577	145.900000
528.197266	144.820000
528.290894	144.720000
528.384583	144.620000
528.478210	144.780000
528.571899	145.140000
528.665527	145.980000
528.759216	146.260000
528.852844	146.800000
528.946533	147.000000
529.040161	146.940000
529.133850	146.360000
529.227478	146.520000
529.321167	146.360000
529.414856	146.420000
529.508484	146.680000
529.602173	146.720000
529.695801	146.200000
529.789490	146.080000
529.883057	145.800000
529.976746	145.800000
530.070374	146.220000
530.164062	146.460000
530.257690	146.640000
530.351379	147.000000
530.445007	146.820000
530.538696	146.080000
530.632324	146.000000
530.726013	145.700000
530.819641	145.580000
530.913330	145.720000
531.006958	146.200000
531.100647	146.260000
531.194275	146.280000
531.287964	146.240000
531.381592	145.760000
531.475220	146.040000
531.568848	146.020000
531.662537	145.560000
531.756226	145.940000
531.849854	146.080000
531.943542	145.820000
532.037170	145.300000
532.130859	145.920000
532.224487	145.300000
532.318176	145.200000
532.411804	145.420000
532.505432	145.760000
532.599060	145.500000
532.692749	145.800000
532.786377	146.140000
532.880066	145.840000
532.973694	145.480000
533.067383	145.720000
533.161011	145.640000
533.254639	145.420000
533.348267	145.300000
533.441956	145.640000
533.535583	145.420000
533.629272	145.100000
533.722900	144.940000
533.816589	145.140000
533.910156	145.300000
534.003845	144.860000
534.097534	145.520000
534.191162	145.920000
534.284851	145.860000
534.378479	145.700000
534.472107	145.940000
534.565735	145.020000
534.659424	145.060000
534.753052	145.340000
534.846741	145.200000
534.940369	145.840000
535.033997	146.180000
535.127625	146.240000
535.221313	146.420000
535.314941	146.460000
535.408630	145.520000
535.502197	145.840000
535.595886	145.360000
535.689514	145.060000
535.783203	145.460000
535.876831	146.380000
535.970459	146.320000
536.064087	146.080000
536.157776	145.920000
536.251404	145.860000
536.345093	145.380000
536.438721	145.080000
536.532349	145.400000
536.626038	145.360000
536.719666	145.600000
536.813293	145.620000
536.906921	145.960000
537.000610	146.420000
537.094238	146.600000
537.187866	146.300000
537.281494	146.260000
537.375183	146.380000
537.468811	145.980000
537.562439	145.900000
537.656067	145.820000
537.749756	145.680000
537.843384	146.020000
537.937012	146.400000
538.030640	146.280000
538.124329	146.340000
538.217896	146.900000
538.311584	146.420000
538.405212	146.060000
538.498901	146.240000
538.592468	146.680000
538.686157	146.080000
538.779785	145.500000
538.873413	145.480000
538.967102	145.000000
539.060730	144.180000
539.154358	144.660000
539.247986	145.080000
539.341675	145.120000
539.435242	145.440000
539.528931	145.620000
539.622559	144.940000
539.716187	145.620000
539.809814	145.420000
539.903503	145.220000
539.997070	145.160000
540.090759	145.420000
540.184387	144.940000
540.278015	145.300000
540.371643	145.980000
540.465332	146.180000
540.558899	146.240000
540.652588	145.820000
540.746216	145.320000
540.839844	145.300000
540.933472	144.960000
541.027100	144.960000
541.120728	145.460000
541.214417	145.880000
541.308044	145.940000
541.401672	146.200000
541.495300	146.080000
541.588928	145.780000
541.682617	145.560000
541.776184	145.080000
541.869873	145.300000
541.963440	145.600000
542.057129	145.800000
542.150757	146.220000
542.244385	146.040000
542.338013	145.760000
542.431641	145.700000
542.525269	145.580000
542.618958	145.560000
542.712524	145.820000
542.806213	145.700000
542.899780	146.020000
542.993469	145.840000
543.087036	145.720000
543.180725	145.080000
543.274292	145.620000
543.367981	145.860000
543.461548	146.160000
543.555237	145.880000
543.648926	146.780000
543.742493	146.920000
543.836182	146.160000
543.929749	146.000000
544.023437	146.180000
544.117004	146.120000
544.210693	145.860000
544.304260	146.260000
544.397949	146.140000
544.491516	146.360000
544.585205	146.240000
544.678772	145.960000
544.772461	146.100000
544.866028	146.020000
544.959717	146.180000
545.053284	145.940000
545.146973	145.940000
545.240540	146.040000
545.334229	146.820000
545.427795	146.620000
545.521423	146.740000
545.615051	146.820000
545.708679	146.840000
545.802307	146.260000
545.895935	146.500000
545.989624	147.400000
546.083191	147.180000
546.176880	146.980000
546.270447	146.640000
546.364136	146.580000
546.457703	145.740000
546.551331	145.800000
546.644958	145.780000
546.738586	146.320000
546.832214	145.740000
546.925842	145.560000
547.019409	145.700000
547.113098	145.120000
547.206665	144.800000
547.300354	145.060000
547.393921	145.180000
547.487549	145.440000
547.581177	145.500000
547.674805	145.360000
547.768433	144.820000
547.862061	144.860000
547.955627	144.060000
548.049316	144.700000
548.142883	145.220000
548.236572	145.880000
548.330139	145.820000
548.423767	146.160000
548.517456	145.540000
548.611023	145.800000
548.704651	145.100000
548.798279	145.140000
548.891907	145.680000
548.985474	145.980000
549.079163	145.480000
549.172729	145.680000
549.266357	145.320000
549.359985	144.860000
549.453613	144.160000
549.547180	143.940000
549.640869	144.420000
549.734436	144.560000
549.828064	145.180000
549.921631	145.460000
550.015320	145.320000
550.108887	145.320000
550.202515	145.600000
550.296143	145.000000
550.389771	145.380000
550.483337	145.420000
550.576965	145.100000
550.670593	145.420000
550.764221	145.520000
550.857849	145.360000
550.951477	145.440000
551.045105	145.060000
551.138672	144.580000
551.232300	144.320000
551.325928	144.580000
551.419556	144.900000
551.513123	145.360000
551.606750	145.380000
551.700378	145.220000
551.794006	144.920000
551.887573	144.560000
551.981201	145.080000
552.074768	144.840000
552.168457	145.060000
552.262024	145.980000
552.355652	145.880000
552.449219	145.780000
552.542847	145.960000
552.636475	145.880000
552.730103	144.860000
552.823669	145.140000
552.917297	144.560000
553.010864	144.700000
553.104553	144.900000
553.198181	144.780000
553.291748	145.040000
553.385376	145.400000
553.478943	145.620000
553.572571	145.480000
553.666199	145.600000
553.759827	145.520000
553.853394	145.060000
553.947021	144.740000
554.040588	144.820000
554.134216	144.860000
554.227783	145.280000
554.321411	146.080000
554.415039	145.720000
554.508667	145.660000
554.602234	146.100000
554.695862	145.400000
554.789429	144.980000
554.883057	145.320000
554.976624	145.260000
555.070251	144.900000
555.163818	144.900000
555.257507	145.080000
555.351074	145.260000
555.444702	146.500000
555.538330	146.260000
555.631897	146.540000
555.725525	146.140000
555.819092	145.860000
555.912720	144.620000
556.006287	145.360000
556.099915	144.880000
556.193481	145.420000
556.287109	145.820000
556.380676	145.380000
556.474304	145.220000
556.567871	145.760000
556.661499	145.160000
556.755066	144.940000
556.848694	145.400000
556.942261	145.060000
557.035889	145.140000
557.129517	145.540000
557.223145	145.920000
557.316711	146.240000
557.410339	146.480000
557.503906	145.920000
557.597473	145.720000
557.691040	145.100000
557.784668	144.840000
557.878296	144.820000
557.971863	145.180000
558.065491	145.340000
558.159058	145.420000
558.252686	146.060000
558.346252	146.540000
558.439880	146.040000
558.533447	145.640000
558.627075	145.240000
558.720642	144.680000
558.814270	144.340000
558.907837	144.460000
559.001465	144.380000
559.095032	145.560000
559.188660	145.800000
559.282227	145.100000
559.375854	145.980000
559.469360	145.840000
559.562988	145.700000
559.656555	145.420000
559.750183	146.120000
559.843750	145.760000
559.937378	146.000000
560.030945	145.460000
560.124573	0.000000
560.218140	0.000000
560.311707	0.000000
560.405334	0.000000
560.498901	0.000000
560.592529	0.000000
560.686096	0.000000
560.779724	0.000000
560.873291	0.000000
560.966858	0.000000
561.060425	0.000000
561.154053	0.000000
561.247620	0.000000
561.341248	0.000000
561.434814	0.000000
561.528381	0.000000
561.621948	0.000000
561.715576	0.000000
561.809143	0.000000
561.902771	0.000000
561.996277	0.000000
562.089905	0.000000
562.183472	0.000000
562.277100	0.000000
