Model Number: SPM-001-M   
Serial Number: 10090201
Firmware Version: 004.17.6
Exposure Time: 300000.000000us
Data Taken on: 28-01-2021 10:17:44.890
Wavelength	Amplitude
733.770752	0.000000
733.808716	0.000000
733.846619	0.000000
733.884583	0.000000
733.922546	0.000000
733.960449	0.000000
733.998413	0.000000
734.036377	0.000000
734.074219	0.000000
734.112183	0.000000
734.150085	0.000000
734.188049	0.000000
734.226013	0.000000
734.263916	0.000000
734.301819	0.000000
734.339783	0.000000
734.377686	0.000000
734.415588	0.000000
734.453552	0.000000
734.491455	0.000000
734.529419	0.000000
734.567322	0.000000
734.605225	0.000000
734.643127	0.000000
734.681091	0.000000
734.718994	0.000000
734.756897	0.000000
734.794800	0.000000
734.832703	0.000000
734.870667	0.000000
734.908508	0.000000
734.946472	0.000000
734.984375	0.000000
735.022278	0.000000
735.060181	0.000000
735.098083	0.000000
735.135986	0.000000
735.173889	0.000000
735.211792	0.000000
735.249695	0.000000
735.287598	0.000000
735.325439	0.000000
735.363403	0.000000
735.401306	0.000000
735.439148	0.000000
735.477051	0.000000
735.515015	0.000000
735.552856	0.000000
735.590759	0.000000
735.628662	0.000000
735.666504	0.000000
735.704407	0.000000
735.742310	0.000000
735.780212	0.000000
735.818115	0.000000
735.856018	0.000000
735.893860	0.000000
735.931763	0.000000
735.969604	0.000000
736.007507	0.000000
736.045410	0.000000
736.083252	0.000000
736.121094	0.000000
736.158997	0.000000
736.196838	0.000000
736.234741	0.000000
736.272644	0.000000
736.310486	0.000000
736.348389	0.000000
736.386230	0.000000
736.424072	0.000000
736.461975	0.000000
736.499878	0.000000
736.537720	0.000000
736.575562	0.000000
736.613403	0.000000
736.651306	0.000000
736.689148	0.000000
736.726990	0.000000
736.764893	0.000000
736.802734	0.000000
736.840576	0.000000
736.878418	0.000000
736.916321	0.000000
736.954102	0.000000
736.992004	0.000000
737.029846	0.000000
737.067688	0.000000
737.105530	0.000000
737.143372	0.000000
737.181213	0.000000
737.219116	0.000000
737.256897	0.000000
737.294739	0.000000
737.332642	0.000000
737.370422	0.000000
737.408325	0.000000
737.446167	0.000000
737.483948	0.000000
737.521790	0.000000
737.559692	0.000000
737.597473	0.000000
737.635315	0.000000
737.673157	0.000000
737.710999	0.000000
737.748840	0.000000
737.786621	0.000000
737.824463	0.000000
737.862305	0.000000
737.900085	0.000000
737.937927	0.000000
737.975769	0.000000
738.013550	0.000000
738.051392	0.000000
738.089233	0.000000
738.127014	0.000000
738.164856	0.000000
738.202698	0.000000
738.240479	0.000000
738.278320	0.000000
738.316162	0.000000
738.353943	0.000000
738.391785	0.000000
738.429565	0.000000
738.467407	0.000000
738.505188	0.000000
738.542969	0.000000
738.580811	0.000000
738.618652	0.000000
738.656372	0.000000
738.694214	0.000000
738.732056	0.000000
738.769836	0.000000
738.807617	0.000000
738.845459	0.000000
738.883240	0.000000
738.921021	0.000000
738.958862	0.000000
738.996582	0.000000
739.034424	0.000000
739.072205	0.000000
739.109985	0.000000
739.147827	0.000000
739.185547	0.000000
739.223389	0.000000
739.261169	0.000000
739.298889	0.000000
739.336731	0.000000
739.374512	0.000000
739.412292	0.000000
739.450073	0.000000
739.487854	0.000000
739.525635	0.000000
739.563416	0.000000
739.601135	0.000000
739.638977	0.000000
739.676758	0.000000
739.714478	0.000000
739.752258	0.000000
739.790100	0.000000
739.827820	0.000000
739.865601	0.000000
739.903381	0.000000
739.941101	0.000000
739.978882	183.700000
740.016724	180.200000
740.054443	183.400000
740.092224	178.300000
740.130005	180.300000
740.167725	178.400000
740.205505	179.300000
740.243225	185.800000
740.281006	181.900000
740.318787	177.600000
740.356506	186.500000
740.394287	183.600000
740.432068	179.900000
740.469727	177.000000
740.507507	184.300000
740.545288	181.000000
740.583008	183.300000
740.620789	180.800000
740.658569	177.800000
740.696228	181.400000
740.734009	185.200000
740.771790	173.000000
740.809509	183.700000
740.847229	177.300000
740.884949	179.300000
740.922729	175.900000
740.960449	180.600000
740.998169	177.700000
741.035950	179.300000
741.073669	180.500000
741.111389	183.200000
741.149170	186.900000
741.186890	187.200000
741.224609	183.700000
741.262329	182.500000
741.300110	187.400000
741.337769	178.900000
741.375549	178.500000
741.413208	180.800000
741.450989	177.500000
741.488708	178.600000
741.526367	178.500000
741.564148	182.700000
741.601868	183.600000
741.639526	179.600000
741.677307	183.800000
741.715027	183.000000
741.752686	178.800000
741.790466	186.300000
741.828186	182.400000
741.865845	179.100000
741.903564	176.700000
741.941345	180.100000
741.979004	178.800000
742.016724	183.500000
742.054382	181.500000
742.092102	184.000000
742.129822	178.900000
742.167480	179.400000
742.205200	179.900000
742.242920	182.300000
742.280640	184.900000
742.318359	178.000000
742.356079	180.600000
742.393738	183.500000
742.431396	179.900000
742.469116	183.200000
742.506775	175.700000
742.544495	181.700000
742.582214	184.300000
742.619873	180.500000
742.657593	185.400000
742.695251	185.100000
742.732971	180.200000
742.770630	182.400000
742.808289	181.600000
742.846008	181.500000
742.883728	182.400000
742.921326	181.300000
742.959045	179.500000
742.996765	180.200000
743.034424	181.400000
743.072083	179.800000
743.109802	179.900000
743.147400	177.200000
743.185120	180.200000
743.222839	180.200000
743.260437	185.900000
743.298157	182.200000
743.335754	175.600000
743.373474	179.600000
743.411133	175.300000
743.448792	180.900000
743.486450	180.100000
743.524170	177.400000
743.561768	179.100000
743.599487	185.900000
743.637146	188.400000
743.674744	180.900000
743.712463	180.900000
743.750122	182.100000
743.787720	182.200000
743.825439	180.100000
743.863037	180.200000
743.900696	181.300000
743.938416	204.800000
743.976013	181.400000
744.013672	186.600000
744.051331	185.400000
744.088928	187.800000
744.126587	186.000000
744.164307	183.100000
744.201904	179.800000
744.239563	183.000000
744.277222	183.600000
744.314819	180.500000
744.352478	184.900000
744.390137	181.500000
744.427734	183.200000
744.465393	180.600000
744.502991	179.400000
744.540649	182.200000
744.578308	181.300000
744.615906	179.000000
744.653564	174.700000
744.691223	182.200000
744.728821	176.500000
744.766418	181.900000
744.804077	183.300000
744.841675	179.700000
744.879333	175.900000
744.916992	180.900000
744.954529	179.400000
744.992187	182.700000
745.029785	178.100000
745.067444	179.700000
745.105042	181.500000
745.142639	181.900000
745.180298	188.600000
745.217896	179.800000
745.255493	179.000000
745.293152	183.800000
745.330750	185.200000
745.368347	186.500000
745.405945	182.800000
745.443604	181.600000
745.481140	183.000000
745.518799	180.700000
745.556396	183.400000
745.593994	184.700000
745.631592	182.000000
745.669189	177.900000
745.706787	181.700000
745.744385	178.500000
745.781982	183.400000
745.819580	179.100000
745.857178	180.800000
745.894775	181.500000
745.932373	182.500000
745.969971	182.600000
746.007568	176.200000
746.045166	187.600000
746.082764	185.600000
746.120300	183.800000
746.157898	182.200000
746.195557	180.900000
746.233093	176.200000
746.270691	183.100000
746.308228	182.000000
746.345825	185.400000
746.383423	183.800000
746.420959	180.100000
746.458557	179.200000
746.496155	177.800000
746.533691	181.500000
746.571289	178.200000
746.608887	180.400000
746.646423	180.700000
746.684021	180.900000
746.721619	179.400000
746.759155	182.500000
746.796753	175.900000
746.834351	176.600000
746.871826	179.000000
746.909424	185.300000
746.946960	180.100000
746.984558	180.300000
747.022156	178.100000
747.059631	187.400000
747.097229	182.100000
747.134827	179.400000
747.172363	185.200000
747.209900	184.900000
747.247498	177.600000
747.285034	186.500000
747.322571	185.500000
747.360168	181.200000
747.397644	175.600000
747.435242	183.800000
747.472778	184.200000
747.510315	181.500000
747.547913	180.400000
747.585388	185.700000
747.622925	180.100000
747.660522	176.300000
747.697998	179.000000
747.735596	180.200000
747.773132	179.300000
747.810669	181.800000
747.848206	184.100000
747.885742	178.200000
747.923279	176.900000
747.960815	182.900000
747.998352	180.700000
748.035889	184.300000
748.073425	183.400000
748.110901	180.100000
748.148437	177.400000
748.185974	180.700000
748.223511	187.100000
748.261047	182.900000
748.298584	181.400000
748.336060	182.100000
748.373596	181.900000
748.411133	207.600000
748.448608	179.000000
748.486145	183.200000
748.523682	183.500000
748.561218	187.200000
748.598755	182.000000
748.636292	182.900000
748.673706	181.100000
748.711243	185.800000
748.748718	182.000000
748.786255	181.300000
748.823792	182.500000
748.861267	176.800000
748.898804	183.200000
748.936340	183.000000
748.973816	179.700000
749.011292	186.200000
749.048828	181.900000
749.086304	181.200000
749.123840	188.900000
749.161316	177.700000
749.198792	189.700000
749.236328	184.100000
749.273743	180.600000
749.311279	180.500000
749.348816	183.900000
749.386230	180.700000
749.423767	173.800000
749.461304	184.400000
749.498718	181.800000
749.536255	184.600000
749.573730	190.000000
749.611206	187.000000
749.648682	181.400000
749.686218	181.500000
749.723633	184.500000
749.761169	180.200000
749.798645	178.900000
749.836060	179.800000
749.873596	178.600000
749.911011	182.800000
749.948547	184.300000
749.986023	181.600000
750.023437	181.200000
750.060913	177.000000
750.098450	176.900000
750.135864	181.100000
750.173340	181.100000
750.210815	184.400000
750.248291	177.700000
750.285767	180.400000
750.323242	182.100000
750.360657	183.100000
750.398132	177.100000
750.435608	182.500000
750.473022	179.100000
750.510498	179.500000
750.547974	177.600000
750.585449	180.400000
750.622925	173.100000
750.660339	190.400000
750.697815	182.100000
750.735291	182.300000
750.772644	180.900000
750.810120	183.800000
750.847595	182.500000
750.885010	178.000000
750.922485	187.400000
750.959961	183.500000
750.997375	186.100000
751.034851	183.800000
751.072266	184.300000
751.109680	177.600000
751.147156	185.700000
751.184570	182.900000
751.221985	180.800000
751.259460	177.400000
751.296875	181.600000
751.334290	183.400000
751.371765	184.800000
751.409180	185.200000
751.446594	185.400000
751.484070	183.800000
751.521423	182.000000
751.558899	182.700000
751.596375	188.700000
751.633728	185.400000
751.671204	189.000000
751.708618	179.700000
751.746033	182.000000
751.783447	178.200000
751.820801	179.000000
751.858276	184.300000
751.895691	180.300000
751.933105	181.300000
751.970520	177.600000
752.007935	179.600000
752.045349	184.100000
752.082764	181.500000
752.120178	179.400000
752.157532	179.600000
752.195007	179.300000
752.232422	182.600000
752.269775	184.800000
752.307190	184.100000
752.344543	178.100000
752.382019	180.900000
752.419434	180.700000
752.456787	182.900000
752.494202	186.100000
752.531616	182.300000
752.568970	183.500000
752.606384	182.700000
752.643799	183.800000
752.681152	185.300000
752.718567	184.500000
752.755981	177.400000
752.793335	184.500000
752.830750	177.400000
752.868164	186.000000
752.905518	178.500000
752.942932	184.400000
752.980225	177.300000
753.017639	183.500000
753.055054	185.400000
753.092407	184.500000
753.129822	184.700000
753.167175	187.300000
753.204529	181.300000
753.241943	180.000000
753.279358	177.100000
753.316650	183.700000
753.354065	182.600000
753.391479	185.200000
753.428772	185.900000
753.466187	183.200000
753.503479	177.900000
753.540894	180.400000
753.578308	177.300000
753.615601	179.000000
753.653015	181.200000
753.690369	180.000000
753.727722	180.000000
753.765076	175.500000
753.802490	179.600000
753.839783	176.900000
753.877136	180.300000
753.914551	190.000000
753.951843	179.800000
753.989258	183.200000
754.026611	180.900000
754.063904	183.000000
754.101257	178.000000
754.138611	175.900000
754.175964	181.500000
754.213318	188.000000
754.250610	177.200000
754.288025	179.700000
754.325378	178.700000
754.362671	184.800000
754.400024	181.800000
754.437378	188.800000
754.474670	188.000000
754.512085	179.200000
754.549438	183.400000
754.586731	180.100000
754.624084	182.400000
754.661438	177.700000
754.698730	188.300000
754.736084	180.600000
754.773376	182.200000
754.810730	183.200000
754.848083	182.900000
754.885315	184.700000
754.922668	176.700000
754.960022	179.600000
754.997314	186.400000
755.034668	183.100000
755.072021	183.200000
755.109253	180.300000
755.146606	188.800000
755.183960	180.000000
755.221252	187.500000
755.258545	184.500000
755.295898	187.100000
755.333191	185.300000
755.370544	183.400000
755.407776	183.200000
755.445129	183.600000
755.482422	185.800000
755.519714	180.400000
755.557068	178.100000
755.594360	176.500000
755.631653	185.900000
755.668945	188.500000
755.706299	183.300000
755.743530	190.500000
755.780884	188.400000
755.818176	185.000000
755.855408	186.900000
755.892761	184.300000
755.930054	182.400000
755.967346	184.900000
756.004639	185.300000
756.041870	182.400000
756.079224	186.000000
756.116516	181.700000
756.153748	186.700000
756.191040	189.300000
756.228394	186.000000
756.265625	180.000000
756.302917	184.400000
756.340210	182.600000
756.377441	188.800000
756.414795	188.600000
756.452087	183.400000
756.489319	179.500000
756.526611	187.300000
756.563843	183.700000
756.601135	190.500000
756.638428	192.200000
756.675659	184.100000
756.712952	186.400000
756.750244	186.600000
756.787476	186.200000
756.824768	188.900000
756.862061	184.300000
756.899292	229.200000
756.936584	187.900000
756.973816	192.600000
757.011047	192.700000
757.048340	185.100000
757.085632	185.600000
757.122864	198.000000
757.160156	183.500000
757.197327	187.200000
757.234619	189.100000
757.271912	183.800000
757.309082	188.800000
757.346375	183.700000
757.383667	188.600000
757.420837	186.500000
757.458130	187.700000
757.495422	184.800000
757.532593	188.300000
757.569885	181.600000
757.607117	184.000000
757.644348	186.800000
757.681580	196.400000
757.718811	178.800000
757.756042	186.900000
757.793335	184.200000
757.830505	191.100000
757.867798	184.300000
757.905029	184.700000
757.942200	186.900000
757.979492	185.800000
758.016724	185.800000
758.053894	185.800000
758.091187	198.000000
758.128418	188.600000
758.165588	186.200000
758.202820	195.800000
758.240112	188.500000
758.277283	196.000000
758.314514	188.900000
758.351685	188.600000
758.388916	193.100000
758.426147	193.900000
758.463379	194.500000
758.500610	189.500000
758.537842	188.700000
758.575012	193.400000
758.612244	185.200000
758.649475	197.900000
758.686646	184.300000
758.723877	194.200000
758.761108	194.800000
758.798279	188.900000
758.835510	191.900000
758.872742	195.800000
758.909851	192.000000
758.947083	191.400000
758.984253	191.200000
759.021484	192.300000
759.058716	191.700000
759.095886	193.900000
759.133057	190.900000
759.170288	193.200000
759.207458	189.600000
759.244690	198.100000
759.281860	197.700000
759.319031	192.100000
759.356262	191.300000
759.393433	189.200000
759.430603	191.300000
759.467773	191.800000
759.505005	196.400000
759.542175	197.400000
759.579346	191.200000
759.616516	192.700000
759.653687	196.400000
759.690918	191.400000
759.728027	194.400000
759.765259	195.900000
759.802429	197.300000
759.839539	194.600000
759.876770	199.100000
759.913940	202.000000
759.951111	197.200000
759.988281	195.500000
760.025452	193.500000
760.062561	191.700000
760.099792	202.000000
760.136963	196.900000
760.174072	194.000000
760.211243	192.000000
760.248413	193.100000
760.285583	192.000000
760.322754	203.800000
760.359863	200.100000
760.397034	200.700000
760.434204	195.500000
760.471375	195.600000
760.508545	194.400000
760.545715	197.900000
760.582825	193.900000
760.619995	199.600000
760.657166	192.400000
760.694275	199.300000
760.731445	198.000000
760.768555	198.000000
760.805664	200.000000
760.842834	199.000000
760.879944	199.400000
760.917114	197.900000
760.954285	195.700000
760.991394	193.500000
761.028564	201.800000
761.065674	198.800000
761.102783	196.400000
761.139954	201.300000
761.177124	201.500000
761.214172	201.400000
761.251343	199.100000
761.288452	198.300000
761.325562	201.200000
761.362732	196.700000
761.399841	199.700000
761.436951	200.000000
761.474121	198.000000
761.511169	199.600000
761.548340	204.600000
761.585449	200.800000
761.622559	202.900000
761.659668	201.200000
761.696838	205.500000
761.733887	202.100000
761.771057	200.200000
761.808167	199.300000
761.845276	205.600000
761.882385	210.300000
761.919434	202.900000
761.956604	214.900000
761.993713	201.800000
762.030762	205.300000
762.067871	202.400000
762.105042	202.200000
762.142090	210.100000
762.179199	203.300000
762.216309	208.000000
762.253418	214.600000
762.290527	210.500000
762.327637	207.100000
762.364685	201.300000
762.401794	206.600000
762.438904	206.700000
762.475952	203.000000
762.513062	201.000000
762.550110	202.400000
762.587219	212.600000
762.624329	212.000000
762.661377	206.600000
762.698486	207.400000
762.735596	206.400000
762.772644	202.500000
762.809753	201.800000
762.846863	205.800000
762.883911	209.600000
762.921021	210.400000
762.958069	206.400000
762.995117	213.300000
763.032227	212.700000
763.069336	206.400000
763.106323	204.900000
763.143433	205.300000
763.180481	209.400000
763.217590	209.700000
763.254639	210.000000
763.291687	209.200000
763.328735	214.900000
763.365845	209.500000
763.402893	208.300000
763.439941	210.800000
763.477051	213.000000
763.514038	212.900000
763.551147	209.100000
763.588196	211.700000
763.625244	211.100000
763.662292	217.600000
763.699402	218.400000
763.736389	216.600000
763.773499	221.100000
763.810486	216.400000
763.847534	214.900000
763.884644	217.100000
763.921631	214.200000
763.958679	220.300000
763.995728	215.500000
764.032776	222.400000
764.069824	212.500000
764.106873	219.300000
764.143860	225.200000
764.180969	217.800000
764.218018	223.000000
764.255005	216.200000
764.292053	217.500000
764.329102	226.100000
764.366089	224.500000
764.403137	222.100000
764.440125	217.900000
764.477173	219.800000
764.514221	222.700000
764.551208	222.000000
764.588257	219.900000
764.625305	224.600000
764.662292	230.200000
764.699341	230.000000
764.736389	225.100000
764.773376	235.600000
764.810425	229.300000
764.847473	231.000000
764.884399	230.400000
764.921448	233.600000
764.958435	233.300000
764.995483	226.900000
765.032532	239.600000
765.069458	227.100000
765.106506	231.500000
765.143555	229.900000
765.180481	233.100000
765.217529	238.000000
765.254578	230.900000
765.291504	232.000000
765.328552	234.100000
765.365540	229.600000
765.402527	240.000000
765.439575	230.400000
765.476501	230.400000
765.513550	229.000000
765.550537	233.400000
765.587463	238.300000
765.624512	231.800000
765.661499	227.700000
765.698486	239.100000
765.735474	232.200000
765.772461	234.900000
765.809448	240.300000
765.846436	240.300000
765.883423	240.700000
765.920410	237.400000
765.957397	236.100000
765.994385	239.000000
766.031311	244.800000
766.068359	241.200000
766.105286	240.600000
766.142273	245.900000
766.179260	242.700000
766.216187	237.600000
766.253174	237.200000
766.290161	242.200000
766.327148	245.600000
766.364136	242.500000
766.401123	254.200000
766.438049	241.000000
766.475037	249.600000
766.512024	246.000000
766.548950	258.700000
766.585937	251.800000
766.622864	249.800000
766.659790	249.900000
766.696777	242.800000
766.733704	254.400000
766.770691	246.300000
766.807678	256.400000
766.844604	253.700000
766.881531	252.200000
766.918518	256.000000
766.955444	257.900000
766.992432	252.900000
767.029358	254.000000
767.066284	257.500000
767.103271	255.600000
767.140198	286.800000
767.177124	264.800000
767.214050	258.400000
767.251038	257.200000
767.287964	256.200000
767.324890	254.400000
767.361816	258.300000
767.398743	262.200000
767.435730	257.600000
767.472595	259.800000
767.509583	263.600000
767.546509	257.300000
767.583374	261.000000
767.620361	254.400000
767.657288	261.400000
767.694214	260.100000
767.731140	258.400000
767.768066	259.200000
767.804993	262.000000
767.841919	257.400000
767.878845	262.000000
767.915710	267.700000
767.952698	260.900000
767.989563	264.300000
768.026489	263.400000
768.063416	260.300000
768.100281	261.900000
768.137207	269.400000
768.174133	266.900000
768.211060	266.600000
768.247986	267.000000
768.284912	265.600000
768.321777	264.000000
768.358704	263.800000
768.395630	267.500000
768.432495	264.600000
768.469421	268.000000
768.506348	272.500000
768.543152	276.800000
768.580078	273.900000
768.616943	274.300000
768.653870	275.700000
768.690796	273.600000
768.727661	273.700000
768.764587	275.100000
768.801453	271.600000
768.838318	277.600000
768.875244	278.100000
768.912109	279.400000
768.948975	274.200000
768.985901	276.300000
769.022766	275.900000
769.059631	281.400000
769.096558	278.800000
769.133362	277.800000
769.170288	278.400000
769.207214	276.900000
769.244019	284.800000
769.280945	283.000000
769.317810	288.700000
769.354675	284.300000
769.391541	289.600000
769.428406	290.100000
769.465271	296.500000
769.502136	287.700000
769.539062	291.500000
769.575867	289.400000
769.612732	291.800000
769.649597	296.600000
769.686462	296.300000
769.723328	293.600000
769.760193	291.500000
769.797058	293.600000
769.833923	300.400000
769.870728	298.600000
769.907593	300.100000
769.944519	300.000000
769.981323	301.600000
770.018188	303.400000
770.055054	298.900000
770.091858	300.700000
770.128723	308.100000
770.165588	313.700000
770.202393	301.500000
770.239258	312.200000
770.276062	308.900000
770.312927	309.200000
770.349792	314.300000
770.386597	314.300000
770.423462	319.800000
770.460327	324.600000
770.497131	314.800000
770.533997	312.000000
770.570862	323.200000
770.607605	324.000000
770.644470	321.200000
770.681335	323.700000
770.718140	322.500000
770.754944	318.400000
770.791809	319.600000
770.828613	321.700000
770.865479	320.700000
770.902222	329.200000
770.939087	322.700000
770.975952	317.600000
771.012695	322.300000
771.049561	334.600000
771.086365	326.900000
771.123169	325.700000
771.159973	326.500000
771.196838	327.600000
771.233582	329.000000
771.270447	332.400000
771.307251	334.600000
771.344055	330.600000
771.380859	333.900000
771.417664	330.800000
771.454468	337.300000
771.491272	337.200000
771.528076	338.900000
771.564880	337.300000
771.601685	341.300000
771.638428	333.700000
771.675293	341.600000
771.712097	332.800000
771.748840	348.700000
771.785645	338.700000
771.822449	343.200000
771.859253	346.000000
771.896057	343.500000
771.932861	351.600000
771.969604	347.200000
772.006409	339.200000
772.043213	352.800000
772.079956	350.000000
772.116760	344.700000
772.153503	348.300000
772.190308	358.200000
772.227112	350.600000
772.263855	348.600000
772.300659	350.300000
772.337463	354.000000
772.374207	349.100000
772.411011	347.500000
772.447754	352.000000
772.484497	364.800000
772.521301	357.400000
772.558105	353.600000
772.594849	356.300000
772.631592	360.200000
772.668396	357.800000
772.705139	363.700000
772.741882	360.900000
772.778625	366.000000
772.815430	366.600000
772.852173	364.500000
772.888916	371.000000
772.925720	372.600000
772.962463	376.000000
772.999207	370.000000
773.035950	372.800000
773.072754	375.900000
773.109436	370.400000
773.146240	370.600000
773.182922	370.400000
773.219727	377.700000
773.256470	375.300000
773.293152	365.700000
773.329956	370.700000
773.366699	373.600000
773.403381	371.600000
773.440186	373.000000
773.476929	376.300000
773.513611	372.200000
773.550354	375.900000
773.587158	374.300000
773.623840	372.700000
773.660583	378.300000
773.697327	387.000000
773.734009	379.400000
773.770813	379.800000
773.807495	377.300000
773.844238	380.000000
773.880981	391.800000
773.917664	385.100000
773.954407	388.900000
773.991150	383.600000
774.027832	387.800000
774.064575	384.800000
774.101318	390.100000
774.138000	390.500000
774.174744	390.400000
774.211487	390.400000
774.248108	383.900000
774.284851	385.500000
774.321594	392.500000
774.358276	394.100000
774.395020	401.600000
774.431702	397.500000
774.468384	387.000000
774.505127	386.800000
774.541809	398.200000
774.578491	400.400000
774.615234	402.300000
774.651917	395.300000
774.688599	396.700000
774.725342	405.200000
774.762024	406.500000
774.798706	411.400000
774.835449	407.200000
774.872070	412.400000
774.908813	411.200000
774.945496	411.400000
774.982178	414.800000
775.018860	415.800000
775.055542	417.300000
775.092224	416.700000
775.128967	420.800000
775.165588	420.200000
775.202271	417.400000
775.239014	428.200000
775.275635	428.400000
775.312317	421.500000
775.349060	427.000000
775.385681	427.600000
775.422363	426.800000
775.459045	432.700000
775.495667	434.900000
775.532410	431.800000
775.569092	433.700000
775.605713	432.900000
775.642395	432.700000
775.679016	436.700000
775.715698	440.400000
775.752380	440.600000
775.789001	436.300000
775.825684	437.500000
775.862366	440.900000
775.898987	450.300000
775.935669	448.400000
775.972351	460.200000
776.008972	454.700000
776.045654	454.000000
776.082336	454.300000
776.118958	455.700000
776.155640	462.800000
776.192322	467.700000
776.228882	468.000000
776.265564	465.500000
776.302185	461.500000
776.338867	465.700000
776.375488	461.500000
776.412109	471.700000
776.448792	476.400000
776.485413	477.400000
776.522034	469.000000
776.558716	466.900000
776.595337	469.900000
776.631958	474.400000
776.668579	477.800000
776.705261	486.000000
776.741882	479.200000
776.778503	482.500000
776.815186	478.100000
776.851746	480.800000
776.888367	481.200000
776.924988	495.400000
776.961609	489.000000
776.998291	491.800000
777.034851	485.500000
777.071472	495.700000
777.108154	493.400000
777.144714	503.100000
777.181335	499.600000
777.218018	495.500000
777.254578	496.800000
777.291199	500.700000
777.327759	503.000000
777.364380	508.900000
777.401062	512.400000
777.437622	519.800000
777.474243	508.900000
777.510864	514.600000
777.547424	509.800000
777.584045	515.100000
777.620667	516.000000
777.657227	521.000000
777.693848	518.800000
777.730469	525.400000
777.767029	519.600000
777.803650	523.900000
777.840271	519.600000
777.876831	522.000000
777.913452	525.300000
777.950012	511.800000
777.986633	512.500000
778.023193	516.400000
778.059753	516.900000
778.096375	519.200000
778.132996	529.400000
778.169556	522.100000
778.206116	524.000000
778.242737	521.300000
778.279297	529.000000
778.315857	523.200000
778.352478	526.800000
778.389038	529.400000
778.425598	532.600000
778.462219	539.500000
778.498718	537.700000
778.535339	538.200000
778.571838	545.600000
778.608459	543.600000
778.645020	538.000000
778.681580	541.400000
778.718140	545.900000
778.754761	540.500000
778.791260	545.700000
778.827881	550.800000
778.864441	551.200000
778.900940	550.500000
778.937561	547.200000
778.974121	550.100000
779.010620	543.300000
779.047241	549.500000
779.083801	557.800000
779.120300	554.900000
779.156860	559.700000
779.193359	555.700000
779.229980	558.400000
779.266541	559.000000
779.303040	558.200000
779.339600	555.000000
779.376160	546.200000
779.412659	553.300000
779.449219	551.700000
779.485779	557.700000
779.522278	556.900000
779.558838	560.200000
779.595398	564.400000
779.631897	558.100000
779.668457	555.800000
779.705017	561.300000
779.741516	551.900000
779.778076	551.200000
779.814575	556.100000
779.851074	558.600000
779.887634	557.000000
779.924133	561.700000
779.960693	556.300000
779.997253	565.400000
780.033691	571.700000
780.070251	571.900000
780.106812	578.400000
780.143250	574.700000
780.179810	575.200000
780.216370	582.100000
780.252808	587.900000
780.289368	587.100000
780.325867	587.000000
780.362366	580.000000
780.398865	585.300000
780.435364	581.400000
780.471863	589.600000
780.508423	591.500000
780.544861	593.200000
780.581421	589.200000
780.617920	580.900000
780.654419	580.900000
780.690918	586.900000
780.727417	590.500000
780.763916	592.900000
780.800415	596.500000
780.836914	587.100000
780.873352	599.500000
780.909912	594.700000
780.946411	598.300000
780.982849	607.100000
781.019348	614.900000
781.055786	609.800000
781.092346	610.400000
781.128845	619.800000
781.165283	623.400000
781.201782	628.900000
781.238281	630.800000
781.274719	632.600000
781.311218	626.900000
781.347717	631.100000
781.384155	628.000000
781.420654	633.900000
781.457092	640.300000
781.493591	639.300000
781.530090	633.100000
781.566528	640.100000
781.602966	640.600000
781.639465	635.500000
781.675903	637.000000
781.712402	642.300000
781.748901	641.100000
781.785278	640.200000
781.821777	644.000000
781.858276	641.800000
781.894714	652.900000
781.931152	650.400000
781.967651	655.800000
782.004089	646.300000
782.040527	653.100000
782.076965	660.100000
782.113403	658.600000
782.149902	668.200000
782.186340	657.900000
782.222778	669.600000
782.259277	660.300000
782.295654	664.900000
782.332092	670.700000
782.368591	670.200000
782.404968	671.000000
782.441467	679.400000
782.477905	678.400000
782.514282	674.100000
782.550781	688.500000
782.587219	688.100000
782.623596	693.300000
782.660095	698.000000
782.696472	698.300000
782.732910	697.700000
782.769348	701.000000
782.805786	716.600000
782.842224	711.100000
782.878662	712.700000
782.915039	717.200000
782.951477	713.900000
782.987915	710.700000
783.024292	715.800000
783.060730	721.500000
783.097168	712.900000
783.133545	703.800000
783.169983	703.600000
783.206421	699.700000
783.242798	698.000000
783.279236	687.100000
783.315613	688.000000
783.352051	688.500000
783.388489	686.900000
783.424866	676.500000
783.461304	684.600000
783.497681	689.800000
783.534058	688.600000
783.570496	685.600000
783.606934	683.600000
783.643250	687.600000
783.679687	695.600000
783.716125	693.900000
783.752441	709.400000
783.788879	721.000000
783.825317	724.400000
783.861633	725.300000
783.898071	727.700000
783.934448	733.400000
783.970825	734.200000
784.007263	720.300000
784.043579	707.100000
784.080017	685.300000
784.116394	651.200000
784.152710	625.800000
784.189148	593.600000
784.225525	563.700000
784.261902	536.500000
784.298279	526.900000
784.334656	518.800000
784.371033	510.800000
784.407410	525.100000
784.443787	527.300000
784.480164	534.700000
784.516541	546.700000
784.552856	577.100000
784.589233	600.300000
784.625610	619.400000
784.661987	660.000000
784.698364	676.200000
784.734741	682.500000
784.771057	696.600000
784.807434	710.900000
784.843811	733.400000
784.880127	732.100000
784.916504	749.000000
784.952881	753.400000
784.989197	758.600000
785.025574	764.300000
785.061951	765.700000
785.098267	778.400000
785.134644	772.300000
785.170959	766.900000
785.207275	765.400000
785.243652	766.700000
785.279968	747.600000
785.316345	748.400000
785.352722	744.900000
785.388977	739.600000
785.425354	725.000000
785.461731	714.100000
785.498047	714.400000
785.534363	711.300000
785.570679	715.100000
785.606995	714.200000
785.643372	713.800000
785.679687	714.000000
785.716003	707.000000
785.752380	707.800000
785.788635	722.600000
785.825012	729.100000
785.861328	735.500000
785.897644	723.900000
785.933960	737.900000
785.970337	750.400000
786.006592	772.500000
786.042908	773.200000
786.079285	779.500000
786.115540	787.100000
786.151855	790.900000
786.188171	781.000000
786.224487	783.800000
786.260803	783.300000
786.297119	783.300000
786.333435	784.200000
786.369751	775.100000
786.406006	773.100000
786.442322	761.900000
786.478638	749.800000
786.514954	754.800000
786.551270	752.800000
786.587585	754.000000
786.623840	735.000000
786.660156	740.600000
786.696472	731.100000
786.732727	731.400000
786.769043	738.300000
786.805298	730.900000
786.841614	733.300000
786.877930	747.800000
786.914124	738.000000
786.950439	752.200000
786.986755	765.900000
787.023010	775.300000
787.059326	784.700000
787.095642	789.600000
787.131836	807.300000
787.168152	800.900000
787.204468	807.500000
787.240723	824.000000
787.276978	823.300000
787.313293	829.200000
787.349548	824.500000
787.385803	823.400000
787.422058	817.000000
787.458313	817.500000
787.494629	813.600000
787.530823	807.300000
787.567139	794.300000
787.603455	787.700000
787.639648	777.500000
787.675903	779.700000
787.712219	780.500000
787.748413	783.600000
787.784729	784.300000
787.820984	777.500000
787.857178	771.400000
787.893494	770.100000
787.929749	774.100000
787.965942	785.700000
788.002258	797.500000
788.038452	802.600000
788.074707	806.600000
788.110962	804.500000
788.147217	807.800000
788.183472	826.500000
788.219727	832.400000
788.255920	841.400000
788.292175	840.500000
788.328430	839.100000
788.364624	831.800000
788.400879	837.300000
788.437134	844.300000
788.473328	835.500000
788.509583	829.800000
788.545837	823.700000
788.582031	821.100000
788.618286	827.400000
788.654480	833.300000
788.690735	840.700000
788.726990	853.600000
788.763184	848.100000
788.799377	856.000000
788.835632	852.400000
788.871826	853.000000
788.908081	856.500000
788.944336	860.700000
788.980469	873.700000
789.016724	859.800000
789.052979	864.700000
789.089111	852.700000
789.125366	853.800000
789.161621	851.400000
789.197754	861.400000
789.234009	853.400000
789.270142	853.500000
789.306396	844.300000
789.342590	837.500000
789.378784	825.200000
789.414978	826.100000
789.451233	836.000000
789.487366	842.500000
789.523621	847.500000
789.559814	840.600000
789.595947	836.300000
789.632202	843.900000
789.668335	855.200000
789.704529	876.400000
789.740784	883.200000
789.776917	886.100000
789.813110	871.700000
789.849304	890.400000
789.885498	892.300000
789.921692	904.000000
789.957886	907.300000
789.994019	908.700000
790.030212	903.600000
790.066406	904.900000
790.102539	905.500000
790.138733	918.600000
790.174927	919.600000
790.211060	922.600000
790.247253	917.000000
790.283386	909.200000
790.319580	897.900000
790.355774	891.500000
790.391907	896.300000
790.428101	909.400000
790.464294	908.400000
790.500427	901.800000
790.536621	882.700000
790.572754	875.800000
790.608887	868.100000
790.645081	871.900000
790.681274	893.500000
790.717346	886.000000
790.753540	868.500000
790.789734	858.200000
790.825867	850.900000
790.862000	858.300000
790.898132	871.800000
790.934265	868.900000
790.970459	863.200000
791.006592	863.300000
791.042725	865.100000
791.078918	857.500000
791.114990	864.200000
791.151184	867.600000
791.187317	872.000000
791.223389	870.300000
791.259583	865.300000
791.295715	856.100000
791.331848	864.600000
791.367981	875.100000
791.404114	882.500000
791.440247	877.200000
791.476379	873.600000
791.512451	856.300000
791.548584	855.800000
791.584778	854.700000
791.620850	866.200000
791.656982	870.700000
791.693115	868.500000
791.729187	864.600000
791.765381	860.100000
791.801514	863.800000
791.837585	866.400000
791.873718	870.700000
791.909851	886.400000
791.945923	891.100000
791.982056	863.800000
792.018188	862.600000
792.054260	866.000000
792.090393	873.600000
792.126465	859.600000
792.162598	861.500000
792.198669	855.400000
792.234741	847.200000
792.270874	842.200000
792.307007	844.000000
792.343079	837.300000
792.379150	850.800000
792.415283	835.700000
792.451355	837.700000
792.487488	821.700000
792.523560	813.800000
792.559631	791.800000
792.595764	762.800000
792.631836	756.800000
792.667908	770.600000
792.703979	788.100000
792.740051	831.900000
792.776184	863.500000
792.812256	885.500000
792.848328	895.700000
792.884399	903.800000
792.920471	904.000000
792.956543	902.200000
792.992615	896.200000
793.028748	896.400000
793.064758	915.900000
793.100830	935.700000
793.136963	946.300000
793.172974	936.300000
793.209045	933.600000
793.245178	942.900000
793.281189	928.600000
793.317261	939.400000
793.353271	945.700000
793.389404	946.600000
793.425476	936.900000
793.461487	924.200000
793.497559	919.000000
793.533630	925.500000
793.569641	925.900000
793.605713	931.400000
793.641785	931.200000
793.677795	948.900000
793.713867	939.900000
793.749878	939.900000
793.785950	949.900000
793.822021	966.900000
793.858032	955.100000
793.894104	962.900000
793.930176	955.500000
793.966187	953.300000
794.002258	947.300000
794.038269	961.600000
794.074280	963.200000
794.110352	973.700000
794.146423	957.600000
794.182373	958.700000
794.218445	942.400000
794.254517	946.700000
794.290466	937.400000
794.326538	940.900000
794.362549	950.300000
794.398560	951.300000
794.434631	939.900000
794.470581	918.900000
794.506653	915.300000
794.542664	920.000000
794.578674	924.900000
794.614685	924.300000
794.650757	919.900000
794.686707	924.400000
794.722778	922.100000
794.758789	927.600000
794.794739	945.200000
794.830811	986.600000
794.866821	1001.900000
794.902771	999.200000
794.938843	981.300000
794.974792	971.400000
795.010803	977.300000
795.046814	985.900000
795.082825	972.300000
795.118835	977.400000
795.154846	953.800000
795.190796	947.900000
795.226807	941.600000
795.262817	947.800000
795.298767	946.300000
795.334778	956.900000
795.370850	951.300000
795.406799	953.500000
795.442810	927.900000
795.478821	929.500000
795.514709	935.400000
795.550720	961.300000
795.586670	943.800000
795.622681	945.800000
795.658691	947.900000
795.694641	944.000000
795.730652	934.000000
795.766663	949.500000
795.802551	960.000000
795.838562	973.400000
795.874573	953.200000
795.910522	947.100000
795.946472	928.900000
795.982483	944.900000
796.018433	950.000000
796.054382	960.000000
796.090393	953.100000
796.126282	947.200000
796.162292	931.900000
796.198242	925.500000
796.234192	919.300000
796.270203	918.500000
796.306091	933.900000
796.342041	948.000000
796.378052	933.300000
796.413940	930.000000
796.449951	931.300000
796.485901	933.700000
796.521790	945.500000
796.557800	956.200000
796.593689	955.900000
796.629639	954.800000
796.665649	944.400000
796.701599	941.700000
796.737488	940.700000
796.773437	950.300000
796.809387	949.000000
796.845337	958.500000
796.881287	935.500000
796.917175	926.300000
796.953125	932.500000
796.989075	942.000000
797.024963	940.600000
797.060913	937.000000
797.096863	919.800000
797.132751	912.700000
797.168701	903.000000
797.204590	908.300000
797.240540	916.500000
797.276489	926.700000
797.312439	922.900000
797.348328	917.800000
797.384277	906.600000
797.420166	893.900000
797.456055	899.900000
797.492004	912.000000
797.527893	923.700000
797.563843	918.000000
797.599731	909.900000
797.635620	897.200000
797.671570	900.100000
797.707520	904.500000
797.743347	919.500000
797.779297	927.000000
797.815125	912.000000
797.851074	892.100000
797.887024	886.800000
797.922913	884.700000
797.958801	896.800000
797.994690	900.300000
798.030579	899.700000
798.066467	902.300000
798.102356	887.900000
798.138245	875.300000
798.174133	873.300000
798.210083	885.600000
798.245911	898.000000
798.281799	905.400000
798.317749	890.200000
798.353577	884.300000
798.389465	883.300000
798.425293	879.400000
798.461243	882.500000
798.497131	886.900000
798.532959	890.800000
798.568848	894.600000
798.604736	877.300000
798.640564	862.800000
798.676453	861.100000
798.712402	865.000000
798.748230	872.500000
798.784119	871.900000
798.820007	867.300000
798.855835	863.700000
798.891724	857.900000
798.927551	852.400000
798.963379	860.000000
798.999268	862.900000
799.035095	851.300000
799.070984	840.500000
799.106873	832.700000
799.142700	848.200000
799.178528	837.100000
799.214417	839.000000
799.250244	851.600000
799.286133	847.100000
799.321960	835.400000
799.357788	832.200000
799.393677	833.600000
799.429504	832.200000
799.465332	835.300000
799.501221	840.600000
799.537048	842.000000
799.572876	831.000000
799.608704	836.000000
799.644531	847.300000
799.680359	852.200000
799.716248	860.800000
799.752014	861.500000
799.787903	855.500000
799.823730	843.500000
799.859558	843.600000
799.895386	842.800000
799.931213	845.000000
799.967041	839.300000
800.002869	838.400000
800.038696	845.200000
800.074463	826.900000
800.110352	839.100000
800.146179	831.500000
800.181946	839.900000
800.217773	838.200000
800.253540	827.200000
800.289429	824.800000
800.325256	816.300000
800.361023	818.900000
800.396851	824.300000
800.432678	825.000000
800.468445	828.300000
800.504272	823.000000
800.540100	812.000000
800.575867	807.600000
800.611694	814.400000
800.647461	811.300000
800.683289	817.000000
800.719116	816.500000
800.754883	812.600000
800.790649	800.200000
800.826477	794.600000
800.862244	814.300000
800.898071	803.700000
800.933838	805.500000
800.969604	804.200000
801.005432	792.600000
801.041199	790.500000
801.076965	788.300000
801.112793	784.200000
801.148560	779.800000
801.184326	781.400000
801.220154	784.300000
801.255859	781.900000
801.291687	777.300000
801.327454	771.000000
801.363281	776.900000
801.398987	771.700000
801.434814	767.800000
801.470520	778.000000
801.506287	766.700000
801.542114	756.000000
801.577820	761.200000
801.613647	759.200000
801.649414	767.500000
801.685120	760.700000
801.720886	760.000000
801.756714	754.300000
801.792419	750.000000
801.828186	745.800000
801.863892	752.100000
801.899719	749.000000
801.935486	744.900000
801.971252	749.900000
802.006958	743.600000
802.042725	733.800000
802.078430	735.400000
802.114197	737.300000
802.149963	742.800000
802.185669	735.400000
802.221436	738.200000
802.257202	739.300000
802.292908	733.400000
802.328674	736.100000
802.364441	750.300000
802.400146	743.300000
802.435913	742.400000
802.471558	735.100000
802.507324	726.800000
802.543091	728.500000
802.578796	742.600000
802.614502	740.800000
802.650269	742.300000
802.685974	729.600000
802.721741	724.400000
802.757446	728.300000
802.793152	737.400000
802.828918	739.800000
802.864624	733.900000
802.900330	729.100000
802.936035	725.300000
802.971802	730.100000
803.007446	721.900000
803.043213	716.000000
803.078857	726.900000
803.114624	712.000000
803.150330	714.400000
803.185974	709.100000
803.221741	709.200000
803.257446	719.900000
803.293152	722.800000
803.328857	718.800000
803.364563	712.900000
803.400208	702.600000
803.435974	702.900000
803.471680	697.900000
803.507324	705.400000
803.543030	712.100000
803.578735	711.500000
803.614441	704.000000
803.650146	717.100000
803.685791	700.100000
803.721497	700.800000
803.757202	695.700000
803.792847	698.700000
803.828552	690.900000
803.864258	690.200000
803.899902	684.900000
803.935608	675.800000
803.971313	677.700000
804.006958	675.200000
804.042664	674.500000
804.078308	686.700000
804.113953	677.100000
804.149658	676.100000
804.185364	674.000000
804.221008	681.300000
804.256714	660.100000
804.292297	666.200000
804.328003	656.500000
804.363708	653.300000
804.399292	656.400000
804.434998	658.800000
804.470703	659.200000
804.506287	667.000000
804.541992	660.000000
804.577637	660.600000
804.613281	647.600000
804.648926	641.500000
804.684570	646.900000
804.720215	639.300000
804.755920	642.500000
804.791565	641.200000
804.827209	641.300000
804.862854	636.600000
804.898437	631.600000
804.934143	634.400000
804.969788	638.000000
805.005371	636.800000
805.041077	636.100000
805.076721	631.400000
805.112305	627.800000
805.147949	625.400000
805.183655	617.900000
805.219238	622.300000
805.254883	617.100000
805.290466	622.200000
805.326111	615.800000
805.361755	610.400000
805.397400	615.600000
805.432983	617.200000
805.468628	615.500000
805.504211	618.300000
805.539856	624.900000
805.575500	623.900000
805.611084	611.900000
805.646729	602.400000
805.682373	602.600000
805.717957	611.700000
805.753601	609.500000
805.789246	602.300000
805.824768	602.500000
805.860413	610.800000
805.895996	601.100000
805.931641	598.300000
805.967224	607.600000
806.002869	607.800000
806.038452	611.700000
806.074036	611.300000
806.109619	599.200000
806.145264	597.700000
806.180847	595.300000
806.216431	595.300000
806.252014	601.200000
806.287659	600.200000
806.323181	601.500000
806.358826	592.700000
806.394409	583.200000
806.429993	584.400000
806.465576	592.700000
806.501160	587.700000
806.536743	581.300000
806.572327	586.600000
806.607910	581.700000
806.643494	578.400000
806.679077	574.000000
806.714661	577.100000
806.750244	574.100000
806.785828	570.300000
806.821350	565.900000
806.856934	572.900000
806.892517	569.700000
806.928101	566.300000
806.963684	563.000000
806.999268	570.000000
807.034790	558.500000
807.070374	560.200000
807.105896	555.300000
807.141479	551.500000
807.177063	556.300000
807.212585	554.800000
807.248169	552.700000
807.283752	556.300000
807.319275	546.800000
807.354858	549.500000
807.390381	547.200000
807.425903	542.600000
807.461487	540.000000
807.497070	536.200000
807.532593	537.300000
807.568115	537.400000
807.603699	530.100000
807.639221	529.700000
807.674744	533.100000
807.710266	534.900000
807.745850	537.800000
807.781372	529.200000
807.816895	525.500000
807.852417	528.400000
807.888000	526.000000
807.923523	526.500000
807.959045	530.100000
807.994629	526.000000
808.030090	520.200000
808.065613	522.000000
808.101135	525.300000
808.136658	523.200000
808.172241	518.300000
808.207764	517.100000
808.243225	514.900000
808.278809	515.900000
808.314270	520.900000
808.349792	507.300000
808.385315	506.500000
808.420837	509.200000
808.456360	517.200000
808.491882	515.800000
808.527344	514.700000
808.562866	518.700000
808.598389	513.000000
808.633850	510.000000
808.669434	505.800000
808.704895	509.100000
808.740417	513.900000
808.775940	505.900000
808.811462	501.600000
808.846924	497.300000
808.882385	497.200000
808.917847	496.300000
808.953369	499.900000
808.988892	493.000000
809.024353	498.100000
809.059875	497.500000
809.095398	490.900000
809.130798	486.400000
809.166321	486.900000
809.201843	490.300000
809.237305	490.100000
809.272766	491.900000
809.308228	482.100000
809.343750	481.200000
809.379211	481.300000
809.414734	481.300000
809.450134	480.600000
809.485657	470.400000
809.521118	476.800000
809.556580	471.600000
809.592102	471.100000
809.627502	474.400000
809.663025	466.600000
809.698486	467.000000
809.733887	461.600000
809.769409	468.100000
809.804871	456.900000
809.840271	462.300000
809.875793	461.300000
809.911194	465.000000
809.946655	455.700000
809.982178	454.100000
810.017639	456.000000
810.053040	453.500000
810.088501	449.800000
810.123901	454.600000
810.159424	449.700000
810.194885	448.100000
810.230286	447.400000
810.265747	443.100000
810.301208	442.500000
810.336609	443.200000
810.372070	433.600000
810.407532	439.900000
810.442932	439.600000
810.478394	441.900000
810.513794	435.800000
810.549255	436.600000
810.584717	430.100000
810.620117	426.500000
810.655518	429.100000
810.690979	424.700000
810.726379	424.600000
810.761841	420.700000
810.797302	418.100000
810.832642	414.200000
810.868103	424.400000
810.903564	415.200000
810.938904	420.300000
810.974365	413.800000
811.009827	411.400000
811.045166	407.000000
811.080627	402.900000
811.115967	407.900000
811.151428	411.900000
811.186829	406.200000
811.222229	408.500000
811.257629	402.400000
811.293091	403.900000
811.328430	411.800000
811.363892	406.900000
811.399292	404.000000
811.434631	404.100000
811.470093	404.700000
811.505493	399.100000
811.540833	397.400000
811.576294	403.100000
811.611694	397.900000
811.647034	396.400000
811.682434	395.500000
811.717773	394.000000
811.753235	398.400000
811.788635	394.500000
811.823975	392.700000
811.859375	398.500000
811.894775	388.000000
811.930115	390.600000
811.965515	388.800000
812.000916	391.600000
812.036255	387.500000
812.071655	389.900000
812.106995	381.600000
812.142395	384.600000
812.177795	389.000000
812.213196	386.800000
812.248474	389.600000
812.283875	379.400000
812.319214	381.600000
812.354614	379.700000
812.390015	376.000000
812.425293	375.800000
812.460693	374.900000
812.496094	370.700000
812.531433	369.000000
812.566772	368.800000
812.602173	370.100000
812.637451	366.500000
812.672852	365.400000
812.708191	366.700000
812.743530	360.700000
812.778931	356.400000
812.814270	357.800000
812.849609	359.600000
812.884949	360.100000
812.920227	354.500000
812.955627	364.400000
812.990967	353.700000
813.026306	353.500000
813.061646	346.400000
813.096985	343.400000
813.132324	342.000000
813.167664	345.600000
813.203003	346.400000
813.238281	336.900000
813.273682	334.700000
813.308960	332.800000
813.344299	333.300000
813.379639	339.400000
813.414978	334.600000
813.450256	331.500000
813.485596	335.600000
813.520874	329.900000
813.556213	329.800000
813.591614	334.700000
813.626831	328.200000
813.662170	329.200000
813.697510	338.000000
813.732788	325.700000
813.768127	328.400000
813.803467	326.900000
813.838745	325.600000
813.874084	327.700000
813.909363	325.300000
813.944641	326.100000
813.979980	317.400000
814.015320	320.500000
814.050598	318.500000
814.085876	318.800000
814.121155	315.800000
814.156494	316.100000
814.191772	317.900000
814.227051	312.700000
814.262390	313.300000
814.297668	314.900000
814.332947	314.500000
814.368225	307.600000
814.403564	309.500000
814.438782	308.000000
814.474121	312.000000
814.509338	307.500000
814.544617	311.800000
814.579956	306.600000
814.615173	314.700000
814.650513	310.800000
814.685791	306.500000
814.721008	307.100000
814.756348	304.600000
814.791626	302.800000
814.826843	303.400000
814.862122	300.100000
814.897400	303.200000
814.932678	299.900000
814.967957	299.800000
815.003235	300.600000
815.038452	296.400000
815.073730	292.900000
815.108948	303.000000
815.144226	301.000000
815.179504	304.800000
815.214722	290.600000
815.250000	291.700000
815.285278	292.900000
815.320496	289.000000
815.355774	291.200000
815.391052	291.200000
815.426270	290.600000
815.461487	290.600000
815.496765	282.800000
815.531982	283.400000
815.567261	286.300000
815.602539	290.200000
815.637695	285.600000
815.672974	289.400000
815.708191	286.900000
815.743408	290.600000
815.778687	282.400000
815.813904	289.200000
815.849121	277.400000
815.884399	278.700000
815.919556	277.100000
815.954834	277.800000
815.990051	278.800000
816.025269	282.400000
816.060486	276.500000
816.095703	273.900000
816.130920	276.000000
816.166199	272.300000
816.201416	274.300000
816.236572	275.100000
816.271851	270.400000
816.307007	274.000000
816.342224	265.800000
816.377441	268.400000
816.412659	264.300000
816.447876	268.600000
816.483093	265.700000
816.518250	263.800000
816.553467	263.600000
816.588745	265.800000
816.623901	262.900000
816.659119	256.500000
816.694275	260.600000
816.729492	257.700000
816.764709	283.200000
816.799927	254.100000
816.835083	259.600000
816.870300	252.500000
816.905457	256.500000
816.940674	253.500000
816.975830	250.500000
817.010986	249.400000
817.046204	250.200000
817.081421	248.600000
817.116577	248.900000
817.151733	255.600000
817.186951	253.100000
817.222107	250.600000
817.257324	250.600000
817.292419	249.900000
817.327637	244.000000
817.362854	246.000000
817.398010	241.700000
817.433167	245.100000
817.468323	242.700000
817.503479	243.600000
817.538635	249.900000
817.573853	244.300000
817.608948	242.200000
817.644165	240.600000
817.679321	238.100000
817.714478	237.900000
817.749634	239.200000
817.784790	247.800000
817.819946	243.000000
817.855103	232.300000
817.890198	237.300000
817.925415	230.800000
817.960571	238.100000
817.995667	238.400000
818.030823	235.800000
818.066040	233.200000
818.101135	233.800000
818.136292	234.200000
818.171448	229.600000
818.206543	232.800000
818.241699	234.700000
818.276855	232.400000
818.311951	230.800000
818.347107	229.500000
818.382263	233.500000
818.417358	236.700000
818.452515	235.800000
818.487610	234.400000
818.522766	226.300000
818.557922	234.900000
818.593018	229.900000
818.628113	228.100000
818.663269	224.500000
818.698364	228.400000
818.733521	224.500000
818.768677	225.500000
818.803711	222.600000
818.838867	221.800000
818.874023	223.300000
818.909058	221.200000
818.944214	218.900000
818.979370	222.900000
819.014404	221.800000
819.049561	218.200000
819.084595	221.500000
819.119751	216.100000
819.154846	222.100000
819.189941	218.600000
819.225037	216.000000
819.260193	211.700000
819.295227	213.200000
819.330322	209.500000
819.365479	210.600000
819.400513	243.700000
819.435608	208.600000
819.470764	206.700000
819.505798	209.000000
819.540894	209.700000
819.575989	208.600000
819.611084	212.700000
819.646179	215.100000
819.681213	210.800000
819.716309	208.300000
819.751404	208.200000
819.786438	212.200000
819.821533	203.700000
819.856628	209.600000
819.891663	208.400000
819.926758	216.700000
819.961853	210.600000
819.996887	205.600000
820.031982	208.000000
820.067017	205.700000
820.102112	238.800000
820.137207	204.400000
820.172302	214.600000
820.207275	202.100000
820.242371	202.600000
820.277405	202.400000
820.312500	202.300000
820.347534	204.000000
820.382568	207.900000
820.417664	202.000000
820.452759	200.400000
820.487732	201.500000
820.522827	200.200000
820.557861	197.800000
820.592896	199.600000
820.627930	200.200000
820.662964	197.700000
820.698059	201.900000
820.733093	197.800000
820.768127	201.700000
820.803162	198.700000
820.838196	196.500000
820.873230	198.600000
820.908264	199.400000
820.943298	196.400000
820.978333	201.200000
821.013367	197.300000
821.048401	200.200000
821.083435	201.900000
821.118469	193.400000
821.153503	200.700000
821.188477	197.100000
821.223511	194.000000
821.258484	196.700000
821.293579	197.700000
821.328613	193.400000
821.363647	195.700000
821.398621	193.000000
821.433655	195.100000
821.468628	204.400000
821.503662	195.200000
821.538696	197.100000
821.573669	192.900000
821.608704	198.100000
821.643677	193.900000
821.678650	197.000000
821.713684	200.600000
821.748718	195.700000
821.783691	195.100000
821.818726	195.300000
821.853638	196.000000
821.888672	193.600000
821.923706	194.500000
821.958618	194.100000
821.993652	192.000000
822.028687	198.200000
822.063599	199.600000
822.098633	195.700000
822.133667	190.400000
822.168579	194.000000
822.203613	195.200000
822.238586	191.000000
822.273560	195.100000
822.308533	191.300000
822.343567	191.200000
822.378479	193.300000
822.413452	191.000000
822.448425	189.700000
822.483398	196.000000
822.518372	195.700000
822.553345	189.700000
822.588318	198.200000
822.623291	190.900000
822.658203	190.400000
822.693237	191.300000
822.728210	187.400000
822.763123	190.700000
822.798096	189.200000
822.833069	190.300000
822.867981	191.200000
822.902954	193.000000
822.937927	192.600000
822.972900	196.900000
823.007874	187.100000
823.042725	195.700000
823.077698	198.200000
823.112671	187.500000
823.147583	192.000000
823.182556	191.200000
823.217529	195.000000
823.252441	189.500000
823.287415	199.300000
823.322388	194.500000
823.357239	191.600000
823.392212	197.000000
823.427185	196.600000
823.462097	187.400000
823.497009	192.700000
823.531982	190.000000
823.566895	191.100000
823.601807	189.000000
823.636719	189.500000
823.671631	194.100000
823.706604	188.200000
823.741455	192.600000
823.776428	186.700000
823.811340	192.000000
823.846252	197.100000
823.881165	195.000000
823.916138	190.100000
823.950989	194.600000
823.985901	188.200000
824.020813	189.500000
824.055725	189.400000
824.090637	184.700000
824.125610	192.500000
824.160461	190.800000
824.195374	190.500000
824.230225	190.800000
824.265198	185.500000
824.300110	187.300000
824.334961	195.700000
824.369873	184.200000
824.404785	191.500000
824.439636	192.300000
824.474548	184.300000
824.509460	183.000000
824.544312	192.800000
824.579224	191.600000
824.614075	191.000000
824.648987	187.600000
824.683899	189.300000
824.718811	187.100000
824.753662	191.700000
824.788574	192.500000
824.823364	189.600000
824.858276	185.800000
824.893188	189.600000
824.928040	193.400000
824.962952	189.000000
824.997803	190.500000
825.032654	187.000000
825.067566	189.500000
825.102417	186.100000
825.137268	185.700000
825.172119	187.000000
825.206970	184.800000
825.241882	186.100000
825.276733	184.300000
825.311646	184.400000
825.346436	183.900000
825.381348	182.700000
825.416138	185.000000
825.450989	182.500000
825.485901	179.500000
825.520691	181.100000
825.555542	181.300000
825.590454	183.300000
825.625244	179.600000
825.660095	189.100000
825.695007	185.900000
825.729797	182.900000
825.764648	181.000000
825.799438	182.600000
825.834290	184.100000
825.869202	179.500000
825.903992	183.100000
825.938843	181.600000
825.973694	178.300000
826.008484	189.500000
826.043335	179.700000
826.078186	177.400000
826.112976	186.200000
826.147827	185.900000
826.182678	189.300000
826.217468	176.600000
826.252319	187.300000
826.287109	179.700000
826.321899	186.000000
826.356750	181.200000
826.391541	178.100000
826.426392	185.000000
826.461182	181.900000
826.495972	179.600000
826.530823	175.100000
826.565613	184.100000
826.600403	176.900000
826.635254	183.400000
826.670044	176.300000
826.704834	176.600000
826.739685	178.200000
826.774475	183.200000
826.809265	180.500000
826.844055	180.500000
826.878906	185.800000
826.913635	181.700000
826.948425	181.900000
826.983215	183.200000
827.018005	183.000000
827.052856	178.300000
827.087585	183.400000
827.122375	176.200000
827.157227	180.500000
827.191956	189.600000
827.226746	177.700000
827.261536	183.300000
827.296265	176.800000
827.331116	178.900000
827.365906	182.300000
827.400635	178.500000
827.435425	173.900000
827.470215	185.600000
827.504944	179.100000
827.539734	184.400000
827.574463	178.800000
827.609253	186.300000
827.644043	180.200000
827.678772	182.500000
827.713562	179.500000
827.748352	178.900000
827.783081	177.300000
827.817871	180.700000
827.852600	178.200000
827.887329	180.200000
827.922119	174.900000
827.956848	182.700000
827.991638	189.900000
828.026367	182.200000
828.061157	180.800000
828.095886	180.200000
828.130615	192.500000
828.165344	173.900000
828.200073	180.500000
828.234863	181.500000
828.269592	179.300000
828.304321	183.100000
828.339111	181.000000
828.373779	178.600000
828.408569	183.200000
828.443298	184.000000
828.477966	178.500000
828.512756	181.700000
828.547424	177.400000
828.582214	178.400000
828.616943	179.700000
828.651672	179.400000
828.686340	183.900000
828.721130	176.700000
828.755798	180.700000
828.790527	180.200000
828.825256	180.900000
828.859924	181.900000
828.894714	183.900000
828.929443	187.000000
828.964111	179.300000
828.998840	182.800000
829.033569	177.900000
829.068237	179.800000
829.102966	179.200000
829.137634	181.900000
829.172363	182.500000
829.207092	181.400000
829.241821	178.700000
829.276489	175.200000
829.311157	180.700000
829.345825	178.800000
829.380554	183.200000
829.415283	177.400000
829.449951	175.500000
829.484619	186.800000
829.519348	185.200000
829.554016	180.300000
829.588745	180.300000
829.623413	177.100000
829.658081	188.300000
829.692749	177.900000
829.727417	183.600000
829.762146	182.000000
829.796814	178.600000
829.831482	180.200000
829.866150	181.200000
829.900879	177.500000
829.935486	181.600000
829.970154	178.900000
830.004883	188.900000
830.039490	182.700000
830.074219	178.200000
830.108887	180.400000
830.143494	178.400000
830.178223	177.300000
830.212891	179.500000
830.247498	180.500000
830.282166	187.100000
830.316772	183.300000
830.351501	179.100000
830.386169	179.600000
830.420776	179.500000
830.455444	180.800000
830.490112	178.300000
830.524719	176.800000
830.559387	181.700000
830.594055	182.300000
830.628662	179.700000
830.663330	179.600000
830.697998	185.700000
830.732605	179.700000
830.767273	181.300000
830.801941	179.300000
830.836487	187.500000
830.871155	180.700000
830.905762	182.200000
830.940430	176.900000
830.975098	179.100000
831.009644	179.800000
831.044312	186.400000
831.078979	181.500000
831.113525	175.600000
831.148193	181.300000
831.182861	180.400000
831.217407	183.200000
831.252075	190.700000
831.286621	179.200000
831.321289	178.100000
831.355896	181.400000
831.390564	185.900000
831.425110	180.300000
831.459778	185.900000
831.494324	189.600000
831.528931	183.200000
831.563599	185.800000
831.598145	176.100000
831.632751	180.900000
831.667419	181.000000
831.701965	181.900000
831.736572	183.500000
831.771179	177.900000
831.805786	178.700000
831.840393	185.700000
831.874939	175.700000
831.909546	183.300000
831.944153	174.700000
831.978760	180.700000
832.013306	176.100000
832.047913	185.700000
832.082458	186.700000
832.117065	178.000000
832.151672	187.200000
832.186218	181.100000
832.220825	184.200000
832.255432	174.400000
832.289978	178.300000
832.324585	181.900000
832.359192	182.100000
832.393677	180.900000
832.428284	181.700000
832.462830	177.900000
832.497437	180.300000
832.531982	183.000000
832.566589	179.500000
832.601135	182.000000
832.635681	175.500000
832.670227	180.700000
832.704773	184.500000
832.739380	180.900000
832.773926	179.700000
832.808472	177.900000
832.843079	180.400000
832.877563	181.600000
832.912170	178.600000
832.946716	177.300000
832.981201	184.500000
833.015808	183.600000
833.050293	180.000000
833.084839	177.400000
833.119446	178.800000
833.153992	184.600000
833.188477	178.800000
833.223022	178.400000
833.257568	181.500000
833.292114	186.200000
833.326660	188.200000
833.361145	179.600000
833.395691	175.300000
833.430237	181.500000
833.464783	182.600000
833.499329	177.400000
833.533875	177.800000
833.568359	183.000000
833.602905	183.200000
833.637390	184.500000
833.671875	178.900000
833.706421	180.600000
833.740906	177.400000
833.775452	174.200000
833.809998	178.500000
833.844482	185.700000
833.879028	179.800000
833.913513	179.000000
833.947998	183.400000
833.982544	178.000000
834.017090	177.700000
834.051514	173.800000
834.086060	181.800000
834.120544	179.300000
834.155029	181.900000
834.189575	180.300000
834.223999	181.100000
834.258545	181.500000
834.293030	180.000000
834.327515	179.300000
834.362000	179.100000
834.396545	183.300000
834.430969	180.700000
834.465454	183.800000
834.500000	174.800000
834.534424	181.300000
834.568970	174.300000
834.603455	174.800000
834.637878	178.500000
834.672363	180.500000
834.706909	181.400000
834.741333	180.500000
834.775818	175.600000
834.810242	178.700000
834.844727	181.400000
834.879211	178.600000
834.913635	181.900000
834.948181	181.300000
834.982666	180.700000
835.017090	179.800000
835.051575	181.500000
835.086060	179.600000
835.120483	183.900000
835.154907	182.100000
835.189331	180.400000
835.223816	182.500000
835.258301	177.400000
835.292786	178.000000
835.327209	182.500000
835.361694	178.100000
835.396057	179.200000
835.430542	181.500000
835.465027	179.700000
835.499390	177.200000
835.533875	208.100000
835.568359	177.500000
835.602722	177.000000
835.637207	180.700000
835.671692	176.700000
835.706055	194.500000
835.740540	181.200000
835.774902	180.700000
835.809387	180.100000
835.843811	177.200000
835.878235	184.800000
835.912659	176.600000
835.947083	179.200000
835.981506	181.000000
836.015930	175.000000
836.050354	183.800000
836.084778	184.300000
836.119202	184.000000
836.153625	192.100000
836.187988	177.800000
836.222473	178.200000
836.256897	182.500000
836.291260	178.800000
836.325684	182.100000
836.360046	179.800000
836.394470	180.100000
836.428894	185.400000
836.463318	179.100000
836.497681	183.700000
836.532104	186.500000
836.566467	180.600000
836.600891	179.500000
836.635315	185.600000
836.669678	183.100000
836.704102	182.700000
836.738525	184.000000
836.772888	176.100000
836.807251	178.700000
836.841675	182.700000
836.876038	177.600000
836.910461	178.600000
836.944763	182.800000
836.979187	177.900000
837.013611	184.800000
837.047974	176.800000
837.082336	189.900000
837.116699	183.400000
837.151062	181.600000
837.185486	176.600000
837.219849	179.500000
837.254211	184.300000
837.288574	180.000000
837.322937	177.800000
837.357300	173.800000
837.391663	189.200000
837.426086	183.700000
837.460388	182.400000
837.494751	183.000000
837.529114	178.000000
837.563477	186.900000
837.597839	182.300000
837.632141	180.100000
837.666565	179.800000
837.700928	183.400000
837.735229	182.800000
837.769592	183.500000
837.803955	183.300000
837.838257	179.000000
837.872620	180.000000
837.906982	186.400000
837.941284	181.300000
837.975647	182.200000
838.010010	185.900000
838.044312	179.400000
838.078674	178.900000
838.112976	181.200000
838.147339	182.700000
838.181702	181.700000
838.216003	186.900000
838.250366	181.500000
838.284668	182.400000
838.318970	176.300000
838.353333	180.200000
838.387634	181.400000
838.421936	181.600000
838.456299	181.600000
838.490601	185.800000
838.524902	185.300000
838.559265	184.400000
838.593567	185.000000
838.627869	176.400000
838.662170	182.300000
838.696472	176.000000
838.730774	178.000000
838.765137	183.700000
838.799377	173.200000
838.833740	180.100000
838.868042	185.200000
838.902283	176.600000
838.936646	186.700000
838.970947	181.000000
839.005188	186.500000
839.039551	175.600000
839.073792	185.400000
839.108093	178.900000
839.142395	187.200000
839.176697	175.100000
839.210937	182.700000
839.245300	188.000000
839.279541	176.200000
839.313843	178.200000
839.348145	183.700000
839.382385	183.300000
839.416687	185.100000
839.450989	181.300000
839.485229	181.800000
839.519531	178.500000
839.553833	184.600000
839.588013	180.600000
839.622314	182.600000
839.656555	182.400000
839.690857	182.500000
839.725159	178.000000
839.759460	182.700000
839.793640	178.200000
839.827942	180.900000
839.862183	176.600000
839.896423	182.000000
839.930725	191.600000
839.964966	188.900000
839.999207	186.000000
840.033508	185.600000
840.067688	178.600000
840.101990	186.500000
840.136230	181.500000
840.170471	186.500000
840.204712	178.400000
840.238953	178.000000
840.273193	180.000000
840.307434	184.300000
840.341736	178.900000
840.375916	176.800000
840.410217	178.200000
840.444397	184.000000
840.478638	182.400000
840.512878	185.100000
840.547119	181.800000
840.581360	182.800000
840.615601	187.200000
840.649780	189.800000
840.684021	180.000000
840.718262	187.100000
840.752441	187.400000
840.786682	181.400000
840.820862	181.600000
840.855103	187.500000
840.889343	181.800000
840.923584	185.000000
840.957764	182.400000
840.992004	180.900000
841.026184	191.100000
841.060425	180.300000
841.094666	179.200000
841.128845	183.300000
841.163025	183.500000
841.197266	182.900000
841.231445	181.000000
841.265686	183.100000
841.299866	179.400000
841.334045	185.400000
841.368286	180.100000
841.402405	186.000000
841.436646	184.000000
841.470825	178.900000
841.505005	181.400000
841.539185	177.200000
841.573425	179.700000
841.607544	180.500000
841.641785	181.100000
841.675964	178.400000
841.710144	182.900000
841.744324	179.100000
841.778503	181.500000
841.812683	178.500000
841.846863	186.800000
841.881042	187.800000
841.915222	179.700000
841.949402	191.200000
841.983521	176.800000
842.017700	181.300000
842.051880	181.700000
842.086060	183.300000
842.120239	183.000000
842.154419	179.600000
842.188538	181.800000
842.222717	179.600000
842.256897	187.500000
842.291016	181.000000
842.325195	182.500000
842.359375	189.800000
842.393494	186.400000
842.427673	181.800000
842.461853	182.800000
842.495911	188.200000
842.530090	182.500000
842.564209	181.000000
842.598389	183.900000
842.632568	181.700000
842.666626	183.800000
842.700806	179.900000
842.734985	181.100000
842.769043	184.100000
842.803223	181.800000
842.837402	181.400000
842.871460	179.700000
842.905640	189.700000
842.939697	178.300000
842.973877	182.400000
843.007996	187.600000
843.042175	190.100000
843.076233	178.500000
843.110413	184.500000
843.144470	188.000000
843.178589	185.000000
843.212769	179.500000
843.246826	185.600000
843.280945	179.700000
843.315125	180.800000
843.349182	178.200000
843.383301	185.700000
843.417419	190.600000
843.451538	182.200000
843.485657	180.200000
843.519714	182.400000
843.553833	182.400000
843.587952	180.700000
843.622070	180.000000
843.656128	184.400000
843.690247	179.500000
843.724304	181.500000
843.758423	182.300000
843.792542	180.100000
843.826599	181.400000
843.860718	179.900000
843.894836	176.100000
843.928894	181.600000
843.963013	183.800000
843.997070	178.100000
844.031128	177.600000
844.065247	184.800000
844.099304	184.200000
844.133362	182.900000
844.167480	184.000000
844.201599	187.100000
844.235596	184.100000
844.269714	184.200000
844.303711	182.200000
844.337830	177.500000
844.371948	183.600000
844.405945	182.300000
844.440063	179.300000
844.474121	191.300000
844.508118	181.800000
844.542236	181.800000
844.576294	182.100000
844.610352	178.200000
844.644409	181.900000
844.678406	176.500000
844.712524	185.600000
844.746582	187.300000
844.780640	181.500000
844.814636	182.800000
844.848755	191.300000
844.882751	180.800000
844.916809	183.600000
844.950867	182.500000
844.984863	188.800000
845.018921	180.800000
845.052979	179.000000
845.086975	181.900000
845.121033	178.100000
845.155090	178.700000
845.189087	187.900000
845.223145	180.500000
845.257141	184.300000
845.291199	183.300000
845.325256	186.800000
845.359253	184.000000
845.393250	194.600000
845.427307	181.700000
845.461304	183.500000
845.495361	183.000000
845.529358	189.200000
845.563354	180.000000
845.597412	177.700000
845.631409	188.300000
845.665405	187.600000
845.699463	185.200000
845.733459	180.700000
845.767456	189.600000
845.801453	182.400000
845.835449	186.000000
845.869446	185.500000
845.903503	184.900000
845.937439	178.400000
845.971497	188.100000
846.005493	177.500000
846.039429	185.500000
846.073486	190.400000
846.107483	181.700000
846.141418	181.700000
846.175476	183.400000
846.209473	186.700000
846.243408	179.800000
846.277405	182.200000
846.311401	180.500000
846.345337	182.800000
846.379395	186.700000
846.413330	180.300000
846.447327	191.400000
846.481323	178.900000
846.515259	179.300000
846.549255	181.000000
846.583252	185.100000
846.617187	179.400000
846.651184	182.600000
846.685120	181.100000
846.719055	189.600000
846.753052	185.500000
846.786987	185.400000
846.820984	178.100000
846.854980	187.100000
846.888916	178.700000
846.922852	182.600000
846.956848	186.800000
846.990723	179.800000
847.024719	182.700000
847.058716	181.300000
847.092590	185.300000
847.126587	182.900000
847.160522	181.100000
847.194458	186.200000
847.228455	180.800000
847.262390	179.400000
847.296265	181.000000
847.330261	186.300000
847.364136	179.400000
847.398132	181.400000
847.432068	182.800000
847.466003	180.300000
847.499939	181.800000
847.533875	184.200000
847.567749	182.900000
847.601746	180.900000
847.635681	185.200000
847.669556	175.800000
847.703491	186.700000
847.737427	192.000000
847.771301	178.600000
847.805237	184.500000
847.839233	183.200000
847.873108	180.800000
847.907043	181.900000
847.940918	188.700000
847.974854	183.000000
848.008789	185.100000
848.042664	182.600000
848.076538	184.900000
848.110474	182.900000
848.144348	183.300000
848.178284	178.200000
848.212219	184.900000
848.246094	181.700000
848.279968	182.200000
848.313904	185.000000
848.347778	183.000000
848.381653	180.900000
848.415588	179.900000
848.449463	179.500000
848.483337	184.000000
848.517212	187.300000
848.551086	182.100000
848.585022	178.300000
848.618835	191.800000
848.652771	179.900000
848.686646	180.100000
848.720520	187.400000
848.754395	181.300000
848.788330	184.400000
848.822144	186.800000
848.856018	181.200000
848.889954	189.200000
848.923767	179.300000
848.957642	181.300000
848.991577	183.000000
849.025391	182.900000
849.059265	182.300000
849.093079	179.100000
849.126953	178.200000
849.160828	187.000000
849.194641	182.300000
849.228577	180.500000
849.262451	180.800000
849.296265	181.300000
849.330139	180.300000
849.364014	183.700000
849.397827	184.200000
849.431702	183.700000
849.465515	186.200000
849.499329	177.400000
849.533203	178.900000
849.567078	176.400000
849.600891	184.400000
849.634766	182.800000
849.668518	185.100000
849.702393	182.700000
849.736267	178.300000
849.770020	190.900000
849.803894	183.500000
849.837769	183.400000
849.871521	182.200000
849.905396	185.000000
849.939270	180.000000
849.973022	181.000000
850.006897	183.900000
850.040710	184.900000
850.074524	184.300000
850.108337	181.300000
850.142151	186.600000
850.175964	186.700000
850.209778	182.500000
850.243530	174.800000
850.277405	186.700000
850.311218	181.300000
850.344971	180.600000
850.378845	187.400000
850.412659	180.200000
850.446411	184.000000
850.480225	183.300000
850.514038	185.800000
850.547791	184.800000
850.581665	181.800000
850.615417	179.800000
850.649231	183.200000
850.683044	180.100000
850.716858	181.600000
850.750610	184.500000
850.784424	185.800000
850.818176	179.900000
850.851929	181.600000
850.885742	180.500000
850.919495	182.100000
850.953308	188.400000
850.987122	187.500000
851.020874	179.300000
851.054626	178.400000
851.088440	185.400000
851.122192	184.900000
851.156006	183.800000
851.189697	182.300000
851.223511	178.900000
851.257263	186.000000
851.291077	185.000000
851.324829	182.800000
851.358582	181.900000
851.392334	181.600000
851.426086	180.200000
851.459900	189.400000
851.493591	183.500000
851.527344	183.300000
851.561157	182.500000
851.594849	185.000000
851.628662	183.700000
851.662415	190.500000
851.696106	184.500000
851.729858	186.700000
851.763611	179.200000
851.797363	183.800000
851.831116	178.600000
851.864868	184.000000
851.898560	185.800000
851.932312	180.800000
851.966064	182.900000
851.999817	182.500000
852.033569	181.900000
852.067261	187.200000
852.101013	179.400000
852.134766	182.400000
852.168457	176.000000
852.202209	187.600000
852.235901	179.100000
852.269592	184.500000
852.303345	188.900000
852.337036	185.100000
852.370789	181.800000
852.404541	185.600000
852.438171	178.100000
852.471924	183.000000
852.505676	178.400000
852.539307	183.300000
852.573059	179.800000
852.606812	182.000000
852.640442	181.100000
852.674194	185.600000
852.707886	189.300000
852.741577	187.800000
852.775269	179.800000
852.809021	183.600000
852.842651	185.100000
852.876404	187.200000
852.910034	184.000000
852.943787	186.800000
852.977478	185.100000
853.011108	180.800000
853.044861	180.800000
853.078552	186.600000
853.112183	184.000000
853.145874	183.500000
853.179626	176.900000
853.213257	183.000000
853.246948	180.200000
853.280640	188.800000
853.314270	181.900000
853.347961	188.200000
853.381653	184.800000
853.415283	186.900000
853.448975	178.200000
853.482605	183.500000
853.516296	182.000000
853.549988	178.900000
853.583618	184.900000
853.617310	184.200000
853.651001	182.400000
853.684631	179.900000
853.718323	181.000000
853.751953	186.100000
853.785583	176.600000
853.819275	184.500000
853.852966	183.700000
853.886536	176.600000
853.920227	179.300000
853.953918	184.900000
853.987488	181.700000
854.021179	185.400000
854.054749	188.700000
854.088440	185.100000
854.122131	180.200000
854.155701	183.900000
854.189331	180.600000
854.223022	184.600000
854.256592	184.600000
854.290283	181.100000
854.323914	185.400000
854.357483	182.700000
854.391174	184.900000
854.424744	188.900000
854.458374	183.500000
854.492065	191.200000
854.525696	182.200000
854.559265	187.600000
854.592896	191.100000
854.626465	182.100000
854.660095	182.100000
854.693787	184.600000
854.727356	181.400000
854.760986	185.100000
854.794617	184.100000
854.828186	182.200000
854.861816	185.000000
854.895447	183.600000
854.929016	184.100000
854.962585	184.100000
854.996155	190.100000
855.029785	184.600000
855.063416	183.500000
855.097046	186.100000
855.130615	178.000000
855.164185	186.400000
855.197754	182.300000
855.231384	183.900000
855.264954	181.300000
855.298523	185.600000
855.332153	181.900000
855.365723	187.700000
855.399292	180.500000
855.432922	183.000000
855.466492	185.000000
855.500061	179.300000
855.533630	179.700000
855.567200	185.500000
855.600769	185.300000
855.634338	189.100000
855.667969	182.600000
855.701477	180.900000
855.735046	179.000000
855.768616	177.900000
855.802185	185.100000
855.835754	194.000000
855.869324	176.800000
855.902893	181.700000
855.936401	186.300000
855.969971	184.100000
856.003540	178.600000
856.037109	185.500000
856.070618	181.200000
856.104187	179.300000
856.137695	180.600000
856.171265	175.200000
856.204834	182.200000
856.238403	186.300000
856.271912	180.600000
856.305481	185.100000
856.338989	178.900000
856.372559	184.800000
856.406128	184.900000
856.439636	186.300000
856.473145	180.600000
856.506653	189.800000
856.540222	183.200000
856.573792	186.900000
856.607300	184.900000
856.640808	179.400000
856.674377	183.400000
856.707825	217.200000
856.741394	186.900000
856.774902	178.400000
856.808472	177.100000
856.841980	184.400000
856.875488	186.400000
856.908936	176.900000
856.942505	182.100000
856.976013	181.300000
857.009521	179.800000
857.043030	183.400000
857.076477	181.800000
857.110046	187.400000
857.143555	184.200000
857.177063	185.700000
857.210571	181.500000
857.244080	177.900000
857.277527	184.500000
857.311035	181.900000
857.344543	185.600000
857.378052	181.700000
857.411499	187.300000
857.445068	187.500000
857.478516	182.000000
857.512024	179.500000
857.545532	181.800000
857.578979	182.800000
857.612427	184.100000
857.645874	179.700000
857.679382	184.200000
857.712891	186.700000
857.746399	183.100000
857.779846	185.600000
857.813354	186.600000
857.846741	183.100000
857.880249	181.200000
857.913757	183.500000
857.947266	184.000000
857.980652	185.600000
858.014160	181.100000
858.047546	181.300000
858.081055	181.000000
858.114563	193.300000
858.147949	178.800000
858.181458	183.800000
858.214844	182.500000
858.248352	176.300000
858.281799	186.300000
858.315308	190.800000
858.348694	184.900000
858.382141	188.400000
858.415588	185.900000
858.449036	185.200000
858.482483	184.400000
858.515930	181.200000
858.549377	183.100000
858.582825	186.600000
858.616211	184.700000
858.649658	185.900000
858.683105	179.200000
858.716553	181.100000
858.750000	178.600000
858.783386	182.200000
858.816833	178.200000
858.850281	184.500000
858.883728	183.000000
858.917114	183.300000
858.950562	189.300000
858.983948	187.900000
859.017395	186.800000
859.050781	182.700000
859.084167	179.200000
859.117615	179.400000
859.151062	185.000000
859.184448	180.200000
859.217834	182.000000
859.251282	182.200000
859.284668	179.600000
859.318054	176.500000
859.351440	181.800000
859.384888	188.300000
859.418274	177.200000
859.451721	177.700000
859.485046	184.300000
859.518494	183.800000
859.551819	180.300000
859.585266	184.800000
859.618652	187.200000
859.652039	178.200000
859.685425	178.800000
859.718811	179.800000
859.752197	175.600000
859.785583	186.800000
859.819031	186.700000
859.852356	183.800000
859.885742	179.100000
859.919067	182.000000
859.952454	181.400000
859.985901	186.100000
860.019287	182.200000
860.052612	0.000000
860.085999	0.000000
860.119324	0.000000
860.152710	0.000000
860.186096	0.000000
860.219421	0.000000
860.252808	0.000000
860.286133	0.000000
860.319519	0.000000
860.352905	0.000000
860.386292	0.000000
860.419617	0.000000
860.452942	0.000000
860.486267	0.000000
860.519653	0.000000
860.553040	0.000000
860.586365	0.000000
860.619690	0.000000
860.653076	0.000000
860.686340	0.000000
860.719727	0.000000
860.753113	0.000000
860.786377	0.000000
860.819763	0.000000
860.853027	0.000000
860.886414	0.000000
860.919739	0.000000
860.953125	0.000000
860.986389	0.000000
861.019714	0.000000
861.053040	0.000000
861.086365	0.000000
861.119690	0.000000
861.153076	0.000000
861.186340	0.000000
861.219666	0.000000
861.252930	0.000000
861.286316	0.000000
861.319641	0.000000
861.352905	0.000000
861.386230	0.000000
861.419495	0.000000
861.452820	0.000000
861.486145	0.000000
861.519470	0.000000
861.552734	0.000000
861.586060	0.000000
861.619324	0.000000
861.652649	0.000000
861.685974	0.000000
861.719238	0.000000
861.752563	0.000000
861.785828	0.000000
861.819092	0.000000
861.852417	0.000000
861.885742	0.000000
861.918945	0.000000
861.952271	0.000000
861.985535	0.000000
862.018799	0.000000
862.052124	0.000000
862.085449	0.000000
862.118652	0.000000
862.151978	0.000000
862.185181	0.000000
862.218506	0.000000
862.251770	0.000000
862.285034	0.000000
862.318298	0.000000
862.351562	0.000000
862.384827	0.000000
862.418091	0.000000
862.451355	0.000000
862.484619	0.000000
862.517883	0.000000
862.551086	0.000000
862.584351	0.000000
862.617676	0.000000
862.650940	0.000000
862.684143	0.000000
862.717407	0.000000
862.750610	0.000000
862.783875	0.000000
862.817139	0.000000
862.850342	0.000000
862.883606	0.000000
862.916870	0.000000
862.950073	0.000000
862.983337	0.000000
863.016602	0.000000
863.049805	0.000000
863.083069	0.000000
863.116211	0.000000
863.149475	0.000000
863.182739	0.000000
863.216003	0.000000
863.249146	0.000000
863.282410	0.000000
863.315613	0.000000
863.348816	0.000000
863.382080	0.000000
863.415222	0.000000
863.448486	0.000000
863.481689	0.000000
863.514893	0.000000
863.548157	0.000000
863.581360	0.000000
863.614502	0.000000
863.647766	0.000000
863.680908	0.000000
863.714172	0.000000
863.747375	0.000000
863.780579	0.000000
863.813721	0.000000
863.846985	0.000000
863.880127	0.000000
863.913330	0.000000
863.946533	0.000000
863.979675	0.000000
864.012939	0.000000
