Model Number: SPM-001-M   
Serial Number: 10090201
Firmware Version: 004.17.6
Exposure Time: 300000.000000us
Data Taken on: 28-01-2021 10:30:43.382
Wavelength	Amplitude
733.770752	0.000000
733.808716	0.000000
733.846619	0.000000
733.884583	0.000000
733.922546	0.000000
733.960449	0.000000
733.998413	0.000000
734.036377	0.000000
734.074219	0.000000
734.112183	0.000000
734.150085	0.000000
734.188049	0.000000
734.226013	0.000000
734.263916	0.000000
734.301819	0.000000
734.339783	0.000000
734.377686	0.000000
734.415588	0.000000
734.453552	0.000000
734.491455	0.000000
734.529419	0.000000
734.567322	0.000000
734.605225	0.000000
734.643127	0.000000
734.681091	0.000000
734.718994	0.000000
734.756897	0.000000
734.794800	0.000000
734.832703	0.000000
734.870667	0.000000
734.908508	0.000000
734.946472	0.000000
734.984375	0.000000
735.022278	0.000000
735.060181	0.000000
735.098083	0.000000
735.135986	0.000000
735.173889	0.000000
735.211792	0.000000
735.249695	0.000000
735.287598	0.000000
735.325439	0.000000
735.363403	0.000000
735.401306	0.000000
735.439148	0.000000
735.477051	0.000000
735.515015	0.000000
735.552856	0.000000
735.590759	0.000000
735.628662	0.000000
735.666504	0.000000
735.704407	0.000000
735.742310	0.000000
735.780212	0.000000
735.818115	0.000000
735.856018	0.000000
735.893860	0.000000
735.931763	0.000000
735.969604	0.000000
736.007507	0.000000
736.045410	0.000000
736.083252	0.000000
736.121094	0.000000
736.158997	0.000000
736.196838	0.000000
736.234741	0.000000
736.272644	0.000000
736.310486	0.000000
736.348389	0.000000
736.386230	0.000000
736.424072	0.000000
736.461975	0.000000
736.499878	0.000000
736.537720	0.000000
736.575562	0.000000
736.613403	0.000000
736.651306	0.000000
736.689148	0.000000
736.726990	0.000000
736.764893	0.000000
736.802734	0.000000
736.840576	0.000000
736.878418	0.000000
736.916321	0.000000
736.954102	0.000000
736.992004	0.000000
737.029846	0.000000
737.067688	0.000000
737.105530	0.000000
737.143372	0.000000
737.181213	0.000000
737.219116	0.000000
737.256897	0.000000
737.294739	0.000000
737.332642	0.000000
737.370422	0.000000
737.408325	0.000000
737.446167	0.000000
737.483948	0.000000
737.521790	0.000000
737.559692	0.000000
737.597473	0.000000
737.635315	0.000000
737.673157	0.000000
737.710999	0.000000
737.748840	0.000000
737.786621	0.000000
737.824463	0.000000
737.862305	0.000000
737.900085	0.000000
737.937927	0.000000
737.975769	0.000000
738.013550	0.000000
738.051392	0.000000
738.089233	0.000000
738.127014	0.000000
738.164856	0.000000
738.202698	0.000000
738.240479	0.000000
738.278320	0.000000
738.316162	0.000000
738.353943	0.000000
738.391785	0.000000
738.429565	0.000000
738.467407	0.000000
738.505188	0.000000
738.542969	0.000000
738.580811	0.000000
738.618652	0.000000
738.656372	0.000000
738.694214	0.000000
738.732056	0.000000
738.769836	0.000000
738.807617	0.000000
738.845459	0.000000
738.883240	0.000000
738.921021	0.000000
738.958862	0.000000
738.996582	0.000000
739.034424	0.000000
739.072205	0.000000
739.109985	0.000000
739.147827	0.000000
739.185547	0.000000
739.223389	0.000000
739.261169	0.000000
739.298889	0.000000
739.336731	0.000000
739.374512	0.000000
739.412292	0.000000
739.450073	0.000000
739.487854	0.000000
739.525635	0.000000
739.563416	0.000000
739.601135	0.000000
739.638977	0.000000
739.676758	0.000000
739.714478	0.000000
739.752258	0.000000
739.790100	0.000000
739.827820	0.000000
739.865601	0.000000
739.903381	0.000000
739.941101	0.000000
739.978882	183.200000
740.016724	182.400000
740.054443	183.200000
740.092224	179.200000
740.130005	177.900000
740.167725	180.000000
740.205505	179.800000
740.243225	185.600000
740.281006	180.700000
740.318787	177.400000
740.356506	186.300000
740.394287	185.100000
740.432068	178.300000
740.469727	175.800000
740.507507	182.800000
740.545288	179.900000
740.583008	182.900000
740.620789	180.700000
740.658569	176.500000
740.696228	181.600000
740.734009	183.600000
740.771790	173.500000
740.809509	183.500000
740.847229	176.800000
740.884949	179.900000
740.922729	176.400000
740.960449	179.500000
740.998169	178.200000
741.035950	179.000000
741.073669	182.000000
741.111389	181.400000
741.149170	188.500000
741.186890	188.700000
741.224609	183.700000
741.262329	182.900000
741.300110	187.200000
741.337769	179.600000
741.375549	176.800000
741.413208	182.200000
741.450989	178.800000
741.488708	179.400000
741.526367	178.600000
741.564148	184.700000
741.601868	183.100000
741.639526	182.200000
741.677307	183.000000
741.715027	184.200000
741.752686	178.100000
741.790466	187.300000
741.828186	181.800000
741.865845	178.500000
741.903564	176.200000
741.941345	182.200000
741.979004	177.400000
742.016724	184.200000
742.054382	180.600000
742.092102	184.600000
742.129822	177.400000
742.167480	180.100000
742.205200	178.700000
742.242920	183.300000
742.280640	183.100000
742.318359	177.900000
742.356079	180.300000
742.393738	185.000000
742.431396	179.800000
742.469116	184.000000
742.506775	174.900000
742.544495	182.900000
742.582214	183.800000
742.619873	181.300000
742.657593	185.300000
742.695251	184.800000
742.732971	181.200000
742.770630	181.700000
742.808289	181.400000
742.846008	179.000000
742.883728	182.000000
742.921326	181.200000
742.959045	179.800000
742.996765	179.100000
743.034424	181.100000
743.072083	179.400000
743.109802	181.400000
743.147400	176.700000
743.185120	182.800000
743.222839	180.800000
743.260437	186.900000
743.298157	180.600000
743.335754	176.100000
743.373474	180.200000
743.411133	178.100000
743.448792	181.200000
743.486450	182.900000
743.524170	175.500000
743.561768	180.900000
743.599487	185.500000
743.637146	188.400000
743.674744	179.900000
743.712463	180.300000
743.750122	182.000000
743.787720	183.100000
743.825439	180.300000
743.863037	179.800000
743.900696	179.800000
743.938416	206.300000
743.976013	181.600000
744.013672	186.900000
744.051331	183.700000
744.088928	188.100000
744.126587	186.000000
744.164307	181.900000
744.201904	179.900000
744.239563	183.300000
744.277222	184.000000
744.314819	180.600000
744.352478	184.500000
744.390137	182.700000
744.427734	183.400000
744.465393	179.600000
744.502991	179.400000
744.540649	182.800000
744.578308	181.200000
744.615906	176.700000
744.653564	174.000000
744.691223	182.300000
744.728821	177.400000
744.766418	180.800000
744.804077	183.000000
744.841675	179.600000
744.879333	178.200000
744.916992	180.400000
744.954529	180.100000
744.992187	183.400000
745.029785	182.200000
745.067444	178.700000
745.105042	182.500000
745.142639	182.200000
745.180298	190.800000
745.217896	180.000000
745.255493	181.000000
745.293152	183.800000
745.330750	187.400000
745.368347	186.100000
745.405945	185.500000
745.443604	181.400000
745.481140	184.500000
745.518799	181.000000
745.556396	184.000000
745.593994	183.700000
745.631592	182.600000
745.669189	177.800000
745.706787	182.800000
745.744385	179.100000
745.781982	185.000000
745.819580	178.800000
745.857178	182.500000
745.894775	181.200000
745.932373	182.300000
745.969971	182.800000
746.007568	176.300000
746.045166	186.700000
746.082764	185.300000
746.120300	184.600000
746.157898	183.000000
746.195557	180.700000
746.233093	177.500000
746.270691	182.800000
746.308228	183.300000
746.345825	184.900000
746.383423	183.200000
746.420959	178.500000
746.458557	179.700000
746.496155	179.900000
746.533691	181.300000
746.571289	179.700000
746.608887	181.300000
746.646423	183.300000
746.684021	182.000000
746.721619	181.100000
746.759155	182.600000
746.796753	178.800000
746.834351	178.400000
746.871826	179.800000
746.909424	184.400000
746.946960	182.500000
746.984558	181.100000
747.022156	181.100000
747.059631	187.200000
747.097229	183.700000
747.134827	180.700000
747.172363	186.700000
747.209900	185.100000
747.247498	179.100000
747.285034	184.600000
747.322571	187.200000
747.360168	181.600000
747.397644	177.100000
747.435242	184.100000
747.472778	186.000000
747.510315	180.900000
747.547913	180.500000
747.585388	184.600000
747.622925	180.400000
747.660522	177.100000
747.697998	179.300000
747.735596	181.200000
747.773132	180.000000
747.810669	182.000000
747.848206	182.000000
747.885742	178.700000
747.923279	176.700000
747.960815	181.800000
747.998352	181.000000
748.035889	185.000000
748.073425	182.300000
748.110901	180.500000
748.148437	178.000000
748.185974	181.800000
748.223511	188.800000
748.261047	184.600000
748.298584	181.900000
748.336060	182.200000
748.373596	182.300000
748.411133	209.800000
748.448608	180.400000
748.486145	185.100000
748.523682	184.100000
748.561218	187.800000
748.598755	182.300000
748.636292	184.400000
748.673706	179.600000
748.711243	188.100000
748.748718	181.500000
748.786255	182.500000
748.823792	180.700000
748.861267	178.700000
748.898804	183.600000
748.936340	183.800000
748.973816	179.500000
749.011292	186.900000
749.048828	182.100000
749.086304	184.200000
749.123840	189.300000
749.161316	179.800000
749.198792	187.300000
749.236328	185.200000
749.273743	181.400000
749.311279	180.100000
749.348816	184.000000
749.386230	182.300000
749.423767	174.500000
749.461304	184.900000
749.498718	181.500000
749.536255	185.800000
749.573730	189.100000
749.611206	185.400000
749.648682	179.800000
749.686218	182.200000
749.723633	184.500000
749.761169	181.100000
749.798645	179.500000
749.836060	179.500000
749.873596	179.200000
749.911011	182.700000
749.948547	186.400000
749.986023	182.100000
750.023437	180.500000
750.060913	177.000000
750.098450	177.100000
750.135864	181.100000
750.173340	182.400000
750.210815	185.000000
750.248291	179.400000
750.285767	181.000000
750.323242	186.600000
750.360657	183.900000
750.398132	179.300000
750.435608	183.300000
750.473022	180.200000
750.510498	178.900000
750.547974	179.100000
750.585449	181.400000
750.622925	176.000000
750.660339	190.800000
750.697815	183.400000
750.735291	181.200000
750.772644	182.200000
750.810120	184.400000
750.847595	184.300000
750.885010	177.300000
750.922485	188.000000
750.959961	181.400000
750.997375	184.600000
751.034851	185.300000
751.072266	184.200000
751.109680	177.100000
751.147156	187.400000
751.184570	183.600000
751.221985	180.300000
751.259460	177.200000
751.296875	182.200000
751.334290	181.800000
751.371765	185.000000
751.409180	184.700000
751.446594	186.300000
751.484070	184.000000
751.521423	182.000000
751.558899	181.200000
751.596375	187.400000
751.633728	186.000000
751.671204	188.500000
751.708618	179.600000
751.746033	182.000000
751.783447	177.800000
751.820801	177.900000
751.858276	185.400000
751.895691	180.600000
751.933105	181.300000
751.970520	178.300000
752.007935	181.500000
752.045349	184.700000
752.082764	182.200000
752.120178	179.900000
752.157532	181.400000
752.195007	179.200000
752.232422	183.400000
752.269775	183.700000
752.307190	185.300000
752.344543	177.400000
752.382019	182.100000
752.419434	179.000000
752.456787	185.500000
752.494202	184.000000
752.531616	183.600000
752.568970	182.800000
752.606384	183.100000
752.643799	183.500000
752.681152	184.900000
752.718567	183.700000
752.755981	176.900000
752.793335	182.900000
752.830750	177.200000
752.868164	185.400000
752.905518	179.800000
752.942932	185.000000
752.980225	179.100000
753.017639	182.700000
753.055054	183.600000
753.092407	182.500000
753.129822	184.100000
753.167175	188.300000
753.204529	180.800000
753.241943	178.100000
753.279358	178.700000
753.316650	184.000000
753.354065	182.800000
753.391479	184.000000
753.428772	187.400000
753.466187	184.100000
753.503479	177.600000
753.540894	181.300000
753.578308	178.100000
753.615601	177.500000
753.653015	180.400000
753.690369	180.300000
753.727722	178.900000
753.765076	177.100000
753.802490	178.000000
753.839783	177.100000
753.877136	178.500000
753.914551	191.200000
753.951843	180.400000
753.989258	185.000000
754.026611	181.200000
754.063904	183.800000
754.101257	178.000000
754.138611	177.100000
754.175964	182.400000
754.213318	190.300000
754.250610	177.700000
754.288025	181.100000
754.325378	176.800000
754.362671	184.900000
754.400024	181.700000
754.437378	188.800000
754.474670	186.400000
754.512085	179.800000
754.549438	183.000000
754.586731	180.600000
754.624084	182.100000
754.661438	179.500000
754.698730	187.800000
754.736084	180.400000
754.773376	180.200000
754.810730	183.000000
754.848083	181.300000
754.885315	184.900000
754.922668	177.600000
754.960022	178.300000
754.997314	187.500000
755.034668	181.800000
755.072021	182.700000
755.109253	179.700000
755.146606	186.600000
755.183960	179.500000
755.221252	186.700000
755.258545	185.100000
755.295898	188.600000
755.333191	186.400000
755.370544	185.500000
755.407776	182.000000
755.445129	183.900000
755.482422	185.800000
755.519714	181.500000
755.557068	178.800000
755.594360	179.000000
755.631653	185.700000
755.668945	189.400000
755.706299	183.000000
755.743530	194.500000
755.780884	188.300000
755.818176	187.200000
755.855408	186.100000
755.892761	185.000000
755.930054	182.100000
755.967346	187.000000
756.004639	185.700000
756.041870	185.400000
756.079224	187.300000
756.116516	182.800000
756.153748	185.600000
756.191040	191.600000
756.228394	186.100000
756.265625	182.900000
756.302917	185.300000
756.340210	182.100000
756.377441	186.300000
756.414795	188.200000
756.452087	184.100000
756.489319	180.000000
756.526611	187.600000
756.563843	184.900000
756.601135	188.900000
756.638428	191.500000
756.675659	183.400000
756.712952	185.100000
756.750244	185.900000
756.787476	185.400000
756.824768	188.500000
756.862061	183.700000
756.899292	229.700000
756.936584	185.800000
756.973816	193.000000
757.011047	192.200000
757.048340	185.100000
757.085632	185.000000
757.122864	198.600000
757.160156	183.700000
757.197327	187.800000
757.234619	189.000000
757.271912	184.200000
757.309082	188.700000
757.346375	184.100000
757.383667	189.800000
757.420837	185.900000
757.458130	187.800000
757.495422	185.600000
757.532593	188.000000
757.569885	181.600000
757.607117	183.700000
757.644348	187.800000
757.681580	196.800000
757.718811	179.500000
757.756042	187.500000
757.793335	185.500000
757.830505	188.700000
757.867798	185.400000
757.905029	183.600000
757.942200	187.600000
757.979492	184.900000
758.016724	186.300000
758.053894	186.800000
758.091187	198.500000
758.128418	187.300000
758.165588	185.900000
758.202820	196.600000
758.240112	188.700000
758.277283	194.700000
758.314514	189.800000
758.351685	186.100000
758.388916	192.200000
758.426147	193.300000
758.463379	194.800000
758.500610	190.600000
758.537842	188.700000
758.575012	193.400000
758.612244	185.200000
758.649475	197.000000
758.686646	183.700000
758.723877	193.800000
758.761108	193.600000
758.798279	189.100000
758.835510	190.000000
758.872742	195.500000
758.909851	190.500000
758.947083	192.300000
758.984253	191.400000
759.021484	193.800000
759.058716	192.700000
759.095886	195.200000
759.133057	190.100000
759.170288	193.800000
759.207458	188.900000
759.244690	199.700000
759.281860	197.100000
759.319031	192.400000
759.356262	190.500000
759.393433	192.800000
759.430603	190.700000
759.467773	192.000000
759.505005	196.800000
759.542175	197.600000
759.579346	192.000000
759.616516	194.100000
759.653687	196.700000
759.690918	192.700000
759.728027	192.900000
759.765259	194.600000
759.802429	197.000000
759.839539	194.600000
759.876770	198.600000
759.913940	201.700000
759.951111	195.300000
759.988281	194.700000
760.025452	192.300000
760.062561	191.200000
760.099792	201.700000
760.136963	196.100000
760.174072	192.900000
760.211243	190.400000
760.248413	192.200000
760.285583	191.900000
760.322754	202.100000
760.359863	199.500000
760.397034	200.200000
760.434204	193.900000
760.471375	195.600000
760.508545	193.300000
760.545715	196.700000
760.582825	192.300000
760.619995	198.300000
760.657166	192.000000
760.694275	201.600000
760.731445	198.500000
760.768555	199.100000
760.805664	199.100000
760.842834	198.600000
760.879944	200.400000
760.917114	199.700000
760.954285	198.100000
760.991394	195.400000
761.028564	200.600000
761.065674	200.300000
761.102783	196.200000
761.139954	202.600000
761.177124	200.500000
761.214172	202.200000
761.251343	197.000000
761.288452	200.800000
761.325562	202.000000
761.362732	196.600000
761.399841	199.800000
761.436951	202.700000
761.474121	198.800000
761.511169	199.800000
761.548340	203.000000
761.585449	201.800000
761.622559	202.500000
761.659668	201.000000
761.696838	204.800000
761.733887	202.100000
761.771057	200.800000
761.808167	200.600000
761.845276	204.500000
761.882385	210.300000
761.919434	201.600000
761.956604	212.600000
761.993713	200.300000
762.030762	206.700000
762.067871	201.800000
762.105042	201.200000
762.142090	208.900000
762.179199	204.800000
762.216309	206.100000
762.253418	212.000000
762.290527	211.000000
762.327637	207.100000
762.364685	200.700000
762.401794	207.500000
762.438904	208.600000
762.475952	201.300000
762.513062	203.200000
762.550110	204.000000
762.587219	214.100000
762.624329	211.000000
762.661377	210.000000
762.698486	205.000000
762.735596	206.900000
762.772644	203.700000
762.809753	204.100000
762.846863	205.100000
762.883911	211.000000
762.921021	208.500000
762.958069	209.100000
762.995117	211.900000
763.032227	214.700000
763.069336	206.200000
763.106323	205.700000
763.143433	204.500000
763.180481	210.900000
763.217590	210.400000
763.254639	209.100000
763.291687	208.000000
763.328735	216.300000
763.365845	209.200000
763.402893	208.600000
763.439941	211.800000
763.477051	214.100000
763.514038	213.200000
763.551147	209.600000
763.588196	210.400000
763.625244	211.300000
763.662292	216.900000
763.699402	217.800000
763.736389	214.400000
763.773499	220.500000
763.810486	217.800000
763.847534	214.100000
763.884644	217.300000
763.921631	212.200000
763.958679	219.700000
763.995728	216.500000
764.032776	222.200000
764.069824	211.300000
764.106873	219.900000
764.143860	223.400000
764.180969	217.700000
764.218018	222.600000
764.255005	218.100000
764.292053	218.100000
764.329102	227.500000
764.366089	226.200000
764.403137	224.000000
764.440125	219.700000
764.477173	222.100000
764.514221	223.300000
764.551208	224.100000
764.588257	220.200000
764.625305	227.000000
764.662292	229.200000
764.699341	232.800000
764.736389	226.700000
764.773376	237.200000
764.810425	228.000000
764.847473	232.200000
764.884399	228.000000
764.921448	234.000000
764.958435	231.800000
764.995483	228.400000
765.032532	237.500000
765.069458	229.000000
765.106506	230.600000
765.143555	229.600000
765.180481	231.900000
765.217529	238.200000
765.254578	227.900000
765.291504	233.900000
765.328552	232.600000
765.365540	228.600000
765.402527	239.700000
765.439575	230.300000
765.476501	228.600000
765.513550	228.900000
765.550537	234.300000
765.587463	238.600000
765.624512	232.600000
765.661499	228.000000
765.698486	240.200000
765.735474	233.600000
765.772461	235.100000
765.809448	240.000000
765.846436	239.200000
765.883423	241.600000
765.920410	239.600000
765.957397	234.800000
765.994385	241.300000
766.031311	245.000000
766.068359	240.600000
766.105286	242.000000
766.142273	245.900000
766.179260	242.000000
766.216187	239.200000
766.253174	237.400000
766.290161	244.300000
766.327148	245.300000
766.364136	247.800000
766.401123	254.700000
766.438049	243.200000
766.475037	250.400000
766.512024	248.700000
766.548950	259.100000
766.585937	254.000000
766.622864	249.900000
766.659790	250.400000
766.696777	243.400000
766.733704	255.000000
766.770691	246.900000
766.807678	257.400000
766.844604	251.900000
766.881531	252.800000
766.918518	257.700000
766.955444	256.200000
766.992432	252.100000
767.029358	253.800000
767.066284	254.400000
767.103271	254.800000
767.140198	287.300000
767.177124	264.600000
767.214050	258.000000
767.251038	258.800000
767.287964	257.700000
767.324890	254.000000
767.361816	258.300000
767.398743	263.400000
767.435730	257.200000
767.472595	259.700000
767.509583	262.700000
767.546509	256.500000
767.583374	260.400000
767.620361	256.400000
767.657288	260.200000
767.694214	259.800000
767.731140	259.200000
767.768066	260.200000
767.804993	263.700000
767.841919	257.500000
767.878845	261.800000
767.915710	267.300000
767.952698	262.200000
767.989563	264.100000
768.026489	265.800000
768.063416	261.400000
768.100281	261.800000
768.137207	268.200000
768.174133	268.600000
768.211060	266.300000
768.247986	266.900000
768.284912	265.400000
768.321777	267.900000
768.358704	264.400000
768.395630	267.100000
768.432495	263.700000
768.469421	270.500000
768.506348	273.700000
768.543152	275.400000
768.580078	273.600000
768.616943	271.300000
768.653870	274.600000
768.690796	275.000000
768.727661	273.500000
768.764587	274.200000
768.801453	272.100000
768.838318	278.500000
768.875244	278.100000
768.912109	281.700000
768.948975	276.600000
768.985901	276.800000
769.022766	277.700000
769.059631	279.400000
769.096558	278.500000
769.133362	276.500000
769.170288	278.100000
769.207214	280.800000
769.244019	286.700000
769.280945	284.800000
769.317810	291.000000
769.354675	283.900000
769.391541	290.700000
769.428406	288.600000
769.465271	294.600000
769.502136	287.500000
769.539062	292.800000
769.575867	289.600000
769.612732	292.600000
769.649597	295.800000
769.686462	299.400000
769.723328	294.900000
769.760193	293.700000
769.797058	293.800000
769.833923	303.200000
769.870728	298.400000
769.907593	303.800000
769.944519	301.000000
769.981323	303.500000
770.018188	304.200000
770.055054	302.300000
770.091858	302.100000
770.128723	309.900000
770.165588	315.000000
770.202393	304.100000
770.239258	313.100000
770.276062	310.000000
770.312927	311.200000
770.349792	315.700000
770.386597	314.500000
770.423462	320.700000
770.460327	326.300000
770.497131	317.700000
770.533997	312.500000
770.570862	324.600000
770.607605	324.900000
770.644470	323.000000
770.681335	323.700000
770.718140	321.400000
770.754944	319.300000
770.791809	320.000000
770.828613	320.300000
770.865479	321.200000
770.902222	329.900000
770.939087	325.300000
770.975952	319.700000
771.012695	322.500000
771.049561	334.600000
771.086365	328.100000
771.123169	325.600000
771.159973	328.500000
771.196838	327.300000
771.233582	330.800000
771.270447	331.000000
771.307251	334.000000
771.344055	332.600000
771.380859	334.600000
771.417664	330.700000
771.454468	335.700000
771.491272	338.700000
771.528076	340.600000
771.564880	339.700000
771.601685	341.600000
771.638428	334.300000
771.675293	340.600000
771.712097	334.800000
771.748840	348.500000
771.785645	341.500000
771.822449	343.700000
771.859253	348.300000
771.896057	344.400000
771.932861	353.600000
771.969604	348.600000
772.006409	341.700000
772.043213	351.500000
772.079956	351.300000
772.116760	344.600000
772.153503	347.500000
772.190308	356.500000
772.227112	350.900000
772.263855	349.000000
772.300659	351.100000
772.337463	355.500000
772.374207	348.900000
772.411011	349.900000
772.447754	354.000000
772.484497	363.300000
772.521301	359.700000
772.558105	356.700000
772.594849	357.500000
772.631592	363.900000
772.668396	360.000000
772.705139	366.700000
772.741882	363.200000
772.778625	369.000000
772.815430	369.900000
772.852173	368.100000
772.888916	370.500000
772.925720	372.700000
772.962463	377.600000
772.999207	370.200000
773.035950	376.900000
773.072754	377.900000
773.109436	371.400000
773.146240	374.800000
773.182922	374.500000
773.219727	381.100000
773.256470	374.400000
773.293152	371.000000
773.329956	372.400000
773.366699	377.400000
773.403381	370.300000
773.440186	377.200000
773.476929	377.700000
773.513611	373.200000
773.550354	373.100000
773.587158	373.600000
773.623840	370.300000
773.660583	379.400000
773.697327	387.500000
773.734009	381.400000
773.770813	380.100000
773.807495	379.700000
773.844238	384.300000
773.880981	393.600000
773.917664	388.300000
773.954407	391.800000
773.991150	385.100000
774.027832	391.100000
774.064575	387.500000
774.101318	393.400000
774.138000	392.300000
774.174744	389.800000
774.211487	394.800000
774.248108	387.300000
774.284851	387.500000
774.321594	394.100000
774.358276	393.400000
774.395020	397.700000
774.431702	399.000000
774.468384	392.800000
774.505127	391.200000
774.541809	396.700000
774.578491	402.500000
774.615234	403.600000
774.651917	397.200000
774.688599	395.800000
774.725342	406.000000
774.762024	405.900000
774.798706	410.700000
774.835449	410.200000
774.872070	415.400000
774.908813	412.200000
774.945496	412.700000
774.982178	414.200000
775.018860	417.000000
775.055542	418.400000
775.092224	419.400000
775.128967	421.900000
775.165588	426.000000
775.202271	419.100000
775.239014	429.200000
775.275635	431.500000
775.312317	426.300000
775.349060	428.800000
775.385681	428.700000
775.422363	423.900000
775.459045	433.200000
775.495667	434.700000
775.532410	434.600000
775.569092	431.600000
775.605713	435.100000
775.642395	432.700000
775.679016	438.800000
775.715698	440.300000
775.752380	444.200000
775.789001	436.700000
775.825684	440.700000
775.862366	447.400000
775.898987	455.100000
775.935669	449.500000
775.972351	459.200000
776.008972	458.100000
776.045654	457.800000
776.082336	458.200000
776.118958	457.900000
776.155640	466.700000
776.192322	468.100000
776.228882	466.400000
776.265564	464.500000
776.302185	467.200000
776.338867	471.300000
776.375488	466.000000
776.412109	475.100000
776.448792	474.900000
776.485413	482.100000
776.522034	472.500000
776.558716	469.800000
776.595337	475.900000
776.631958	474.500000
776.668579	479.000000
776.705261	486.900000
776.741882	482.800000
776.778503	478.700000
776.815186	481.900000
776.851746	486.000000
776.888367	488.200000
776.924988	493.400000
776.961609	489.500000
776.998291	486.900000
777.034851	485.900000
777.071472	495.300000
777.108154	495.300000
777.144714	503.900000
777.181335	499.700000
777.218018	493.000000
777.254578	502.000000
777.291199	500.200000
777.327759	506.200000
777.364380	511.500000
777.401062	514.300000
777.437622	517.800000
777.474243	502.400000
777.510864	511.600000
777.547424	515.100000
777.584045	514.500000
777.620667	508.500000
777.657227	514.100000
777.693848	517.700000
777.730469	527.800000
777.767029	522.100000
777.803650	527.100000
777.840271	522.100000
777.876831	521.800000
777.913452	528.600000
777.950012	512.500000
777.986633	516.800000
778.023193	514.900000
778.059753	516.600000
778.096375	519.200000
778.132996	530.900000
778.169556	523.300000
778.206116	522.800000
778.242737	524.400000
778.279297	528.500000
778.315857	523.000000
778.352478	528.800000
778.389038	534.400000
778.425598	534.900000
778.462219	542.600000
778.498718	536.100000
778.535339	538.900000
778.571838	543.100000
778.608459	545.000000
778.645020	539.600000
778.681580	545.500000
778.718140	543.100000
778.754761	540.300000
778.791260	550.700000
778.827881	553.600000
778.864441	547.600000
778.900940	551.400000
778.937561	557.800000
778.974121	552.500000
779.010620	545.500000
779.047241	545.700000
779.083801	555.400000
779.120300	553.600000
779.156860	557.300000
779.193359	555.300000
779.229980	558.200000
779.266541	561.100000
779.303040	560.200000
779.339600	553.700000
779.376160	547.900000
779.412659	550.100000
779.449219	552.500000
779.485779	554.700000
779.522278	555.500000
779.558838	558.800000
779.595398	559.300000
779.631897	558.800000
779.668457	553.500000
779.705017	559.100000
779.741516	554.900000
779.778076	554.200000
779.814575	559.300000
779.851074	558.900000
779.887634	559.400000
779.924133	562.400000
779.960693	557.300000
779.997253	566.800000
780.033691	572.900000
780.070251	569.100000
780.106812	580.600000
780.143250	578.200000
780.179810	577.900000
780.216370	578.700000
780.252808	584.300000
780.289368	584.500000
780.325867	586.700000
780.362366	580.600000
780.398865	589.500000
780.435364	584.900000
780.471863	595.100000
780.508423	588.800000
780.544861	596.600000
780.581421	592.700000
780.617920	582.800000
780.654419	580.200000
780.690918	591.500000
780.727417	590.800000
780.763916	592.100000
780.800415	597.300000
780.836914	587.200000
780.873352	598.600000
780.909912	593.000000
780.946411	600.500000
780.982849	609.600000
781.019348	614.300000
781.055786	609.700000
781.092346	608.100000
781.128845	614.400000
781.165283	621.800000
781.201782	633.200000
781.238281	630.200000
781.274719	630.700000
781.311218	630.600000
781.347717	638.600000
781.384155	628.000000
781.420654	627.300000
781.457092	634.800000
781.493591	630.200000
781.530090	628.700000
781.566528	628.900000
781.602966	631.000000
781.639465	635.600000
781.675903	631.700000
781.712402	636.500000
781.748901	637.600000
781.785278	634.300000
781.821777	641.600000
781.858276	641.300000
781.894714	654.500000
781.931152	644.200000
781.967651	654.800000
782.004089	644.100000
782.040527	651.800000
782.076965	654.100000
782.113403	661.900000
782.149902	668.200000
782.186340	664.500000
782.222778	669.400000
782.259277	657.900000
782.295654	664.600000
782.332092	669.700000
782.368591	669.000000
782.404968	667.500000
782.441467	670.500000
782.477905	674.500000
782.514282	671.800000
782.550781	684.300000
782.587219	679.700000
782.623596	686.000000
782.660095	688.100000
782.696472	695.000000
782.732910	690.900000
782.769348	698.900000
782.805786	707.200000
782.842224	702.200000
782.878662	697.300000
782.915039	692.800000
782.951477	694.900000
782.987915	690.600000
783.024292	689.600000
783.060730	687.300000
783.097168	676.500000
783.133545	667.100000
783.169983	656.900000
783.206421	648.200000
783.242798	641.200000
783.279236	634.100000
783.315613	625.600000
783.352051	617.500000
783.388489	607.600000
783.424866	597.900000
783.461304	597.200000
783.497681	595.900000
783.534058	586.500000
783.570496	579.100000
783.606934	572.500000
783.643250	567.100000
783.679687	568.200000
783.716125	556.900000
783.752441	562.800000
783.788879	571.900000
783.825317	576.700000
783.861633	575.200000
783.898071	572.600000
783.934448	574.500000
783.970825	583.900000
784.007263	571.300000
784.043579	576.000000
784.080017	574.600000
784.116394	567.000000
784.152710	569.100000
784.189148	571.100000
784.225525	570.700000
784.261902	571.100000
784.298279	571.700000
784.334656	573.900000
784.371033	573.700000
784.407410	583.100000
784.443787	578.100000
784.480164	576.600000
784.516541	574.200000
784.552856	587.900000
784.589233	594.600000
784.625610	597.900000
784.661987	612.900000
784.698364	615.000000
784.734741	618.200000
784.771057	626.700000
784.807434	637.600000
784.843811	656.500000
784.880127	661.600000
784.916504	683.500000
784.952881	692.300000
784.989197	692.500000
785.025574	701.000000
785.061951	711.700000
785.098267	737.100000
785.134644	736.500000
785.170959	730.400000
785.207275	734.100000
785.243652	741.200000
785.279968	729.400000
785.316345	733.000000
785.352722	725.500000
785.388977	724.000000
785.425354	710.800000
785.461731	704.300000
785.498047	706.500000
785.534363	709.700000
785.570679	711.900000
785.606995	715.300000
785.643372	716.000000
785.679687	716.100000
785.716003	704.000000
785.752380	710.300000
785.788635	718.900000
785.825012	731.000000
785.861328	731.800000
785.897644	727.500000
785.933960	741.000000
785.970337	749.100000
786.006592	765.500000
786.042908	775.100000
786.079285	778.600000
786.115540	783.700000
786.151855	781.100000
786.188171	779.300000
786.224487	781.400000
786.260803	776.300000
786.297119	782.100000
786.333435	778.000000
786.369751	767.600000
786.406006	760.800000
786.442322	757.500000
786.478638	747.000000
786.514954	748.700000
786.551270	746.000000
786.587585	751.000000
786.623840	736.800000
786.660156	736.800000
786.696472	732.000000
786.732727	734.300000
786.769043	737.000000
786.805298	734.700000
786.841614	735.900000
786.877930	745.300000
786.914124	737.300000
786.950439	761.700000
786.986755	770.300000
787.023010	780.700000
787.059326	782.400000
787.095642	791.100000
787.131836	799.800000
787.168152	794.600000
787.204468	803.400000
787.240723	818.300000
787.276978	818.700000
787.313293	820.400000
787.349548	807.400000
787.385803	811.300000
787.422058	809.900000
787.458313	813.600000
787.494629	797.800000
787.530823	794.800000
787.567139	780.100000
787.603455	779.800000
787.639648	774.700000
787.675903	777.600000
787.712219	775.200000
787.748413	768.200000
787.784729	778.500000
787.820984	773.900000
787.857178	774.600000
787.893494	768.400000
787.929749	770.000000
787.965942	782.200000
788.002258	790.400000
788.038452	797.600000
788.074707	800.400000
788.110962	807.700000
788.147217	805.100000
788.183472	815.600000
788.219727	827.200000
788.255920	841.100000
788.292175	840.500000
788.328430	833.400000
788.364624	816.600000
788.400879	818.300000
788.437134	836.200000
788.473328	829.600000
788.509583	835.200000
788.545837	830.800000
788.582031	830.500000
788.618286	828.500000
788.654480	833.400000
788.690735	838.200000
788.726990	848.100000
788.763184	846.500000
788.799377	853.700000
788.835632	848.100000
788.871826	856.200000
788.908081	854.100000
788.944336	852.600000
788.980469	859.600000
789.016724	858.300000
789.052979	865.600000
789.089111	850.200000
789.125366	857.900000
789.161621	856.900000
789.197754	852.300000
789.234009	845.500000
789.270142	843.600000
789.306396	833.200000
789.342590	826.700000
789.378784	811.600000
789.414978	823.400000
789.451233	842.200000
789.487366	832.700000
789.523621	840.700000
789.559814	835.100000
789.595947	829.500000
789.632202	839.600000
789.668335	851.600000
789.704529	864.600000
789.740784	876.600000
789.776917	873.500000
789.813110	868.100000
789.849304	880.600000
789.885498	881.900000
789.921692	895.900000
789.957886	898.200000
789.994019	897.800000
790.030212	896.600000
790.066406	901.500000
790.102539	900.600000
790.138733	914.100000
790.174927	912.200000
790.211060	924.200000
790.247253	913.300000
790.283386	900.800000
790.319580	886.400000
790.355774	884.400000
790.391907	889.700000
790.428101	898.500000
790.464294	894.300000
790.500427	888.600000
790.536621	876.300000
790.572754	866.900000
790.608887	862.100000
790.645081	869.800000
790.681274	881.800000
790.717346	878.400000
790.753540	862.400000
790.789734	847.800000
790.825867	841.900000
790.862000	849.300000
790.898132	864.600000
790.934265	871.700000
790.970459	855.600000
791.006592	849.600000
791.042725	851.300000
791.078918	849.100000
791.114990	856.100000
791.151184	855.900000
791.187317	870.300000
791.223389	865.700000
791.259583	850.600000
791.295715	853.000000
791.331848	861.300000
791.367981	871.200000
791.404114	869.100000
791.440247	872.500000
791.476379	864.400000
791.512451	846.800000
791.548584	847.900000
791.584778	840.400000
791.620850	861.600000
791.656982	867.000000
791.693115	859.600000
791.729187	857.800000
791.765381	849.100000
791.801514	851.300000
791.837585	863.900000
791.873718	863.600000
791.909851	869.800000
791.945923	878.600000
791.982056	857.100000
792.018188	846.500000
792.054260	855.300000
792.090393	856.000000
792.126465	855.300000
792.162598	856.600000
792.198669	841.000000
792.234741	835.900000
792.270874	825.100000
792.307007	823.200000
792.343079	831.000000
792.379150	840.500000
792.415283	824.000000
792.451355	823.700000
792.487488	810.700000
792.523560	793.800000
792.559631	771.800000
792.595764	722.300000
792.631836	689.600000
792.667908	680.600000
792.703979	674.900000
792.740051	701.500000
792.776184	731.500000
792.812256	738.000000
792.848328	750.300000
792.884399	754.100000
792.920471	750.400000
792.956543	749.800000
792.992615	753.200000
793.028748	754.300000
793.064758	761.600000
793.100830	777.300000
793.136963	783.800000
793.172974	782.000000
793.209045	774.100000
793.245178	785.400000
793.281189	771.800000
793.317261	776.100000
793.353271	776.700000
793.389404	784.800000
793.425476	774.900000
793.461487	766.700000
793.497559	760.200000
793.533630	758.800000
793.569641	757.500000
793.605713	765.600000
793.641785	768.600000
793.677795	776.300000
793.713867	771.400000
793.749878	779.600000
793.785950	789.900000
793.822021	799.400000
793.858032	786.200000
793.894104	792.800000
793.930176	784.000000
793.966187	788.600000
794.002258	779.800000
794.038269	792.900000
794.074280	789.900000
794.110352	806.000000
794.146423	790.700000
794.182373	786.400000
794.218445	778.600000
794.254517	781.400000
794.290466	771.700000
794.326538	774.600000
794.362549	776.600000
794.398560	776.700000
794.434631	767.200000
794.470581	757.100000
794.506653	758.100000
794.542664	761.100000
794.578674	766.500000
794.614685	766.100000
794.650757	764.000000
794.686707	766.600000
794.722778	763.000000
794.758789	776.700000
794.794739	783.600000
794.830811	800.600000
794.866821	817.800000
794.902771	815.300000
794.938843	806.300000
794.974792	804.400000
795.010803	808.400000
795.046814	810.600000
795.082825	801.900000
795.118835	809.400000
795.154846	783.300000
795.190796	784.700000
795.226807	776.000000
795.262817	784.900000
795.298767	782.900000
795.334778	795.300000
795.370850	786.900000
795.406799	783.200000
795.442810	770.900000
795.478821	764.600000
795.514709	776.000000
795.550720	799.500000
795.586670	776.800000
795.622681	781.400000
795.658691	776.500000
795.694641	772.000000
795.730652	774.100000
795.766663	784.000000
795.802551	788.900000
795.838562	794.300000
795.874573	782.900000
795.910522	779.800000
795.946472	771.700000
795.982483	780.600000
796.018433	784.700000
796.054382	790.400000
796.090393	788.300000
796.126282	785.700000
796.162292	769.000000
796.198242	766.900000
796.234192	760.800000
796.270203	776.000000
796.306091	776.400000
796.342041	784.000000
796.378052	767.100000
796.413940	767.600000
796.449951	773.100000
796.485901	772.800000
796.521790	780.500000
796.557800	789.200000
796.593689	787.300000
796.629639	782.600000
796.665649	779.700000
796.701599	777.600000
796.737488	780.800000
796.773437	792.100000
796.809387	785.200000
796.845337	785.400000
796.881287	775.100000
796.917175	765.300000
796.953125	766.100000
796.989075	769.200000
797.024963	777.300000
797.060913	776.400000
797.096863	767.600000
797.132751	757.900000
797.168701	750.800000
797.204590	758.400000
797.240540	760.100000
797.276489	765.100000
797.312439	759.400000
797.348328	755.200000
797.384277	744.700000
797.420166	742.200000
797.456055	750.400000
797.492004	750.900000
797.527893	760.200000
797.563843	766.100000
797.599731	759.600000
797.635620	742.300000
797.671570	749.700000
797.707520	757.300000
797.743347	750.000000
797.779297	756.400000
797.815125	749.900000
797.851074	747.300000
797.887024	738.500000
797.922913	735.100000
797.958801	744.700000
797.994690	735.700000
798.030579	740.900000
798.066467	740.200000
798.102356	726.900000
798.138245	729.400000
798.174133	730.000000
798.210083	733.900000
798.245911	744.700000
798.281799	747.500000
798.317749	736.600000
798.353577	731.000000
798.389465	727.600000
798.425293	727.900000
798.461243	728.800000
798.497131	725.600000
798.532959	733.300000
798.568848	734.300000
798.604736	717.400000
798.640564	712.700000
798.676453	723.000000
798.712402	720.500000
798.748230	720.500000
798.784119	729.600000
798.820007	727.800000
798.855835	714.500000
798.891724	712.700000
798.927551	705.700000
798.963379	715.000000
798.999268	714.800000
799.035095	705.900000
799.070984	699.500000
799.106873	692.900000
799.142700	695.200000
799.178528	692.600000
799.214417	699.800000
799.250244	702.500000
799.286133	694.400000
799.321960	697.600000
799.357788	688.400000
799.393677	691.900000
799.429504	692.200000
799.465332	691.400000
799.501221	697.600000
799.537048	698.500000
799.572876	696.600000
799.608704	697.400000
799.644531	703.200000
799.680359	704.000000
799.716248	706.400000
799.752014	720.000000
799.787903	708.600000
799.823730	702.700000
799.859558	695.800000
799.895386	703.200000
799.931213	701.100000
799.967041	689.700000
800.002869	696.500000
800.038696	701.200000
800.074463	688.300000
800.110352	689.300000
800.146179	679.700000
800.181946	688.000000
800.217773	689.000000
800.253540	684.400000
800.289429	682.900000
800.325256	682.200000
800.361023	678.800000
800.396851	691.400000
800.432678	694.500000
800.468445	683.100000
800.504272	680.900000
800.540100	669.700000
800.575867	672.600000
800.611694	676.800000
800.647461	674.300000
800.683289	678.400000
800.719116	678.700000
800.754883	671.400000
800.790649	664.500000
800.826477	658.900000
800.862244	679.800000
800.898071	666.500000
800.933838	670.700000
800.969604	669.100000
801.005432	661.200000
801.041199	664.000000
801.076965	661.700000
801.112793	651.500000
801.148560	653.200000
801.184326	650.600000
801.220154	649.800000
801.255859	641.800000
801.291687	644.500000
801.327454	639.900000
801.363281	646.000000
801.398987	638.100000
801.434814	638.800000
801.470520	642.500000
801.506287	636.100000
801.542114	630.400000
801.577820	628.700000
801.613647	631.700000
801.649414	631.300000
801.685120	632.100000
801.720886	635.100000
801.756714	629.600000
801.792419	624.800000
801.828186	617.400000
801.863892	622.500000
801.899719	619.700000
801.935486	619.700000
801.971252	626.000000
802.006958	615.800000
802.042725	609.800000
802.078430	609.700000
802.114197	613.800000
802.149963	621.000000
802.185669	614.100000
802.221436	615.900000
802.257202	617.400000
802.292908	610.600000
802.328674	619.900000
802.364441	620.200000
802.400146	616.700000
802.435913	616.000000
802.471558	611.900000
802.507324	612.600000
802.543091	608.300000
802.578796	616.800000
802.614502	621.500000
802.650269	625.600000
802.685974	607.600000
802.721741	604.400000
802.757446	610.600000
802.793152	613.000000
802.828918	621.300000
802.864624	619.400000
802.900330	615.600000
802.936035	608.400000
802.971802	609.900000
803.007446	600.600000
803.043213	600.000000
803.078857	614.500000
803.114624	593.900000
803.150330	594.800000
803.185974	593.200000
803.221741	592.700000
803.257446	602.700000
803.293152	604.200000
803.328857	600.000000
803.364563	597.200000
803.400208	588.500000
803.435974	593.100000
803.471680	588.500000
803.507324	587.700000
803.543030	591.900000
803.578735	592.400000
803.614441	585.300000
803.650146	598.300000
803.685791	585.600000
803.721497	588.600000
803.757202	577.600000
803.792847	588.600000
803.828552	580.800000
803.864258	580.300000
803.899902	577.400000
803.935608	567.300000
803.971313	569.100000
804.006958	573.300000
804.042664	568.400000
804.078308	574.300000
804.113953	563.600000
804.149658	565.800000
804.185364	554.600000
804.221008	572.500000
804.256714	558.600000
804.292297	555.400000
804.328003	551.000000
804.363708	551.600000
804.399292	553.700000
804.434998	557.900000
804.470703	549.300000
804.506287	557.500000
804.541992	550.200000
804.577637	551.600000
804.613281	540.900000
804.648926	539.800000
804.684570	543.000000
804.720215	539.100000
804.755920	534.300000
804.791565	540.400000
804.827209	547.000000
804.862854	539.100000
804.898437	530.800000
804.934143	533.400000
804.969788	533.700000
805.005371	535.500000
805.041077	533.500000
805.076721	531.600000
805.112305	521.600000
805.147949	523.900000
805.183655	521.000000
805.219238	526.300000
805.254883	523.300000
805.290466	526.600000
805.326111	522.500000
805.361755	514.400000
805.397400	513.300000
805.432983	519.900000
805.468628	520.400000
805.504211	521.200000
805.539856	525.300000
805.575500	522.100000
805.611084	516.500000
805.646729	507.700000
805.682373	515.500000
805.717957	518.700000
805.753601	521.300000
805.789246	508.000000
805.824768	514.200000
805.860413	513.800000
805.895996	505.500000
805.931641	504.900000
805.967224	516.000000
806.002869	511.500000
806.038452	513.700000
806.074036	513.100000
806.109619	506.400000
806.145264	502.100000
806.180847	503.300000
806.216431	502.700000
806.252014	505.800000
806.287659	505.200000
806.323181	510.200000
806.358826	506.300000
806.394409	492.700000
806.429993	490.700000
806.465576	501.500000
806.501160	493.000000
806.536743	489.400000
806.572327	491.800000
806.607910	491.000000
806.643494	490.100000
806.679077	484.700000
806.714661	483.400000
806.750244	482.300000
806.785828	484.200000
806.821350	484.800000
806.856934	484.400000
806.892517	478.000000
806.928101	477.800000
806.963684	479.800000
806.999268	483.200000
807.034790	472.100000
807.070374	474.700000
807.105896	471.500000
807.141479	470.100000
807.177063	471.600000
807.212585	469.200000
807.248169	466.700000
807.283752	468.600000
807.319275	467.300000
807.354858	469.000000
807.390381	465.100000
807.425903	462.000000
807.461487	457.900000
807.497070	457.100000
807.532593	462.200000
807.568115	458.800000
807.603699	451.100000
807.639221	452.000000
807.674744	452.800000
807.710266	457.200000
807.745850	456.800000
807.781372	454.700000
807.816895	451.600000
807.852417	452.400000
807.888000	451.500000
807.923523	447.900000
807.959045	450.900000
807.994629	443.800000
808.030090	445.500000
808.065613	445.800000
808.101135	448.100000
808.136658	444.500000
808.172241	443.000000
808.207764	445.200000
808.243225	441.500000
808.278809	437.300000
808.314270	442.600000
808.349792	433.000000
808.385315	432.500000
808.420837	436.000000
808.456360	443.200000
808.491882	443.300000
808.527344	436.600000
808.562866	441.900000
808.598389	433.600000
808.633850	432.100000
808.669434	428.800000
808.704895	432.900000
808.740417	438.600000
808.775940	433.700000
808.811462	430.300000
808.846924	421.900000
808.882385	424.900000
808.917847	424.400000
808.953369	425.900000
808.988892	420.100000
809.024353	427.700000
809.059875	427.000000
809.095398	423.400000
809.130798	417.400000
809.166321	422.500000
809.201843	421.400000
809.237305	419.100000
809.272766	422.900000
809.308228	416.000000
809.343750	412.400000
809.379211	413.800000
809.414734	412.700000
809.450134	419.600000
809.485657	407.700000
809.521118	412.900000
809.556580	407.700000
809.592102	409.900000
809.627502	403.200000
809.663025	404.000000
809.698486	401.400000
809.733887	399.400000
809.769409	402.900000
809.804871	394.900000
809.840271	395.300000
809.875793	398.300000
809.911194	399.900000
809.946655	392.600000
809.982178	392.500000
810.017639	394.400000
810.053040	393.300000
810.088501	391.500000
810.123901	391.700000
810.159424	389.800000
810.194885	384.600000
810.230286	385.900000
810.265747	382.500000
810.301208	379.800000
810.336609	381.200000
810.372070	375.500000
810.407532	377.500000
810.442932	380.600000
810.478394	382.000000
810.513794	377.200000
810.549255	375.600000
810.584717	374.200000
810.620117	372.100000
810.655518	375.700000
810.690979	373.500000
810.726379	369.300000
810.761841	366.600000
810.797302	363.600000
810.832642	362.300000
810.868103	373.000000
810.903564	364.200000
810.938904	367.300000
810.974365	355.900000
811.009827	359.900000
811.045166	357.100000
811.080627	351.700000
811.115967	354.500000
811.151428	359.500000
811.186829	357.000000
811.222229	355.100000
811.257629	350.500000
811.293091	354.600000
811.328430	362.300000
811.363892	357.100000
811.399292	354.900000
811.434631	350.700000
811.470093	355.500000
811.505493	350.100000
811.540833	347.500000
811.576294	348.800000
811.611694	348.200000
811.647034	343.300000
811.682434	344.700000
811.717773	346.800000
811.753235	351.800000
811.788635	345.400000
811.823975	345.400000
811.859375	353.400000
811.894775	340.200000
811.930115	343.200000
811.965515	341.600000
812.000916	342.200000
812.036255	337.200000
812.071655	344.500000
812.106995	339.000000
812.142395	338.800000
812.177795	343.700000
812.213196	340.400000
812.248474	339.700000
812.283875	334.600000
812.319214	337.100000
812.354614	336.700000
812.390015	331.600000
812.425293	333.200000
812.460693	333.500000
812.496094	331.600000
812.531433	325.000000
812.566772	325.400000
812.602173	329.800000
812.637451	327.100000
812.672852	326.300000
812.708191	327.100000
812.743530	319.400000
812.778931	317.400000
812.814270	318.300000
812.849609	324.000000
812.884949	321.200000
812.920227	317.100000
812.955627	324.100000
812.990967	319.100000
813.026306	315.000000
813.061646	307.300000
813.096985	304.800000
813.132324	304.600000
813.167664	305.700000
813.203003	307.800000
813.238281	299.800000
813.273682	299.800000
813.308960	299.400000
813.344299	298.700000
813.379639	303.600000
813.414978	300.200000
813.450256	299.500000
813.485596	300.100000
813.520874	295.600000
813.556213	297.100000
813.591614	300.700000
813.626831	293.300000
813.662170	296.400000
813.697510	301.400000
813.732788	293.600000
813.768127	296.400000
813.803467	295.200000
813.838745	291.300000
813.874084	294.600000
813.909363	293.000000
813.944641	294.000000
813.979980	285.900000
814.015320	288.700000
814.050598	284.400000
814.085876	288.400000
814.121155	285.900000
814.156494	286.200000
814.191772	283.900000
814.227051	283.400000
814.262390	284.600000
814.297668	284.100000
814.332947	284.200000
814.368225	279.700000
814.403564	279.900000
814.438782	283.100000
814.474121	280.700000
814.509338	278.400000
814.544617	284.600000
814.579956	280.000000
814.615173	284.100000
814.650513	279.200000
814.685791	275.900000
814.721008	278.100000
814.756348	277.900000
814.791626	275.100000
814.826843	273.600000
814.862122	273.100000
814.897400	272.300000
814.932678	274.300000
814.967957	272.000000
815.003235	274.200000
815.038452	270.800000
815.073730	265.200000
815.108948	273.800000
815.144226	274.200000
815.179504	276.300000
815.214722	265.600000
815.250000	264.100000
815.285278	268.100000
815.320496	265.800000
815.355774	265.000000
815.391052	267.100000
815.426270	263.800000
815.461487	264.000000
815.496765	260.100000
815.531982	259.800000
815.567261	262.000000
815.602539	267.400000
815.637695	261.000000
815.672974	263.900000
815.708191	265.700000
815.743408	265.000000
815.778687	257.100000
815.813904	265.200000
815.849121	253.200000
815.884399	256.000000
815.919556	255.200000
815.954834	256.800000
815.990051	256.000000
816.025269	261.200000
816.060486	252.300000
816.095703	254.200000
816.130920	252.300000
816.166199	253.400000
816.201416	253.200000
816.236572	256.400000
816.271851	250.300000
816.307007	254.100000
816.342224	244.900000
816.377441	251.200000
816.412659	244.600000
816.447876	251.600000
816.483093	245.900000
816.518250	246.400000
816.553467	244.700000
816.588745	248.100000
816.623901	243.400000
816.659119	238.500000
816.694275	243.700000
816.729492	240.300000
816.764709	266.800000
816.799927	237.300000
816.835083	240.300000
816.870300	234.700000
816.905457	236.800000
816.940674	238.200000
816.975830	234.600000
817.010986	234.200000
817.046204	233.600000
817.081421	231.200000
817.116577	233.900000
817.151733	236.600000
817.186951	236.800000
817.222107	232.800000
817.257324	234.700000
817.292419	236.100000
817.327637	230.100000
817.362854	231.700000
817.398010	229.000000
817.433167	231.500000
817.468323	229.000000
817.503479	229.400000
817.538635	237.100000
817.573853	229.000000
817.608948	231.400000
817.644165	225.300000
817.679321	226.100000
817.714478	223.400000
817.749634	226.800000
817.784790	233.200000
817.819946	230.700000
817.855103	220.200000
817.890198	225.600000
817.925415	219.100000
817.960571	226.700000
817.995667	225.000000
818.030823	225.100000
818.066040	220.000000
818.101135	223.400000
818.136292	221.800000
818.171448	219.700000
818.206543	219.400000
818.241699	221.900000
818.276855	221.300000
818.311951	218.200000
818.347107	215.700000
818.382263	222.500000
818.417358	225.300000
818.452515	223.900000
818.487610	225.200000
818.522766	217.000000
818.557922	222.500000
818.593018	220.900000
818.628113	218.000000
818.663269	213.600000
818.698364	217.600000
818.733521	213.500000
818.768677	216.700000
818.803711	212.700000
818.838867	212.000000
818.874023	212.500000
818.909058	211.600000
818.944214	209.200000
818.979370	213.900000
819.014404	212.700000
819.049561	210.500000
819.084595	212.700000
819.119751	208.400000
819.154846	212.300000
819.189941	209.900000
819.225037	206.500000
819.260193	204.500000
819.295227	203.200000
819.330322	203.200000
819.365479	202.300000
819.400513	235.500000
819.435608	201.500000
819.470764	200.800000
819.505798	200.800000
819.540894	204.500000
819.575989	201.800000
819.611084	206.800000
819.646179	208.300000
819.681213	205.400000
819.716309	200.500000
819.751404	201.100000
819.786438	206.200000
819.821533	198.200000
819.856628	202.700000
819.891663	203.700000
819.926758	210.100000
819.961853	205.600000
819.996887	198.900000
820.031982	201.600000
820.067017	200.600000
820.102112	232.400000
820.137207	196.700000
820.172302	207.800000
820.207275	196.900000
820.242371	194.900000
820.277405	196.700000
820.312500	197.000000
820.347534	198.200000
820.382568	201.800000
820.417664	196.100000
820.452759	195.500000
820.487732	195.100000
820.522827	195.500000
820.557861	194.500000
820.592896	194.700000
820.627930	195.900000
820.662964	192.500000
820.698059	198.200000
820.733093	194.200000
820.768127	197.000000
820.803162	194.600000
820.838196	194.900000
820.873230	194.600000
820.908264	198.100000
820.943298	191.800000
820.978333	198.000000
821.013367	193.800000
821.048401	198.000000
821.083435	196.400000
821.118469	190.100000
821.153503	197.100000
821.188477	195.600000
821.223511	188.800000
821.258484	193.900000
821.293579	194.000000
821.328613	189.900000
821.363647	191.100000
821.398621	189.200000
821.433655	188.700000
821.468628	202.500000
821.503662	191.400000
821.538696	194.600000
821.573669	189.700000
821.608704	193.300000
821.643677	189.500000
821.678650	193.900000
821.713684	196.100000
821.748718	190.000000
821.783691	190.900000
821.818726	191.500000
821.853638	192.300000
821.888672	189.000000
821.923706	189.000000
821.958618	188.600000
821.993652	189.500000
822.028687	193.300000
822.063599	196.600000
822.098633	190.700000
822.133667	187.900000
822.168579	189.800000
822.203613	192.300000
822.238586	186.900000
822.273560	192.700000
822.308533	187.300000
822.343567	188.200000
822.378479	188.300000
822.413452	189.200000
822.448425	185.700000
822.483398	192.500000
822.518372	191.700000
822.553345	187.700000
822.588318	195.300000
822.623291	190.000000
822.658203	187.400000
822.693237	191.700000
822.728210	185.400000
822.763123	190.400000
822.798096	185.700000
822.833069	190.500000
822.867981	188.200000
822.902954	191.100000
822.937927	190.400000
822.972900	196.600000
823.007874	184.800000
823.042725	194.300000
823.077698	195.600000
823.112671	186.700000
823.147583	187.800000
823.182556	191.700000
823.217529	191.400000
823.252441	186.900000
823.287415	197.700000
823.322388	191.600000
823.357239	188.100000
823.392212	192.600000
823.427185	193.500000
823.462097	185.000000
823.497009	189.900000
823.531982	187.400000
823.566895	190.000000
823.601807	184.500000
823.636719	187.500000
823.671631	189.100000
823.706604	187.300000
823.741455	190.200000
823.776428	184.700000
823.811340	189.500000
823.846252	192.800000
823.881165	191.900000
823.916138	188.800000
823.950989	193.700000
823.985901	186.600000
824.020813	186.600000
824.055725	187.200000
824.090637	183.500000
824.125610	190.000000
824.160461	188.800000
824.195374	189.300000
824.230225	189.700000
824.265198	185.200000
824.300110	185.900000
824.334961	195.900000
824.369873	180.600000
824.404785	189.900000
824.439636	189.700000
824.474548	183.400000
824.509460	180.500000
824.544312	192.000000
824.579224	188.700000
824.614075	189.600000
824.648987	185.100000
824.683899	187.500000
824.718811	183.700000
824.753662	191.000000
824.788574	190.300000
824.823364	188.100000
824.858276	183.500000
824.893188	189.800000
824.928040	190.100000
824.962952	188.100000
824.997803	189.100000
825.032654	186.800000
825.067566	187.800000
825.102417	183.800000
825.137268	185.300000
825.172119	185.900000
825.206970	184.300000
825.241882	183.900000
825.276733	183.500000
825.311646	184.400000
825.346436	181.000000
825.381348	180.900000
825.416138	185.600000
825.450989	181.800000
825.485901	178.000000
825.520691	178.400000
825.555542	181.600000
825.590454	183.200000
825.625244	180.100000
825.660095	188.500000
825.695007	186.200000
825.729797	183.000000
825.764648	180.400000
825.799438	182.600000
825.834290	185.300000
825.869202	179.200000
825.903992	185.300000
825.938843	181.000000
825.973694	180.500000
826.008484	190.500000
826.043335	180.200000
826.078186	176.000000
826.112976	187.300000
826.147827	185.700000
826.182678	189.600000
826.217468	176.800000
826.252319	187.400000
826.287109	179.400000
826.321899	186.500000
826.356750	181.300000
826.391541	179.600000
826.426392	184.400000
826.461182	182.300000
826.495972	178.900000
826.530823	175.200000
826.565613	182.600000
826.600403	178.000000
826.635254	182.600000
826.670044	175.700000
826.704834	176.100000
826.739685	177.000000
826.774475	183.200000
826.809265	181.400000
826.844055	178.700000
826.878906	184.200000
826.913635	182.000000
826.948425	181.400000
826.983215	182.700000
827.018005	183.900000
827.052856	179.300000
827.087585	183.400000
827.122375	176.300000
827.157227	179.300000
827.191956	191.100000
827.226746	176.500000
827.261536	184.200000
827.296265	176.500000
827.331116	179.900000
827.365906	181.800000
827.400635	180.000000
827.435425	174.200000
827.470215	185.300000
827.504944	180.900000
827.539734	186.000000
827.574463	180.500000
827.609253	187.000000
827.644043	180.100000
827.678772	185.600000
827.713562	179.700000
827.748352	181.700000
827.783081	177.400000
827.817871	183.200000
827.852600	177.300000
827.887329	182.000000
827.922119	174.800000
827.956848	183.900000
827.991638	188.600000
828.026367	181.700000
828.061157	181.000000
828.095886	181.100000
828.130615	193.000000
828.165344	175.000000
828.200073	178.700000
828.234863	179.800000
828.269592	180.300000
828.304321	182.100000
828.339111	181.300000
828.373779	178.300000
828.408569	183.300000
828.443298	184.300000
828.477966	180.100000
828.512756	181.100000
828.547424	177.600000
828.582214	180.400000
828.616943	180.100000
828.651672	178.300000
828.686340	182.900000
828.721130	178.000000
828.755798	181.800000
828.790527	180.000000
828.825256	182.600000
828.859924	181.400000
828.894714	185.300000
828.929443	186.800000
828.964111	180.500000
828.998840	183.700000
829.033569	180.000000
829.068237	179.800000
829.102966	179.800000
829.137634	180.900000
829.172363	183.400000
829.207092	180.300000
829.241821	179.900000
829.276489	175.200000
829.311157	182.200000
829.345825	177.700000
829.380554	185.400000
829.415283	177.000000
829.449951	176.800000
829.484619	186.400000
829.519348	187.500000
829.554016	180.500000
829.588745	181.900000
829.623413	176.200000
829.658081	187.800000
829.692749	177.800000
829.727417	184.200000
829.762146	180.600000
829.796814	179.000000
829.831482	179.000000
829.866150	181.300000
829.900879	179.500000
829.935486	182.000000
829.970154	179.300000
830.004883	189.100000
830.039490	181.300000
830.074219	178.400000
830.108887	182.300000
830.143494	181.000000
830.178223	176.100000
830.212891	178.900000
830.247498	180.200000
830.282166	185.500000
830.316772	186.300000
830.351501	179.000000
830.386169	181.600000
830.420776	178.900000
830.455444	182.400000
830.490112	178.100000
830.524719	177.100000
830.559387	181.600000
830.594055	184.800000
830.628662	180.300000
830.663330	181.900000
830.697998	186.400000
830.732605	180.600000
830.767273	181.300000
830.801941	180.100000
830.836487	186.900000
830.871155	183.200000
830.905762	180.300000
830.940430	177.700000
830.975098	178.100000
831.009644	181.400000
831.044312	185.500000
831.078979	183.400000
831.113525	175.000000
831.148193	182.900000
831.182861	180.600000
831.217407	184.400000
831.252075	191.300000
831.286621	180.200000
831.321289	177.300000
831.355896	181.100000
831.390564	186.000000
831.425110	181.800000
831.459778	184.900000
831.494324	189.900000
831.528931	181.700000
831.563599	185.100000
831.598145	176.500000
831.632751	179.900000
831.667419	180.400000
831.701965	183.000000
831.736572	182.800000
831.771179	177.200000
831.805786	179.200000
831.840393	185.100000
831.874939	175.200000
831.909546	182.900000
831.944153	174.200000
831.978760	180.700000
832.013306	178.500000
832.047913	184.300000
832.082458	189.800000
832.117065	177.500000
832.151672	187.700000
832.186218	182.200000
832.220825	182.900000
832.255432	175.200000
832.289978	179.300000
832.324585	181.500000
832.359192	182.300000
832.393677	180.600000
832.428284	183.200000
832.462830	179.400000
832.497437	180.500000
832.531982	183.200000
832.566589	179.700000
832.601135	181.500000
832.635681	176.300000
832.670227	180.700000
832.704773	186.500000
832.739380	180.700000
832.773926	183.000000
832.808472	178.500000
832.843079	182.200000
832.877563	182.300000
832.912170	179.900000
832.946716	175.300000
832.981201	184.300000
833.015808	183.400000
833.050293	180.800000
833.084839	177.300000
833.119446	180.500000
833.153992	183.100000
833.188477	178.800000
833.223022	179.200000
833.257568	182.600000
833.292114	185.800000
833.326660	188.500000
833.361145	178.900000
833.395691	175.000000
833.430237	180.400000
833.464783	182.100000
833.499329	178.100000
833.533875	177.700000
833.568359	182.500000
833.602905	183.300000
833.637390	184.800000
833.671875	178.000000
833.706421	180.900000
833.740906	177.400000
833.775452	175.800000
833.809998	178.600000
833.844482	186.900000
833.879028	180.400000
833.913513	181.000000
833.947998	182.500000
833.982544	178.900000
834.017090	179.000000
834.051514	173.900000
834.086060	182.100000
834.120544	182.200000
834.155029	182.100000
834.189575	180.100000
834.223999	181.400000
834.258545	182.400000
834.293030	181.600000
834.327515	182.800000
834.362000	178.800000
834.396545	185.100000
834.430969	178.800000
834.465454	185.500000
834.500000	175.300000
834.534424	183.300000
834.568970	174.000000
834.603455	176.900000
834.637878	178.200000
834.672363	182.900000
834.706909	181.800000
834.741333	181.300000
834.775818	176.000000
834.810242	178.500000
834.844727	180.100000
834.879211	182.300000
834.913635	183.200000
834.948181	179.800000
834.982666	181.400000
835.017090	179.400000
835.051575	182.500000
835.086060	178.500000
835.120483	183.300000
835.154907	181.900000
835.189331	180.600000
835.223816	182.400000
835.258301	177.200000
835.292786	176.900000
835.327209	183.900000
835.361694	177.900000
835.396057	179.000000
835.430542	181.100000
835.465027	180.300000
835.499390	177.800000
835.533875	208.500000
835.568359	179.300000
835.602722	177.300000
835.637207	181.000000
835.671692	176.800000
835.706055	195.200000
835.740540	183.000000
835.774902	181.500000
835.809387	182.000000
835.843811	177.000000
835.878235	186.700000
835.912659	177.700000
835.947083	180.200000
835.981506	180.500000
836.015930	177.600000
836.050354	184.900000
836.084778	188.500000
836.119202	183.100000
836.153625	193.900000
836.187988	178.800000
836.222473	179.500000
836.256897	182.200000
836.291260	179.800000
836.325684	183.400000
836.360046	179.900000
836.394470	178.700000
836.428894	186.900000
836.463318	178.200000
836.497681	183.000000
836.532104	186.100000
836.566467	181.900000
836.600891	180.100000
836.635315	185.600000
836.669678	182.800000
836.704102	183.300000
836.738525	183.800000
836.772888	176.200000
836.807251	179.100000
836.841675	182.600000
836.876038	178.100000
836.910461	177.700000
836.944763	183.700000
836.979187	177.400000
837.013611	185.300000
837.047974	176.900000
837.082336	190.300000
837.116699	182.900000
837.151062	182.000000
837.185486	175.800000
837.219849	180.100000
837.254211	184.300000
837.288574	180.900000
837.322937	176.500000
837.357300	175.400000
837.391663	189.500000
837.426086	185.700000
837.460388	181.600000
837.494751	185.500000
837.529114	178.100000
837.563477	187.800000
837.597839	182.300000
837.632141	181.100000
837.666565	178.100000
837.700928	184.800000
837.735229	182.300000
837.769592	184.500000
837.803955	183.200000
837.838257	179.900000
837.872620	179.600000
837.906982	187.800000
837.941284	180.700000
837.975647	184.400000
838.010010	186.600000
838.044312	178.900000
838.078674	180.600000
838.112976	182.100000
838.147339	182.100000
838.181702	181.200000
838.216003	187.900000
838.250366	180.800000
838.284668	183.500000
838.318970	175.100000
838.353333	181.000000
838.387634	180.900000
838.421936	182.200000
838.456299	180.400000
838.490601	186.900000
838.524902	182.700000
838.559265	184.100000
838.593567	184.300000
838.627869	178.400000
838.662170	182.800000
838.696472	178.700000
838.730774	178.800000
838.765137	183.100000
838.799377	172.300000
838.833740	183.100000
838.868042	185.300000
838.902283	177.400000
838.936646	186.100000
838.970947	182.500000
839.005188	186.000000
839.039551	176.600000
839.073792	185.300000
839.108093	180.100000
839.142395	187.700000
839.176697	176.200000
839.210937	182.300000
839.245300	188.600000
839.279541	175.200000
839.313843	180.300000
839.348145	183.100000
839.382385	186.700000
839.416687	185.300000
839.450989	184.100000
839.485229	181.300000
839.519531	178.400000
839.553833	183.800000
839.588013	181.000000
839.622314	182.500000
839.656555	184.600000
839.690857	180.800000
839.725159	177.100000
839.759460	180.800000
839.793640	178.700000
839.827942	179.700000
839.862183	178.600000
839.896423	180.400000
839.930725	191.600000
839.964966	189.100000
839.999207	183.500000
840.033508	186.900000
840.067688	179.200000
840.101990	187.400000
840.136230	179.800000
840.170471	186.900000
840.204712	177.900000
840.238953	179.100000
840.273193	181.400000
840.307434	183.100000
840.341736	179.500000
840.375916	178.800000
840.410217	180.000000
840.444397	185.100000
840.478638	182.500000
840.512878	186.800000
840.547119	181.100000
840.581360	184.300000
840.615601	187.400000
840.649780	191.800000
840.684021	180.200000
840.718262	188.400000
840.752441	187.400000
840.786682	182.400000
840.820862	180.600000
840.855103	188.600000
840.889343	181.300000
840.923584	186.200000
840.957764	183.600000
840.992004	184.600000
841.026184	190.600000
841.060425	181.600000
841.094666	178.700000
841.128845	184.000000
841.163025	182.000000
841.197266	184.100000
841.231445	181.700000
841.265686	184.200000
841.299866	178.900000
841.334045	186.400000
841.368286	181.300000
841.402405	187.500000
841.436646	184.100000
841.470825	179.500000
841.505005	180.800000
841.539185	177.000000
841.573425	180.300000
841.607544	181.000000
841.641785	180.400000
841.675964	178.800000
841.710144	182.500000
841.744324	179.500000
841.778503	181.300000
841.812683	177.900000
841.846863	188.200000
841.881042	185.700000
841.915222	180.300000
841.949402	191.700000
841.983521	177.400000
842.017700	181.100000
842.051880	181.800000
842.086060	183.800000
842.120239	183.100000
842.154419	180.000000
842.188538	182.500000
842.222717	178.700000
842.256897	188.500000
842.291016	181.100000
842.325195	183.200000
842.359375	188.700000
842.393494	188.900000
842.427673	181.900000
842.461853	184.500000
842.495911	188.200000
842.530090	183.700000
842.564209	179.300000
842.598389	183.900000
842.632568	182.900000
842.666626	184.000000
842.700806	179.500000
842.734985	180.800000
842.769043	183.600000
842.803223	181.500000
842.837402	180.800000
842.871460	180.400000
842.905640	190.000000
842.939697	179.500000
842.973877	183.000000
843.007996	186.700000
843.042175	188.800000
843.076233	178.900000
843.110413	183.300000
843.144470	187.900000
843.178589	185.600000
843.212769	179.600000
843.246826	185.100000
843.280945	179.500000
843.315125	182.400000
843.349182	178.300000
843.383301	185.700000
843.417419	191.200000
843.451538	182.900000
843.485657	179.400000
843.519714	182.800000
843.553833	181.800000
843.587952	180.500000
843.622070	178.800000
843.656128	184.500000
843.690247	181.200000
843.724304	183.000000
843.758423	182.700000
843.792542	181.000000
843.826599	182.300000
843.860718	182.200000
843.894836	177.400000
843.928894	183.000000
843.963013	182.600000
843.997070	179.500000
844.031128	177.300000
844.065247	186.900000
844.099304	184.700000
844.133362	184.400000
844.167480	184.100000
844.201599	186.200000
844.235596	182.400000
844.269714	185.300000
844.303711	181.600000
844.337830	178.900000
844.371948	183.500000
844.405945	182.300000
844.440063	178.700000
844.474121	192.600000
844.508118	180.700000
844.542236	182.600000
844.576294	180.600000
844.610352	178.300000
844.644409	180.600000
844.678406	175.600000
844.712524	185.800000
844.746582	186.500000
844.780640	181.700000
844.814636	182.100000
844.848755	191.700000
844.882751	180.500000
844.916809	186.100000
844.950867	184.400000
844.984863	189.000000
845.018921	181.800000
845.052979	180.400000
845.086975	182.400000
845.121033	178.700000
845.155090	179.300000
845.189087	187.900000
845.223145	181.500000
845.257141	185.300000
845.291199	184.100000
845.325256	186.400000
845.359253	182.500000
845.393250	194.000000
845.427307	180.700000
845.461304	184.500000
845.495361	181.100000
845.529358	189.600000
845.563354	181.400000
845.597412	180.000000
845.631409	189.200000
845.665405	188.200000
845.699463	184.200000
845.733459	182.400000
845.767456	189.900000
845.801453	183.000000
845.835449	185.800000
845.869446	186.000000
845.903503	185.300000
845.937439	179.900000
845.971497	186.600000
846.005493	178.100000
846.039429	186.200000
846.073486	191.500000
846.107483	181.000000
846.141418	181.100000
846.175476	183.800000
846.209473	188.400000
846.243408	179.100000
846.277405	183.500000
846.311401	180.800000
846.345337	181.600000
846.379395	186.400000
846.413330	179.500000
846.447327	191.600000
846.481323	179.300000
846.515259	181.200000
846.549255	180.900000
846.583252	184.300000
846.617187	180.500000
846.651184	183.600000
846.685120	180.400000
846.719055	189.300000
846.753052	184.200000
846.786987	187.700000
846.820984	176.900000
846.854980	188.500000
846.888916	178.900000
846.922852	183.800000
846.956848	186.900000
846.990723	181.900000
847.024719	182.400000
847.058716	181.400000
847.092590	186.500000
847.126587	187.200000
847.160522	180.600000
847.194458	186.800000
847.228455	179.700000
847.262390	180.000000
847.296265	180.400000
847.330261	187.300000
847.364136	180.700000
847.398132	181.800000
847.432068	182.500000
847.466003	181.300000
847.499939	181.200000
847.533875	184.700000
847.567749	180.300000
847.601746	182.900000
847.635681	184.600000
847.669556	177.400000
847.703491	187.300000
847.737427	192.800000
847.771301	179.800000
847.805237	185.200000
847.839233	183.600000
847.873108	182.600000
847.907043	182.100000
847.940918	188.100000
847.974854	183.800000
848.008789	185.800000
848.042664	181.700000
848.076538	183.500000
848.110474	182.600000
848.144348	184.100000
848.178284	178.300000
848.212219	183.700000
848.246094	181.300000
848.279968	182.600000
848.313904	184.800000
848.347778	181.800000
848.381653	181.500000
848.415588	180.900000
848.449463	181.400000
848.483337	183.800000
848.517212	189.400000
848.551086	182.200000
848.585022	180.500000
848.618835	190.700000
848.652771	182.200000
848.686646	179.300000
848.720520	189.500000
848.754395	181.000000
848.788330	185.800000
848.822144	184.400000
848.856018	180.800000
848.889954	189.200000
848.923767	180.400000
848.957642	178.900000
848.991577	185.200000
849.025391	181.700000
849.059265	182.300000
849.093079	179.800000
849.126953	180.800000
849.160828	183.700000
849.194641	183.500000
849.228577	180.400000
849.262451	182.000000
849.296265	182.300000
849.330139	180.200000
849.364014	183.600000
849.397827	184.200000
849.431702	183.700000
849.465515	185.600000
849.499329	177.000000
849.533203	178.400000
849.567078	175.300000
849.600891	183.100000
849.634766	181.300000
849.668518	185.800000
849.702393	183.600000
849.736267	178.200000
849.770020	191.000000
849.803894	183.800000
849.837769	184.200000
849.871521	182.500000
849.905396	186.900000
849.939270	179.400000
849.973022	180.900000
850.006897	185.200000
850.040710	185.300000
850.074524	184.500000
850.108337	181.600000
850.142151	185.100000
850.175964	186.100000
850.209778	182.200000
850.243530	175.500000
850.277405	183.900000
850.311218	183.400000
850.344971	179.600000
850.378845	188.800000
850.412659	180.400000
850.446411	184.600000
850.480225	182.100000
850.514038	188.100000
850.547791	185.200000
850.581665	183.400000
850.615417	179.200000
850.649231	183.600000
850.683044	181.300000
850.716858	182.300000
850.750610	183.600000
850.784424	186.400000
850.818176	179.300000
850.851929	182.000000
850.885742	179.400000
850.919495	183.200000
850.953308	188.700000
850.987122	189.500000
851.020874	178.400000
851.054626	178.000000
851.088440	184.600000
851.122192	185.100000
851.156006	183.700000
851.189697	183.000000
851.223511	177.200000
851.257263	186.500000
851.291077	185.400000
851.324829	179.700000
851.358582	182.000000
851.392334	182.000000
851.426086	181.000000
851.459900	188.000000
851.493591	183.900000
851.527344	182.400000
851.561157	183.200000
851.594849	183.800000
851.628662	183.100000
851.662415	188.600000
851.696106	184.500000
851.729858	185.300000
851.763611	179.300000
851.797363	181.900000
851.831116	179.200000
851.864868	184.800000
851.898560	187.300000
851.932312	180.100000
851.966064	185.900000
851.999817	182.000000
852.033569	182.200000
852.067261	186.100000
852.101013	182.100000
852.134766	181.200000
852.168457	176.700000
852.202209	186.100000
852.235901	180.200000
852.269592	183.700000
852.303345	189.000000
852.337036	184.400000
852.370789	183.200000
852.404541	185.800000
852.438171	180.400000
852.471924	183.700000
852.505676	177.800000
852.539307	183.400000
852.573059	181.500000
852.606812	181.900000
852.640442	181.300000
852.674194	187.700000
852.707886	190.700000
852.741577	187.300000
852.775269	179.600000
852.809021	184.100000
852.842651	185.100000
852.876404	188.700000
852.910034	183.700000
852.943787	187.200000
852.977478	184.200000
853.011108	180.900000
853.044861	181.800000
853.078552	189.100000
853.112183	183.900000
853.145874	183.500000
853.179626	175.000000
853.213257	185.100000
853.246948	179.600000
853.280640	190.600000
853.314270	181.400000
853.347961	189.100000
853.381653	184.600000
853.415283	188.700000
853.448975	179.500000
853.482605	183.700000
853.516296	182.600000
853.549988	180.800000
853.583618	184.900000
853.617310	186.300000
853.651001	183.000000
853.684631	180.800000
853.718323	179.500000
853.751953	189.500000
853.785583	176.400000
853.819275	187.000000
853.852966	185.000000
853.886536	178.500000
853.920227	178.300000
853.953918	185.700000
853.987488	182.400000
854.021179	187.100000
854.054749	189.900000
854.088440	185.000000
854.122131	180.200000
854.155701	185.200000
854.189331	180.000000
854.223022	185.600000
854.256592	183.700000
854.290283	180.100000
854.323914	185.100000
854.357483	184.100000
854.391174	185.100000
854.424744	188.700000
854.458374	184.000000
854.492065	192.700000
854.525696	184.700000
854.559265	186.800000
854.592896	193.700000
854.626465	182.500000
854.660095	182.200000
854.693787	184.400000
854.727356	182.600000
854.760986	185.300000
854.794617	186.000000
854.828186	181.500000
854.861816	186.200000
854.895447	183.500000
854.929016	184.100000
854.962585	185.000000
854.996155	192.000000
855.029785	184.700000
855.063416	184.900000
855.097046	185.600000
855.130615	179.800000
855.164185	186.200000
855.197754	183.700000
855.231384	184.900000
855.264954	182.300000
855.298523	185.100000
855.332153	184.900000
855.365723	187.300000
855.399292	180.900000
855.432922	181.000000
855.466492	185.700000
855.500061	178.800000
855.533630	180.800000
855.567200	184.500000
855.600769	187.100000
855.634338	187.600000
855.667969	183.900000
855.701477	180.100000
855.735046	180.100000
855.768616	177.000000
855.802185	184.800000
855.835754	194.200000
855.869324	177.200000
855.902893	182.400000
855.936401	187.600000
855.969971	182.000000
856.003540	178.700000
856.037109	185.600000
856.070618	181.200000
856.104187	178.500000
856.137695	179.500000
856.171265	176.800000
856.204834	183.300000
856.238403	186.000000
856.271912	180.300000
856.305481	184.600000
856.338989	177.000000
856.372559	185.500000
856.406128	184.200000
856.439636	186.500000
856.473145	180.000000
856.506653	188.800000
856.540222	180.800000
856.573792	187.900000
856.607300	185.800000
856.640808	179.900000
856.674377	182.700000
856.707825	216.700000
856.741394	186.700000
856.774902	181.500000
856.808472	177.300000
856.841980	186.800000
856.875488	187.100000
856.908936	178.400000
856.942505	181.100000
856.976013	182.500000
857.009521	179.300000
857.043030	183.700000
857.076477	180.400000
857.110046	189.200000
857.143555	182.000000
857.177063	186.100000
857.210571	182.200000
857.244080	178.800000
857.277527	183.300000
857.311035	184.000000
857.344543	188.100000
857.378052	181.900000
857.411499	187.800000
857.445068	188.500000
857.478516	182.900000
857.512024	178.600000
857.545532	181.900000
857.578979	183.400000
857.612427	184.100000
857.645874	180.300000
857.679382	184.700000
857.712891	187.100000
857.746399	180.900000
857.779846	185.700000
857.813354	187.700000
857.846741	181.400000
857.880249	179.900000
857.913757	184.800000
857.947266	183.500000
857.980652	184.900000
858.014160	182.100000
858.047546	180.800000
858.081055	183.300000
858.114563	192.000000
858.147949	179.000000
858.181458	184.000000
858.214844	182.700000
858.248352	176.300000
858.281799	185.900000
858.315308	190.900000
858.348694	186.000000
858.382141	187.800000
858.415588	187.100000
858.449036	184.400000
858.482483	184.800000
858.515930	179.600000
858.549377	183.800000
858.582825	187.300000
858.616211	186.300000
858.649658	185.000000
858.683105	181.000000
858.716553	181.100000
858.750000	179.600000
858.783386	181.000000
858.816833	178.800000
858.850281	183.400000
858.883728	183.800000
858.917114	184.400000
858.950562	189.100000
858.983948	187.700000
859.017395	187.000000
859.050781	182.500000
859.084167	178.500000
859.117615	178.600000
859.151062	184.700000
859.184448	178.900000
859.217834	181.700000
859.251282	182.100000
859.284668	178.700000
859.318054	176.900000
859.351440	181.000000
859.384888	189.000000
859.418274	177.100000
859.451721	177.600000
859.485046	184.400000
859.518494	184.500000
859.551819	179.100000
859.585266	185.400000
859.618652	187.500000
859.652039	179.300000
859.685425	178.600000
859.718811	180.700000
859.752197	174.500000
859.785583	188.700000
859.819031	188.100000
859.852356	185.700000
859.885742	178.400000
859.919067	183.600000
859.952454	181.200000
859.985901	187.600000
860.019287	181.400000
860.052612	0.000000
860.085999	0.000000
860.119324	0.000000
860.152710	0.000000
860.186096	0.000000
860.219421	0.000000
860.252808	0.000000
860.286133	0.000000
860.319519	0.000000
860.352905	0.000000
860.386292	0.000000
860.419617	0.000000
860.452942	0.000000
860.486267	0.000000
860.519653	0.000000
860.553040	0.000000
860.586365	0.000000
860.619690	0.000000
860.653076	0.000000
860.686340	0.000000
860.719727	0.000000
860.753113	0.000000
860.786377	0.000000
860.819763	0.000000
860.853027	0.000000
860.886414	0.000000
860.919739	0.000000
860.953125	0.000000
860.986389	0.000000
861.019714	0.000000
861.053040	0.000000
861.086365	0.000000
861.119690	0.000000
861.153076	0.000000
861.186340	0.000000
861.219666	0.000000
861.252930	0.000000
861.286316	0.000000
861.319641	0.000000
861.352905	0.000000
861.386230	0.000000
861.419495	0.000000
861.452820	0.000000
861.486145	0.000000
861.519470	0.000000
861.552734	0.000000
861.586060	0.000000
861.619324	0.000000
861.652649	0.000000
861.685974	0.000000
861.719238	0.000000
861.752563	0.000000
861.785828	0.000000
861.819092	0.000000
861.852417	0.000000
861.885742	0.000000
861.918945	0.000000
861.952271	0.000000
861.985535	0.000000
862.018799	0.000000
862.052124	0.000000
862.085449	0.000000
862.118652	0.000000
862.151978	0.000000
862.185181	0.000000
862.218506	0.000000
862.251770	0.000000
862.285034	0.000000
862.318298	0.000000
862.351562	0.000000
862.384827	0.000000
862.418091	0.000000
862.451355	0.000000
862.484619	0.000000
862.517883	0.000000
862.551086	0.000000
862.584351	0.000000
862.617676	0.000000
862.650940	0.000000
862.684143	0.000000
862.717407	0.000000
862.750610	0.000000
862.783875	0.000000
862.817139	0.000000
862.850342	0.000000
862.883606	0.000000
862.916870	0.000000
862.950073	0.000000
862.983337	0.000000
863.016602	0.000000
863.049805	0.000000
863.083069	0.000000
863.116211	0.000000
863.149475	0.000000
863.182739	0.000000
863.216003	0.000000
863.249146	0.000000
863.282410	0.000000
863.315613	0.000000
863.348816	0.000000
863.382080	0.000000
863.415222	0.000000
863.448486	0.000000
863.481689	0.000000
863.514893	0.000000
863.548157	0.000000
863.581360	0.000000
863.614502	0.000000
863.647766	0.000000
863.680908	0.000000
863.714172	0.000000
863.747375	0.000000
863.780579	0.000000
863.813721	0.000000
863.846985	0.000000
863.880127	0.000000
863.913330	0.000000
863.946533	0.000000
863.979675	0.000000
864.012939	0.000000
